[{"rt":3025,"stimulus":"<p>Welcome!<br> Please choose your language to start the experiment in the chosen language.</p><p>Willkommen!<br> Bitte wählen Sie eine Sprache um das Experiment in der ausgewählten Sprache zu starten</p>","button_pressed":"1","trial_type":"html-button-response","trial_index":0,"time_elapsed":3033,"internal_node_id":"0.0-0.0","subject":"r6vg0soyf6xlcpt"},{"view_history":"[{\"page_index\":0,\"viewing_time\":691},{\"page_index\":1,\"viewing_time\":423},{\"page_index\":2,\"viewing_time\":625},{\"page_index\":3,\"viewing_time\":447}]","rt":2187,"trial_type":"instructions","trial_index":1,"time_elapsed":5221,"internal_node_id":"0.0-1.0-0.0","subject":"r6vg0soyf6xlcpt"},{"rt":703,"stimulus":"<p>Bereit?</p>","button_pressed":"0","trial_type":"html-button-response","trial_index":2,"time_elapsed":5926,"internal_node_id":"0.0-3.0","subject":"r6vg0soyf6xlcpt"},{"rt":null,"stimulus":"<div style=\"font-size:60px;\">+</div>","key_press":null,"trial_type":"html-keyboard-response","trial_index":3,"time_elapsed":7934,"internal_node_id":"0.0-4.0","subject":"r6vg0soyf6xlcpt"},{"trial_type":"training","trial_index":4,"time_elapsed":11179,"internal_node_id":"0.0-5.0","subject":"r6vg0soyf6xlcpt"},{"rt":987,"stimulus":"<p>Welche Sequenz haben Sie als natürlicher empfunden?</p>","button_pressed":"0","trial_type":"html-button-response","trial_index":5,"time_elapsed":12166,"internal_node_id":"0.0-6.0","subject":"r6vg0soyf6xlcpt"},{"rt":547,"stimulus":"<p>Das Experiment startet nun.</p><p> Bitte drücken Sie den Knopf, wenn Sie bereit sind.</p>","button_pressed":"0","trial_type":"html-button-response","trial_index":6,"time_elapsed":12714,"internal_node_id":"0.0-7.0","subject":"r6vg0soyf6xlcpt"},{"rt":581,"stimulus":"<p>Bereit?</p>","button_pressed":"0","trial_type":"html-button-response","trial_index":7,"time_elapsed":13297,"internal_node_id":"0.0-8.0-0.0","subject":"r6vg0soyf6xlcpt"},{"rt":null,"stimulus":"<div style=\"font-size:60px;\">+</div>","key_press":null,"trial_type":"html-keyboard-response","trial_index":8,"time_elapsed":15299,"internal_node_id":"0.0-8.0-1.0","subject":"r6vg0soyf6xlcpt"},{"trial_type":"turing-test","trial_index":9,"time_elapsed":18975,"internal_node_id":"0.0-8.0-2.0","subject":"r6vg0soyf6xlcpt"},{"rt":852,"stimulus":"<p>Welche Sequenz haben Sie als natürlicher empfunden?</p>","button_pressed":"1","test_part":"response","test_stimulus":{"position":1,"left":"bvh/vr_prediction_models/model(vcgpdm)-dataset(return-bottle-hold)-mode(ELBO)-parts(1)-dyn(20)-lvm(30)-hold(2)/final-lines.txt","right":"bvh/return-bottle-hold-training2-lines.txt","att_check":false},"trial_type":"html-button-response","trial_index":10,"time_elapsed":19833,"internal_node_id":"0.0-8.0-3.0","subject":"r6vg0soyf6xlcpt"},{"rt":519,"stimulus":"<p>Bereit?</p>","button_pressed":"0","trial_type":"html-button-response","trial_index":11,"time_elapsed":20355,"internal_node_id":"0.0-8.0-0.1","subject":"r6vg0soyf6xlcpt"},{"rt":null,"stimulus":"<div style=\"font-size:60px;\">+</div>","key_press":null,"trial_type":"html-keyboard-response","trial_index":12,"time_elapsed":22359,"internal_node_id":"0.0-8.0-1.1","subject":"r6vg0soyf6xlcpt"},{"trial_type":"turing-test","trial_index":13,"time_elapsed":28892,"internal_node_id":"0.0-8.0-2.1","subject":"r6vg0soyf6xlcpt"},{"rt":822,"stimulus":"<p>Welche Sequenz haben Sie als natürlicher empfunden?</p>","button_pressed":"1","test_part":"response","test_stimulus":{"position":1,"left":"bvh/vr_prediction_models/model(dmp)-dataset(return-bottle)-npsi(90)-hold(2)/final-lines.txt","right":"bvh/return-bottle-training2-lines.txt","att_check":true},"trial_type":"html-button-response","trial_index":14,"time_elapsed":29717,"internal_node_id":"0.0-8.0-3.1","subject":"r6vg0soyf6xlcpt"},{"rt":613,"stimulus":"<p>Bereit?</p>","button_pressed":"0","trial_type":"html-button-response","trial_index":15,"time_elapsed":30333,"internal_node_id":"0.0-8.0-0.2","subject":"r6vg0soyf6xlcpt"},{"rt":null,"stimulus":"<div style=\"font-size:60px;\">+</div>","key_press":null,"trial_type":"html-keyboard-response","trial_index":16,"time_elapsed":32335,"internal_node_id":"0.0-8.0-1.2","subject":"r6vg0soyf6xlcpt"},{"trial_type":"turing-test","trial_index":17,"time_elapsed":37757,"internal_node_id":"0.0-8.0-2.2","subject":"r6vg0soyf6xlcpt"},{"rt":1167,"stimulus":"<p>Welche Sequenz haben Sie als natürlicher empfunden?</p>","button_pressed":"1","test_part":"response","test_stimulus":{"position":1,"left":"bvh/vr_prediction_models/model(dmp)-dataset(pass-bottle)-npsi(70)-hold(1)/final-lines.txt","right":"bvh/pass-bottle-training1-lines.txt","att_check":false},"trial_type":"html-button-response","trial_index":18,"time_elapsed":38927,"internal_node_id":"0.0-8.0-3.2","subject":"r6vg0soyf6xlcpt"},{"rt":580,"stimulus":"<p>Bereit?</p>","button_pressed":"0","trial_type":"html-button-response","trial_index":19,"time_elapsed":39509,"internal_node_id":"0.0-8.0-0.3","subject":"r6vg0soyf6xlcpt"},{"rt":null,"stimulus":"<div style=\"font-size:60px;\">+</div>","key_press":null,"trial_type":"html-keyboard-response","trial_index":20,"time_elapsed":41512,"internal_node_id":"0.0-8.0-1.3","subject":"r6vg0soyf6xlcpt"},{"trial_type":"turing-test","trial_index":21,"time_elapsed":45322,"internal_node_id":"0.0-8.0-2.3","subject":"r6vg0soyf6xlcpt"},{"rt":855,"stimulus":"<p>Welche Sequenz haben Sie als natürlicher empfunden?</p>","button_pressed":"1","test_part":"response","test_stimulus":{"position":1,"left":"bvh/vr_prediction_models/model(vcgpdm)-dataset(return-bottle-hold)-mode(ELBO)-parts(1)-dyn(10)-lvm(25)-hold(3)/final-lines.txt","right":"bvh/return-bottle-hold-training3-lines.txt","att_check":false},"trial_type":"html-button-response","trial_index":22,"time_elapsed":46179,"internal_node_id":"0.0-8.0-3.3","subject":"r6vg0soyf6xlcpt"},{"rt":547,"stimulus":"<p>Bereit?</p>","button_pressed":"0","trial_type":"html-button-response","trial_index":23,"time_elapsed":46729,"internal_node_id":"0.0-8.0-0.4","subject":"r6vg0soyf6xlcpt"},{"rt":null,"stimulus":"<div style=\"font-size:60px;\">+</div>","key_press":null,"trial_type":"html-keyboard-response","trial_index":24,"time_elapsed":48731,"internal_node_id":"0.0-8.0-1.4","subject":"r6vg0soyf6xlcpt"},{"trial_type":"turing-test","trial_index":25,"time_elapsed":52167,"internal_node_id":"0.0-8.0-2.4","subject":"r6vg0soyf6xlcpt"},{"rt":935,"stimulus":"<p>Welche Sequenz haben Sie als natürlicher empfunden?</p>","button_pressed":"1","test_part":"response","test_stimulus":{"position":0,"left":"bvh/pass-bottle-hold-training0-lines.txt","right":"bvh/vr_prediction_models/model(vcgpdm)-dataset(pass-bottle-hold)-mode(ELBO)-parts(1)-dyn(10)-lvm(5)-hold(0)/final-lines.txt","att_check":false},"trial_type":"html-button-response","trial_index":26,"time_elapsed":53105,"internal_node_id":"0.0-8.0-3.4","subject":"r6vg0soyf6xlcpt"},{"rt":518,"stimulus":"<p>Bereit?</p>","button_pressed":"0","trial_type":"html-button-response","trial_index":27,"time_elapsed":53626,"internal_node_id":"0.0-8.0-0.5","subject":"r6vg0soyf6xlcpt"},{"rt":null,"stimulus":"<div style=\"font-size:60px;\">+</div>","key_press":null,"trial_type":"html-keyboard-response","trial_index":28,"time_elapsed":55630,"internal_node_id":"0.0-8.0-1.5","subject":"r6vg0soyf6xlcpt"},{"trial_type":"turing-test","trial_index":29,"time_elapsed":59363,"internal_node_id":"0.0-8.0-2.5","subject":"r6vg0soyf6xlcpt"},{"rt":867,"stimulus":"<p>Welche Sequenz haben Sie als natürlicher empfunden?</p>","button_pressed":"1","test_part":"response","test_stimulus":{"position":0,"left":"bvh/return-bottle-hold-training3-lines.txt","right":"bvh/vr_prediction_models/model(vcgpdm)-dataset(return-bottle-hold)-mode(ELBO)-parts(1)-dyn(30)-lvm(30)-hold(3)/final-lines.txt","att_check":false},"trial_type":"html-button-response","trial_index":30,"time_elapsed":60233,"internal_node_id":"0.0-8.0-3.5","subject":"r6vg0soyf6xlcpt"},{"rt":559,"stimulus":"<p>Bereit?</p>","button_pressed":"0","trial_type":"html-button-response","trial_index":31,"time_elapsed":60794,"internal_node_id":"0.0-8.0-0.6","subject":"r6vg0soyf6xlcpt"},{"rt":null,"stimulus":"<div style=\"font-size:60px;\">+</div>","key_press":null,"trial_type":"html-keyboard-response","trial_index":32,"time_elapsed":62797,"internal_node_id":"0.0-8.0-1.6","subject":"r6vg0soyf6xlcpt"},{"trial_type":"turing-test","trial_index":33,"time_elapsed":66132,"internal_node_id":"0.0-8.0-2.6","subject":"r6vg0soyf6xlcpt"},{"rt":804,"stimulus":"<p>Welche Sequenz haben Sie als natürlicher empfunden?</p>","button_pressed":"0","test_part":"response","test_stimulus":{"position":0,"left":"bvh/pass-bottle-hold-training2-lines.txt","right":"bvh/vr_prediction_models/model(dmp)-dataset(pass-bottle-hold)-npsi(90)-hold(2)/final-lines.txt","att_check":false},"trial_type":"html-button-response","trial_index":34,"time_elapsed":66939,"internal_node_id":"0.0-8.0-3.6","subject":"r6vg0soyf6xlcpt"},{"rt":587,"stimulus":"<p>Bereit?</p>","button_pressed":"0","trial_type":"html-button-response","trial_index":35,"time_elapsed":67527,"internal_node_id":"0.0-8.0-0.7","subject":"r6vg0soyf6xlcpt"},{"rt":null,"stimulus":"<div style=\"font-size:60px;\">+</div>","key_press":null,"trial_type":"html-keyboard-response","trial_index":36,"time_elapsed":69529,"internal_node_id":"0.0-8.0-1.7","subject":"r6vg0soyf6xlcpt"},{"trial_type":"turing-test","trial_index":37,"time_elapsed":75005,"internal_node_id":"0.0-8.0-2.7","subject":"r6vg0soyf6xlcpt"},{"rt":938,"stimulus":"<p>Welche Sequenz haben Sie als natürlicher empfunden?</p>","button_pressed":"0","test_part":"response","test_stimulus":{"position":0,"left":"bvh/return-bottle-training0-lines.txt","right":"bvh/vr_prediction_models/model(vcgpdm)-dataset(return-bottle)-mode(ELBO)-parts(3)-dyn(25)-lvm(30)-hold(0)/final-lines.txt","att_check":false},"trial_type":"html-button-response","trial_index":38,"time_elapsed":75945,"internal_node_id":"0.0-8.0-3.7","subject":"r6vg0soyf6xlcpt"},{"rt":552,"stimulus":"<p>Bereit?</p>","button_pressed":"0","trial_type":"html-button-response","trial_index":39,"time_elapsed":76498,"internal_node_id":"0.0-8.0-0.8","subject":"r6vg0soyf6xlcpt"},{"rt":null,"stimulus":"<div style=\"font-size:60px;\">+</div>","key_press":null,"trial_type":"html-keyboard-response","trial_index":40,"time_elapsed":78505,"internal_node_id":"0.0-8.0-1.8","subject":"r6vg0soyf6xlcpt"},{"trial_type":"turing-test","trial_index":41,"time_elapsed":81991,"internal_node_id":"0.0-8.0-2.8","subject":"r6vg0soyf6xlcpt"},{"rt":1233,"stimulus":"<p>Welche Sequenz haben Sie als natürlicher empfunden?</p>","button_pressed":"1","test_part":"response","test_stimulus":{"position":0,"left":"bvh/pass-bottle-hold-training2-lines.txt","right":"bvh/vr_prediction_models/model(vcgpdm)-dataset(pass-bottle-hold)-mode(MAP)-parts(3)-hold(2)/final-lines.txt","att_check":false},"trial_type":"html-button-response","trial_index":42,"time_elapsed":83227,"internal_node_id":"0.0-8.0-3.8","subject":"r6vg0soyf6xlcpt"},{"rt":549,"stimulus":"<p>Bereit?</p>","button_pressed":"0","trial_type":"html-button-response","trial_index":43,"time_elapsed":83779,"internal_node_id":"0.0-8.0-0.9","subject":"r6vg0soyf6xlcpt"},{"rt":null,"stimulus":"<div style=\"font-size:60px;\">+</div>","key_press":null,"trial_type":"html-keyboard-response","trial_index":44,"time_elapsed":85780,"internal_node_id":"0.0-8.0-1.9","subject":"r6vg0soyf6xlcpt"},{"trial_type":"turing-test","trial_index":45,"time_elapsed":89324,"internal_node_id":"0.0-8.0-2.9","subject":"r6vg0soyf6xlcpt"},{"rt":797,"stimulus":"<p>Welche Sequenz haben Sie als natürlicher empfunden?</p>","button_pressed":"1","test_part":"response","test_stimulus":{"position":1,"left":"bvh/vr_prediction_models/model(vcgpdm)-dataset(return-bottle-hold)-mode(ELBO)-parts(1)-dyn(10)-lvm(30)-hold(3)/final-lines.txt","right":"bvh/return-bottle-hold-training3-lines.txt","att_check":false},"trial_type":"html-button-response","trial_index":46,"time_elapsed":90124,"internal_node_id":"0.0-8.0-3.9","subject":"r6vg0soyf6xlcpt"},{"rt":582,"stimulus":"<p>Bereit?</p>","button_pressed":"0","trial_type":"html-button-response","trial_index":47,"time_elapsed":90708,"internal_node_id":"0.0-8.0-0.10","subject":"r6vg0soyf6xlcpt"},{"rt":null,"stimulus":"<div style=\"font-size:60px;\">+</div>","key_press":null,"trial_type":"html-keyboard-response","trial_index":48,"time_elapsed":92714,"internal_node_id":"0.0-8.0-1.10","subject":"r6vg0soyf6xlcpt"},{"trial_type":"turing-test","trial_index":49,"time_elapsed":99380,"internal_node_id":"0.0-8.0-2.10","subject":"r6vg0soyf6xlcpt"},{"rt":1069,"stimulus":"<p>Welche Sequenz haben Sie als natürlicher empfunden?</p>","button_pressed":"0","test_part":"response","test_stimulus":{"position":0,"left":"bvh/return-bottle-training2-lines.txt","right":"bvh/vr_prediction_models/model(dmp)-dataset(return-bottle)-npsi(50)-hold(2)/final-lines.txt","att_check":false},"trial_type":"html-button-response","trial_index":50,"time_elapsed":100452,"internal_node_id":"0.0-8.0-3.10","subject":"r6vg0soyf6xlcpt"},{"rt":663,"stimulus":"<p>Bereit?</p>","button_pressed":"0","trial_type":"html-button-response","trial_index":51,"time_elapsed":101116,"internal_node_id":"0.0-8.0-0.11","subject":"r6vg0soyf6xlcpt"},{"rt":null,"stimulus":"<div style=\"font-size:60px;\">+</div>","key_press":null,"trial_type":"html-keyboard-response","trial_index":52,"time_elapsed":103121,"internal_node_id":"0.0-8.0-1.11","subject":"r6vg0soyf6xlcpt"},{"trial_type":"turing-test","trial_index":53,"time_elapsed":106446,"internal_node_id":"0.0-8.0-2.11","subject":"r6vg0soyf6xlcpt"},{"rt":1155,"stimulus":"<p>Welche Sequenz haben Sie als natürlicher empfunden?</p>","button_pressed":"0","test_part":"response","test_stimulus":{"position":1,"left":"bvh/vr_prediction_models/model(dmp)-dataset(pass-bottle-hold)-npsi(20)-hold(2)/final-lines.txt","right":"bvh/pass-bottle-hold-training2-lines.txt","att_check":false},"trial_type":"html-button-response","trial_index":54,"time_elapsed":107605,"internal_node_id":"0.0-8.0-3.11","subject":"r6vg0soyf6xlcpt"},{"rt":452,"stimulus":"<p>Bereit?</p>","button_pressed":"0","trial_type":"html-button-response","trial_index":55,"time_elapsed":108059,"internal_node_id":"0.0-8.0-0.12","subject":"r6vg0soyf6xlcpt"},{"rt":null,"stimulus":"<div style=\"font-size:60px;\">+</div>","key_press":null,"trial_type":"html-keyboard-response","trial_index":56,"time_elapsed":110064,"internal_node_id":"0.0-8.0-1.12","subject":"r6vg0soyf6xlcpt"},{"trial_type":"turing-test","trial_index":57,"time_elapsed":115465,"internal_node_id":"0.0-8.0-2.12","subject":"r6vg0soyf6xlcpt"},{"rt":941,"stimulus":"<p>Welche Sequenz haben Sie als natürlicher empfunden?</p>","button_pressed":"1","test_part":"response","test_stimulus":{"position":1,"left":"bvh/vr_prediction_models/model(dmp)-dataset(return-bottle)-npsi(20)-hold(0)/final-lines.txt","right":"bvh/return-bottle-training0-lines.txt","att_check":false},"trial_type":"html-button-response","trial_index":58,"time_elapsed":116409,"internal_node_id":"0.0-8.0-3.12","subject":"r6vg0soyf6xlcpt"},{"rt":596,"stimulus":"<p>Bereit?</p>","button_pressed":"0","trial_type":"html-button-response","trial_index":59,"time_elapsed":117007,"internal_node_id":"0.0-8.0-0.13","subject":"r6vg0soyf6xlcpt"},{"rt":null,"stimulus":"<div style=\"font-size:60px;\">+</div>","key_press":null,"trial_type":"html-keyboard-response","trial_index":60,"time_elapsed":119009,"internal_node_id":"0.0-8.0-1.13","subject":"r6vg0soyf6xlcpt"},{"trial_type":"turing-test","trial_index":61,"time_elapsed":122614,"internal_node_id":"0.0-8.0-2.13","subject":"r6vg0soyf6xlcpt"},{"rt":1357,"stimulus":"<p>Welche Sequenz haben Sie als natürlicher empfunden?</p>","button_pressed":"1","test_part":"response","test_stimulus":{"position":0,"left":"bvh/pass-bottle-hold-training4-lines.txt","right":"bvh/vr_prediction_models/model(tmp)-dataset(pass-bottle-hold)-numprim(15)-hold(4)/final-lines.txt","att_check":false},"trial_type":"html-button-response","trial_index":62,"time_elapsed":123973,"internal_node_id":"0.0-8.0-3.13","subject":"r6vg0soyf6xlcpt"},{"rt":560,"stimulus":"<p>Bereit?</p>","button_pressed":"0","trial_type":"html-button-response","trial_index":63,"time_elapsed":124534,"internal_node_id":"0.0-8.0-0.14","subject":"r6vg0soyf6xlcpt"},{"rt":null,"stimulus":"<div style=\"font-size:60px;\">+</div>","key_press":null,"trial_type":"html-keyboard-response","trial_index":64,"time_elapsed":126540,"internal_node_id":"0.0-8.0-1.14","subject":"r6vg0soyf6xlcpt"},{"trial_type":"turing-test","trial_index":65,"time_elapsed":132088,"internal_node_id":"0.0-8.0-2.14","subject":"r6vg0soyf6xlcpt"},{"rt":902,"stimulus":"<p>Welche Sequenz haben Sie als natürlicher empfunden?</p>","button_pressed":"1","test_part":"response","test_stimulus":{"position":1,"left":"bvh/vr_prediction_models/model(vcgpdm)-dataset(pass-bottle)-mode(ELBO)-parts(1)-dyn(30)-lvm(35)-hold(1)/final-lines.txt","right":"bvh/pass-bottle-training1-lines.txt","att_check":false},"trial_type":"html-button-response","trial_index":66,"time_elapsed":132992,"internal_node_id":"0.0-8.0-3.14","subject":"r6vg0soyf6xlcpt"},{"rt":535,"stimulus":"<p>Bereit?</p>","button_pressed":"0","trial_type":"html-button-response","trial_index":67,"time_elapsed":133531,"internal_node_id":"0.0-8.0-0.15","subject":"r6vg0soyf6xlcpt"},{"rt":null,"stimulus":"<div style=\"font-size:60px;\">+</div>","key_press":null,"trial_type":"html-keyboard-response","trial_index":68,"time_elapsed":135537,"internal_node_id":"0.0-8.0-1.15","subject":"r6vg0soyf6xlcpt"},{"trial_type":"turing-test","trial_index":69,"time_elapsed":139308,"internal_node_id":"0.0-8.0-2.15","subject":"r6vg0soyf6xlcpt"},{"rt":906,"stimulus":"<p>Welche Sequenz haben Sie als natürlicher empfunden?</p>","button_pressed":"0","test_part":"response","test_stimulus":{"position":0,"left":"bvh/return-bottle-hold-training3-lines.txt","right":"bvh/vr_prediction_models/model(vcgpdm)-dataset(return-bottle-hold)-mode(ELBO)-parts(1)-dyn(35)-lvm(10)-hold(3)/final-lines.txt","att_check":false},"trial_type":"html-button-response","trial_index":70,"time_elapsed":140217,"internal_node_id":"0.0-8.0-3.15","subject":"r6vg0soyf6xlcpt"},{"rt":674,"stimulus":"<p>Bereit?</p>","button_pressed":"0","trial_type":"html-button-response","trial_index":71,"time_elapsed":140894,"internal_node_id":"0.0-8.0-0.16","subject":"r6vg0soyf6xlcpt"},{"rt":null,"stimulus":"<div style=\"font-size:60px;\">+</div>","key_press":null,"trial_type":"html-keyboard-response","trial_index":72,"time_elapsed":142899,"internal_node_id":"0.0-8.0-1.16","subject":"r6vg0soyf6xlcpt"},{"trial_type":"turing-test","trial_index":73,"time_elapsed":148156,"internal_node_id":"0.0-8.0-2.16","subject":"r6vg0soyf6xlcpt"},{"rt":920,"stimulus":"<p>Welche Sequenz haben Sie als natürlicher empfunden?</p>","button_pressed":"0","test_part":"response","test_stimulus":{"position":0,"left":"bvh/return-bottle-hold-training0-lines.txt","right":"bvh/vr_prediction_models/model(vcgpdm)-dataset(return-bottle-hold)-mode(ELBO)-parts(1)-dyn(20)-lvm(20)-hold(0)/final-lines.txt","att_check":false},"trial_type":"html-button-response","trial_index":74,"time_elapsed":149079,"internal_node_id":"0.0-8.0-3.16","subject":"r6vg0soyf6xlcpt"},{"rt":597,"stimulus":"<p>Bereit?</p>","button_pressed":"0","trial_type":"html-button-response","trial_index":75,"time_elapsed":149680,"internal_node_id":"0.0-8.0-0.17","subject":"r6vg0soyf6xlcpt"},{"rt":null,"stimulus":"<div style=\"font-size:60px;\">+</div>","key_press":null,"trial_type":"html-keyboard-response","trial_index":76,"time_elapsed":151683,"internal_node_id":"0.0-8.0-1.17","subject":"r6vg0soyf6xlcpt"},{"trial_type":"turing-test","trial_index":77,"time_elapsed":158398,"internal_node_id":"0.0-8.0-2.17","subject":"r6vg0soyf6xlcpt"},{"rt":1076,"stimulus":"<p>Welche Sequenz haben Sie als natürlicher empfunden?</p>","button_pressed":"1","test_part":"response","test_stimulus":{"position":1,"left":"bvh/vr_prediction_models/model(vcgpdm)-dataset(return-bottle)-mode(ELBO)-parts(1)-dyn(35)-lvm(10)-hold(2)/final-lines.txt","right":"bvh/return-bottle-training2-lines.txt","att_check":false},"trial_type":"html-button-response","trial_index":78,"time_elapsed":159476,"internal_node_id":"0.0-8.0-3.17","subject":"r6vg0soyf6xlcpt"},{"rt":318,"stimulus":"<p>Bereit?</p>","button_pressed":"0","trial_type":"html-button-response","trial_index":79,"time_elapsed":159797,"internal_node_id":"0.0-8.0-0.18","subject":"r6vg0soyf6xlcpt"},{"rt":null,"stimulus":"<div style=\"font-size:60px;\">+</div>","key_press":null,"trial_type":"html-keyboard-response","trial_index":80,"time_elapsed":161800,"internal_node_id":"0.0-8.0-1.18","subject":"r6vg0soyf6xlcpt"},{"trial_type":"turing-test","trial_index":81,"time_elapsed":167654,"internal_node_id":"0.0-8.0-2.18","subject":"r6vg0soyf6xlcpt"},{"rt":1159,"stimulus":"<p>Welche Sequenz haben Sie als natürlicher empfunden?</p>","button_pressed":"0","test_part":"response","test_stimulus":{"position":0,"left":"bvh/return-bottle-training4-lines.txt","right":"bvh/vr_prediction_models/model(vcgpdm)-dataset(return-bottle)-mode(ELBO)-parts(3)-dyn(15)-lvm(30)-hold(4)/final-lines.txt","att_check":false},"trial_type":"html-button-response","trial_index":82,"time_elapsed":168815,"internal_node_id":"0.0-8.0-3.18","subject":"r6vg0soyf6xlcpt"},{"rt":549,"stimulus":"<p>Bereit?</p>","button_pressed":"0","trial_type":"html-button-response","trial_index":83,"time_elapsed":169367,"internal_node_id":"0.0-8.0-0.19","subject":"r6vg0soyf6xlcpt"},{"rt":null,"stimulus":"<div style=\"font-size:60px;\">+</div>","key_press":null,"trial_type":"html-keyboard-response","trial_index":84,"time_elapsed":171371,"internal_node_id":"0.0-8.0-1.19","subject":"r6vg0soyf6xlcpt"},{"trial_type":"turing-test","trial_index":85,"time_elapsed":174850,"internal_node_id":"0.0-8.0-2.19","subject":"r6vg0soyf6xlcpt"},{"rt":965,"stimulus":"<p>Welche Sequenz haben Sie als natürlicher empfunden?</p>","button_pressed":"1","test_part":"response","test_stimulus":{"position":1,"left":"bvh/vr_prediction_models/model(vcgpdm)-dataset(pass-bottle-hold)-mode(ELBO)-parts(3)-dyn(20)-lvm(35)-hold(1)/final-lines.txt","right":"bvh/pass-bottle-hold-training1-lines.txt","att_check":false},"trial_type":"html-button-response","trial_index":86,"time_elapsed":175817,"internal_node_id":"0.0-8.0-3.19","subject":"r6vg0soyf6xlcpt"},{"rt":552,"stimulus":"<p>Bereit?</p>","button_pressed":"0","trial_type":"html-button-response","trial_index":87,"time_elapsed":176371,"internal_node_id":"0.0-8.0-0.20","subject":"r6vg0soyf6xlcpt"},{"rt":null,"stimulus":"<div style=\"font-size:60px;\">+</div>","key_press":null,"trial_type":"html-keyboard-response","trial_index":88,"time_elapsed":178372,"internal_node_id":"0.0-8.0-1.20","subject":"r6vg0soyf6xlcpt"},{"trial_type":"turing-test","trial_index":89,"time_elapsed":183614,"internal_node_id":"0.0-8.0-2.20","subject":"r6vg0soyf6xlcpt"},{"rt":867,"stimulus":"<p>Welche Sequenz haben Sie als natürlicher empfunden?</p>","button_pressed":"1","test_part":"response","test_stimulus":{"position":0,"left":"bvh/return-bottle-hold-training0-lines.txt","right":"bvh/vr_prediction_models/model(vcgpdm)-dataset(return-bottle-hold)-mode(ELBO)-parts(3)-dyn(25)-lvm(30)-hold(0)/final-lines.txt","att_check":false},"trial_type":"html-button-response","trial_index":90,"time_elapsed":184484,"internal_node_id":"0.0-8.0-3.20","subject":"r6vg0soyf6xlcpt"},{"rt":521,"stimulus":"<p>Bereit?</p>","button_pressed":"0","trial_type":"html-button-response","trial_index":91,"time_elapsed":185008,"internal_node_id":"0.0-8.0-0.21","subject":"r6vg0soyf6xlcpt"},{"rt":null,"stimulus":"<div style=\"font-size:60px;\">+</div>","key_press":null,"trial_type":"html-keyboard-response","trial_index":92,"time_elapsed":187011,"internal_node_id":"0.0-8.0-1.21","subject":"r6vg0soyf6xlcpt"},{"trial_type":"turing-test","trial_index":93,"time_elapsed":192725,"internal_node_id":"0.0-8.0-2.21","subject":"r6vg0soyf6xlcpt"},{"rt":766,"stimulus":"<p>Welche Sequenz haben Sie als natürlicher empfunden?</p>","button_pressed":"0","test_part":"response","test_stimulus":{"position":0,"left":"bvh/return-bottle-training3-lines.txt","right":"bvh/vr_prediction_models/model(tmp)-dataset(return-bottle)-numprim(3)-hold(3)/final-lines.txt","att_check":false},"trial_type":"html-button-response","trial_index":94,"time_elapsed":193493,"internal_node_id":"0.0-8.0-3.21","subject":"r6vg0soyf6xlcpt"},{"rt":582,"stimulus":"<p>Bereit?</p>","button_pressed":"0","trial_type":"html-button-response","trial_index":95,"time_elapsed":194078,"internal_node_id":"0.0-8.0-0.22","subject":"r6vg0soyf6xlcpt"},{"rt":null,"stimulus":"<div style=\"font-size:60px;\">+</div>","key_press":null,"trial_type":"html-keyboard-response","trial_index":96,"time_elapsed":196083,"internal_node_id":"0.0-8.0-1.22","subject":"r6vg0soyf6xlcpt"},{"trial_type":"turing-test","trial_index":97,"time_elapsed":199614,"internal_node_id":"0.0-8.0-2.22","subject":"r6vg0soyf6xlcpt"},{"rt":1138,"stimulus":"<p>Welche Sequenz haben Sie als natürlicher empfunden?</p>","button_pressed":"1","test_part":"response","test_stimulus":{"position":0,"left":"bvh/pass-bottle-hold-training2-lines.txt","right":"bvh/vr_prediction_models/model(vcgpdm)-dataset(pass-bottle-hold)-mode(ELBO)-parts(3)-dyn(25)-lvm(15)-hold(2)/final-lines.txt","att_check":false},"trial_type":"html-button-response","trial_index":98,"time_elapsed":200754,"internal_node_id":"0.0-8.0-3.22","subject":"r6vg0soyf6xlcpt"},{"rt":538,"stimulus":"<p>Bereit?</p>","button_pressed":"0","trial_type":"html-button-response","trial_index":99,"time_elapsed":201298,"internal_node_id":"0.0-8.0-0.23","subject":"r6vg0soyf6xlcpt"},{"rt":null,"stimulus":"<div style=\"font-size:60px;\">+</div>","key_press":null,"trial_type":"html-keyboard-response","trial_index":100,"time_elapsed":203300,"internal_node_id":"0.0-8.0-1.23","subject":"r6vg0soyf6xlcpt"},{"trial_type":"turing-test","trial_index":101,"time_elapsed":209672,"internal_node_id":"0.0-8.0-2.23","subject":"r6vg0soyf6xlcpt"},{"rt":685,"stimulus":"<p>Welche Sequenz haben Sie als natürlicher empfunden?</p>","button_pressed":"1","test_part":"response","test_stimulus":{"position":1,"left":"bvh/vr_prediction_models/model(vcgpdm)-dataset(return-bottle)-mode(ELBO)-parts(3)-dyn(20)-lvm(20)-hold(3)/final-lines.txt","right":"bvh/return-bottle-training3-lines.txt","att_check":false},"trial_type":"html-button-response","trial_index":102,"time_elapsed":210360,"internal_node_id":"0.0-8.0-3.23","subject":"r6vg0soyf6xlcpt"},{"rt":528,"stimulus":"<p>Bereit?</p>","button_pressed":"0","trial_type":"html-button-response","trial_index":103,"time_elapsed":210892,"internal_node_id":"0.0-8.0-0.24","subject":"r6vg0soyf6xlcpt"},{"rt":null,"stimulus":"<div style=\"font-size:60px;\">+</div>","key_press":null,"trial_type":"html-keyboard-response","trial_index":104,"time_elapsed":212898,"internal_node_id":"0.0-8.0-1.24","subject":"r6vg0soyf6xlcpt"},{"trial_type":"turing-test","trial_index":105,"time_elapsed":216656,"internal_node_id":"0.0-8.0-2.24","subject":"r6vg0soyf6xlcpt"},{"rt":693,"stimulus":"<p>Welche Sequenz haben Sie als natürlicher empfunden?</p>","button_pressed":"0","test_part":"response","test_stimulus":{"position":0,"left":"bvh/return-bottle-hold-training3-lines.txt","right":"bvh/vr_prediction_models/model(vcgpdm)-dataset(return-bottle-hold)-mode(MAP)-parts(1)-hold(3)/final-lines.txt","att_check":false},"trial_type":"html-button-response","trial_index":106,"time_elapsed":217351,"internal_node_id":"0.0-8.0-3.24","subject":"r6vg0soyf6xlcpt"},{"rt":382,"stimulus":"<p>Bereit?</p>","button_pressed":"0","trial_type":"html-button-response","trial_index":107,"time_elapsed":217736,"internal_node_id":"0.0-8.0-0.25","subject":"r6vg0soyf6xlcpt"},{"rt":null,"stimulus":"<div style=\"font-size:60px;\">+</div>","key_press":null,"trial_type":"html-keyboard-response","trial_index":108,"time_elapsed":219742,"internal_node_id":"0.0-8.0-1.25","subject":"r6vg0soyf6xlcpt"},{"trial_type":"turing-test","trial_index":109,"time_elapsed":225627,"internal_node_id":"0.0-8.0-2.25","subject":"r6vg0soyf6xlcpt"},{"rt":797,"stimulus":"<p>Welche Sequenz haben Sie als natürlicher empfunden?</p>","button_pressed":"1","test_part":"response","test_stimulus":{"position":1,"left":"bvh/vr_prediction_models/model(vcgpdm)-dataset(return-bottle)-mode(ELBO)-parts(1)-dyn(25)-lvm(35)-hold(4)/final-lines.txt","right":"bvh/return-bottle-training4-lines.txt","att_check":false},"trial_type":"html-button-response","trial_index":110,"time_elapsed":226426,"internal_node_id":"0.0-8.0-3.25","subject":"r6vg0soyf6xlcpt"},{"rt":521,"stimulus":"<p>Bereit?</p>","button_pressed":"0","trial_type":"html-button-response","trial_index":111,"time_elapsed":226948,"internal_node_id":"0.0-8.0-0.26","subject":"r6vg0soyf6xlcpt"},{"rt":null,"stimulus":"<div style=\"font-size:60px;\">+</div>","key_press":null,"trial_type":"html-keyboard-response","trial_index":112,"time_elapsed":228952,"internal_node_id":"0.0-8.0-1.26","subject":"r6vg0soyf6xlcpt"},{"trial_type":"turing-test","trial_index":113,"time_elapsed":232617,"internal_node_id":"0.0-8.0-2.26","subject":"r6vg0soyf6xlcpt"},{"rt":863,"stimulus":"<p>Welche Sequenz haben Sie als natürlicher empfunden?</p>","button_pressed":"1","test_part":"response","test_stimulus":{"position":1,"left":"bvh/vr_prediction_models/model(vcgpdm)-dataset(pass-bottle-hold)-mode(ELBO)-parts(1)-dyn(15)-lvm(35)-hold(3)/final-lines.txt","right":"bvh/pass-bottle-hold-training3-lines.txt","att_check":false},"trial_type":"html-button-response","trial_index":114,"time_elapsed":233483,"internal_node_id":"0.0-8.0-3.26","subject":"r6vg0soyf6xlcpt"},{"rt":590,"stimulus":"<p>Bereit?</p>","button_pressed":"0","trial_type":"html-button-response","trial_index":115,"time_elapsed":234076,"internal_node_id":"0.0-8.0-0.27","subject":"r6vg0soyf6xlcpt"},{"rt":null,"stimulus":"<div style=\"font-size:60px;\">+</div>","key_press":null,"trial_type":"html-keyboard-response","trial_index":116,"time_elapsed":236080,"internal_node_id":"0.0-8.0-1.27","subject":"r6vg0soyf6xlcpt"},{"trial_type":"turing-test","trial_index":117,"time_elapsed":241514,"internal_node_id":"0.0-8.0-2.27","subject":"r6vg0soyf6xlcpt"},{"rt":658,"stimulus":"<p>Welche Sequenz haben Sie als natürlicher empfunden?</p>","button_pressed":"1","test_part":"response","test_stimulus":{"position":0,"left":"bvh/return-bottle-training0-lines.txt","right":"bvh/vr_prediction_models/model(tmp)-dataset(return-bottle)-numprim(8)-hold(0)/final-lines.txt","att_check":false},"trial_type":"html-button-response","trial_index":118,"time_elapsed":242175,"internal_node_id":"0.0-8.0-3.27","subject":"r6vg0soyf6xlcpt"},{"rt":623,"stimulus":"<p>Bereit?</p>","button_pressed":"0","trial_type":"html-button-response","trial_index":119,"time_elapsed":242801,"internal_node_id":"0.0-8.0-0.28","subject":"r6vg0soyf6xlcpt"},{"rt":null,"stimulus":"<div style=\"font-size:60px;\">+</div>","key_press":null,"trial_type":"html-keyboard-response","trial_index":120,"time_elapsed":244803,"internal_node_id":"0.0-8.0-1.28","subject":"r6vg0soyf6xlcpt"},{"trial_type":"turing-test","trial_index":121,"time_elapsed":250344,"internal_node_id":"0.0-8.0-2.28","subject":"r6vg0soyf6xlcpt"},{"rt":863,"stimulus":"<p>Welche Sequenz haben Sie als natürlicher empfunden?</p>","button_pressed":"1","test_part":"response","test_stimulus":{"position":0,"left":"bvh/return-bottle-training0-lines.txt","right":"bvh/vr_prediction_models/model(vcgpdm)-dataset(return-bottle)-mode(ELBO)-parts(3)-dyn(35)-lvm(20)-hold(0)/final-lines.txt","att_check":false},"trial_type":"html-button-response","trial_index":122,"time_elapsed":251211,"internal_node_id":"0.0-8.0-3.28","subject":"r6vg0soyf6xlcpt"},{"rt":540,"stimulus":"<p>Bereit?</p>","button_pressed":"0","trial_type":"html-button-response","trial_index":123,"time_elapsed":251754,"internal_node_id":"0.0-8.0-0.29","subject":"r6vg0soyf6xlcpt"},{"rt":null,"stimulus":"<div style=\"font-size:60px;\">+</div>","key_press":null,"trial_type":"html-keyboard-response","trial_index":124,"time_elapsed":253759,"internal_node_id":"0.0-8.0-1.29","subject":"r6vg0soyf6xlcpt"},{"trial_type":"turing-test","trial_index":125,"time_elapsed":257388,"internal_node_id":"0.0-8.0-2.29","subject":"r6vg0soyf6xlcpt"},{"rt":1098,"stimulus":"<p>Welche Sequenz haben Sie als natürlicher empfunden?</p>","button_pressed":"1","test_part":"response","test_stimulus":{"position":1,"left":"bvh/vr_prediction_models/model(dmp)-dataset(pass-bottle-hold)-npsi(30)-hold(4)/final-lines.txt","right":"bvh/pass-bottle-hold-training4-lines.txt","att_check":true},"trial_type":"html-button-response","trial_index":126,"time_elapsed":258489,"internal_node_id":"0.0-8.0-3.29","subject":"r6vg0soyf6xlcpt"},{"rt":616,"stimulus":"<p>Bereit?</p>","button_pressed":"0","trial_type":"html-button-response","trial_index":127,"time_elapsed":259109,"internal_node_id":"0.0-8.0-0.30","subject":"r6vg0soyf6xlcpt"},{"rt":null,"stimulus":"<div style=\"font-size:60px;\">+</div>","key_press":null,"trial_type":"html-keyboard-response","trial_index":128,"time_elapsed":261112,"internal_node_id":"0.0-8.0-1.30","subject":"r6vg0soyf6xlcpt"},{"trial_type":"turing-test","trial_index":129,"time_elapsed":266369,"internal_node_id":"0.0-8.0-2.30","subject":"r6vg0soyf6xlcpt"},{"rt":818,"stimulus":"<p>Welche Sequenz haben Sie als natürlicher empfunden?</p>","button_pressed":"1","test_part":"response","test_stimulus":{"position":0,"left":"bvh/return-bottle-hold-training0-lines.txt","right":"bvh/vr_prediction_models/model(vcgpdm)-dataset(return-bottle-hold)-mode(ELBO)-parts(1)-dyn(10)-lvm(5)-hold(0)/final-lines.txt","att_check":false},"trial_type":"html-button-response","trial_index":130,"time_elapsed":267192,"internal_node_id":"0.0-8.0-3.30","subject":"r6vg0soyf6xlcpt"},{"rt":548,"stimulus":"<p>Bereit?</p>","button_pressed":"0","trial_type":"html-button-response","trial_index":131,"time_elapsed":267744,"internal_node_id":"0.0-8.0-0.31","subject":"r6vg0soyf6xlcpt"},{"rt":null,"stimulus":"<div style=\"font-size:60px;\">+</div>","key_press":null,"trial_type":"html-keyboard-response","trial_index":132,"time_elapsed":269745,"internal_node_id":"0.0-8.0-1.31","subject":"r6vg0soyf6xlcpt"},{"trial_type":"turing-test","trial_index":133,"time_elapsed":275869,"internal_node_id":"0.0-8.0-2.31","subject":"r6vg0soyf6xlcpt"},{"rt":863,"stimulus":"<p>Welche Sequenz haben Sie als natürlicher empfunden?</p>","button_pressed":"1","test_part":"response","test_stimulus":{"position":1,"left":"bvh/vr_prediction_models/model(dmp)-dataset(return-bottle)-npsi(30)-hold(1)/final-lines.txt","right":"bvh/return-bottle-training1-lines.txt","att_check":false},"trial_type":"html-button-response","trial_index":134,"time_elapsed":276736,"internal_node_id":"0.0-8.0-3.31","subject":"r6vg0soyf6xlcpt"},{"rt":445,"stimulus":"<p>Bereit?</p>","button_pressed":"0","trial_type":"html-button-response","trial_index":135,"time_elapsed":277184,"internal_node_id":"0.0-8.0-0.32","subject":"r6vg0soyf6xlcpt"},{"rt":null,"stimulus":"<div style=\"font-size:60px;\">+</div>","key_press":null,"trial_type":"html-keyboard-response","trial_index":136,"time_elapsed":279188,"internal_node_id":"0.0-8.0-1.32","subject":"r6vg0soyf6xlcpt"},{"trial_type":"turing-test","trial_index":137,"time_elapsed":282836,"internal_node_id":"0.0-8.0-2.32","subject":"r6vg0soyf6xlcpt"},{"rt":1844,"stimulus":"<p>Welche Sequenz haben Sie als natürlicher empfunden?</p>","button_pressed":"1","test_part":"response","test_stimulus":{"position":0,"left":"bvh/return-bottle-hold-training4-lines.txt","right":"bvh/vr_prediction_models/model(vcgpdm)-dataset(return-bottle-hold)-mode(ELBO)-parts(1)-dyn(20)-lvm(5)-hold(4)/final-lines.txt","att_check":false},"trial_type":"html-button-response","trial_index":138,"time_elapsed":284683,"internal_node_id":"0.0-8.0-3.32","subject":"r6vg0soyf6xlcpt"},{"rt":591,"stimulus":"<p>Bereit?</p>","button_pressed":"0","trial_type":"html-button-response","trial_index":139,"time_elapsed":285278,"internal_node_id":"0.0-8.0-0.33","subject":"r6vg0soyf6xlcpt"},{"rt":null,"stimulus":"<div style=\"font-size:60px;\">+</div>","key_press":null,"trial_type":"html-keyboard-response","trial_index":140,"time_elapsed":287285,"internal_node_id":"0.0-8.0-1.33","subject":"r6vg0soyf6xlcpt"},{"trial_type":"turing-test","trial_index":141,"time_elapsed":293257,"internal_node_id":"0.0-8.0-2.33","subject":"r6vg0soyf6xlcpt"},{"rt":1646,"stimulus":"<p>Welche Sequenz haben Sie als natürlicher empfunden?</p>","button_pressed":"1","test_part":"response","test_stimulus":{"position":1,"left":"bvh/vr_prediction_models/model(vcgpdm)-dataset(pass-bottle)-mode(ELBO)-parts(1)-dyn(15)-lvm(35)-hold(3)/final-lines.txt","right":"bvh/pass-bottle-training3-lines.txt","att_check":false},"trial_type":"html-button-response","trial_index":142,"time_elapsed":294906,"internal_node_id":"0.0-8.0-3.33","subject":"r6vg0soyf6xlcpt"},{"rt":1951,"stimulus":"<p>Bereit?</p>","button_pressed":"0","trial_type":"html-button-response","trial_index":143,"time_elapsed":296858,"internal_node_id":"0.0-8.0-0.34","subject":"r6vg0soyf6xlcpt"},{"rt":null,"stimulus":"<div style=\"font-size:60px;\">+</div>","key_press":null,"trial_type":"html-keyboard-response","trial_index":144,"time_elapsed":298864,"internal_node_id":"0.0-8.0-1.34","subject":"r6vg0soyf6xlcpt"},{"trial_type":"turing-test","trial_index":145,"time_elapsed":302489,"internal_node_id":"0.0-8.0-2.34","subject":"r6vg0soyf6xlcpt"},{"rt":1045,"stimulus":"<p>Welche Sequenz haben Sie als natürlicher empfunden?</p>","button_pressed":"0","test_part":"response","test_stimulus":{"position":0,"left":"bvh/return-bottle-hold-training3-lines.txt","right":"bvh/vr_prediction_models/model(dmp)-dataset(return-bottle-hold)-npsi(30)-hold(3)/final-lines.txt","att_check":false},"trial_type":"html-button-response","trial_index":146,"time_elapsed":303539,"internal_node_id":"0.0-8.0-3.34","subject":"r6vg0soyf6xlcpt"},{"rt":548,"stimulus":"<p>Bereit?</p>","button_pressed":"0","trial_type":"html-button-response","trial_index":147,"time_elapsed":304090,"internal_node_id":"0.0-8.0-0.35","subject":"r6vg0soyf6xlcpt"},{"rt":null,"stimulus":"<div style=\"font-size:60px;\">+</div>","key_press":null,"trial_type":"html-keyboard-response","trial_index":148,"time_elapsed":306098,"internal_node_id":"0.0-8.0-1.35","subject":"r6vg0soyf6xlcpt"},{"trial_type":"turing-test","trial_index":149,"time_elapsed":309788,"internal_node_id":"0.0-8.0-2.35","subject":"r6vg0soyf6xlcpt"},{"rt":800,"stimulus":"<p>Welche Sequenz haben Sie als natürlicher empfunden?</p>","button_pressed":"1","test_part":"response","test_stimulus":{"position":1,"left":"bvh/vr_prediction_models/model(tmp)-dataset(return-bottle-hold)-numprim(14)-hold(3)/final-lines.txt","right":"bvh/return-bottle-hold-training3-lines.txt","att_check":false},"trial_type":"html-button-response","trial_index":150,"time_elapsed":310592,"internal_node_id":"0.0-8.0-3.35","subject":"r6vg0soyf6xlcpt"},{"rt":528,"stimulus":"<p>Bereit?</p>","button_pressed":"0","trial_type":"html-button-response","trial_index":151,"time_elapsed":311121,"internal_node_id":"0.0-8.0-0.36","subject":"r6vg0soyf6xlcpt"},{"rt":null,"stimulus":"<div style=\"font-size:60px;\">+</div>","key_press":null,"trial_type":"html-keyboard-response","trial_index":152,"time_elapsed":313124,"internal_node_id":"0.0-8.0-1.36","subject":"r6vg0soyf6xlcpt"},{"trial_type":"turing-test","trial_index":153,"time_elapsed":316579,"internal_node_id":"0.0-8.0-2.36","subject":"r6vg0soyf6xlcpt"},{"rt":890,"stimulus":"<p>Welche Sequenz haben Sie als natürlicher empfunden?</p>","button_pressed":"1","test_part":"response","test_stimulus":{"position":0,"left":"bvh/pass-bottle-hold-training0-lines.txt","right":"bvh/vr_prediction_models/model(vcgpdm)-dataset(pass-bottle-hold)-mode(ELBO)-parts(3)-dyn(10)-lvm(25)-hold(0)/final-lines.txt","att_check":false},"trial_type":"html-button-response","trial_index":154,"time_elapsed":317473,"internal_node_id":"0.0-8.0-3.36","subject":"r6vg0soyf6xlcpt"},{"rt":530,"stimulus":"<p>Bereit?</p>","button_pressed":"0","trial_type":"html-button-response","trial_index":155,"time_elapsed":318005,"internal_node_id":"0.0-8.0-0.37","subject":"r6vg0soyf6xlcpt"},{"rt":null,"stimulus":"<div style=\"font-size:60px;\">+</div>","key_press":null,"trial_type":"html-keyboard-response","trial_index":156,"time_elapsed":320009,"internal_node_id":"0.0-8.0-1.37","subject":"r6vg0soyf6xlcpt"},{"trial_type":"turing-test","trial_index":157,"time_elapsed":325430,"internal_node_id":"0.0-8.0-2.37","subject":"r6vg0soyf6xlcpt"},{"rt":1078,"stimulus":"<p>Welche Sequenz haben Sie als natürlicher empfunden?</p>","button_pressed":"0","test_part":"response","test_stimulus":{"position":0,"left":"bvh/pass-bottle-training1-lines.txt","right":"bvh/vr_prediction_models/model(dmp)-dataset(pass-bottle)-npsi(80)-hold(1)/final-lines.txt","att_check":true},"trial_type":"html-button-response","trial_index":158,"time_elapsed":326511,"internal_node_id":"0.0-8.0-3.37","subject":"r6vg0soyf6xlcpt"},{"rt":581,"stimulus":"<p>Bereit?</p>","button_pressed":"0","trial_type":"html-button-response","trial_index":159,"time_elapsed":327095,"internal_node_id":"0.0-8.0-0.38","subject":"r6vg0soyf6xlcpt"},{"rt":null,"stimulus":"<div style=\"font-size:60px;\">+</div>","key_press":null,"trial_type":"html-keyboard-response","trial_index":160,"time_elapsed":329102,"internal_node_id":"0.0-8.0-1.38","subject":"r6vg0soyf6xlcpt"},{"trial_type":"turing-test","trial_index":161,"time_elapsed":335045,"internal_node_id":"0.0-8.0-2.38","subject":"r6vg0soyf6xlcpt"},{"rt":1010,"stimulus":"<p>Welche Sequenz haben Sie als natürlicher empfunden?</p>","button_pressed":"1","test_part":"response","test_stimulus":{"position":1,"left":"bvh/vr_prediction_models/model(vcgpdm)-dataset(return-bottle)-mode(ELBO)-parts(3)-dyn(20)-lvm(35)-hold(4)/final-lines.txt","right":"bvh/return-bottle-training4-lines.txt","att_check":false},"trial_type":"html-button-response","trial_index":162,"time_elapsed":336060,"internal_node_id":"0.0-8.0-3.38","subject":"r6vg0soyf6xlcpt"},{"rt":413,"stimulus":"<p>Bereit?</p>","button_pressed":"0","trial_type":"html-button-response","trial_index":163,"time_elapsed":336476,"internal_node_id":"0.0-8.0-0.39","subject":"r6vg0soyf6xlcpt"},{"rt":null,"stimulus":"<div style=\"font-size:60px;\">+</div>","key_press":null,"trial_type":"html-keyboard-response","trial_index":164,"time_elapsed":338479,"internal_node_id":"0.0-8.0-1.39","subject":"r6vg0soyf6xlcpt"},{"trial_type":"turing-test","trial_index":165,"time_elapsed":344166,"internal_node_id":"0.0-8.0-2.39","subject":"r6vg0soyf6xlcpt"},{"rt":899,"stimulus":"<p>Welche Sequenz haben Sie als natürlicher empfunden?</p>","button_pressed":"0","test_part":"response","test_stimulus":{"position":0,"left":"bvh/return-bottle-training4-lines.txt","right":"bvh/vr_prediction_models/model(vcgpdm)-dataset(return-bottle)-mode(ELBO)-parts(3)-dyn(15)-lvm(30)-hold(4)/final-lines.txt","att_check":false},"trial_type":"html-button-response","trial_index":166,"time_elapsed":345067,"internal_node_id":"0.0-8.0-3.39","subject":"r6vg0soyf6xlcpt"},{"rt":604,"stimulus":"<p>Bereit?</p>","button_pressed":"0","trial_type":"html-button-response","trial_index":167,"time_elapsed":345674,"internal_node_id":"0.0-8.0-0.40","subject":"r6vg0soyf6xlcpt"},{"rt":null,"stimulus":"<div style=\"font-size:60px;\">+</div>","key_press":null,"trial_type":"html-keyboard-response","trial_index":168,"time_elapsed":347677,"internal_node_id":"0.0-8.0-1.40","subject":"r6vg0soyf6xlcpt"},{"trial_type":"turing-test","trial_index":169,"time_elapsed":353123,"internal_node_id":"0.0-8.0-2.40","subject":"r6vg0soyf6xlcpt"},{"rt":944,"stimulus":"<p>Welche Sequenz haben Sie als natürlicher empfunden?</p>","button_pressed":"0","test_part":"response","test_stimulus":{"position":1,"left":"bvh/vr_prediction_models/model(tmp)-dataset(return-bottle)-numprim(15)-hold(0)/final-lines.txt","right":"bvh/return-bottle-training0-lines.txt","att_check":false},"trial_type":"html-button-response","trial_index":170,"time_elapsed":354070,"internal_node_id":"0.0-8.0-3.40","subject":"r6vg0soyf6xlcpt"},{"rt":759,"stimulus":"<p>Bereit?</p>","button_pressed":"0","trial_type":"html-button-response","trial_index":171,"time_elapsed":354834,"internal_node_id":"0.0-8.0-0.41","subject":"r6vg0soyf6xlcpt"},{"rt":null,"stimulus":"<div style=\"font-size:60px;\">+</div>","key_press":null,"trial_type":"html-keyboard-response","trial_index":172,"time_elapsed":356839,"internal_node_id":"0.0-8.0-1.41","subject":"r6vg0soyf6xlcpt"},{"trial_type":"turing-test","trial_index":173,"time_elapsed":360680,"internal_node_id":"0.0-8.0-2.41","subject":"r6vg0soyf6xlcpt"},{"rt":1427,"stimulus":"<p>Welche Sequenz haben Sie als natürlicher empfunden?</p>","button_pressed":"1","test_part":"response","test_stimulus":{"position":0,"left":"bvh/return-bottle-hold-training3-lines.txt","right":"bvh/vr_prediction_models/model(vcgpdm)-dataset(return-bottle-hold)-mode(ELBO)-parts(3)-dyn(10)-lvm(25)-hold(3)/final-lines.txt","att_check":false},"trial_type":"html-button-response","trial_index":174,"time_elapsed":362110,"internal_node_id":"0.0-8.0-3.41","subject":"r6vg0soyf6xlcpt"},{"rt":590,"stimulus":"<p>Bereit?</p>","button_pressed":"0","trial_type":"html-button-response","trial_index":175,"time_elapsed":362704,"internal_node_id":"0.0-8.0-0.42","subject":"r6vg0soyf6xlcpt"},{"rt":null,"stimulus":"<div style=\"font-size:60px;\">+</div>","key_press":null,"trial_type":"html-keyboard-response","trial_index":176,"time_elapsed":364710,"internal_node_id":"0.0-8.0-1.42","subject":"r6vg0soyf6xlcpt"},{"trial_type":"turing-test","trial_index":177,"time_elapsed":368559,"internal_node_id":"0.0-8.0-2.42","subject":"r6vg0soyf6xlcpt"},{"rt":766,"stimulus":"<p>Welche Sequenz haben Sie als natürlicher empfunden?</p>","button_pressed":"1","test_part":"response","test_stimulus":{"position":1,"left":"bvh/vr_prediction_models/model(vcgpdm)-dataset(return-bottle-hold)-mode(ELBO)-parts(1)-dyn(10)-lvm(5)-hold(3)/final-lines.txt","right":"bvh/return-bottle-hold-training3-lines.txt","att_check":false},"trial_type":"html-button-response","trial_index":178,"time_elapsed":369328,"internal_node_id":"0.0-8.0-3.42","subject":"r6vg0soyf6xlcpt"},{"rt":519,"stimulus":"<p>Bereit?</p>","button_pressed":"0","trial_type":"html-button-response","trial_index":179,"time_elapsed":369849,"internal_node_id":"0.0-8.0-0.43","subject":"r6vg0soyf6xlcpt"},{"rt":null,"stimulus":"<div style=\"font-size:60px;\">+</div>","key_press":null,"trial_type":"html-keyboard-response","trial_index":180,"time_elapsed":371855,"internal_node_id":"0.0-8.0-1.43","subject":"r6vg0soyf6xlcpt"},{"trial_type":"turing-test","trial_index":181,"time_elapsed":377964,"internal_node_id":"0.0-8.0-2.43","subject":"r6vg0soyf6xlcpt"},{"rt":1426,"stimulus":"<p>Welche Sequenz haben Sie als natürlicher empfunden?</p>","button_pressed":"0","test_part":"response","test_stimulus":{"position":0,"left":"bvh/return-bottle-training1-lines.txt","right":"bvh/vr_prediction_models/model(tmp)-dataset(return-bottle)-numprim(3)-hold(1)/final-lines.txt","att_check":false},"trial_type":"html-button-response","trial_index":182,"time_elapsed":379392,"internal_node_id":"0.0-8.0-3.43","subject":"r6vg0soyf6xlcpt"},{"rt":562,"stimulus":"<p>Bereit?</p>","button_pressed":"0","trial_type":"html-button-response","trial_index":183,"time_elapsed":379957,"internal_node_id":"0.0-8.0-0.44","subject":"r6vg0soyf6xlcpt"},{"rt":null,"stimulus":"<div style=\"font-size:60px;\">+</div>","key_press":null,"trial_type":"html-keyboard-response","trial_index":184,"time_elapsed":381959,"internal_node_id":"0.0-8.0-1.44","subject":"r6vg0soyf6xlcpt"},{"trial_type":"turing-test","trial_index":185,"time_elapsed":387049,"internal_node_id":"0.0-8.0-2.44","subject":"r6vg0soyf6xlcpt"},{"rt":749,"stimulus":"<p>Welche Sequenz haben Sie als natürlicher empfunden?</p>","button_pressed":"1","test_part":"response","test_stimulus":{"position":0,"left":"bvh/return-bottle-hold-training0-lines.txt","right":"bvh/vr_prediction_models/model(tmp)-dataset(return-bottle-hold)-numprim(15)-hold(0)/final-lines.txt","att_check":false},"trial_type":"html-button-response","trial_index":186,"time_elapsed":387801,"internal_node_id":"0.0-8.0-3.44","subject":"r6vg0soyf6xlcpt"},{"rt":548,"stimulus":"<p>Bereit?</p>","button_pressed":"0","trial_type":"html-button-response","trial_index":187,"time_elapsed":388352,"internal_node_id":"0.0-8.0-0.45","subject":"r6vg0soyf6xlcpt"},{"rt":null,"stimulus":"<div style=\"font-size:60px;\">+</div>","key_press":null,"trial_type":"html-keyboard-response","trial_index":188,"time_elapsed":390357,"internal_node_id":"0.0-8.0-1.45","subject":"r6vg0soyf6xlcpt"},{"trial_type":"turing-test","trial_index":189,"time_elapsed":393893,"internal_node_id":"0.0-8.0-2.45","subject":"r6vg0soyf6xlcpt"},{"rt":834,"stimulus":"<p>Welche Sequenz haben Sie als natürlicher empfunden?</p>","button_pressed":"0","test_part":"response","test_stimulus":{"position":0,"left":"bvh/return-bottle-hold-training2-lines.txt","right":"bvh/vr_prediction_models/model(dmp)-dataset(return-bottle-hold)-npsi(100)-hold(2)/final-lines.txt","att_check":true},"trial_type":"html-button-response","trial_index":190,"time_elapsed":394732,"internal_node_id":"0.0-8.0-3.45","subject":"r6vg0soyf6xlcpt"},{"rt":570,"stimulus":"<p>Bereit?</p>","button_pressed":"0","trial_type":"html-button-response","trial_index":191,"time_elapsed":395306,"internal_node_id":"0.0-8.0-0.46","subject":"r6vg0soyf6xlcpt"},{"rt":null,"stimulus":"<div style=\"font-size:60px;\">+</div>","key_press":null,"trial_type":"html-keyboard-response","trial_index":192,"time_elapsed":397313,"internal_node_id":"0.0-8.0-1.46","subject":"r6vg0soyf6xlcpt"},{"trial_type":"turing-test","trial_index":193,"time_elapsed":400677,"internal_node_id":"0.0-8.0-2.46","subject":"r6vg0soyf6xlcpt"},{"rt":1098,"stimulus":"<p>Welche Sequenz haben Sie als natürlicher empfunden?</p>","button_pressed":"0","test_part":"response","test_stimulus":{"position":0,"left":"bvh/pass-bottle-hold-training2-lines.txt","right":"bvh/vr_prediction_models/model(tmp)-dataset(pass-bottle-hold)-numprim(3)-hold(2)/final-lines.txt","att_check":false},"trial_type":"html-button-response","trial_index":194,"time_elapsed":401779,"internal_node_id":"0.0-8.0-3.46","subject":"r6vg0soyf6xlcpt"},{"rt":642,"stimulus":"<p>Bereit?</p>","button_pressed":"0","trial_type":"html-button-response","trial_index":195,"time_elapsed":402426,"internal_node_id":"0.0-8.0-0.47","subject":"r6vg0soyf6xlcpt"},{"rt":null,"stimulus":"<div style=\"font-size:60px;\">+</div>","key_press":null,"trial_type":"html-keyboard-response","trial_index":196,"time_elapsed":404430,"internal_node_id":"0.0-8.0-1.47","subject":"r6vg0soyf6xlcpt"},{"trial_type":"turing-test","trial_index":197,"time_elapsed":410444,"internal_node_id":"0.0-8.0-2.47","subject":"r6vg0soyf6xlcpt"},{"rt":918,"stimulus":"<p>Welche Sequenz haben Sie als natürlicher empfunden?</p>","button_pressed":"1","test_part":"response","test_stimulus":{"position":1,"left":"bvh/vr_prediction_models/model(dmp)-dataset(pass-bottle)-npsi(90)-hold(2)/final-lines.txt","right":"bvh/pass-bottle-training2-lines.txt","att_check":true},"trial_type":"html-button-response","trial_index":198,"time_elapsed":411366,"internal_node_id":"0.0-8.0-3.47","subject":"r6vg0soyf6xlcpt"},{"rt":581,"stimulus":"<p>Bereit?</p>","button_pressed":"0","trial_type":"html-button-response","trial_index":199,"time_elapsed":411950,"internal_node_id":"0.0-8.0-0.48","subject":"r6vg0soyf6xlcpt"},{"rt":null,"stimulus":"<div style=\"font-size:60px;\">+</div>","key_press":null,"trial_type":"html-keyboard-response","trial_index":200,"time_elapsed":413957,"internal_node_id":"0.0-8.0-1.48","subject":"r6vg0soyf6xlcpt"},{"trial_type":"turing-test","trial_index":201,"time_elapsed":419732,"internal_node_id":"0.0-8.0-2.48","subject":"r6vg0soyf6xlcpt"},{"rt":643,"stimulus":"<p>Welche Sequenz haben Sie als natürlicher empfunden?</p>","button_pressed":"1","test_part":"response","test_stimulus":{"position":0,"left":"bvh/return-bottle-training3-lines.txt","right":"bvh/vr_prediction_models/model(tmp)-dataset(return-bottle)-numprim(7)-hold(3)/final-lines.txt","att_check":false},"trial_type":"html-button-response","trial_index":202,"time_elapsed":420378,"internal_node_id":"0.0-8.0-3.48","subject":"r6vg0soyf6xlcpt"},{"rt":721,"stimulus":"<p>Bereit?</p>","button_pressed":"0","trial_type":"html-button-response","trial_index":203,"time_elapsed":421101,"internal_node_id":"0.0-8.0-0.49","subject":"r6vg0soyf6xlcpt"},{"rt":null,"stimulus":"<div style=\"font-size:60px;\">+</div>","key_press":null,"trial_type":"html-keyboard-response","trial_index":204,"time_elapsed":423104,"internal_node_id":"0.0-8.0-1.49","subject":"r6vg0soyf6xlcpt"},{"trial_type":"turing-test","trial_index":205,"time_elapsed":426421,"internal_node_id":"0.0-8.0-2.49","subject":"r6vg0soyf6xlcpt"},{"rt":1282,"stimulus":"<p>Welche Sequenz haben Sie als natürlicher empfunden?</p>","button_pressed":"1","test_part":"response","test_stimulus":{"position":0,"left":"bvh/pass-bottle-hold-training2-lines.txt","right":"bvh/vr_prediction_models/model(tmp)-dataset(pass-bottle-hold)-numprim(8)-hold(2)/final-lines.txt","att_check":false},"trial_type":"html-button-response","trial_index":206,"time_elapsed":427706,"internal_node_id":"0.0-8.0-3.49","subject":"r6vg0soyf6xlcpt"},{"rt":524,"stimulus":"<p>Bereit?</p>","button_pressed":"0","trial_type":"html-button-response","trial_index":207,"time_elapsed":428233,"internal_node_id":"0.0-8.0-0.50","subject":"r6vg0soyf6xlcpt"},{"rt":null,"stimulus":"<div style=\"font-size:60px;\">+</div>","key_press":null,"trial_type":"html-keyboard-response","trial_index":208,"time_elapsed":430239,"internal_node_id":"0.0-8.0-1.50","subject":"r6vg0soyf6xlcpt"},{"trial_type":"turing-test","trial_index":209,"time_elapsed":436464,"internal_node_id":"0.0-8.0-2.50","subject":"r6vg0soyf6xlcpt"},{"rt":1109,"stimulus":"<p>Welche Sequenz haben Sie als natürlicher empfunden?</p>","button_pressed":"1","test_part":"response","test_stimulus":{"position":0,"left":"bvh/pass-bottle-training2-lines.txt","right":"bvh/vr_prediction_models/model(vcgpdm)-dataset(pass-bottle)-mode(ELBO)-parts(3)-dyn(35)-lvm(20)-hold(2)/final-lines.txt","att_check":false},"trial_type":"html-button-response","trial_index":210,"time_elapsed":437575,"internal_node_id":"0.0-8.0-3.50","subject":"r6vg0soyf6xlcpt"},{"rt":1174,"stimulus":"<p>Bereit?</p>","button_pressed":"0","trial_type":"html-button-response","trial_index":211,"time_elapsed":438753,"internal_node_id":"0.0-8.0-0.51","subject":"r6vg0soyf6xlcpt"},{"rt":null,"stimulus":"<div style=\"font-size:60px;\">+</div>","key_press":null,"trial_type":"html-keyboard-response","trial_index":212,"time_elapsed":440759,"internal_node_id":"0.0-8.0-1.51","subject":"r6vg0soyf6xlcpt"},{"trial_type":"turing-test","trial_index":213,"time_elapsed":447451,"internal_node_id":"0.0-8.0-2.51","subject":"r6vg0soyf6xlcpt"},{"rt":1169,"stimulus":"<p>Welche Sequenz haben Sie als natürlicher empfunden?</p>","button_pressed":"0","test_part":"response","test_stimulus":{"position":0,"left":"bvh/return-bottle-training2-lines.txt","right":"bvh/vr_prediction_models/model(vcgpdm)-dataset(return-bottle)-mode(MAP)-parts(3)-hold(2)/final-lines.txt","att_check":false},"trial_type":"html-button-response","trial_index":214,"time_elapsed":448623,"internal_node_id":"0.0-8.0-3.51","subject":"r6vg0soyf6xlcpt"},{"rt":584,"stimulus":"<p>Bereit?</p>","button_pressed":"0","trial_type":"html-button-response","trial_index":215,"time_elapsed":449209,"internal_node_id":"0.0-8.0-0.52","subject":"r6vg0soyf6xlcpt"},{"rt":null,"stimulus":"<div style=\"font-size:60px;\">+</div>","key_press":null,"trial_type":"html-keyboard-response","trial_index":216,"time_elapsed":451212,"internal_node_id":"0.0-8.0-1.52","subject":"r6vg0soyf6xlcpt"},{"trial_type":"turing-test","trial_index":217,"time_elapsed":456292,"internal_node_id":"0.0-8.0-2.52","subject":"r6vg0soyf6xlcpt"},{"rt":634,"stimulus":"<p>Welche Sequenz haben Sie als natürlicher empfunden?</p>","button_pressed":"1","test_part":"response","test_stimulus":{"position":1,"left":"bvh/vr_prediction_models/model(dmp)-dataset(return-bottle-hold)-npsi(70)-hold(0)/final-lines.txt","right":"bvh/return-bottle-hold-training0-lines.txt","att_check":false},"trial_type":"html-button-response","trial_index":218,"time_elapsed":456931,"internal_node_id":"0.0-8.0-3.52","subject":"r6vg0soyf6xlcpt"},{"rt":602,"stimulus":"<p>Bereit?</p>","button_pressed":"0","trial_type":"html-button-response","trial_index":219,"time_elapsed":457535,"internal_node_id":"0.0-8.0-0.53","subject":"r6vg0soyf6xlcpt"},{"rt":null,"stimulus":"<div style=\"font-size:60px;\">+</div>","key_press":null,"trial_type":"html-keyboard-response","trial_index":220,"time_elapsed":459539,"internal_node_id":"0.0-8.0-1.53","subject":"r6vg0soyf6xlcpt"},{"trial_type":"turing-test","trial_index":221,"time_elapsed":462927,"internal_node_id":"0.0-8.0-2.53","subject":"r6vg0soyf6xlcpt"},{"rt":1368,"stimulus":"<p>Welche Sequenz haben Sie als natürlicher empfunden?</p>","button_pressed":"1","test_part":"response","test_stimulus":{"position":1,"left":"bvh/vr_prediction_models/model(dmp)-dataset(return-bottle-hold)-npsi(20)-hold(1)/final-lines.txt","right":"bvh/return-bottle-hold-training1-lines.txt","att_check":true},"trial_type":"html-button-response","trial_index":222,"time_elapsed":464297,"internal_node_id":"0.0-8.0-3.53","subject":"r6vg0soyf6xlcpt"},{"rt":967,"stimulus":"<p>Bereit?</p>","button_pressed":"0","trial_type":"html-button-response","trial_index":223,"time_elapsed":465266,"internal_node_id":"0.0-8.0-0.54","subject":"r6vg0soyf6xlcpt"},{"rt":null,"stimulus":"<div style=\"font-size:60px;\">+</div>","key_press":null,"trial_type":"html-keyboard-response","trial_index":224,"time_elapsed":467275,"internal_node_id":"0.0-8.0-1.54","subject":"r6vg0soyf6xlcpt"},{"trial_type":"turing-test","trial_index":225,"time_elapsed":470752,"internal_node_id":"0.0-8.0-2.54","subject":"r6vg0soyf6xlcpt"},{"rt":841,"stimulus":"<p>Welche Sequenz haben Sie als natürlicher empfunden?</p>","button_pressed":"1","test_part":"response","test_stimulus":{"position":1,"left":"bvh/vr_prediction_models/model(tmp)-dataset(pass-bottle-hold)-numprim(11)-hold(2)/final-lines.txt","right":"bvh/pass-bottle-hold-training2-lines.txt","att_check":false},"trial_type":"html-button-response","trial_index":226,"time_elapsed":471596,"internal_node_id":"0.0-8.0-3.54","subject":"r6vg0soyf6xlcpt"},{"rt":520,"stimulus":"<p>Bereit?</p>","button_pressed":"0","trial_type":"html-button-response","trial_index":227,"time_elapsed":472120,"internal_node_id":"0.0-8.0-0.55","subject":"r6vg0soyf6xlcpt"},{"rt":null,"stimulus":"<div style=\"font-size:60px;\">+</div>","key_press":null,"trial_type":"html-keyboard-response","trial_index":228,"time_elapsed":474123,"internal_node_id":"0.0-8.0-1.55","subject":"r6vg0soyf6xlcpt"},{"trial_type":"turing-test","trial_index":229,"time_elapsed":480256,"internal_node_id":"0.0-8.0-2.55","subject":"r6vg0soyf6xlcpt"},{"rt":759,"stimulus":"<p>Welche Sequenz haben Sie als natürlicher empfunden?</p>","button_pressed":"1","test_part":"response","test_stimulus":{"position":1,"left":"bvh/vr_prediction_models/model(dmp)-dataset(pass-bottle)-npsi(30)-hold(2)/final-lines.txt","right":"bvh/pass-bottle-training2-lines.txt","att_check":false},"trial_type":"html-button-response","trial_index":230,"time_elapsed":481018,"internal_node_id":"0.0-8.0-3.55","subject":"r6vg0soyf6xlcpt"},{"rt":556,"stimulus":"<p>Bereit?</p>","button_pressed":"0","trial_type":"html-button-response","trial_index":231,"time_elapsed":481577,"internal_node_id":"0.0-8.0-0.56","subject":"r6vg0soyf6xlcpt"},{"rt":null,"stimulus":"<div style=\"font-size:60px;\">+</div>","key_press":null,"trial_type":"html-keyboard-response","trial_index":232,"time_elapsed":483580,"internal_node_id":"0.0-8.0-1.56","subject":"r6vg0soyf6xlcpt"},{"trial_type":"turing-test","trial_index":233,"time_elapsed":490400,"internal_node_id":"0.0-8.0-2.56","subject":"r6vg0soyf6xlcpt"},{"rt":897,"stimulus":"<p>Welche Sequenz haben Sie als natürlicher empfunden?</p>","button_pressed":"1","test_part":"response","test_stimulus":{"position":1,"left":"bvh/vr_prediction_models/model(dmp)-dataset(pass-bottle)-npsi(50)-hold(0)/final-lines.txt","right":"bvh/pass-bottle-training0-lines.txt","att_check":false},"trial_type":"html-button-response","trial_index":234,"time_elapsed":491299,"internal_node_id":"0.0-8.0-3.56","subject":"r6vg0soyf6xlcpt"},{"rt":525,"stimulus":"<p>Bereit?</p>","button_pressed":"0","trial_type":"html-button-response","trial_index":235,"time_elapsed":491827,"internal_node_id":"0.0-8.0-0.57","subject":"r6vg0soyf6xlcpt"},{"rt":null,"stimulus":"<div style=\"font-size:60px;\">+</div>","key_press":null,"trial_type":"html-keyboard-response","trial_index":236,"time_elapsed":493832,"internal_node_id":"0.0-8.0-1.57","subject":"r6vg0soyf6xlcpt"},{"trial_type":"turing-test","trial_index":237,"time_elapsed":497538,"internal_node_id":"0.0-8.0-2.57","subject":"r6vg0soyf6xlcpt"},{"rt":779,"stimulus":"<p>Welche Sequenz haben Sie als natürlicher empfunden?</p>","button_pressed":"0","test_part":"response","test_stimulus":{"position":1,"left":"bvh/vr_prediction_models/model(vcgpdm)-dataset(pass-bottle-hold)-mode(ELBO)-parts(3)-dyn(10)-lvm(30)-hold(3)/final-lines.txt","right":"bvh/pass-bottle-hold-training3-lines.txt","att_check":false},"trial_type":"html-button-response","trial_index":238,"time_elapsed":498320,"internal_node_id":"0.0-8.0-3.57","subject":"r6vg0soyf6xlcpt"},{"rt":581,"stimulus":"<p>Bereit?</p>","button_pressed":"0","trial_type":"html-button-response","trial_index":239,"time_elapsed":498904,"internal_node_id":"0.0-8.0-0.58","subject":"r6vg0soyf6xlcpt"},{"rt":null,"stimulus":"<div style=\"font-size:60px;\">+</div>","key_press":null,"trial_type":"html-keyboard-response","trial_index":240,"time_elapsed":500908,"internal_node_id":"0.0-8.0-1.58","subject":"r6vg0soyf6xlcpt"},{"trial_type":"turing-test","trial_index":241,"time_elapsed":507065,"internal_node_id":"0.0-8.0-2.58","subject":"r6vg0soyf6xlcpt"},{"rt":767,"stimulus":"<p>Welche Sequenz haben Sie als natürlicher empfunden?</p>","button_pressed":"0","test_part":"response","test_stimulus":{"position":0,"left":"bvh/pass-bottle-training2-lines.txt","right":"bvh/vr_prediction_models/model(dmp)-dataset(pass-bottle)-npsi(10)-hold(2)/final-lines.txt","att_check":false},"trial_type":"html-button-response","trial_index":242,"time_elapsed":507835,"internal_node_id":"0.0-8.0-3.58","subject":"r6vg0soyf6xlcpt"},{"rt":546,"stimulus":"<p>Bereit?</p>","button_pressed":"0","trial_type":"html-button-response","trial_index":243,"time_elapsed":508384,"internal_node_id":"0.0-8.0-0.59","subject":"r6vg0soyf6xlcpt"},{"rt":null,"stimulus":"<div style=\"font-size:60px;\">+</div>","key_press":null,"trial_type":"html-keyboard-response","trial_index":244,"time_elapsed":510389,"internal_node_id":"0.0-8.0-1.59","subject":"r6vg0soyf6xlcpt"},{"trial_type":"turing-test","trial_index":245,"time_elapsed":517161,"internal_node_id":"0.0-8.0-2.59","subject":"r6vg0soyf6xlcpt"},{"rt":672,"stimulus":"<p>Welche Sequenz haben Sie als natürlicher empfunden?</p>","button_pressed":"0","test_part":"response","test_stimulus":{"position":0,"left":"bvh/pass-bottle-training0-lines.txt","right":"bvh/vr_prediction_models/model(tmp)-dataset(pass-bottle)-numprim(11)-hold(0)/final-lines.txt","att_check":false},"trial_type":"html-button-response","trial_index":246,"time_elapsed":517836,"internal_node_id":"0.0-8.0-3.59","subject":"r6vg0soyf6xlcpt"},{"rt":169,"stimulus":"<p>Bereit?</p>","button_pressed":"0","trial_type":"html-button-response","trial_index":247,"time_elapsed":518009,"internal_node_id":"0.0-8.0-0.60","subject":"r6vg0soyf6xlcpt"},{"rt":null,"stimulus":"<div style=\"font-size:60px;\">+</div>","key_press":null,"trial_type":"html-keyboard-response","trial_index":248,"time_elapsed":520019,"internal_node_id":"0.0-8.0-1.60","subject":"r6vg0soyf6xlcpt"},{"trial_type":"turing-test","trial_index":249,"time_elapsed":525978,"internal_node_id":"0.0-8.0-2.60","subject":"r6vg0soyf6xlcpt"},{"rt":684,"stimulus":"<p>Welche Sequenz haben Sie als natürlicher empfunden?</p>","button_pressed":"0","test_part":"response","test_stimulus":{"position":0,"left":"bvh/pass-bottle-training4-lines.txt","right":"bvh/vr_prediction_models/model(vcgpdm)-dataset(pass-bottle)-mode(ELBO)-parts(1)-dyn(30)-lvm(35)-hold(4)/final-lines.txt","att_check":false},"trial_type":"html-button-response","trial_index":250,"time_elapsed":526664,"internal_node_id":"0.0-8.0-3.60","subject":"r6vg0soyf6xlcpt"},{"rt":294,"stimulus":"<p>Bereit?</p>","button_pressed":"0","trial_type":"html-button-response","trial_index":251,"time_elapsed":526961,"internal_node_id":"0.0-8.0-0.61","subject":"r6vg0soyf6xlcpt"},{"rt":null,"stimulus":"<div style=\"font-size:60px;\">+</div>","key_press":null,"trial_type":"html-keyboard-response","trial_index":252,"time_elapsed":528966,"internal_node_id":"0.0-8.0-1.61","subject":"r6vg0soyf6xlcpt"},{"trial_type":"turing-test","trial_index":253,"time_elapsed":536032,"internal_node_id":"0.0-8.0-2.61","subject":"r6vg0soyf6xlcpt"},{"rt":669,"stimulus":"<p>Welche Sequenz haben Sie als natürlicher empfunden?</p>","button_pressed":"0","test_part":"response","test_stimulus":{"position":1,"left":"bvh/vr_prediction_models/model(vcgpdm)-dataset(pass-bottle)-mode(ELBO)-parts(3)-dyn(10)-lvm(25)-hold(0)/final-lines.txt","right":"bvh/pass-bottle-training0-lines.txt","att_check":false},"trial_type":"html-button-response","trial_index":254,"time_elapsed":536704,"internal_node_id":"0.0-8.0-3.61","subject":"r6vg0soyf6xlcpt"},{"rt":742,"stimulus":"<p>Bereit?</p>","button_pressed":"0","trial_type":"html-button-response","trial_index":255,"time_elapsed":537449,"internal_node_id":"0.0-8.0-0.62","subject":"r6vg0soyf6xlcpt"},{"rt":null,"stimulus":"<div style=\"font-size:60px;\">+</div>","key_press":null,"trial_type":"html-keyboard-response","trial_index":256,"time_elapsed":539453,"internal_node_id":"0.0-8.0-1.62","subject":"r6vg0soyf6xlcpt"},{"trial_type":"turing-test","trial_index":257,"time_elapsed":545447,"internal_node_id":"0.0-8.0-2.62","subject":"r6vg0soyf6xlcpt"},{"rt":937,"stimulus":"<p>Welche Sequenz haben Sie als natürlicher empfunden?</p>","button_pressed":"0","test_part":"response","test_stimulus":{"position":0,"left":"bvh/return-bottle-training4-lines.txt","right":"bvh/vr_prediction_models/model(vcgpdm)-dataset(return-bottle)-mode(ELBO)-parts(3)-dyn(25)-lvm(30)-hold(4)/final-lines.txt","att_check":false},"trial_type":"html-button-response","trial_index":258,"time_elapsed":546387,"internal_node_id":"0.0-8.0-3.62","subject":"r6vg0soyf6xlcpt"},{"rt":720,"stimulus":"<p>Bereit?</p>","button_pressed":"0","trial_type":"html-button-response","trial_index":259,"time_elapsed":547110,"internal_node_id":"0.0-8.0-0.63","subject":"r6vg0soyf6xlcpt"},{"rt":null,"stimulus":"<div style=\"font-size:60px;\">+</div>","key_press":null,"trial_type":"html-keyboard-response","trial_index":260,"time_elapsed":549116,"internal_node_id":"0.0-8.0-1.63","subject":"r6vg0soyf6xlcpt"},{"trial_type":"turing-test","trial_index":261,"time_elapsed":552577,"internal_node_id":"0.0-8.0-2.63","subject":"r6vg0soyf6xlcpt"},{"rt":1572,"stimulus":"<p>Welche Sequenz haben Sie als natürlicher empfunden?</p>","button_pressed":"1","test_part":"response","test_stimulus":{"position":1,"left":"bvh/vr_prediction_models/model(vcgpdm)-dataset(pass-bottle-hold)-mode(ELBO)-parts(3)-dyn(25)-lvm(25)-hold(2)/final-lines.txt","right":"bvh/pass-bottle-hold-training2-lines.txt","att_check":false},"trial_type":"html-button-response","trial_index":262,"time_elapsed":554153,"internal_node_id":"0.0-8.0-3.63","subject":"r6vg0soyf6xlcpt"},{"rt":236,"stimulus":"<p>Bereit?</p>","button_pressed":"0","trial_type":"html-button-response","trial_index":263,"time_elapsed":554391,"internal_node_id":"0.0-8.0-0.64","subject":"r6vg0soyf6xlcpt"},{"rt":null,"stimulus":"<div style=\"font-size:60px;\">+</div>","key_press":null,"trial_type":"html-keyboard-response","trial_index":264,"time_elapsed":556395,"internal_node_id":"0.0-8.0-1.64","subject":"r6vg0soyf6xlcpt"},{"trial_type":"turing-test","trial_index":265,"time_elapsed":560144,"internal_node_id":"0.0-8.0-2.64","subject":"r6vg0soyf6xlcpt"},{"rt":727,"stimulus":"<p>Welche Sequenz haben Sie als natürlicher empfunden?</p>","button_pressed":"1","test_part":"response","test_stimulus":{"position":0,"left":"bvh/pass-bottle-hold-training4-lines.txt","right":"bvh/vr_prediction_models/model(vcgpdm)-dataset(pass-bottle-hold)-mode(ELBO)-parts(3)-dyn(25)-lvm(25)-hold(4)/final-lines.txt","att_check":false},"trial_type":"html-button-response","trial_index":266,"time_elapsed":560875,"internal_node_id":"0.0-8.0-3.64","subject":"r6vg0soyf6xlcpt"},{"rt":270,"stimulus":"<p>Bereit?</p>","button_pressed":"0","trial_type":"html-button-response","trial_index":267,"time_elapsed":561148,"internal_node_id":"0.0-8.0-0.65","subject":"r6vg0soyf6xlcpt"},{"rt":null,"stimulus":"<div style=\"font-size:60px;\">+</div>","key_press":null,"trial_type":"html-keyboard-response","trial_index":268,"time_elapsed":563160,"internal_node_id":"0.0-8.0-1.65","subject":"r6vg0soyf6xlcpt"},{"trial_type":"turing-test","trial_index":269,"time_elapsed":569759,"internal_node_id":"0.0-8.0-2.65","subject":"r6vg0soyf6xlcpt"},{"rt":892,"stimulus":"<p>Welche Sequenz haben Sie als natürlicher empfunden?</p>","button_pressed":"1","test_part":"response","test_stimulus":{"position":1,"left":"bvh/vr_prediction_models/model(vcgpdm)-dataset(return-bottle)-mode(ELBO)-parts(3)-dyn(10)-lvm(30)-hold(2)/final-lines.txt","right":"bvh/return-bottle-training2-lines.txt","att_check":false},"trial_type":"html-button-response","trial_index":270,"time_elapsed":570654,"internal_node_id":"0.0-8.0-3.65","subject":"r6vg0soyf6xlcpt"},{"rt":733,"stimulus":"<p>Bereit?</p>","button_pressed":"0","trial_type":"html-button-response","trial_index":271,"time_elapsed":571391,"internal_node_id":"0.0-8.0-0.66","subject":"r6vg0soyf6xlcpt"},{"rt":null,"stimulus":"<div style=\"font-size:60px;\">+</div>","key_press":null,"trial_type":"html-keyboard-response","trial_index":272,"time_elapsed":573398,"internal_node_id":"0.0-8.0-1.66","subject":"r6vg0soyf6xlcpt"},{"trial_type":"turing-test","trial_index":273,"time_elapsed":577274,"internal_node_id":"0.0-8.0-2.66","subject":"r6vg0soyf6xlcpt"},{"rt":597,"stimulus":"<p>Welche Sequenz haben Sie als natürlicher empfunden?</p>","button_pressed":"1","test_part":"response","test_stimulus":{"position":0,"left":"bvh/return-bottle-hold-training4-lines.txt","right":"bvh/vr_prediction_models/model(vcgpdm)-dataset(return-bottle-hold)-mode(ELBO)-parts(1)-dyn(35)-lvm(10)-hold(4)/final-lines.txt","att_check":false},"trial_type":"html-button-response","trial_index":274,"time_elapsed":577874,"internal_node_id":"0.0-8.0-3.66","subject":"r6vg0soyf6xlcpt"},{"rt":2219,"stimulus":"<p>Bereit?</p>","button_pressed":"0","trial_type":"html-button-response","trial_index":275,"time_elapsed":580099,"internal_node_id":"0.0-8.0-0.67","subject":"r6vg0soyf6xlcpt"},{"rt":null,"stimulus":"<div style=\"font-size:60px;\">+</div>","key_press":null,"trial_type":"html-keyboard-response","trial_index":276,"time_elapsed":582110,"internal_node_id":"0.0-8.0-1.67","subject":"r6vg0soyf6xlcpt"},{"trial_type":"turing-test","trial_index":277,"time_elapsed":585486,"internal_node_id":"0.0-8.0-2.67","subject":"r6vg0soyf6xlcpt"},{"rt":877,"stimulus":"<p>Welche Sequenz haben Sie als natürlicher empfunden?</p>","button_pressed":"1","test_part":"response","test_stimulus":{"position":0,"left":"bvh/pass-bottle-hold-training0-lines.txt","right":"bvh/vr_prediction_models/model(tmp)-dataset(pass-bottle-hold)-numprim(8)-hold(0)/final-lines.txt","att_check":false},"trial_type":"html-button-response","trial_index":278,"time_elapsed":586368,"internal_node_id":"0.0-8.0-3.67","subject":"r6vg0soyf6xlcpt"},{"rt":270,"stimulus":"<p>Bereit?</p>","button_pressed":"0","trial_type":"html-button-response","trial_index":279,"time_elapsed":586641,"internal_node_id":"0.0-8.0-0.68","subject":"r6vg0soyf6xlcpt"},{"rt":null,"stimulus":"<div style=\"font-size:60px;\">+</div>","key_press":null,"trial_type":"html-keyboard-response","trial_index":280,"time_elapsed":588646,"internal_node_id":"0.0-8.0-1.68","subject":"r6vg0soyf6xlcpt"},{"trial_type":"turing-test","trial_index":281,"time_elapsed":592177,"internal_node_id":"0.0-8.0-2.68","subject":"r6vg0soyf6xlcpt"},{"rt":687,"stimulus":"<p>Welche Sequenz haben Sie als natürlicher empfunden?</p>","button_pressed":"1","test_part":"response","test_stimulus":{"position":0,"left":"bvh/pass-bottle-hold-training0-lines.txt","right":"bvh/vr_prediction_models/model(vcgpdm)-dataset(pass-bottle-hold)-mode(ELBO)-parts(3)-dyn(20)-lvm(35)-hold(0)/final-lines.txt","att_check":false},"trial_type":"html-button-response","trial_index":282,"time_elapsed":592868,"internal_node_id":"0.0-8.0-3.68","subject":"r6vg0soyf6xlcpt"},{"rt":575,"stimulus":"<p>Bereit?</p>","button_pressed":"0","trial_type":"html-button-response","trial_index":283,"time_elapsed":593446,"internal_node_id":"0.0-8.0-0.69","subject":"r6vg0soyf6xlcpt"},{"rt":null,"stimulus":"<div style=\"font-size:60px;\">+</div>","key_press":null,"trial_type":"html-keyboard-response","trial_index":284,"time_elapsed":595453,"internal_node_id":"0.0-8.0-1.69","subject":"r6vg0soyf6xlcpt"},{"trial_type":"turing-test","trial_index":285,"time_elapsed":599144,"internal_node_id":"0.0-8.0-2.69","subject":"r6vg0soyf6xlcpt"},{"rt":816,"stimulus":"<p>Welche Sequenz haben Sie als natürlicher empfunden?</p>","button_pressed":"1","test_part":"response","test_stimulus":{"position":1,"left":"bvh/vr_prediction_models/model(dmp)-dataset(return-bottle-hold)-npsi(50)-hold(3)/final-lines.txt","right":"bvh/return-bottle-hold-training3-lines.txt","att_check":false},"trial_type":"html-button-response","trial_index":286,"time_elapsed":599965,"internal_node_id":"0.0-8.0-3.69","subject":"r6vg0soyf6xlcpt"},{"rt":557,"stimulus":"<p>Bereit?</p>","button_pressed":"0","trial_type":"html-button-response","trial_index":287,"time_elapsed":600526,"internal_node_id":"0.0-8.0-0.70","subject":"r6vg0soyf6xlcpt"},{"rt":null,"stimulus":"<div style=\"font-size:60px;\">+</div>","key_press":null,"trial_type":"html-keyboard-response","trial_index":288,"time_elapsed":602533,"internal_node_id":"0.0-8.0-1.70","subject":"r6vg0soyf6xlcpt"},{"trial_type":"turing-test","trial_index":289,"time_elapsed":609313,"internal_node_id":"0.0-8.0-2.70","subject":"r6vg0soyf6xlcpt"},{"rt":1210,"stimulus":"<p>Welche Sequenz haben Sie als natürlicher empfunden?</p>","button_pressed":"1","test_part":"response","test_stimulus":{"position":0,"left":"bvh/pass-bottle-training0-lines.txt","right":"bvh/vr_prediction_models/model(tmp)-dataset(pass-bottle)-numprim(3)-hold(0)/final-lines.txt","att_check":false},"trial_type":"html-button-response","trial_index":290,"time_elapsed":610526,"internal_node_id":"0.0-8.0-3.70","subject":"r6vg0soyf6xlcpt"},{"rt":512,"stimulus":"<p>Bereit?</p>","button_pressed":"0","trial_type":"html-button-response","trial_index":291,"time_elapsed":611041,"internal_node_id":"0.0-8.0-0.71","subject":"r6vg0soyf6xlcpt"},{"rt":null,"stimulus":"<div style=\"font-size:60px;\">+</div>","key_press":null,"trial_type":"html-keyboard-response","trial_index":292,"time_elapsed":613045,"internal_node_id":"0.0-8.0-1.71","subject":"r6vg0soyf6xlcpt"},{"trial_type":"turing-test","trial_index":293,"time_elapsed":616477,"internal_node_id":"0.0-8.0-2.71","subject":"r6vg0soyf6xlcpt"},{"rt":868,"stimulus":"<p>Welche Sequenz haben Sie als natürlicher empfunden?</p>","button_pressed":"1","test_part":"response","test_stimulus":{"position":1,"left":"bvh/vr_prediction_models/model(dmp)-dataset(return-bottle-hold)-npsi(50)-hold(1)/final-lines.txt","right":"bvh/return-bottle-hold-training1-lines.txt","att_check":true},"trial_type":"html-button-response","trial_index":294,"time_elapsed":617349,"internal_node_id":"0.0-8.0-3.71","subject":"r6vg0soyf6xlcpt"},{"rt":454,"stimulus":"<p>Bereit?</p>","button_pressed":"0","trial_type":"html-button-response","trial_index":295,"time_elapsed":617805,"internal_node_id":"0.0-8.0-0.72","subject":"r6vg0soyf6xlcpt"},{"rt":null,"stimulus":"<div style=\"font-size:60px;\">+</div>","key_press":null,"trial_type":"html-keyboard-response","trial_index":296,"time_elapsed":619811,"internal_node_id":"0.0-8.0-1.72","subject":"r6vg0soyf6xlcpt"},{"trial_type":"turing-test","trial_index":297,"time_elapsed":625683,"internal_node_id":"0.0-8.0-2.72","subject":"r6vg0soyf6xlcpt"},{"rt":730,"stimulus":"<p>Welche Sequenz haben Sie als natürlicher empfunden?</p>","button_pressed":"0","test_part":"response","test_stimulus":{"position":0,"left":"bvh/return-bottle-training3-lines.txt","right":"bvh/vr_prediction_models/model(vcgpdm)-dataset(return-bottle)-mode(ELBO)-parts(1)-dyn(10)-lvm(30)-hold(3)/final-lines.txt","att_check":false},"trial_type":"html-button-response","trial_index":298,"time_elapsed":626416,"internal_node_id":"0.0-8.0-3.72","subject":"r6vg0soyf6xlcpt"},{"rt":693,"stimulus":"<p>Bereit?</p>","button_pressed":"0","trial_type":"html-button-response","trial_index":299,"time_elapsed":627112,"internal_node_id":"0.0-8.0-0.73","subject":"r6vg0soyf6xlcpt"},{"rt":null,"stimulus":"<div style=\"font-size:60px;\">+</div>","key_press":null,"trial_type":"html-keyboard-response","trial_index":300,"time_elapsed":629121,"internal_node_id":"0.0-8.0-1.73","subject":"r6vg0soyf6xlcpt"},{"trial_type":"turing-test","trial_index":301,"time_elapsed":632476,"internal_node_id":"0.0-8.0-2.73","subject":"r6vg0soyf6xlcpt"},{"rt":1045,"stimulus":"<p>Welche Sequenz haben Sie als natürlicher empfunden?</p>","button_pressed":"0","test_part":"response","test_stimulus":{"position":0,"left":"bvh/pass-bottle-hold-training2-lines.txt","right":"bvh/vr_prediction_models/model(dmp)-dataset(pass-bottle-hold)-npsi(30)-hold(2)/final-lines.txt","att_check":true},"trial_type":"html-button-response","trial_index":302,"time_elapsed":633524,"internal_node_id":"0.0-8.0-3.73","subject":"r6vg0soyf6xlcpt"},{"rt":1057,"stimulus":"<p>Bereit?</p>","button_pressed":"0","trial_type":"html-button-response","trial_index":303,"time_elapsed":634584,"internal_node_id":"0.0-8.0-0.74","subject":"r6vg0soyf6xlcpt"},{"rt":null,"stimulus":"<div style=\"font-size:60px;\">+</div>","key_press":null,"trial_type":"html-keyboard-response","trial_index":304,"time_elapsed":636589,"internal_node_id":"0.0-8.0-1.74","subject":"r6vg0soyf6xlcpt"},{"trial_type":"turing-test","trial_index":305,"time_elapsed":642545,"internal_node_id":"0.0-8.0-2.74","subject":"r6vg0soyf6xlcpt"},{"rt":768,"stimulus":"<p>Welche Sequenz haben Sie als natürlicher empfunden?</p>","button_pressed":"1","test_part":"response","test_stimulus":{"position":1,"left":"bvh/vr_prediction_models/model(tmp)-dataset(return-bottle)-numprim(3)-hold(1)/final-lines.txt","right":"bvh/return-bottle-training1-lines.txt","att_check":false},"trial_type":"html-button-response","trial_index":306,"time_elapsed":643316,"internal_node_id":"0.0-8.0-3.74","subject":"r6vg0soyf6xlcpt"},{"rt":542,"stimulus":"<p>Bereit?</p>","button_pressed":"0","trial_type":"html-button-response","trial_index":307,"time_elapsed":643862,"internal_node_id":"0.0-8.0-0.75","subject":"r6vg0soyf6xlcpt"},{"rt":null,"stimulus":"<div style=\"font-size:60px;\">+</div>","key_press":null,"trial_type":"html-keyboard-response","trial_index":308,"time_elapsed":645869,"internal_node_id":"0.0-8.0-1.75","subject":"r6vg0soyf6xlcpt"},{"trial_type":"turing-test","trial_index":309,"time_elapsed":651926,"internal_node_id":"0.0-8.0-2.75","subject":"r6vg0soyf6xlcpt"},{"rt":702,"stimulus":"<p>Welche Sequenz haben Sie als natürlicher empfunden?</p>","button_pressed":"1","test_part":"response","test_stimulus":{"position":0,"left":"bvh/return-bottle-training1-lines.txt","right":"bvh/vr_prediction_models/model(tmp)-dataset(return-bottle)-numprim(5)-hold(1)/final-lines.txt","att_check":false},"trial_type":"html-button-response","trial_index":310,"time_elapsed":652631,"internal_node_id":"0.0-8.0-3.75","subject":"r6vg0soyf6xlcpt"},{"rt":608,"stimulus":"<p>Bereit?</p>","button_pressed":"0","trial_type":"html-button-response","trial_index":311,"time_elapsed":653243,"internal_node_id":"0.0-8.0-0.76","subject":"r6vg0soyf6xlcpt"},{"rt":null,"stimulus":"<div style=\"font-size:60px;\">+</div>","key_press":null,"trial_type":"html-keyboard-response","trial_index":312,"time_elapsed":655251,"internal_node_id":"0.0-8.0-1.76","subject":"r6vg0soyf6xlcpt"},{"trial_type":"turing-test","trial_index":313,"time_elapsed":661218,"internal_node_id":"0.0-8.0-2.76","subject":"r6vg0soyf6xlcpt"},{"rt":1095,"stimulus":"<p>Welche Sequenz haben Sie als natürlicher empfunden?</p>","button_pressed":"1","test_part":"response","test_stimulus":{"position":0,"left":"bvh/pass-bottle-training3-lines.txt","right":"bvh/vr_prediction_models/model(vcgpdm)-dataset(pass-bottle)-mode(ELBO)-parts(1)-dyn(10)-lvm(5)-hold(3)/final-lines.txt","att_check":false},"trial_type":"html-button-response","trial_index":314,"time_elapsed":662317,"internal_node_id":"0.0-8.0-3.76","subject":"r6vg0soyf6xlcpt"},{"rt":548,"stimulus":"<p>Bereit?</p>","button_pressed":"0","trial_type":"html-button-response","trial_index":315,"time_elapsed":662869,"internal_node_id":"0.0-8.0-0.77","subject":"r6vg0soyf6xlcpt"},{"rt":null,"stimulus":"<div style=\"font-size:60px;\">+</div>","key_press":null,"trial_type":"html-keyboard-response","trial_index":316,"time_elapsed":664872,"internal_node_id":"0.0-8.0-1.77","subject":"r6vg0soyf6xlcpt"},{"trial_type":"turing-test","trial_index":317,"time_elapsed":668726,"internal_node_id":"0.0-8.0-2.77","subject":"r6vg0soyf6xlcpt"},{"rt":938,"stimulus":"<p>Welche Sequenz haben Sie als natürlicher empfunden?</p>","button_pressed":"0","test_part":"response","test_stimulus":{"position":0,"left":"bvh/return-bottle-hold-training4-lines.txt","right":"bvh/vr_prediction_models/model(vcgpdm)-dataset(return-bottle-hold)-mode(ELBO)-parts(1)-dyn(10)-lvm(25)-hold(4)/final-lines.txt","att_check":false},"trial_type":"html-button-response","trial_index":318,"time_elapsed":669667,"internal_node_id":"0.0-8.0-3.77","subject":"r6vg0soyf6xlcpt"},{"rt":348,"stimulus":"<p>Bereit?</p>","button_pressed":"0","trial_type":"html-button-response","trial_index":319,"time_elapsed":670019,"internal_node_id":"0.0-8.0-0.78","subject":"r6vg0soyf6xlcpt"},{"rt":null,"stimulus":"<div style=\"font-size:60px;\">+</div>","key_press":null,"trial_type":"html-keyboard-response","trial_index":320,"time_elapsed":672025,"internal_node_id":"0.0-8.0-1.78","subject":"r6vg0soyf6xlcpt"},{"trial_type":"turing-test","trial_index":321,"time_elapsed":677384,"internal_node_id":"0.0-8.0-2.78","subject":"r6vg0soyf6xlcpt"},{"rt":823,"stimulus":"<p>Welche Sequenz haben Sie als natürlicher empfunden?</p>","button_pressed":"1","test_part":"response","test_stimulus":{"position":1,"left":"bvh/vr_prediction_models/model(vcgpdm)-dataset(return-bottle-hold)-mode(ELBO)-parts(1)-dyn(30)-lvm(35)-hold(0)/final-lines.txt","right":"bvh/return-bottle-hold-training0-lines.txt","att_check":false},"trial_type":"html-button-response","trial_index":322,"time_elapsed":678210,"internal_node_id":"0.0-8.0-3.78","subject":"r6vg0soyf6xlcpt"},{"rt":846,"stimulus":"<p>Bereit?</p>","button_pressed":"0","trial_type":"html-button-response","trial_index":323,"time_elapsed":679058,"internal_node_id":"0.0-8.0-0.79","subject":"r6vg0soyf6xlcpt"},{"rt":null,"stimulus":"<div style=\"font-size:60px;\">+</div>","key_press":null,"trial_type":"html-keyboard-response","trial_index":324,"time_elapsed":681062,"internal_node_id":"0.0-8.0-1.79","subject":"r6vg0soyf6xlcpt"},{"trial_type":"turing-test","trial_index":325,"time_elapsed":684436,"internal_node_id":"0.0-8.0-2.79","subject":"r6vg0soyf6xlcpt"},{"rt":1173,"stimulus":"<p>Welche Sequenz haben Sie als natürlicher empfunden?</p>","button_pressed":"1","test_part":"response","test_stimulus":{"position":1,"left":"bvh/vr_prediction_models/model(tmp)-dataset(pass-bottle-hold)-numprim(11)-hold(0)/final-lines.txt","right":"bvh/pass-bottle-hold-training0-lines.txt","att_check":false},"trial_type":"html-button-response","trial_index":326,"time_elapsed":685611,"internal_node_id":"0.0-8.0-3.79","subject":"r6vg0soyf6xlcpt"},{"rt":558,"stimulus":"<p>Bereit?</p>","button_pressed":"0","trial_type":"html-button-response","trial_index":327,"time_elapsed":686173,"internal_node_id":"0.0-8.0-0.80","subject":"r6vg0soyf6xlcpt"},{"rt":null,"stimulus":"<div style=\"font-size:60px;\">+</div>","key_press":null,"trial_type":"html-keyboard-response","trial_index":328,"time_elapsed":688179,"internal_node_id":"0.0-8.0-1.80","subject":"r6vg0soyf6xlcpt"},{"trial_type":"turing-test","trial_index":329,"time_elapsed":692016,"internal_node_id":"0.0-8.0-2.80","subject":"r6vg0soyf6xlcpt"},{"rt":932,"stimulus":"<p>Welche Sequenz haben Sie als natürlicher empfunden?</p>","button_pressed":"0","test_part":"response","test_stimulus":{"position":0,"left":"bvh/return-bottle-hold-training4-lines.txt","right":"bvh/vr_prediction_models/model(vcgpdm)-dataset(return-bottle-hold)-mode(ELBO)-parts(3)-dyn(20)-lvm(20)-hold(4)/final-lines.txt","att_check":false},"trial_type":"html-button-response","trial_index":330,"time_elapsed":692953,"internal_node_id":"0.0-8.0-3.80","subject":"r6vg0soyf6xlcpt"},{"rt":598,"stimulus":"<p>Bereit?</p>","button_pressed":"0","trial_type":"html-button-response","trial_index":331,"time_elapsed":693554,"internal_node_id":"0.0-8.0-0.81","subject":"r6vg0soyf6xlcpt"},{"rt":null,"stimulus":"<div style=\"font-size:60px;\">+</div>","key_press":null,"trial_type":"html-keyboard-response","trial_index":332,"time_elapsed":695561,"internal_node_id":"0.0-8.0-1.81","subject":"r6vg0soyf6xlcpt"},{"trial_type":"turing-test","trial_index":333,"time_elapsed":700950,"internal_node_id":"0.0-8.0-2.81","subject":"r6vg0soyf6xlcpt"},{"rt":1033,"stimulus":"<p>Welche Sequenz haben Sie als natürlicher empfunden?</p>","button_pressed":"1","test_part":"response","test_stimulus":{"position":1,"left":"bvh/vr_prediction_models/model(tmp)-dataset(return-bottle)-numprim(10)-hold(0)/final-lines.txt","right":"bvh/return-bottle-training0-lines.txt","att_check":false},"trial_type":"html-button-response","trial_index":334,"time_elapsed":701987,"internal_node_id":"0.0-8.0-3.81","subject":"r6vg0soyf6xlcpt"},{"rt":502,"stimulus":"<p>Bereit?</p>","button_pressed":"0","trial_type":"html-button-response","trial_index":335,"time_elapsed":702491,"internal_node_id":"0.0-8.0-0.82","subject":"r6vg0soyf6xlcpt"},{"rt":null,"stimulus":"<div style=\"font-size:60px;\">+</div>","key_press":null,"trial_type":"html-keyboard-response","trial_index":336,"time_elapsed":704493,"internal_node_id":"0.0-8.0-1.82","subject":"r6vg0soyf6xlcpt"},{"trial_type":"turing-test","trial_index":337,"time_elapsed":711218,"internal_node_id":"0.0-8.0-2.82","subject":"r6vg0soyf6xlcpt"},{"rt":679,"stimulus":"<p>Welche Sequenz haben Sie als natürlicher empfunden?</p>","button_pressed":"0","test_part":"response","test_stimulus":{"position":0,"left":"bvh/return-bottle-training2-lines.txt","right":"bvh/vr_prediction_models/model(vcgpdm)-dataset(return-bottle)-mode(ELBO)-parts(1)-dyn(25)-lvm(35)-hold(2)/final-lines.txt","att_check":false},"trial_type":"html-button-response","trial_index":338,"time_elapsed":711901,"internal_node_id":"0.0-8.0-3.82","subject":"r6vg0soyf6xlcpt"},{"rt":338,"stimulus":"<p>Bereit?</p>","button_pressed":"0","trial_type":"html-button-response","trial_index":339,"time_elapsed":712244,"internal_node_id":"0.0-8.0-0.83","subject":"r6vg0soyf6xlcpt"},{"rt":null,"stimulus":"<div style=\"font-size:60px;\">+</div>","key_press":null,"trial_type":"html-keyboard-response","trial_index":340,"time_elapsed":714251,"internal_node_id":"0.0-8.0-1.83","subject":"r6vg0soyf6xlcpt"},{"trial_type":"turing-test","trial_index":341,"time_elapsed":719526,"internal_node_id":"0.0-8.0-2.83","subject":"r6vg0soyf6xlcpt"},{"rt":758,"stimulus":"<p>Welche Sequenz haben Sie als natürlicher empfunden?</p>","button_pressed":"1","test_part":"response","test_stimulus":{"position":1,"left":"bvh/vr_prediction_models/model(dmp)-dataset(return-bottle-hold)-npsi(50)-hold(0)/final-lines.txt","right":"bvh/return-bottle-hold-training0-lines.txt","att_check":false},"trial_type":"html-button-response","trial_index":342,"time_elapsed":720289,"internal_node_id":"0.0-8.0-3.83","subject":"r6vg0soyf6xlcpt"},{"rt":276,"stimulus":"<p>Bereit?</p>","button_pressed":"0","trial_type":"html-button-response","trial_index":343,"time_elapsed":720569,"internal_node_id":"0.0-8.0-0.84","subject":"r6vg0soyf6xlcpt"},{"rt":null,"stimulus":"<div style=\"font-size:60px;\">+</div>","key_press":null,"trial_type":"html-keyboard-response","trial_index":344,"time_elapsed":722574,"internal_node_id":"0.0-8.0-1.84","subject":"r6vg0soyf6xlcpt"},{"trial_type":"turing-test","trial_index":345,"time_elapsed":727877,"internal_node_id":"0.0-8.0-2.84","subject":"r6vg0soyf6xlcpt"},{"rt":962,"stimulus":"<p>Welche Sequenz haben Sie als natürlicher empfunden?</p>","button_pressed":"1","test_part":"response","test_stimulus":{"position":0,"left":"bvh/return-bottle-training0-lines.txt","right":"bvh/vr_prediction_models/model(tmp)-dataset(return-bottle)-numprim(15)-hold(0)/final-lines.txt","att_check":false},"trial_type":"html-button-response","trial_index":346,"time_elapsed":728842,"internal_node_id":"0.0-8.0-3.84","subject":"r6vg0soyf6xlcpt"},{"rt":618,"stimulus":"<p>Bereit?</p>","button_pressed":"0","trial_type":"html-button-response","trial_index":347,"time_elapsed":729464,"internal_node_id":"0.0-8.0-0.85","subject":"r6vg0soyf6xlcpt"},{"rt":null,"stimulus":"<div style=\"font-size:60px;\">+</div>","key_press":null,"trial_type":"html-keyboard-response","trial_index":348,"time_elapsed":731471,"internal_node_id":"0.0-8.0-1.85","subject":"r6vg0soyf6xlcpt"},{"trial_type":"turing-test","trial_index":349,"time_elapsed":736597,"internal_node_id":"0.0-8.0-2.85","subject":"r6vg0soyf6xlcpt"},{"rt":879,"stimulus":"<p>Welche Sequenz haben Sie als natürlicher empfunden?</p>","button_pressed":"1","test_part":"response","test_stimulus":{"position":1,"left":"bvh/vr_prediction_models/model(dmp)-dataset(return-bottle-hold)-npsi(40)-hold(0)/final-lines.txt","right":"bvh/return-bottle-hold-training0-lines.txt","att_check":false},"trial_type":"html-button-response","trial_index":350,"time_elapsed":737480,"internal_node_id":"0.0-8.0-3.85","subject":"r6vg0soyf6xlcpt"},{"rt":513,"stimulus":"<p>Bereit?</p>","button_pressed":"0","trial_type":"html-button-response","trial_index":351,"time_elapsed":737997,"internal_node_id":"0.0-8.0-0.86","subject":"r6vg0soyf6xlcpt"},{"rt":null,"stimulus":"<div style=\"font-size:60px;\">+</div>","key_press":null,"trial_type":"html-keyboard-response","trial_index":352,"time_elapsed":740003,"internal_node_id":"0.0-8.0-1.86","subject":"r6vg0soyf6xlcpt"},{"trial_type":"turing-test","trial_index":353,"time_elapsed":745098,"internal_node_id":"0.0-8.0-2.86","subject":"r6vg0soyf6xlcpt"},{"rt":707,"stimulus":"<p>Welche Sequenz haben Sie als natürlicher empfunden?</p>","button_pressed":"1","test_part":"response","test_stimulus":{"position":1,"left":"bvh/vr_prediction_models/model(tmp)-dataset(return-bottle-hold)-numprim(7)-hold(0)/final-lines.txt","right":"bvh/return-bottle-hold-training0-lines.txt","att_check":false},"trial_type":"html-button-response","trial_index":354,"time_elapsed":745809,"internal_node_id":"0.0-8.0-3.86","subject":"r6vg0soyf6xlcpt"},{"rt":292,"stimulus":"<p>Bereit?</p>","button_pressed":"0","trial_type":"html-button-response","trial_index":355,"time_elapsed":746104,"internal_node_id":"0.0-8.0-0.87","subject":"r6vg0soyf6xlcpt"},{"rt":null,"stimulus":"<div style=\"font-size:60px;\">+</div>","key_press":null,"trial_type":"html-keyboard-response","trial_index":356,"time_elapsed":748111,"internal_node_id":"0.0-8.0-1.87","subject":"r6vg0soyf6xlcpt"},{"trial_type":"turing-test","trial_index":357,"time_elapsed":753882,"internal_node_id":"0.0-8.0-2.87","subject":"r6vg0soyf6xlcpt"},{"rt":843,"stimulus":"<p>Welche Sequenz haben Sie als natürlicher empfunden?</p>","button_pressed":"0","test_part":"response","test_stimulus":{"position":0,"left":"bvh/return-bottle-training4-lines.txt","right":"bvh/vr_prediction_models/model(dmp)-dataset(return-bottle)-npsi(40)-hold(4)/final-lines.txt","att_check":false},"trial_type":"html-button-response","trial_index":358,"time_elapsed":754729,"internal_node_id":"0.0-8.0-3.87","subject":"r6vg0soyf6xlcpt"},{"rt":711,"stimulus":"<p>Bereit?</p>","button_pressed":"0","trial_type":"html-button-response","trial_index":359,"time_elapsed":755442,"internal_node_id":"0.0-8.0-0.88","subject":"r6vg0soyf6xlcpt"},{"rt":null,"stimulus":"<div style=\"font-size:60px;\">+</div>","key_press":null,"trial_type":"html-keyboard-response","trial_index":360,"time_elapsed":757449,"internal_node_id":"0.0-8.0-1.88","subject":"r6vg0soyf6xlcpt"},{"trial_type":"turing-test","trial_index":361,"time_elapsed":763341,"internal_node_id":"0.0-8.0-2.88","subject":"r6vg0soyf6xlcpt"},{"rt":764,"stimulus":"<p>Welche Sequenz haben Sie als natürlicher empfunden?</p>","button_pressed":"0","test_part":"response","test_stimulus":{"position":0,"left":"bvh/pass-bottle-training3-lines.txt","right":"bvh/vr_prediction_models/model(dmp)-dataset(pass-bottle)-npsi(50)-hold(3)/final-lines.txt","att_check":false},"trial_type":"html-button-response","trial_index":362,"time_elapsed":764109,"internal_node_id":"0.0-8.0-3.88","subject":"r6vg0soyf6xlcpt"},{"rt":551,"stimulus":"<p>Bereit?</p>","button_pressed":"0","trial_type":"html-button-response","trial_index":363,"time_elapsed":764665,"internal_node_id":"0.0-8.0-0.89","subject":"r6vg0soyf6xlcpt"},{"rt":null,"stimulus":"<div style=\"font-size:60px;\">+</div>","key_press":null,"trial_type":"html-keyboard-response","trial_index":364,"time_elapsed":766672,"internal_node_id":"0.0-8.0-1.89","subject":"r6vg0soyf6xlcpt"},{"trial_type":"turing-test","trial_index":365,"time_elapsed":770286,"internal_node_id":"0.0-8.0-2.89","subject":"r6vg0soyf6xlcpt"},{"rt":804,"stimulus":"<p>Welche Sequenz haben Sie als natürlicher empfunden?</p>","button_pressed":"0","test_part":"response","test_stimulus":{"position":1,"left":"bvh/vr_prediction_models/model(vcgpdm)-dataset(return-bottle-hold)-mode(ELBO)-parts(1)-dyn(20)-lvm(20)-hold(2)/final-lines.txt","right":"bvh/return-bottle-hold-training2-lines.txt","att_check":false},"trial_type":"html-button-response","trial_index":366,"time_elapsed":771095,"internal_node_id":"0.0-8.0-3.89","subject":"r6vg0soyf6xlcpt"},{"rt":549,"stimulus":"<p>Bereit?</p>","button_pressed":"0","trial_type":"html-button-response","trial_index":367,"time_elapsed":771648,"internal_node_id":"0.0-8.0-0.90","subject":"r6vg0soyf6xlcpt"},{"rt":null,"stimulus":"<div style=\"font-size:60px;\">+</div>","key_press":null,"trial_type":"html-keyboard-response","trial_index":368,"time_elapsed":773650,"internal_node_id":"0.0-8.0-1.90","subject":"r6vg0soyf6xlcpt"},{"trial_type":"turing-test","trial_index":369,"time_elapsed":777175,"internal_node_id":"0.0-8.0-2.90","subject":"r6vg0soyf6xlcpt"},{"rt":1027,"stimulus":"<p>Welche Sequenz haben Sie als natürlicher empfunden?</p>","button_pressed":"0","test_part":"response","test_stimulus":{"position":1,"left":"bvh/vr_prediction_models/model(tmp)-dataset(return-bottle-hold)-numprim(8)-hold(2)/final-lines.txt","right":"bvh/return-bottle-hold-training2-lines.txt","att_check":false},"trial_type":"html-button-response","trial_index":370,"time_elapsed":778207,"internal_node_id":"0.0-8.0-3.90","subject":"r6vg0soyf6xlcpt"},{"rt":245,"stimulus":"<p>Bereit?</p>","button_pressed":"0","trial_type":"html-button-response","trial_index":371,"time_elapsed":778455,"internal_node_id":"0.0-8.0-0.91","subject":"r6vg0soyf6xlcpt"},{"rt":null,"stimulus":"<div style=\"font-size:60px;\">+</div>","key_press":null,"trial_type":"html-keyboard-response","trial_index":372,"time_elapsed":780461,"internal_node_id":"0.0-8.0-1.91","subject":"r6vg0soyf6xlcpt"},{"trial_type":"turing-test","trial_index":373,"time_elapsed":786282,"internal_node_id":"0.0-8.0-2.91","subject":"r6vg0soyf6xlcpt"},{"rt":834,"stimulus":"<p>Welche Sequenz haben Sie als natürlicher empfunden?</p>","button_pressed":"0","test_part":"response","test_stimulus":{"position":0,"left":"bvh/pass-bottle-training3-lines.txt","right":"bvh/vr_prediction_models/model(dmp)-dataset(pass-bottle)-npsi(10)-hold(3)/final-lines.txt","att_check":true},"trial_type":"html-button-response","trial_index":374,"time_elapsed":787120,"internal_node_id":"0.0-8.0-3.91","subject":"r6vg0soyf6xlcpt"},{"rt":721,"stimulus":"<p>Bereit?</p>","button_pressed":"0","trial_type":"html-button-response","trial_index":375,"time_elapsed":787845,"internal_node_id":"0.0-8.0-0.92","subject":"r6vg0soyf6xlcpt"},{"rt":null,"stimulus":"<div style=\"font-size:60px;\">+</div>","key_press":null,"trial_type":"html-keyboard-response","trial_index":376,"time_elapsed":789847,"internal_node_id":"0.0-8.0-1.92","subject":"r6vg0soyf6xlcpt"},{"trial_type":"turing-test","trial_index":377,"time_elapsed":793438,"internal_node_id":"0.0-8.0-2.92","subject":"r6vg0soyf6xlcpt"},{"rt":1057,"stimulus":"<p>Welche Sequenz haben Sie als natürlicher empfunden?</p>","button_pressed":"1","test_part":"response","test_stimulus":{"position":1,"left":"bvh/vr_prediction_models/model(dmp)-dataset(pass-bottle-hold)-npsi(50)-hold(4)/final-lines.txt","right":"bvh/pass-bottle-hold-training4-lines.txt","att_check":false},"trial_type":"html-button-response","trial_index":378,"time_elapsed":794500,"internal_node_id":"0.0-8.0-3.92","subject":"r6vg0soyf6xlcpt"},{"rt":591,"stimulus":"<p>Bereit?</p>","button_pressed":"0","trial_type":"html-button-response","trial_index":379,"time_elapsed":795094,"internal_node_id":"0.0-8.0-0.93","subject":"r6vg0soyf6xlcpt"},{"rt":null,"stimulus":"<div style=\"font-size:60px;\">+</div>","key_press":null,"trial_type":"html-keyboard-response","trial_index":380,"time_elapsed":797096,"internal_node_id":"0.0-8.0-1.93","subject":"r6vg0soyf6xlcpt"},{"trial_type":"turing-test","trial_index":381,"time_elapsed":803115,"internal_node_id":"0.0-8.0-2.93","subject":"r6vg0soyf6xlcpt"},{"rt":1013,"stimulus":"<p>Welche Sequenz haben Sie als natürlicher empfunden?</p>","button_pressed":"0","test_part":"response","test_stimulus":{"position":0,"left":"bvh/pass-bottle-training2-lines.txt","right":"bvh/vr_prediction_models/model(dmp)-dataset(pass-bottle)-npsi(30)-hold(2)/final-lines.txt","att_check":false},"trial_type":"html-button-response","trial_index":382,"time_elapsed":804131,"internal_node_id":"0.0-8.0-3.93","subject":"r6vg0soyf6xlcpt"},{"rt":560,"stimulus":"<p>Bereit?</p>","button_pressed":"0","trial_type":"html-button-response","trial_index":383,"time_elapsed":804695,"internal_node_id":"0.0-8.0-0.94","subject":"r6vg0soyf6xlcpt"},{"rt":null,"stimulus":"<div style=\"font-size:60px;\">+</div>","key_press":null,"trial_type":"html-keyboard-response","trial_index":384,"time_elapsed":806705,"internal_node_id":"0.0-8.0-1.94","subject":"r6vg0soyf6xlcpt"},{"trial_type":"turing-test","trial_index":385,"time_elapsed":812525,"internal_node_id":"0.0-8.0-2.94","subject":"r6vg0soyf6xlcpt"},{"rt":1345,"stimulus":"<p>Welche Sequenz haben Sie als natürlicher empfunden?</p>","button_pressed":"0","test_part":"response","test_stimulus":{"position":0,"left":"bvh/return-bottle-training0-lines.txt","right":"bvh/vr_prediction_models/model(vcgpdm)-dataset(return-bottle)-mode(ELBO)-parts(3)-dyn(20)-lvm(15)-hold(0)/final-lines.txt","att_check":false},"trial_type":"html-button-response","trial_index":386,"time_elapsed":813874,"internal_node_id":"0.0-8.0-3.94","subject":"r6vg0soyf6xlcpt"},{"rt":706,"stimulus":"<p>Bereit?</p>","button_pressed":"0","trial_type":"html-button-response","trial_index":387,"time_elapsed":814585,"internal_node_id":"0.0-8.0-0.95","subject":"r6vg0soyf6xlcpt"},{"rt":null,"stimulus":"<div style=\"font-size:60px;\">+</div>","key_press":null,"trial_type":"html-keyboard-response","trial_index":388,"time_elapsed":816589,"internal_node_id":"0.0-8.0-1.95","subject":"r6vg0soyf6xlcpt"},{"trial_type":"turing-tes