[{"rt":2236.8250000290573,"stimulus":"<p>Welcome!<br> Please choose your language to start the experiment in the chosen language.</p><p>Willkommen!<br> Bitte wählen Sie eine Sprache, um das Experiment in der ausgewählten Sprache zu starten</p>","button_pressed":"1","trial_type":"html-button-response","trial_index":0,"time_elapsed":2272,"internal_node_id":"0.0-0.0","subject":"d3kcc3q54urk79u","sona":"7549"},{"view_history":"[{\"page_index\":0,\"viewing_time\":3110.1899999193847},{\"page_index\":1,\"viewing_time\":1611.6850001271814},{\"page_index\":2,\"viewing_time\":833.2650000229478},{\"page_index\":3,\"viewing_time\":2267.1599998138845},{\"page_index\":4,\"viewing_time\":1773.2500000856817}]","rt":9596.589999971911,"trial_type":"instructions","trial_index":1,"time_elapsed":11870,"internal_node_id":"0.0-1.0-0.0","subject":"d3kcc3q54urk79u","sona":"7549"},{"rt":1097.0299998298287,"stimulus":"<p>Bereit?</p>","key_press":32,"trial_type":"html-keyboard-response","trial_index":2,"time_elapsed":12969,"internal_node_id":"0.0-3.0","subject":"d3kcc3q54urk79u","sona":"7549"},{"rt":null,"stimulus":"<div style=\"font-size:60px;\">+</div>","key_press":null,"trial_type":"html-keyboard-response","trial_index":3,"time_elapsed":14972,"internal_node_id":"0.0-4.0","subject":"d3kcc3q54urk79u","sona":"7549"},{"trial_type":"training","trial_index":4,"time_elapsed":18242,"internal_node_id":"0.0-5.0","subject":"d3kcc3q54urk79u","sona":"7549"},{"rt":1948.3849999960512,"stimulus":"<p>Welche Sequenz haben Sie als natürlicher empfunden?</p>","key_press":70,"trial_type":"html-keyboard-response","trial_index":5,"time_elapsed":20192,"internal_node_id":"0.0-6.0","subject":"d3kcc3q54urk79u","sona":"7549"},{"rt":4868.745000101626,"stimulus":"<p>Das Experiment startet nun.</p><p><small>Bitte drücken Sie den Knopf, wenn Sie bereit sind.</small></p>","button_pressed":"0","trial_type":"html-button-response","trial_index":6,"time_elapsed":25063,"internal_node_id":"0.0-7.0","subject":"d3kcc3q54urk79u","sona":"7549"},{"rt":4048.5749999061227,"stimulus":"<p>Bereit?</p>","key_press":32,"trial_type":"html-keyboard-response","trial_index":7,"time_elapsed":29113,"internal_node_id":"0.0-8.0-0.0","subject":"d3kcc3q54urk79u","sona":"7549"},{"rt":null,"stimulus":"<div style=\"font-size:60px;\">+</div>","key_press":null,"trial_type":"html-keyboard-response","trial_index":8,"time_elapsed":31117,"internal_node_id":"0.0-8.0-1.0","subject":"d3kcc3q54urk79u","sona":"7549"},{"trial_type":"turing-test","trial_index":9,"time_elapsed":34640,"internal_node_id":"0.0-8.0-2.0","subject":"d3kcc3q54urk79u","sona":"7549"},{"rt":1476.6100000124425,"stimulus":"<p>Welche Sequenz haben Sie als natürlicher empfunden?</p>","key_press":74,"test_part":"response","test_stimulus":{"position":1,"left":"bvh/vr_prediction_models/model(vcgpdm)-dataset(pass-bottle-hold)-mode(ELBO)-parts(1)-dyn(35)-lvm(30)-hold(3)/final-lines.txt","right":"bvh/pass-bottle-hold-training3-lines.txt","att_check":false},"trial_type":"html-keyboard-response","trial_index":10,"time_elapsed":36121,"internal_node_id":"0.0-8.0-3.0","subject":"d3kcc3q54urk79u","sona":"7549"},{"rt":387.5549999065697,"stimulus":"<p>Bereit?</p>","key_press":32,"trial_type":"html-keyboard-response","trial_index":11,"time_elapsed":36512,"internal_node_id":"0.0-8.0-0.1","subject":"d3kcc3q54urk79u","sona":"7549"},{"rt":null,"stimulus":"<div style=\"font-size:60px;\">+</div>","key_press":null,"trial_type":"html-keyboard-response","trial_index":12,"time_elapsed":38516,"internal_node_id":"0.0-8.0-1.1","subject":"d3kcc3q54urk79u","sona":"7549"},{"trial_type":"turing-test","trial_index":13,"time_elapsed":44800,"internal_node_id":"0.0-8.0-2.1","subject":"d3kcc3q54urk79u","sona":"7549"},{"rt":1427.8049999848008,"stimulus":"<p>Welche Sequenz haben Sie als natürlicher empfunden?</p>","key_press":70,"test_part":"response","test_stimulus":{"position":0,"left":"bvh/pass-bottle-training3-lines.txt","right":"bvh/vr_prediction_models/model(vcgpdm)-dataset(pass-bottle)-mode(ELBO)-parts(1)-dyn(10)-lvm(30)-hold(3)/final-lines.txt","att_check":false},"trial_type":"html-keyboard-response","trial_index":14,"time_elapsed":46232,"internal_node_id":"0.0-8.0-3.1","subject":"d3kcc3q54urk79u","sona":"7549"},{"rt":444.36000008136034,"stimulus":"<p>Bereit?</p>","key_press":32,"trial_type":"html-keyboard-response","trial_index":15,"time_elapsed":46680,"internal_node_id":"0.0-8.0-0.2","subject":"d3kcc3q54urk79u","sona":"7549"},{"rt":null,"stimulus":"<div style=\"font-size:60px;\">+</div>","key_press":null,"trial_type":"html-keyboard-response","trial_index":16,"time_elapsed":48684,"internal_node_id":"0.0-8.0-1.2","subject":"d3kcc3q54urk79u","sona":"7549"},{"trial_type":"turing-test","trial_index":17,"time_elapsed":54824,"internal_node_id":"0.0-8.0-2.2","subject":"d3kcc3q54urk79u","sona":"7549"},{"rt":1981.059999903664,"stimulus":"<p>Welche Sequenz haben Sie als natürlicher empfunden?</p>","key_press":70,"test_part":"response","test_stimulus":{"position":1,"left":"bvh/vr_prediction_models/model(tmp)-dataset(return-bottle)-numprim(4)-hold(1)/final-lines.txt","right":"bvh/return-bottle-training1-lines.txt","att_check":false},"trial_type":"html-keyboard-response","trial_index":18,"time_elapsed":56809,"internal_node_id":"0.0-8.0-3.2","subject":"d3kcc3q54urk79u","sona":"7549"},{"rt":412.0449998881668,"stimulus":"<p>Bereit?</p>","key_press":32,"trial_type":"html-keyboard-response","trial_index":19,"time_elapsed":57224,"internal_node_id":"0.0-8.0-0.3","subject":"d3kcc3q54urk79u","sona":"7549"},{"rt":null,"stimulus":"<div style=\"font-size:60px;\">+</div>","key_press":null,"trial_type":"html-keyboard-response","trial_index":20,"time_elapsed":59227,"internal_node_id":"0.0-8.0-1.3","subject":"d3kcc3q54urk79u","sona":"7549"},{"trial_type":"turing-test","trial_index":21,"time_elapsed":62586,"internal_node_id":"0.0-8.0-2.3","subject":"d3kcc3q54urk79u","sona":"7549"},{"rt":1791.9349998701364,"stimulus":"<p>Welche Sequenz haben Sie als natürlicher empfunden?</p>","key_press":70,"test_part":"response","test_stimulus":{"position":1,"left":"bvh/vr_prediction_models/model(vcgpdm)-dataset(return-bottle-hold)-mode(ELBO)-parts(1)-dyn(35)-lvm(10)-hold(1)/final-lines.txt","right":"bvh/return-bottle-hold-training1-lines.txt","att_check":false},"trial_type":"html-keyboard-response","trial_index":22,"time_elapsed":64382,"internal_node_id":"0.0-8.0-3.3","subject":"d3kcc3q54urk79u","sona":"7549"},{"rt":525.1649999991059,"stimulus":"<p>Bereit?</p>","key_press":32,"trial_type":"html-keyboard-response","trial_index":23,"time_elapsed":64910,"internal_node_id":"0.0-8.0-0.4","subject":"d3kcc3q54urk79u","sona":"7549"},{"rt":null,"stimulus":"<div style=\"font-size:60px;\">+</div>","key_press":null,"trial_type":"html-keyboard-response","trial_index":24,"time_elapsed":66914,"internal_node_id":"0.0-8.0-1.4","subject":"d3kcc3q54urk79u","sona":"7549"},{"trial_type":"turing-test","trial_index":25,"time_elapsed":70228,"internal_node_id":"0.0-8.0-2.4","subject":"d3kcc3q54urk79u","sona":"7549"},{"rt":2223.065000027418,"stimulus":"<p>Welche Sequenz haben Sie als natürlicher empfunden?</p>","key_press":70,"test_part":"response","test_stimulus":{"position":0,"left":"bvh/return-bottle-hold-training1-lines.txt","right":"bvh/vr_prediction_models/model(dmp)-dataset(return-bottle-hold)-npsi(60)-hold(1)/final-lines.txt","att_check":false},"trial_type":"html-keyboard-response","trial_index":26,"time_elapsed":72455,"internal_node_id":"0.0-8.0-3.4","subject":"d3kcc3q54urk79u","sona":"7549"},{"rt":394.4549998268485,"stimulus":"<p>Bereit?</p>","key_press":32,"trial_type":"html-keyboard-response","trial_index":27,"time_elapsed":72853,"internal_node_id":"0.0-8.0-0.5","subject":"d3kcc3q54urk79u","sona":"7549"},{"rt":null,"stimulus":"<div style=\"font-size:60px;\">+</div>","key_press":null,"trial_type":"html-keyboard-response","trial_index":28,"time_elapsed":74857,"internal_node_id":"0.0-8.0-1.5","subject":"d3kcc3q54urk79u","sona":"7549"},{"trial_type":"turing-test","trial_index":29,"time_elapsed":78276,"internal_node_id":"0.0-8.0-2.5","subject":"d3kcc3q54urk79u","sona":"7549"},{"rt":1236.2850001081824,"stimulus":"<p>Welche Sequenz haben Sie als natürlicher empfunden?</p>","key_press":70,"test_part":"response","test_stimulus":{"position":0,"left":"bvh/return-bottle-hold-training2-lines.txt","right":"bvh/vr_prediction_models/model(tmp)-dataset(return-bottle-hold)-numprim(11)-hold(2)/final-lines.txt","att_check":false},"trial_type":"html-keyboard-response","trial_index":30,"time_elapsed":79516,"internal_node_id":"0.0-8.0-3.5","subject":"d3kcc3q54urk79u","sona":"7549"},{"rt":389.28000000305474,"stimulus":"<p>Bereit?</p>","key_press":32,"trial_type":"html-keyboard-response","trial_index":31,"time_elapsed":79908,"internal_node_id":"0.0-8.0-0.6","subject":"d3kcc3q54urk79u","sona":"7549"},{"rt":null,"stimulus":"<div style=\"font-size:60px;\">+</div>","key_press":null,"trial_type":"html-keyboard-response","trial_index":32,"time_elapsed":81911,"internal_node_id":"0.0-8.0-1.6","subject":"d3kcc3q54urk79u","sona":"7549"},{"trial_type":"turing-test","trial_index":33,"time_elapsed":85604,"internal_node_id":"0.0-8.0-2.6","subject":"d3kcc3q54urk79u","sona":"7549"},{"rt":1677.0549998618662,"stimulus":"<p>Welche Sequenz haben Sie als natürlicher empfunden?</p>","key_press":70,"test_part":"response","test_stimulus":{"position":0,"left":"bvh/return-bottle-hold-training4-lines.txt","right":"bvh/vr_prediction_models/model(dmp)-dataset(return-bottle-hold)-npsi(70)-hold(4)/final-lines.txt","att_check":true},"trial_type":"html-keyboard-response","trial_index":34,"time_elapsed":87284,"internal_node_id":"0.0-8.0-3.6","subject":"d3kcc3q54urk79u","sona":"7549"},{"rt":443.8700000755489,"stimulus":"<p>Bereit?</p>","key_press":32,"trial_type":"html-keyboard-response","trial_index":35,"time_elapsed":87731,"internal_node_id":"0.0-8.0-0.7","subject":"d3kcc3q54urk79u","sona":"7549"},{"rt":null,"stimulus":"<div style=\"font-size:60px;\">+</div>","key_press":null,"trial_type":"html-keyboard-response","trial_index":36,"time_elapsed":89735,"internal_node_id":"0.0-8.0-1.7","subject":"d3kcc3q54urk79u","sona":"7549"},{"trial_type":"turing-test","trial_index":37,"time_elapsed":96474,"internal_node_id":"0.0-8.0-2.7","subject":"d3kcc3q54urk79u","sona":"7549"},{"rt":1078.9749999530613,"stimulus":"<p>Welche Sequenz haben Sie als natürlicher empfunden?</p>","key_press":74,"test_part":"response","test_stimulus":{"position":1,"left":"bvh/vr_prediction_models/model(vcgpdm)-dataset(return-bottle)-mode(ELBO)-parts(1)-dyn(20)-lvm(30)-hold(2)/final-lines.txt","right":"bvh/return-bottle-training2-lines.txt","att_check":false},"trial_type":"html-keyboard-response","trial_index":38,"time_elapsed":97558,"internal_node_id":"0.0-8.0-3.7","subject":"d3kcc3q54urk79u","sona":"7549"},{"rt":346.64000011980534,"stimulus":"<p>Bereit?</p>","key_press":32,"trial_type":"html-keyboard-response","trial_index":39,"time_elapsed":97908,"internal_node_id":"0.0-8.0-0.8","subject":"d3kcc3q54urk79u","sona":"7549"},{"rt":null,"stimulus":"<div style=\"font-size:60px;\">+</div>","key_press":null,"trial_type":"html-keyboard-response","trial_index":40,"time_elapsed":99912,"internal_node_id":"0.0-8.0-1.8","subject":"d3kcc3q54urk79u","sona":"7549"},{"trial_type":"turing-test","trial_index":41,"time_elapsed":105757,"internal_node_id":"0.0-8.0-2.8","subject":"d3kcc3q54urk79u","sona":"7549"},{"rt":1441.4149997755885,"stimulus":"<p>Welche Sequenz haben Sie als natürlicher empfunden?</p>","key_press":70,"test_part":"response","test_stimulus":{"position":1,"left":"bvh/vr_prediction_models/model(tmp)-dataset(pass-bottle)-numprim(9)-hold(3)/final-lines.txt","right":"bvh/pass-bottle-training3-lines.txt","att_check":false},"trial_type":"html-keyboard-response","trial_index":42,"time_elapsed":107203,"internal_node_id":"0.0-8.0-3.8","subject":"d3kcc3q54urk79u","sona":"7549"},{"rt":590.5250001233071,"stimulus":"<p>Bereit?</p>","key_press":32,"trial_type":"html-keyboard-response","trial_index":43,"time_elapsed":107797,"internal_node_id":"0.0-8.0-0.9","subject":"d3kcc3q54urk79u","sona":"7549"},{"rt":null,"stimulus":"<div style=\"font-size:60px;\">+</div>","key_press":null,"trial_type":"html-keyboard-response","trial_index":44,"time_elapsed":109799,"internal_node_id":"0.0-8.0-1.9","subject":"d3kcc3q54urk79u","sona":"7549"},{"trial_type":"turing-test","trial_index":45,"time_elapsed":115369,"internal_node_id":"0.0-8.0-2.9","subject":"d3kcc3q54urk79u","sona":"7549"},{"rt":1100.8649999275804,"stimulus":"<p>Welche Sequenz haben Sie als natürlicher empfunden?</p>","key_press":70,"test_part":"response","test_stimulus":{"position":0,"left":"bvh/return-bottle-training0-lines.txt","right":"bvh/vr_prediction_models/model(vcgpdm)-dataset(return-bottle)-mode(ELBO)-parts(1)-dyn(35)-lvm(10)-hold(0)/final-lines.txt","att_check":false},"trial_type":"html-keyboard-response","trial_index":46,"time_elapsed":116474,"internal_node_id":"0.0-8.0-3.9","subject":"d3kcc3q54urk79u","sona":"7549"},{"rt":541.1050000693649,"stimulus":"<p>Bereit?</p>","key_press":32,"trial_type":"html-keyboard-response","trial_index":47,"time_elapsed":117019,"internal_node_id":"0.0-8.0-0.10","subject":"d3kcc3q54urk79u","sona":"7549"},{"rt":null,"stimulus":"<div style=\"font-size:60px;\">+</div>","key_press":null,"trial_type":"html-keyboard-response","trial_index":48,"time_elapsed":119023,"internal_node_id":"0.0-8.0-1.10","subject":"d3kcc3q54urk79u","sona":"7549"},{"trial_type":"turing-test","trial_index":49,"time_elapsed":124754,"internal_node_id":"0.0-8.0-2.10","subject":"d3kcc3q54urk79u","sona":"7549"},{"rt":1342.464999994263,"stimulus":"<p>Welche Sequenz haben Sie als natürlicher empfunden?</p>","key_press":70,"test_part":"response","test_stimulus":{"position":0,"left":"bvh/return-bottle-training3-lines.txt","right":"bvh/vr_prediction_models/model(dmp)-dataset(return-bottle)-npsi(60)-hold(3)/final-lines.txt","att_check":false},"trial_type":"html-keyboard-response","trial_index":50,"time_elapsed":126100,"internal_node_id":"0.0-8.0-3.10","subject":"d3kcc3q54urk79u","sona":"7549"},{"rt":355.9000000823289,"stimulus":"<p>Bereit?</p>","key_press":32,"trial_type":"html-keyboard-response","trial_index":51,"time_elapsed":126460,"internal_node_id":"0.0-8.0-0.11","subject":"d3kcc3q54urk79u","sona":"7549"},{"rt":null,"stimulus":"<div style=\"font-size:60px;\">+</div>","key_press":null,"trial_type":"html-keyboard-response","trial_index":52,"time_elapsed":128464,"internal_node_id":"0.0-8.0-1.11","subject":"d3kcc3q54urk79u","sona":"7549"},{"trial_type":"turing-test","trial_index":53,"time_elapsed":132072,"internal_node_id":"0.0-8.0-2.11","subject":"d3kcc3q54urk79u","sona":"7549"},{"rt":1525.3599998541176,"stimulus":"<p>Welche Sequenz haben Sie als natürlicher empfunden?</p>","key_press":70,"test_part":"response","test_stimulus":{"position":1,"left":"bvh/vr_prediction_models/model(vcgpdm)-dataset(return-bottle-hold)-mode(ELBO)-parts(3)-dyn(10)-lvm(25)-hold(2)/final-lines.txt","right":"bvh/return-bottle-hold-training2-lines.txt","att_check":false},"trial_type":"html-keyboard-response","trial_index":54,"time_elapsed":133602,"internal_node_id":"0.0-8.0-3.11","subject":"d3kcc3q54urk79u","sona":"7549"},{"rt":437.3249998316169,"stimulus":"<p>Bereit?</p>","key_press":32,"trial_type":"html-keyboard-response","trial_index":55,"time_elapsed":134043,"internal_node_id":"0.0-8.0-0.12","subject":"d3kcc3q54urk79u","sona":"7549"},{"rt":null,"stimulus":"<div style=\"font-size:60px;\">+</div>","key_press":null,"trial_type":"html-keyboard-response","trial_index":56,"time_elapsed":136047,"internal_node_id":"0.0-8.0-1.12","subject":"d3kcc3q54urk79u","sona":"7549"},{"trial_type":"turing-test","trial_index":57,"time_elapsed":139344,"internal_node_id":"0.0-8.0-2.12","subject":"d3kcc3q54urk79u","sona":"7549"},{"rt":2038.2250000257045,"stimulus":"<p>Welche Sequenz haben Sie als natürlicher empfunden?</p>","key_press":70,"test_part":"response","test_stimulus":{"position":0,"left":"bvh/pass-bottle-hold-training2-lines.txt","right":"bvh/vr_prediction_models/model(tmp)-dataset(pass-bottle-hold)-numprim(10)-hold(2)/final-lines.txt","att_check":false},"trial_type":"html-keyboard-response","trial_index":58,"time_elapsed":141386,"internal_node_id":"0.0-8.0-3.12","subject":"d3kcc3q54urk79u","sona":"7549"},{"rt":451.60500006750226,"stimulus":"<p>Bereit?</p>","key_press":32,"trial_type":"html-keyboard-response","trial_index":59,"time_elapsed":141842,"internal_node_id":"0.0-8.0-0.13","subject":"d3kcc3q54urk79u","sona":"7549"},{"rt":null,"stimulus":"<div style=\"font-size:60px;\">+</div>","key_press":null,"trial_type":"html-keyboard-response","trial_index":60,"time_elapsed":143846,"internal_node_id":"0.0-8.0-1.13","subject":"d3kcc3q54urk79u","sona":"7549"},{"trial_type":"turing-test","trial_index":61,"time_elapsed":149820,"internal_node_id":"0.0-8.0-2.13","subject":"d3kcc3q54urk79u","sona":"7549"},{"rt":1192.3700000625104,"stimulus":"<p>Welche Sequenz haben Sie als natürlicher empfunden?</p>","key_press":74,"test_part":"response","test_stimulus":{"position":1,"left":"bvh/vr_prediction_models/model(vcgpdm)-dataset(pass-bottle)-mode(MAP)-parts(3)-hold(3)/final-lines.txt","right":"bvh/pass-bottle-training3-lines.txt","att_check":false},"trial_type":"html-keyboard-response","trial_index":62,"time_elapsed":151017,"internal_node_id":"0.0-8.0-3.13","subject":"d3kcc3q54urk79u","sona":"7549"},{"rt":252.2599999792874,"stimulus":"<p>Bereit?</p>","key_press":32,"trial_type":"html-keyboard-response","trial_index":63,"time_elapsed":151273,"internal_node_id":"0.0-8.0-0.14","subject":"d3kcc3q54urk79u","sona":"7549"},{"rt":null,"stimulus":"<div style=\"font-size:60px;\">+</div>","key_press":null,"trial_type":"html-keyboard-response","trial_index":64,"time_elapsed":153277,"internal_node_id":"0.0-8.0-1.14","subject":"d3kcc3q54urk79u","sona":"7549"},{"trial_type":"turing-test","trial_index":65,"time_elapsed":159153,"internal_node_id":"0.0-8.0-2.14","subject":"d3kcc3q54urk79u","sona":"7549"},{"rt":1364.8250000551343,"stimulus":"<p>Welche Sequenz haben Sie als natürlicher empfunden?</p>","key_press":70,"test_part":"response","test_stimulus":{"position":0,"left":"bvh/pass-bottle-training4-lines.txt","right":"bvh/vr_prediction_models/model(vcgpdm)-dataset(pass-bottle)-mode(ELBO)-parts(3)-dyn(10)-lvm(25)-hold(4)/final-lines.txt","att_check":false},"trial_type":"html-keyboard-response","trial_index":66,"time_elapsed":160522,"internal_node_id":"0.0-8.0-3.14","subject":"d3kcc3q54urk79u","sona":"7549"},{"rt":331.5050001256168,"stimulus":"<p>Bereit?</p>","key_press":32,"trial_type":"html-keyboard-response","trial_index":67,"time_elapsed":160857,"internal_node_id":"0.0-8.0-0.15","subject":"d3kcc3q54urk79u","sona":"7549"},{"rt":null,"stimulus":"<div style=\"font-size:60px;\">+</div>","key_press":null,"trial_type":"html-keyboard-response","trial_index":68,"time_elapsed":162862,"internal_node_id":"0.0-8.0-1.15","subject":"d3kcc3q54urk79u","sona":"7549"},{"trial_type":"turing-test","trial_index":69,"time_elapsed":166434,"internal_node_id":"0.0-8.0-2.15","subject":"d3kcc3q54urk79u","sona":"7549"},{"rt":946.4350000489503,"stimulus":"<p>Welche Sequenz haben Sie als natürlicher empfunden?</p>","key_press":74,"test_part":"response","test_stimulus":{"position":1,"left":"bvh/vr_prediction_models/model(dmp)-dataset(pass-bottle-hold)-npsi(30)-hold(4)/final-lines.txt","right":"bvh/pass-bottle-hold-training4-lines.txt","att_check":false},"trial_type":"html-keyboard-response","trial_index":70,"time_elapsed":167384,"internal_node_id":"0.0-8.0-3.15","subject":"d3kcc3q54urk79u","sona":"7549"},{"rt":396.27499994821846,"stimulus":"<p>Bereit?</p>","key_press":32,"trial_type":"html-keyboard-response","trial_index":71,"time_elapsed":167784,"internal_node_id":"0.0-8.0-0.16","subject":"d3kcc3q54urk79u","sona":"7549"},{"rt":null,"stimulus":"<div style=\"font-size:60px;\">+</div>","key_press":null,"trial_type":"html-keyboard-response","trial_index":72,"time_elapsed":169787,"internal_node_id":"0.0-8.0-1.16","subject":"d3kcc3q54urk79u","sona":"7549"},{"trial_type":"turing-test","trial_index":73,"time_elapsed":176002,"internal_node_id":"0.0-8.0-2.16","subject":"d3kcc3q54urk79u","sona":"7549"},{"rt":1272.0549998339266,"stimulus":"<p>Welche Sequenz haben Sie als natürlicher empfunden?</p>","key_press":70,"test_part":"response","test_stimulus":{"position":0,"left":"bvh/pass-bottle-training2-lines.txt","right":"bvh/vr_prediction_models/model(vcgpdm)-dataset(pass-bottle)-mode(ELBO)-parts(1)-dyn(20)-lvm(30)-hold(2)/final-lines.txt","att_check":false},"trial_type":"html-keyboard-response","trial_index":74,"time_elapsed":177281,"internal_node_id":"0.0-8.0-3.16","subject":"d3kcc3q54urk79u","sona":"7549"},{"rt":419.56000006757677,"stimulus":"<p>Bereit?</p>","key_press":32,"trial_type":"html-keyboard-response","trial_index":75,"time_elapsed":177704,"internal_node_id":"0.0-8.0-0.17","subject":"d3kcc3q54urk79u","sona":"7549"},{"rt":null,"stimulus":"<div style=\"font-size:60px;\">+</div>","key_press":null,"trial_type":"html-keyboard-response","trial_index":76,"time_elapsed":179708,"internal_node_id":"0.0-8.0-1.17","subject":"d3kcc3q54urk79u","sona":"7549"},{"trial_type":"turing-test","trial_index":77,"time_elapsed":183365,"internal_node_id":"0.0-8.0-2.17","subject":"d3kcc3q54urk79u","sona":"7549"},{"rt":1628.9800000377,"stimulus":"<p>Welche Sequenz haben Sie als natürlicher empfunden?</p>","key_press":74,"test_part":"response","test_stimulus":{"position":0,"left":"bvh/pass-bottle-hold-training2-lines.txt","right":"bvh/vr_prediction_models/model(vcgpdm)-dataset(pass-bottle-hold)-mode(ELBO)-parts(3)-dyn(20)-lvm(15)-hold(2)/final-lines.txt","att_check":false},"trial_type":"html-keyboard-response","trial_index":78,"time_elapsed":184999,"internal_node_id":"0.0-8.0-3.17","subject":"d3kcc3q54urk79u","sona":"7549"},{"rt":315.91499992646277,"stimulus":"<p>Bereit?</p>","key_press":32,"trial_type":"html-keyboard-response","trial_index":79,"time_elapsed":185319,"internal_node_id":"0.0-8.0-0.18","subject":"d3kcc3q54urk79u","sona":"7549"},{"rt":null,"stimulus":"<div style=\"font-size:60px;\">+</div>","key_press":null,"trial_type":"html-keyboard-response","trial_index":80,"time_elapsed":187323,"internal_node_id":"0.0-8.0-1.18","subject":"d3kcc3q54urk79u","sona":"7549"},{"trial_type":"turing-test","trial_index":81,"time_elapsed":190606,"internal_node_id":"0.0-8.0-2.18","subject":"d3kcc3q54urk79u","sona":"7549"},{"rt":1389.6800000220537,"stimulus":"<p>Welche Sequenz haben Sie als natürlicher empfunden?</p>","key_press":74,"test_part":"response","test_stimulus":{"position":0,"left":"bvh/pass-bottle-hold-training1-lines.txt","right":"bvh/vr_prediction_models/model(tmp)-dataset(pass-bottle-hold)-numprim(13)-hold(1)/final-lines.txt","att_check":false},"trial_type":"html-keyboard-response","trial_index":82,"time_elapsed":191999,"internal_node_id":"0.0-8.0-3.18","subject":"d3kcc3q54urk79u","sona":"7549"},{"rt":274.48999998159707,"stimulus":"<p>Bereit?</p>","key_press":32,"trial_type":"html-keyboard-response","trial_index":83,"time_elapsed":192277,"internal_node_id":"0.0-8.0-0.19","subject":"d3kcc3q54urk79u","sona":"7549"},{"rt":null,"stimulus":"<div style=\"font-size:60px;\">+</div>","key_press":null,"trial_type":"html-keyboard-response","trial_index":84,"time_elapsed":194282,"internal_node_id":"0.0-8.0-1.19","subject":"d3kcc3q54urk79u","sona":"7549"},{"trial_type":"turing-test","trial_index":85,"time_elapsed":200034,"internal_node_id":"0.0-8.0-2.19","subject":"d3kcc3q54urk79u","sona":"7549"},{"rt":613.7049999088049,"stimulus":"<p>Welche Sequenz haben Sie als natürlicher empfunden?</p>","key_press":70,"test_part":"response","test_stimulus":{"position":0,"left":"bvh/return-bottle-training4-lines.txt","right":"bvh/vr_prediction_models/model(dmp)-dataset(return-bottle)-npsi(20)-hold(4)/final-lines.txt","att_check":true},"trial_type":"html-keyboard-response","trial_index":86,"time_elapsed":200652,"internal_node_id":"0.0-8.0-3.19","subject":"d3kcc3q54urk79u","sona":"7549"},{"rt":548.5549999866635,"stimulus":"<p>Bereit?</p>","key_press":32,"trial_type":"html-keyboard-response","trial_index":87,"time_elapsed":201205,"internal_node_id":"0.0-8.0-0.20","subject":"d3kcc3q54urk79u","sona":"7549"},{"rt":null,"stimulus":"<div style=\"font-size:60px;\">+</div>","key_press":null,"trial_type":"html-keyboard-response","trial_index":88,"time_elapsed":203208,"internal_node_id":"0.0-8.0-1.20","subject":"d3kcc3q54urk79u","sona":"7549"},{"trial_type":"turing-test","trial_index":89,"time_elapsed":210219,"internal_node_id":"0.0-8.0-2.20","subject":"d3kcc3q54urk79u","sona":"7549"},{"rt":981.9749998860061,"stimulus":"<p>Welche Sequenz haben Sie als natürlicher empfunden?</p>","key_press":74,"test_part":"response","test_stimulus":{"position":1,"left":"bvh/vr_prediction_models/model(vcgpdm)-dataset(pass-bottle)-mode(ELBO)-parts(3)-dyn(10)-lvm(25)-hold(0)/final-lines.txt","right":"bvh/pass-bottle-training0-lines.txt","att_check":false},"trial_type":"html-keyboard-response","trial_index":90,"time_elapsed":211207,"internal_node_id":"0.0-8.0-3.20","subject":"d3kcc3q54urk79u","sona":"7549"},{"rt":234.45499991066754,"stimulus":"<p>Bereit?</p>","key_press":32,"trial_type":"html-keyboard-response","trial_index":91,"time_elapsed":211445,"internal_node_id":"0.0-8.0-0.21","subject":"d3kcc3q54urk79u","sona":"7549"},{"rt":null,"stimulus":"<div style=\"font-size:60px;\">+</div>","key_press":null,"trial_type":"html-keyboard-response","trial_index":92,"time_elapsed":213449,"internal_node_id":"0.0-8.0-1.21","subject":"d3kcc3q54urk79u","sona":"7549"},{"trial_type":"turing-test","trial_index":93,"time_elapsed":219577,"internal_node_id":"0.0-8.0-2.21","subject":"d3kcc3q54urk79u","sona":"7549"},{"rt":1134.7350000869483,"stimulus":"<p>Welche Sequenz haben Sie als natürlicher empfunden?</p>","key_press":70,"test_part":"response","test_stimulus":{"position":0,"left":"bvh/return-bottle-training1-lines.txt","right":"bvh/vr_prediction_models/model(vcgpdm)-dataset(return-bottle)-mode(ELBO)-parts(3)-dyn(10)-lvm(30)-hold(1)/final-lines.txt","att_check":false},"trial_type":"html-keyboard-response","trial_index":94,"time_elapsed":220716,"internal_node_id":"0.0-8.0-3.21","subject":"d3kcc3q54urk79u","sona":"7549"},{"rt":419.1700001247227,"stimulus":"<p>Bereit?</p>","key_press":32,"trial_type":"html-keyboard-response","trial_index":95,"time_elapsed":221141,"internal_node_id":"0.0-8.0-0.22","subject":"d3kcc3q54urk79u","sona":"7549"},{"rt":null,"stimulus":"<div style=\"font-size:60px;\">+</div>","key_press":null,"trial_type":"html-keyboard-response","trial_index":96,"time_elapsed":223145,"internal_node_id":"0.0-8.0-1.22","subject":"d3kcc3q54urk79u","sona":"7549"},{"trial_type":"turing-test","trial_index":97,"time_elapsed":228548,"internal_node_id":"0.0-8.0-2.22","subject":"d3kcc3q54urk79u","sona":"7549"},{"rt":595.65500007011,"stimulus":"<p>Welche Sequenz haben Sie als natürlicher empfunden?</p>","key_press":70,"test_part":"response","test_stimulus":{"position":0,"left":"bvh/return-bottle-training0-lines.txt","right":"bvh/vr_prediction_models/model(dmp)-dataset(return-bottle)-npsi(20)-hold(0)/final-lines.txt","att_check":false},"trial_type":"html-keyboard-response","trial_index":98,"time_elapsed":229149,"internal_node_id":"0.0-8.0-3.22","subject":"d3kcc3q54urk79u","sona":"7549"},{"rt":515.1149998418987,"stimulus":"<p>Bereit?</p>","key_press":32,"trial_type":"html-keyboard-response","trial_index":99,"time_elapsed":229669,"internal_node_id":"0.0-8.0-0.23","subject":"d3kcc3q54urk79u","sona":"7549"},{"rt":null,"stimulus":"<div style=\"font-size:60px;\">+</div>","key_press":null,"trial_type":"html-keyboard-response","trial_index":100,"time_elapsed":231671,"internal_node_id":"0.0-8.0-1.23","subject":"d3kcc3q54urk79u","sona":"7549"},{"trial_type":"turing-test","trial_index":101,"time_elapsed":235151,"internal_node_id":"0.0-8.0-2.23","subject":"d3kcc3q54urk79u","sona":"7549"},{"rt":1175.1999999396503,"stimulus":"<p>Welche Sequenz haben Sie als natürlicher empfunden?</p>","key_press":74,"test_part":"response","test_stimulus":{"position":0,"left":"bvh/pass-bottle-hold-training3-lines.txt","right":"bvh/vr_prediction_models/model(tmp)-dataset(pass-bottle-hold)-numprim(11)-hold(3)/final-lines.txt","att_check":false},"trial_type":"html-keyboard-response","trial_index":102,"time_elapsed":236331,"internal_node_id":"0.0-8.0-3.23","subject":"d3kcc3q54urk79u","sona":"7549"},{"rt":259.7999998833984,"stimulus":"<p>Bereit?</p>","key_press":32,"trial_type":"html-keyboard-response","trial_index":103,"time_elapsed":236595,"internal_node_id":"0.0-8.0-0.24","subject":"d3kcc3q54urk79u","sona":"7549"},{"rt":null,"stimulus":"<div style=\"font-size:60px;\">+</div>","key_press":null,"trial_type":"html-keyboard-response","trial_index":104,"time_elapsed":238599,"internal_node_id":"0.0-8.0-1.24","subject":"d3kcc3q54urk79u","sona":"7549"},{"trial_type":"turing-test","trial_index":105,"time_elapsed":241742,"internal_node_id":"0.0-8.0-2.24","subject":"d3kcc3q54urk79u","sona":"7549"},{"rt":1327.7050000615418,"stimulus":"<p>Welche Sequenz haben Sie als natürlicher empfunden?</p>","key_press":74,"test_part":"response","test_stimulus":{"position":1,"left":"bvh/vr_prediction_models/model(dmp)-dataset(pass-bottle-hold)-npsi(40)-hold(1)/final-lines.txt","right":"bvh/pass-bottle-hold-training1-lines.txt","att_check":false},"trial_type":"html-keyboard-response","trial_index":106,"time_elapsed":243075,"internal_node_id":"0.0-8.0-3.24","subject":"d3kcc3q54urk79u","sona":"7549"},{"rt":242.1699999831617,"stimulus":"<p>Bereit?</p>","key_press":32,"trial_type":"html-keyboard-response","trial_index":107,"time_elapsed":243322,"internal_node_id":"0.0-8.0-0.25","subject":"d3kcc3q54urk79u","sona":"7549"},{"rt":null,"stimulus":"<div style=\"font-size:60px;\">+</div>","key_press":null,"trial_type":"html-keyboard-response","trial_index":108,"time_elapsed":245326,"internal_node_id":"0.0-8.0-1.25","subject":"d3kcc3q54urk79u","sona":"7549"},{"trial_type":"turing-test","trial_index":109,"time_elapsed":251084,"internal_node_id":"0.0-8.0-2.25","subject":"d3kcc3q54urk79u","sona":"7549"},{"rt":1616.5899999905378,"stimulus":"<p>Welche Sequenz haben Sie als natürlicher empfunden?</p>","key_press":74,"test_part":"response","test_stimulus":{"position":1,"left":"bvh/vr_prediction_models/model(vcgpdm)-dataset(return-bottle)-mode(ELBO)-parts(1)-dyn(20)-lvm(20)-hold(4)/final-lines.txt","right":"bvh/return-bottle-training4-lines.txt","att_check":false},"trial_type":"html-keyboard-response","trial_index":110,"time_elapsed":252706,"internal_node_id":"0.0-8.0-3.25","subject":"d3kcc3q54urk79u","sona":"7549"},{"rt":421.00000008940697,"stimulus":"<p>Bereit?</p>","key_press":32,"trial_type":"html-keyboard-response","trial_index":111,"time_elapsed":253131,"internal_node_id":"0.0-8.0-0.26","subject":"d3kcc3q54urk79u","sona":"7549"},{"rt":null,"stimulus":"<div style=\"font-size:60px;\">+</div>","key_press":null,"trial_type":"html-keyboard-response","trial_index":112,"time_elapsed":255135,"internal_node_id":"0.0-8.0-1.26","subject":"d3kcc3q54urk79u","sona":"7549"},{"trial_type":"turing-test","trial_index":113,"time_elapsed":260983,"internal_node_id":"0.0-8.0-2.26","subject":"d3kcc3q54urk79u","sona":"7549"},{"rt":1085.9200002159923,"stimulus":"<p>Welche Sequenz haben Sie als natürlicher empfunden?</p>","key_press":74,"test_part":"response","test_stimulus":{"position":1,"left":"bvh/vr_prediction_models/model(tmp)-dataset(return-bottle)-numprim(12)-hold(4)/final-lines.txt","right":"bvh/return-bottle-training4-lines.txt","att_check":false},"trial_type":"html-keyboard-response","trial_index":114,"time_elapsed":262074,"internal_node_id":"0.0-8.0-3.26","subject":"d3kcc3q54urk79u","sona":"7549"},{"rt":219.43499986082315,"stimulus":"<p>Bereit?</p>","key_press":32,"trial_type":"html-keyboard-response","trial_index":115,"time_elapsed":262298,"internal_node_id":"0.0-8.0-0.27","subject":"d3kcc3q54urk79u","sona":"7549"},{"rt":null,"stimulus":"<div style=\"font-size:60px;\">+</div>","key_press":null,"trial_type":"html-keyboard-response","trial_index":116,"time_elapsed":264302,"internal_node_id":"0.0-8.0-1.27","subject":"d3kcc3q54urk79u","sona":"7549"},{"trial_type":"turing-test","trial_index":117,"time_elapsed":268075,"internal_node_id":"0.0-8.0-2.27","subject":"d3kcc3q54urk79u","sona":"7549"},{"rt":5914.5949999801815,"stimulus":"<p>Welche Sequenz haben Sie als natürlicher empfunden?</p>","key_press":70,"test_part":"response","test_stimulus":{"position":0,"left":"bvh/pass-bottle-hold-training4-lines.txt","right":"bvh/vr_prediction_models/model(vcgpdm)-dataset(pass-bottle-hold)-mode(ELBO)-parts(3)-dyn(10)-lvm(30)-hold(4)/final-lines.txt","att_check":false},"trial_type":"html-keyboard-response","trial_index":118,"time_elapsed":273995,"internal_node_id":"0.0-8.0-3.27","subject":"d3kcc3q54urk79u","sona":"7549"},{"rt":314.32000012136996,"stimulus":"<p>Bereit?</p>","key_press":32,"trial_type":"html-keyboard-response","trial_index":119,"time_elapsed":274314,"internal_node_id":"0.0-8.0-0.28","subject":"d3kcc3q54urk79u","sona":"7549"},{"rt":null,"stimulus":"<div style=\"font-size:60px;\">+</div>","key_press":null,"trial_type":"html-keyboard-response","trial_index":120,"time_elapsed":276318,"internal_node_id":"0.0-8.0-1.28","subject":"d3kcc3q54urk79u","sona":"7549"},{"trial_type":"turing-test","trial_index":121,"time_elapsed":282014,"internal_node_id":"0.0-8.0-2.28","subject":"d3kcc3q54urk79u","sona":"7549"},{"rt":966.1550000309944,"stimulus":"<p>Welche Sequenz haben Sie als natürlicher empfunden?</p>","key_press":74,"test_part":"response","test_stimulus":{"position":1,"left":"bvh/vr_prediction_models/model(vcgpdm)-dataset(return-bottle)-mode(ELBO)-parts(3)-dyn(20)-lvm(15)-hold(3)/final-lines.txt","right":"bvh/return-bottle-training3-lines.txt","att_check":false},"trial_type":"html-keyboard-response","trial_index":122,"time_elapsed":282986,"internal_node_id":"0.0-8.0-3.28","subject":"d3kcc3q54urk79u","sona":"7549"},{"rt":529.7650001011789,"stimulus":"<p>Bereit?</p>","key_press":32,"trial_type":"html-keyboard-response","trial_index":123,"time_elapsed":283522,"internal_node_id":"0.0-8.0-0.29","subject":"d3kcc3q54urk79u","sona":"7549"},{"rt":null,"stimulus":"<div style=\"font-size:60px;\">+</div>","key_press":null,"trial_type":"html-keyboard-response","trial_index":124,"time_elapsed":285526,"internal_node_id":"0.0-8.0-1.29","subject":"d3kcc3q54urk79u","sona":"7549"},{"trial_type":"turing-test","trial_index":125,"time_elapsed":291590,"internal_node_id":"0.0-8.0-2.29","subject":"d3kcc3q54urk79u","sona":"7549"},{"rt":1640.0050001684576,"stimulus":"<p>Welche Sequenz haben Sie als natürlicher empfunden?</p>","key_press":70,"test_part":"response","test_stimulus":{"position":0,"left":"bvh/return-bottle-training1-lines.txt","right":"bvh/vr_prediction_models/model(tmp)-dataset(return-bottle)-numprim(11)-hold(1)/final-lines.txt","att_check":false},"trial_type":"html-keyboard-response","trial_index":126,"time_elapsed":293235,"internal_node_id":"0.0-8.0-3.29","subject":"d3kcc3q54urk79u","sona":"7549"},{"rt":450.4200001247227,"stimulus":"<p>Bereit?</p>","key_press":32,"trial_type":"html-keyboard-response","trial_index":127,"time_elapsed":293690,"internal_node_id":"0.0-8.0-0.30","subject":"d3kcc3q54urk79u","sona":"7549"},{"rt":null,"stimulus":"<div style=\"font-size:60px;\">+</div>","key_press":null,"trial_type":"html-keyboard-response","trial_index":128,"time_elapsed":295694,"internal_node_id":"0.0-8.0-1.30","subject":"d3kcc3q54urk79u","sona":"7549"},{"trial_type":"turing-test","trial_index":129,"time_elapsed":299071,"internal_node_id":"0.0-8.0-2.30","subject":"d3kcc3q54urk79u","sona":"7549"},{"rt":563.9850001316518,"stimulus":"<p>Welche Sequenz haben Sie als natürlicher empfunden?</p>","key_press":74,"test_part":"response","test_stimulus":{"position":0,"left":"bvh/return-bottle-hold-training1-lines.txt","right":"bvh/vr_prediction_models/model(tmp)-dataset(return-bottle-hold)-numprim(13)-hold(1)/final-lines.txt","att_check":false},"trial_type":"html-keyboard-response","trial_index":130,"time_elapsed":299641,"internal_node_id":"0.0-8.0-3.30","subject":"d3kcc3q54urk79u","sona":"7549"},{"rt":297.41499992087483,"stimulus":"<p>Bereit?</p>","key_press":32,"trial_type":"html-keyboard-response","trial_index":131,"time_elapsed":299945,"internal_node_id":"0.0-8.0-0.31","subject":"d3kcc3q54urk79u","sona":"7549"},{"rt":null,"stimulus":"<div style=\"font-size:60px;\">+</div>","key_press":null,"trial_type":"html-keyboard-response","trial_index":132,"time_elapsed":301948,"internal_node_id":"0.0-8.0-1.31","subject":"d3kcc3q54urk79u","sona":"7549"},{"trial_type":"turing-test","trial_index":133,"time_elapsed":307630,"internal_node_id":"0.0-8.0-2.31","subject":"d3kcc3q54urk79u","sona":"7549"},{"rt":269.64500010944903,"stimulus":"<p>Welche Sequenz haben Sie als natürlicher empfunden?</p>","key_press":74,"test_part":"response","test_stimulus":{"position":1,"left":"bvh/vr_prediction_models/model(vcgpdm)-dataset(return-bottle)-mode(ELBO)-parts(1)-dyn(10)-lvm(30)-hold(0)/final-lines.txt","right":"bvh/return-bottle-training0-lines.txt","att_check":false},"trial_type":"html-keyboard-response","trial_index":134,"time_elapsed":307905,"internal_node_id":"0.0-8.0-3.31","subject":"d3kcc3q54urk79u","sona":"7549"},{"rt":385.8099998906255,"stimulus":"<p>Bereit?</p>","key_press":32,"trial_type":"html-keyboard-response","trial_index":135,"time_elapsed":308296,"internal_node_id":"0.0-8.0-0.32","subject":"d3kcc3q54urk79u","sona":"7549"},{"rt":null,"stimulus":"<div style=\"font-size:60px;\">+</div>","key_press":null,"trial_type":"html-keyboard-response","trial_index":136,"time_elapsed":310300,"internal_node_id":"0.0-8.0-1.32","subject":"d3kcc3q54urk79u","sona":"7549"},{"trial_type":"turing-test","trial_index":137,"time_elapsed":315733,"internal_node_id":"0.0-8.0-2.32","subject":"d3kcc3q54urk79u","sona":"7549"},{"rt":868.2699999772012,"stimulus":"<p>Welche Sequenz haben Sie als natürlicher empfunden?</p>","key_press":74,"test_part":"response","test_stimulus":{"position":1,"left":"bvh/vr_prediction_models/model(vcgpdm)-dataset(pass-bottle)-mode(ELBO)-parts(3)-dyn(25)-lvm(30)-hold(1)/final-lines.txt","right":"bvh/pass-bottle-training1-lines.txt","att_check":false},"trial_type":"html-keyboard-response","trial_index":138,"time_elapsed":316607,"internal_node_id":"0.0-8.0-3.32","subject":"d3kcc3q54urk79u","sona":"7549"},{"rt":339.22500000335276,"stimulus":"<p>Bereit?</p>","key_press":32,"trial_type":"html-keyboard-response","trial_index":139,"time_elapsed":316951,"internal_node_id":"0.0-8.0-0.33","subject":"d3kcc3q54urk79u","sona":"7549"},{"rt":null,"stimulus":"<div style=\"font-size:60px;\">+</div>","key_press":null,"trial_type":"html-keyboard-response","trial_index":140,"time_elapsed":318954,"internal_node_id":"0.0-8.0-1.33","subject":"d3kcc3q54urk79u","sona":"7549"},{"trial_type":"turing-test","trial_index":141,"time_elapsed":325243,"internal_node_id":"0.0-8.0-2.33","subject":"d3kcc3q54urk79u","sona":"7549"},{"rt":527.669999981299,"stimulus":"<p>Welche Sequenz haben Sie als natürlicher empfunden?</p>","key_press":74,"test_part":"response","test_stimulus":{"position":1,"left":"bvh/vr_prediction_models/model(vcgpdm)-dataset(pass-bottle)-mode(ELBO)-parts(1)-dyn(20)-lvm(5)-hold(3)/final-lines.txt","right":"bvh/pass-bottle-training3-lines.txt","att_check":false},"trial_type":"html-keyboard-response","trial_index":142,"time_elapsed":325776,"internal_node_id":"0.0-8.0-3.33","subject":"d3kcc3q54urk79u","sona":"7549"},{"rt":385.6099999975413,"stimulus":"<p>Bereit?</p>","key_press":32,"trial_type":"html-keyboard-response","trial_index":143,"time_elapsed":326167,"internal_node_id":"0.0-8.0-0.34","subject":"d3kcc3q54urk79u","sona":"7549"},{"rt":null,"stimulus":"<div style=\"font-size:60px;\">+</div>","key_press":null,"trial_type":"html-keyboard-response","trial_index":144,"time_elapsed":328171,"internal_node_id":"0.0-8.0-1.34","subject":"d3kcc3q54urk79u","sona":"7549"},{"trial_type":"turing-test","trial_index":145,"time_elapsed":331828,"internal_node_id":"0.0-8.0-2.34","subject":"d3kcc3q54urk79u","sona":"7549"},{"rt":1068.049999885261,"stimulus":"<p>Welche Sequenz haben Sie als natürlicher empfunden?</p>","key_press":70,"test_part":"response","test_stimulus":{"position":1,"left":"bvh/vr_prediction_models/model(vcgpdm)-dataset(pass-bottle-hold)-mode(ELBO)-parts(1)-dyn(25)-lvm(35)-hold(2)/final-lines.txt","right":"bvh/pass-bottle-hold-training2-lines.txt","att_check":false},"trial_type":"html-keyboard-response","trial_index":146,"time_elapsed":332901,"internal_node_id":"0.0-8.0-3.34","subject":"d3kcc3q54urk79u","sona":"7549"},{"rt":379.7450000420213,"stimulus":"<p>Bereit?</p>","key_press":32,"trial_type":"html-keyboard-response","trial_index":147,"time_elapsed":333286,"internal_node_id":"0.0-8.0-0.35","subject":"d3kcc3q54urk79u","sona":"7549"},{"rt":null,"stimulus":"<div style=\"font-size:60px;\">+</div>","key_press":null,"trial_type":"html-keyboard-response","trial_index":148,"time_elapsed":335289,"internal_node_id":"0.0-8.0-1.35","subject":"d3kcc3q54urk79u","sona":"7549"},{"trial_type":"turing-test","trial_index":149,"time_elapsed":341003,"internal_node_id":"0.0-8.0-2.35","subject":"d3kcc3q54urk79u","sona":"7549"},{"rt":893.5450001154095,"stimulus":"<p>Welche Sequenz haben Sie als natürlicher empfunden?</p>","key_press":70,"test_part":"response","test_stimulus":{"position":0,"left":"bvh/return-bottle-training0-lines.txt","right":"bvh/vr_prediction_models/model(vcgpdm)-dataset(return-bottle)-mode(ELBO)-parts(3)-dyn(20)-lvm(15)-hold(0)/final-lines.txt","att_check":false},"trial_type":"html-keyboard-response","trial_index":150,"time_elapsed":341903,"internal_node_id":"0.0-8.0-3.35","subject":"d3kcc3q54urk79u","sona":"7549"},{"rt":458.16000015474856,"stimulus":"<p>Bereit?</p>","key_press":32,"trial_type":"html-keyboard-response","trial_index":151,"time_elapsed":342366,"internal_node_id":"0.0-8.0-0.36","subject":"d3kcc3q54urk79u","sona":"7549"},{"rt":null,"stimulus":"<div style=\"font-size:60px;\">+</div>","key_press":null,"trial_type":"html-keyboard-response","trial_index":152,"time_elapsed":344369,"internal_node_id":"0.0-8.0-1.36","subject":"d3kcc3q54urk79u","sona":"7549"},{"trial_type":"turing-test","trial_index":153,"time_elapsed":348309,"internal_node_id":"0.0-8.0-2.36","subject":"d3kcc3q54urk79u","sona":"7549"},{"rt":768.7699999660254,"stimulus":"<p>Welche Sequenz haben Sie als natürlicher empfunden?</p>","key_press":74,"test_part":"response","test_stimulus":{"position":1,"left":"bvh/vr_prediction_models/model(vcgpdm)-dataset(return-bottle-hold)-mode(ELBO)-parts(3)-dyn(10)-lvm(25)-hold(4)/final-lines.txt","right":"bvh/return-bottle-hold-training4-lines.txt","att_check":false},"trial_type":"html-keyboard-response","trial_index":154,"time_elapsed":349084,"internal_node_id":"0.0-8.0-3.36","subject":"d3kcc3q54urk79u","sona":"7549"},{"rt":307.4499999638647,"stimulus":"<p>Bereit?</p>","key_press":32,"trial_type":"html-keyboard-response","trial_index":155,"time_elapsed":349396,"internal_node_id":"0.0-8.0-0.37","subject":"d3kcc3q54urk79u","sona":"7549"},{"rt":null,"stimulus":"<div style=\"font-size:60px;\">+</div>","key_press":null,"trial_type":"html-keyboard-response","trial_index":156,"time_elapsed":351400,"internal_node_id":"0.0-8.0-1.37","subject":"d3kcc3q54urk79u","sona":"7549"},{"trial_type":"turing-test","trial_index":157,"time_elapsed":357434,"internal_node_id":"0.0-8.0-2.37","subject":"d3kcc3q54urk79u","sona":"7549"},{"rt":2781.459999969229,"stimulus":"<p>Welche Sequenz haben Sie als natürlicher empfunden?</p>","key_press":70,"test_part":"response","test_stimulus":{"position":0,"left":"bvh/pass-bottle-training2-lines.txt","right":"bvh/vr_prediction_models/model(tmp)-dataset(pass-bottle)-numprim(4)-hold(2)/final-lines.txt","att_check":false},"trial_type":"html-keyboard-response","trial_index":158,"time_elapsed":360222,"internal_node_id":"0.0-8.0-3.37","subject":"d3kcc3q54urk79u","sona":"7549"},{"rt":256.5049999393523,"stimulus":"<p>Bereit?</p>","key_press":32,"trial_type":"html-keyboard-response","trial_index":159,"time_elapsed":360485,"internal_node_id":"0.0-8.0-0.38","subject":"d3kcc3q54urk79u","sona":"7549"},{"rt":null,"stimulus":"<div style=\"font-size:60px;\">+</div>","key_press":null,"trial_type":"html-keyboard-response","trial_index":160,"time_elapsed":362489,"internal_node_id":"0.0-8.0-1.38","subject":"d3kcc3q54urk79u","sona":"7549"},{"trial_type":"turing-test","trial_index":161,"time_elapsed":367853,"internal_node_id":"0.0-8.0-2.38","subject":"d3kcc3q54urk79u","sona":"7549"},{"rt":712.5500000547618,"stimulus":"<p>Welche Sequenz haben Sie als natürlicher empfunden?</p>","key_press":74,"test_part":"response","test_stimulus":{"position":1,"left":"bvh/vr_prediction_models/model(vcgpdm)-dataset(return-bottle)-mode(ELBO)-parts(1)-dyn(30)-lvm(35)-hold(0)/final-lines.txt","right":"bvh/return-bottle-training0-lines.txt","att_check":false},"trial_type":"html-keyboard-response","trial_index":162,"time_elapsed":368572,"internal_node_id":"0.0-8.0-3.38","subject":"d3kcc3q54urk79u","sona":"7549"},{"rt":386.8899999652058,"stimulus":"<p>Bereit?</p>","key_press":32,"trial_type":"html-keyboard-response","trial_index":163,"time_elapsed":368964,"internal_node_id":"0.0-8.0-0.39","subject":"d3kcc3q54urk79u","sona":"7549"},{"rt":null,"stimulus":"<div style=\"font-size:60px;\">+</div>","key_press":null,"trial_type":"html-keyboard-response","trial_index":164,"time_elapsed":370967,"internal_node_id":"0.0-8.0-1.39","subject":"d3kcc3q54urk79u","sona":"7549"},{"trial_type":"turing-test","trial_index":165,"time_elapsed":376239,"internal_node_id":"0.0-8.0-2.39","subject":"d3kcc3q54urk79u","sona":"7549"},{"rt":1248.0800000485033,"stimulus":"<p>Welche Sequenz haben Sie als natürlicher empfunden?</p>","key_press":74,"test_part":"response","test_stimulus":{"position":1,"left":"bvh/vr_prediction_models/model(vcgpdm)-dataset(return-bottle-hold)-mode(ELBO)-parts(1)-dyn(30)-lvm(30)-hold(0)/final-lines.txt","right":"bvh/return-bottle-hold-training0-lines.txt","att_check":false},"trial_type":"html-keyboard-response","trial_index":166,"time_elapsed":377493,"internal_node_id":"0.0-8.0-3.39","subject":"d3kcc3q54urk79u","sona":"7549"},{"rt":337.6050000078976,"stimulus":"<p>Bereit?</p>","key_press":32,"trial_type":"html-keyboard-response","trial_index":167,"time_elapsed":377836,"internal_node_id":"0.0-8.0-0.40","subject":"d3kcc3q54urk79u","sona":"7549"},{"rt":null,"stimulus":"<div style=\"font-size:60px;\">+</div>","key_press":null,"trial_type":"html-keyboard-response","trial_index":168,"time_elapsed":379840,"internal_node_id":"0.0-8.0-1.40","subject":"d3kcc3q54urk79u","sona":"7549"},{"trial_type":"turing-test","trial_index":169,"time_elapsed":385274,"internal_node_id":"0.0-8.0-2.40","subject":"d3kcc3q54urk79u","sona":"7549"},{"rt":914.3999998923391,"stimulus":"<p>Welche Sequenz haben Sie als natürlicher empfunden?</p>","key_press":70,"test_part":"response","test_stimulus":{"position":0,"left":"bvh/return-bottle-training0-lines.txt","right":"bvh/vr_prediction_models/model(dmp)-dataset(return-bottle)-npsi(90)-hold(0)/final-lines.txt","att_check":false},"trial_type":"html-keyboard-response","trial_index":170,"time_elapsed":386195,"internal_node_id":"0.0-8.0-3.40","subject":"d3kcc3q54urk79u","sona":"7549"},{"rt":377.95999995432794,"stimulus":"<p>Bereit?</p>","key_press":32,"trial_type":"html-keyboard-response","trial_index":171,"time_elapsed":386579,"internal_node_id":"0.0-8.0-0.41","subject":"d3kcc3q54urk79u","sona":"7549"},{"rt":null,"stimulus":"<div style=\"font-size:60px;\">+</div>","key_press":null,"trial_type":"html-keyboard-response","trial_index":172,"time_elapsed":388583,"internal_node_id":"0.0-8.0-1.41","subject":"d3kcc3q54urk79u","sona":"7549"},{"trial_type":"turing-test","trial_index":173,"time_elapsed":391843,"internal_node_id":"0.0-8.0-2.41","subject":"d3kcc3q54urk79u","sona":"7549"},{"rt":1385.7950000092387,"stimulus":"<p>Welche Sequenz haben Sie als natürlicher empfunden?</p>","key_press":74,"test_part":"response","test_stimulus":{"position":1,"left":"bvh/vr_prediction_models/model(dmp)-dataset(return-bottle-hold)-npsi(40)-hold(1)/final-lines.txt","right":"bvh/return-bottle-hold-training1-lines.txt","att_check":true},"trial_type":"html-keyboard-response","trial_index":174,"time_elapsed":393235,"internal_node_id":"0.0-8.0-3.41","subject":"d3kcc3q54urk79u","sona":"7549"},{"rt":337.4399999156594,"stimulus":"<p>Bereit?</p>","key_press":32,"trial_type":"html-keyboard-response","trial_index":175,"time_elapsed":393578,"internal_node_id":"0.0-8.0-0.42","subject":"d3kcc3q54urk79u","sona":"7549"},{"rt":null,"stimulus":"<div style=\"font-size:60px;\">+</div>","key_press":null,"trial_type":"html-keyboard-response","trial_index":176,"time_elapsed":395582,"internal_node_id":"0.0-8.0-1.42","subject":"d3kcc3q54urk79u","sona":"7549"},{"trial_type":"turing-test","trial_index":177,"time_elapsed":401271,"internal_node_id":"0.0-8.0-2.42","subject":"d3kcc3q54urk79u","sona":"7549"},{"rt":548.2050001155585,"stimulus":"<p>Welche Sequenz haben Sie als natürlicher empfunden?</p>","key_press":74,"test_part":"response","test_stimulus":{"position":1,"left":"bvh/vr_prediction_models/model(vcgpdm)-dataset(return-bottle)-mode(ELBO)-parts(3)-dyn(20)-lvm(35)-hold(3)/final-lines.txt","right":"bvh/return-bottle-training3-lines.txt","att_check":false},"trial_type":"html-keyboard-response","trial_index":178,"time_elapsed":401825,"internal_node_id":"0.0-8.0-3.42","subject":"d3kcc3q54urk79u","sona":"7549"},{"rt":272.9599999729544,"stimulus":"<p>Bereit?</p>","key_press":32,"trial_type":"html-keyboard-response","trial_index":179,"time_elapsed":402105,"internal_node_id":"0.0-8.0-0.43","subject":"d3kcc3q54urk79u","sona":"7549"},{"rt":null,"stimulus":"<div style=\"font-size:60px;\">+</div>","key_press":null,"trial_type":"html-keyboard-response","trial_index":180,"time_elapsed":404110,"internal_node_id":"0.0-8.0-1.43","subject":"d3kcc3q54urk79u","sona":"7549"},{"trial_type":"turing-test","trial_index":181,"time_elapsed":407927,"internal_node_id":"0.0-8.0-2.43","subject":"d3kcc3q54urk79u","sona":"7549"},{"rt":972.0599998254329,"stimulus":"<p>Welche Sequenz haben Sie als natürlicher empfunden?</p>","key_press":74,"test_part":"response","test_stimulus":{"position":1,"left":"bvh/vr_prediction_models/model(vcgpdm)-dataset(pass-bottle-hold)-mode(ELBO)-parts(1)-dyn(25)-lvm(35)-hold(4)/final-lines.txt","right":"bvh/pass-bottle-hold-training4-lines.txt","att_check":false},"trial_type":"html-keyboard-response","trial_index":182,"time_elapsed":408906,"internal_node_id":"0.0-8.0-3.43","subject":"d3kcc3q54urk79u","sona":"7549"},{"rt":289.155000122264,"stimulus":"<p>Bereit?</p>","key_press":32,"trial_type":"html-keyboard-response","trial_index":183,"time_elapsed":409200,"internal_node_id":"0.0-8.0-0.44","subject":"d3kcc3q54urk79u","sona":"7549"},{"rt":null,"stimulus":"<div style=\"font-size:60px;\">+</div>","key_press":null,"trial_type":"html-keyboard-response","trial_index":184,"time_elapsed":411204,"internal_node_id":"0.0-8.0-1.44","subject":"d3kcc3q54urk79u","sona":"7549"},{"trial_type":"turing-test","trial_index":185,"time_elapsed":414536,"internal_node_id":"0.0-8.0-2.44","subject":"d3kcc3q54urk79u","sona":"7549"},{"rt":1634.1850000899285,"stimulus":"<p>Welche Sequenz haben Sie als natürlicher empfunden?</p>","key_press":70,"test_part":"response","test_stimulus":{"position":1,"left":"bvh/vr_prediction_models/model(dmp)-dataset(pass-bottle-hold)-npsi(90)-hold(2)/final-lines.txt","right":"bvh/pass-bottle-hold-training2-lines.txt","att_check":false},"trial_type":"html-keyboard-response","trial_index":186,"time_elapsed":416175,"internal_node_id":"0.0-8.0-3.44","subject":"d3kcc3q54urk79u","sona":"7549"},{"rt":291.0450000781566,"stimulus":"<p>Bereit?</p>","key_press":32,"trial_type":"html-keyboard-response","trial_index":187,"time_elapsed":416471,"internal_node_id":"0.0-8.0-0.45","subject":"d3kcc3q54urk79u","sona":"7549"},{"rt":null,"stimulus":"<div style=\"font-size:60px;\">+</div>","key_press":null,"trial_type":"html-keyboard-response","trial_index":188,"time_elapsed":418476,"internal_node_id":"0.0-8.0-1.45","subject":"d3kcc3q54urk79u","sona":"7549"},{"trial_type":"turing-test","trial_index":189,"time_elapsed":421881,"internal_node_id":"0.0-8.0-2.45","subject":"d3kcc3q54urk79u","sona":"7549"},{"rt":719.9999999720603,"stimulus":"<p>Welche Sequenz haben Sie als natürlicher empfunden?</p>","key_press":74,"test_part":"response","test_stimulus":{"position":1,"left":"bvh/vr_prediction_models/model(tmp)-dataset(pass-bottle-hold)-numprim(8)-hold(0)/final-lines.txt","right":"bvh/pass-bottle-hold-training0-lines.txt","att_check":false},"trial_type":"html-keyboard-response","trial_index":190,"time_elapsed":422607,"internal_node_id":"0.0-8.0-3.45","subject":"d3kcc3q54urk79u","sona":"7549"},{"rt":240.5950000975281,"stimulus":"<p>Bereit?</p>","key_press":32,"trial_type":"html-keyboard-response","trial_index":191,"time_elapsed":422854,"internal_node_id":"0.0-8.0-0.46","subject":"d3kcc3q54urk79u","sona":"7549"},{"rt":null,"stimulus":"<div style=\"font-size:60px;\">+</div>","key_press":null,"trial_type":"html-keyboard-response","trial_index":192,"time_elapsed":424858,"internal_node_id":"0.0-8.0-1.46","subject":"d3kcc3q54urk79u","sona":"7549"},{"trial_type":"turing-test","trial_index":193,"time_elapsed":430242,"internal_node_id":"0.0-8.0-2.46","subject":"d3kcc3q54urk79u","sona":"7549"},{"rt":860.710000153631,"stimulus":"<p>Welche Sequenz haben Sie als natürlicher empfunden?</p>","key_press":74,"test_part":"response","test_stimulus":{"position":1,"left":"bvh/vr_prediction_models/model(vcgpdm)-dataset(return-bottle)-mode(ELBO)-parts(1)-dyn(20)-lvm(5)-hold(0)/final-lines.txt","right":"bvh/return-bottle-training0-lines.txt","att_check":false},"trial_type":"html-keyboard-response","trial_index":194,"time_elapsed":431109,"internal_node_id":"0.0-8.0-3.46","subject":"d3kcc3q54urk79u","sona":"7549"},{"rt":282.68499998375773,"stimulus":"<p>Bereit?</p>","key_press":32,"trial_type":"html-keyboard-response","trial_index":195,"time_elapsed":431397,"internal_node_id":"0.0-8.0-0.47","subject":"d3kcc3q54urk79u","sona":"7549"},{"rt":null,"stimulus":"<div style=\"font-size:60px;\">+</div>","key_press":null,"trial_type":"html-keyboard-response","trial_index":196,"time_elapsed":433401,"internal_node_id":"0.0-8.0-1.47","subject":"d3kcc3q54urk79u","sona":"7549"},{"trial_type":"turing-test","trial_index":197,"time_elapsed":439039,"internal_node_id":"0.0-8.0-2.47","subject":"d3kcc3q54urk79u","sona":"7549"},{"rt":1055.7250001002103,"stimulus":"<p>Welche Sequenz haben Sie als natürlicher empfunden?</p>","key_press":70,"test_part":"response","test_stimulus":{"position":0,"left":"bvh/pass-bottle-training1-lines.txt","right":"bvh/vr_prediction_models/model(vcgpdm)-dataset(pass-bottle)-mode(ELBO)-parts(1)-dyn(30)-lvm(35)-hold(1)/final-lines.txt","att_check":false},"trial_type":"html-keyboard-response","trial_index":198,"time_elapsed":440101,"internal_node_id":"0.0-8.0-3.47","subject":"d3kcc3q54urk79u","sona":"7549"},{"rt":329.7749999910593,"stimulus":"<p>Bereit?</p>","key_press":32,"trial_type":"html-keyboard-response","trial_index":199,"time_elapsed":440437,"internal_node_id":"0.0-8.0-0.48","subject":"d3kcc3q54urk79u","sona":"7549"},{"rt":null,"stimulus":"<div style=\"font-size:60px;\">+</div>","key_press":null,"trial_type":"html-keyboard-response","trial_index":200,"time_elapsed":442440,"internal_node_id":"0.0-8.0-1.48","subject":"d3kcc3q54urk79u","sona":"7549"},{"trial_type":"turing-test","trial_index":201,"time_elapsed":447741,"internal_node_id":"0.0-8.0-2.48","subject":"d3kcc3q54urk79u","sona":"7549"},{"rt":752.2549999412149,"stimulus":"<p>Welche Sequenz haben Sie als natürlicher empfunden?</p>","key_press":70,"test_part":"response","test_stimulus":{"position":0,"left":"bvh/return-bottle-hold-training0-lines.txt","right":"bvh/vr_prediction_models/model(vcgpdm)-dataset(return-bottle-hold)-mode(MAP)-parts(1)-hold(0)/final-lines.txt","att_check":false},"trial_type":"html-keyboard-response","trial_index":202,"time_elapsed":448500,"internal_node_id":"0.0-8.0-3.48","subject":"d3kcc3q54urk79u","sona":"7549"},{"rt":435.7900000177324,"stimulus":"<p>Bereit?</p>","key_press":32,"trial_type":"html-keyboard-response","trial_index":203,"time_elapsed":448940,"internal_node_id":"0.0-8.0-0.49","subject":"d3kcc3q54urk79u","sona":"7549"},{"rt":null,"stimulus":"<div style=\"font-size:60px;\">+</div>","key_press":null,"trial_type":"html-keyboard-response","trial_index":204,"time_elapsed":450943,"internal_node_id":"0.0-8.0-1.49","subject":"d3kcc3q54urk79u","sona":"7549"},{"trial_type":"turing-test","trial_index":205,"time_elapsed":456832,"internal_node_id":"0.0-8.0-2.49","subject":"d3kcc3q54urk79u","sona":"7549"},{"rt":958.8699999731034,"stimulus":"<p>Welche Sequenz haben Sie als natürlicher empfunden?</p>","key_press":74,"test_part":"response","test_stimulus":{"position":1,"left":"bvh/vr_prediction_models/model(vcgpdm)-dataset(return-bottle)-mode(ELBO)-parts(3)-dyn(25)-lvm(15)-hold(3)/final-lines.txt","right":"bvh/return-bottle-training3-lines.txt","att_check":false},"trial_type":"html-keyboard-response","trial_index":206,"time_elapsed":457798,"internal_node_id":"0.0-8.0-3.49","subject":"d3kcc3q54urk79u","sona":"7549"},{"rt":408.82500004954636,"stimulus":"<p>Bereit?</p>","key_press":32,"trial_type":"html-keyboard-response","trial_index":207,"time_elapsed":458212,"internal_node_id":"0.0-8.0-0.50","subject":"d3kcc3q54urk79u","sona":"7549"},{"rt":null,"stimulus":"<div style=\"font-size:60px;\">+</div>","key_press":null,"trial_type":"html-keyboard-response","trial_index":208,"time_elapsed":460216,"internal_node_id":"0.0-8.0-1.50","subject":"d3kcc3q54urk79u","sona":"7549"},{"trial_type":"turing-test","trial_index":209,"time_elapsed":463731,"internal_node_id":"0.0-8.0-2.50","subject":"d3kcc3q54urk79u","sona":"7549"},{"rt":1176.4649997930974,"stimulus":"<p>Welche Sequenz haben Sie als natürlicher empfunden?</p>","key_press":74,"test_part":"response","test_stimulus":{"position":1,"left":"bvh/vr_prediction_models/model(vcgpdm)-dataset(pass-bottle-hold)-mode(ELBO)-parts(1)-dyn(25)-lvm(35)-hold(3)/final-lines.txt","right":"bvh/pass-bottle-hold-training3-lines.txt","att_check":false},"trial_type":"html-keyboard-response","trial_index":210,"time_elapsed":464915,"internal_node_id":"0.0-8.0-3.50","subject":"d3kcc3q54urk79u","sona":"7549"},{"rt":345.97999998368323,"stimulus":"<p>Bereit?</p>","key_press":32,"trial_type":"html-keyboard-response","trial_index":211,"time_elapsed":465267,"internal_node_id":"0.0-8.0-0.51","subject":"d3kcc3q54urk79u","sona":"7549"},{"rt":null,"stimulus":"<div style=\"font-size:60px;\">+</div>","key_press":null,"trial_type":"html-keyboard-response","trial_index":212,"time_elapsed":467271,"internal_node_id":"0.0-8.0-1.51","subject":"d3kcc3q54urk79u","sona":"7549"},{"trial_type":"turing-test","trial_index":213,"time_elapsed":473502,"internal_node_id":"0.0-8.0-2.51","subject":"d3kcc3q54urk79u","sona":"7549"},{"rt":828.0650000087917,"stimulus":"<p>Welche Sequenz haben Sie als natürlicher empfunden?</p>","key_press":74,"test_part":"response","test_stimulus":{"position":1,"left":"bvh/vr_prediction_models/model(dmp)-dataset(pass-bottle)-npsi(60)-hold(2)/final-lines.txt","right":"bvh/pass-bottle-training2-lines.txt","att_check":false},"trial_type":"html-keyboard-response","trial_index":214,"time_elapsed":474340,"internal_node_id":"0.0-8.0-3.51","subject":"d3kcc3q54urk79u","sona":"7549"},{"rt":296.76499986089766,"stimulus":"<p>Bereit?</p>","key_press":32,"trial_type":"html-keyboard-response","trial_index":215,"time_elapsed":474642,"internal_node_id":"0.0-8.0-0.52","subject":"d3kcc3q54urk79u","sona":"7549"},{"rt":null,"stimulus":"<div style=\"font-size:60px;\">+</div>","key_press":null,"trial_type":"html-keyboard-response","trial_index":216,"time_elapsed":476645,"internal_node_id":"0.0-8.0-1.52","subject":"d3kcc3q54urk79u","sona":"7549"},{"trial_type":"turing-test","trial_index":217,"time_elapsed":480128,"internal_node_id":"0.0-8.0-2.52","subject":"d3kcc3q54urk79u","sona":"7549"},{"rt":1145.384999923408,"stimulus":"<p>Welche Sequenz haben Sie als natürlicher empfunden?</p>","key_press":70,"test_part":"response","test_stimulus":{"position":0,"left":"bvh/pass-bottle-hold-training3-lines.txt","right":"bvh/vr_prediction_models/model(tmp)-dataset(pass-bottle-hold)-numprim(3)-hold(3)/final-lines.txt","att_check":false},"trial_type":"html-keyboard-response","trial_index":218,"time_elapsed":481281,"internal_node_id":"0.0-8.0-3.52","subject":"d3kcc3q54urk79u","sona":"7549"},{"rt":314.62499988265336,"stimulus":"<p>Bereit?</p>","key_press":32,"trial_type":"html-keyboard-response","trial_index":219,"time_elapsed":481601,"internal_node_id":"0.0-8.0-0.53","subject":"d3kcc3q54urk79u","sona":"7549"},{"rt":null,"stimulus":"<div style=\"font-size:60px;\">+</div>","key_press":null,"trial_type":"html-keyboard-response","trial_index":220,"time_elapsed":483605,"internal_node_id":"0.0-8.0-1.53","subject":"d3kcc3q54urk79u","sona":"7549"},{"trial_type":"turing-test","trial_index":221,"time_elapsed":490401,"internal_node_id":"0.0-8.0-2.53","subject":"d3kcc3q54urk79u","sona":"7549"},{"rt":969.3050000350922,"stimulus":"<p>Welche Sequenz haben Sie als natürlicher empfunden?</p>","key_press":70,"test_part":"response","test_stimulus":{"position":0,"left":"bvh/pass-bottle-training0-lines.txt","right":"bvh/vr_prediction_models/model(tmp)-dataset(pass-bottle)-numprim(7)-hold(0)/final-lines.txt","att_check":false},"trial_type":"html-keyboard-response","trial_index":222,"time_elapsed":491378,"internal_node_id":"0.0-8.0-3.53","subject":"d3kcc3q54urk79u","sona":"7549"},{"rt":334.56999994814396,"stimulus":"<p>Bereit?</p>","key_press":32,"trial_type":"html-keyboard-response","trial_index":223,"time_elapsed":491721,"internal_node_id":"0.0-8.0-0.54","subject":"d3kcc3q54urk79u","sona":"7549"},{"rt":null,"stimulus":"<div style=\"font-size:60px;\">+</div>","key_press":null,"trial_type":"html-keyboard-response","trial_index":224,"time_elapsed":493724,"internal_node_id":"0.0-8.0-1.54","subject":"d3kcc3q54urk79u","sona":"7549"},{"trial_type":"turing-test","trial_index":225,"time_elapsed":497281,"internal_node_id":"0.0-8.0-2.54","subject":"d3kcc3q54urk79u","sona":"7549"},{"rt":856.6349998582155,"stimulus":"<p>Welche Sequenz haben Sie als natürlicher empfunden?</p>","key_press":70,"test_part":"response","test_stimulus":{"position":0,"left":"bvh/pass-bottle-hold-training3-lines.txt","right":"bvh/vr_prediction_models/model(vcgpdm)-dataset(pass-bottle-hold)-mode(ELBO)-parts(3)-dyn(10)-lvm(25)-hold(3)/final-lines.txt","att_check":false},"trial_type":"html-keyboard-response","trial_index":226,"time_elapsed":498143,"internal_node_id":"0.0-8.0-3.54","subject":"d3kcc3q54urk79u","sona":"7549"},{"rt":378.55500006116927,"stimulus":"<p>Bereit?</p>","key_press":32,"trial_type":"html-keyboard-response","trial_index":227,"time_elapsed":498528,"internal_node_id":"0.0-8.0-0.55","subject":"d3kcc3q54urk79u","sona":"7549"},{"rt":null,"stimulus":"<div style=\"font-size:60px;\">+</div>","key_press":null,"trial_type":"html-keyboard-response","trial_index":228,"time_elapsed":500532,"internal_node_id":"0.0-8.0-1.55","subject":"d3kcc3q54urk79u","sona":"7549"},{"trial_type":"turing-test","trial_index":229,"time_elapsed":503908,"internal_node_id":"0.0-8.0-2.55","subject":"d3kcc3q54urk79u","sona":"7549"},{"rt":781.284999800846,"stimulus":"<p>Welche Sequenz haben Sie als natürlicher empfunden?</p>","key_press":74,"test_part":"response","test_stimulus":{"position":1,"left":"bvh/vr_prediction_models/model(vcgpdm)-dataset(pass-bottle-hold)-mode(ELBO)-parts(3)-dyn(20)-lvm(35)-hold(1)/final-lines.txt","right":"bvh/pass-bottle-hold-training1-lines.txt","att_check":false},"trial_type":"html-keyboard-response","trial_index":230,"time_elapsed":504696,"internal_node_id":"0.0-8.0-3.55","subject":"d3kcc3q54urk79u","sona":"7549"},{"rt":392.61500001884997,"stimulus":"<p>Bereit?</p>","key_press":32,"trial_type":"html-keyboard-response","trial_index":231,"time_elapsed":505094,"internal_node_id":"0.0-8.0-0.56","subject":"d3kcc3q54urk79u","sona":"7549"},{"rt":null,"stimulus":"<div style=\"font-size:60px;\">+</div>","key_press":null,"trial_type":"html-keyboard-response","trial_index":232,"time_elapsed":507098,"internal_node_id":"0.0-8.0-1.56","subject":"d3kcc3q54urk79u","sona":"7549"},{"trial_type":"turing-test","trial_index":233,"time_elapsed":512205,"internal_node_id":"0.0-8.0-2.56","subject":"d3kcc3q54urk79u","sona":"7549"},{"rt":793.1900001130998,"stimulus":"<p>Welche Sequenz haben Sie als natürlicher empfunden?</p>","key_press":70,"test_part":"response","test_stimulus":{"position":0,"left":"bvh/return-bottle-hold-training0-lines.txt","right":"bvh/vr_prediction_models/model(tmp)-dataset(return-bottle-hold)-numprim(15)-hold(0)/final-lines.txt","att_check":false},"trial_type":"html-keyboard-response","trial_index":234,"time_elapsed":513005,"internal_node_id":"0.0-8.0-3.56","subject":"d3kcc3q54urk79u","sona":"7549"},{"rt":320.92999992892146,"stimulus":"<p>Bereit?</p>","key_press":32,"trial_type":"html-keyboard-response","trial_index":235,"time_elapsed":513333,"internal_node_id":"0.0-8.0-0.57","subject":"d3kcc3q54urk79u","sona":"7549"},{"rt":null,"stimulus":"<div style=\"font-size:60px;\">+</div>","key_press":null,"trial_type":"html-keyboard-response","trial_index":236,"time_elapsed":515338,"internal_node_id":"0.0-8.0-1.57","subject":"d3kcc3q54urk79u","sona":"7549"},{"trial_type":"turing-test","trial_index":237,"time_elapsed":521023,"internal_node_id":"0.0-8.0-2.57","subject":"d3kcc3q54urk79u","sona":"7549"},{"rt":684.5899999607354,"stimulus":"<p>Welche Sequenz haben Sie als natürlicher empfunden?</p>","key_press":70,"test_part":"response","test_stimulus":{"position":0,"left":"bvh/return-bottle-training3-lines.txt","right":"bvh/vr_prediction_models/model(vcgpdm)-dataset(return-bottle)-mode(ELBO)-parts(3)-dyn(20)-lvm(35)-hold(3)/final-lines.txt","att_check":false},"trial_type":"html-keyboard-response","trial_index":238,"time_elapsed":521718,"internal_node_id":"0.0-8.0-3.57","subject":"d3kcc3q54urk79u","sona":"7549"},{"rt":344.36500002630055,"stimulus":"<p>Bereit?</p>","key_press":32,"trial_type":"html-keyboard-response","trial_index":239,"time_elapsed":522069,"internal_node_id":"0.0-8.0-0.58","subject":"d3kcc3q54urk79u","sona":"7549"},{"rt":null,"stimulus":"<div style=\"font-size:60px;\">+</div>","key_press":null,"trial_type":"html-keyboard-response","trial_index":240,"time_elapsed":524073,"internal_node_id":"0.0-8.0-1.58","subject":"d3kcc3q54urk79u","sona":"7549"},{"trial_type":"turing-test","trial_index":241,"time_elapsed":530129,"internal_node_id":"0.0-8.0-2.58","subject":"d3kcc3q54urk79u","sona":"7549"},{"rt":764.4500001333654,"stimulus":"<p>Welche Sequenz haben Sie als natürlicher empfunden?</p>","key_press":74,"test_part":"response","test_stimulus":{"position":1,"left":"bvh/vr_prediction_models/model(vcgpdm)-dataset(return-bottle)-mode(ELBO)-parts(1)-dyn(35)-lvm(10)-hold(4)/final-lines.txt","right":"bvh/return-bottle-training4-lines.txt","att_check":false},"trial_type":"html-keyboard-response","trial_index":242,"time_elapsed":530901,"internal_node_id":"0.0-8.0-3.58","subject":"d3kcc3q54urk79u","sona":"7549"},{"rt":272.4800000432879,"stimulus":"<p>Bereit?</p>","key_press":32,"trial_type":"html-keyboard-response","trial_index":243,"time_elapsed":531181,"internal_node_id":"0.0-8.0-0.59","subject":"d3kcc3q54urk79u","sona":"7549"},{"rt":null,"stimulus":"<div style=\"font-size:60px;\">+</div>","key_press":null,"trial_type":"html-keyboard-response","trial_index":244,"time_elapsed":533183,"internal_node_id":"0.0-8.0-1.59","subject":"d3kcc3q54urk79u","sona":"7549"},{"trial_type":"turing-test","trial_index":245,"time_elapsed":539084,"internal_node_id":"0.0-8.0-2.59","subject":"d3kcc3q54urk79u","sona":"7549"},{"rt":570.6100000534207,"stimulus":"<p>Welche Sequenz haben Sie als natürlicher empfunden?</p>","key_press":74,"test_part":"response","test_stimulus":{"position":1,"left":"bvh/vr_prediction_models/model(vcgpdm)-dataset(pass-bottle)-mode(ELBO)-parts(3)-dyn(25)-lvm(30)-hold(4)/final-lines.txt","right":"bvh/pass-bottle-training4-lines.txt","att_check":false},"trial_type":"html-keyboard-response","trial_index":246,"time_elapsed":539662,"internal_node_id":"0.0-8.0-3.59","subject":"d3kcc3q54urk79u","sona":"7549"},{"rt":280.02000018022954,"stimulus":"<p>Bereit?</p>","key_press":32,"trial_type":"html-keyboard-response","trial_index":247,"time_elapsed":539948,"internal_node_id":"0.0-8.0-0.60","subject":"d3kcc3q54urk79u","sona":"7549"},{"rt":null,"stimulus":"<div style=\"font-size:60px;\">+</div>","key_press":null,"trial_type":"html-keyboard-response","trial_index":248,"time_elapsed":541953,"internal_node_id":"0.0-8.0-1.60","subject":"d3kcc3q54urk79u","sona":"7549"},{"trial_type":"turing-test","trial_index":249,"time_elapsed":545178,"internal_node_id":"0.0-8.0-2.60","subject":"d3kcc3q54urk79u","sona":"7549"},{"rt":938.5649999603629,"stimulus":"<p>Welche Sequenz haben Sie als natürlicher empfunden?</p>","key_press":70,"test_part":"response","test_stimulus":{"position":1,"left":"bvh/vr_prediction_models/model(dmp)-dataset(pass-bottle-hold)-npsi(20)-hold(1)/final-lines.txt","right":"bvh/pass-bottle-hold-training1-lines.txt","att_check":false},"trial_type":"html-keyboard-response","trial_index":250,"time_elapsed":546122,"internal_node_id":"0.0-8.0-3.60","subject":"d3kcc3q54urk79u","sona":"7549"},{"rt":249.0950000938028,"stimulus":"<p>Bereit?</p>","key_press":32,"trial_type":"html-keyboard-response","trial_index":251,"time_elapsed":546379,"internal_node_id":"0.0-8.0-0.61","subject":"d3kcc3q54urk79u","sona":"7549"},{"rt":null,"stimulus":"<div style=\"font-size:60px;\">+</div>","key_press":null,"trial_type":"html-keyboard-response","trial_index":252,"time_elapsed":548382,"internal_node_id":"0.0-8.0-1.61","subject":"d3kcc3q54urk79u","sona":"7549"},{"trial_type":"turing-test","trial_index":253,"time_elapsed":552122,"internal_node_id":"0.0-8.0-2.61","subject":"d3kcc3q54urk79u","sona":"7549"},{"rt":941.7150001972914,"stimulus":"<p>Welche Sequenz haben Sie als natürlicher empfunden?</p>","key_press":70,"test_part":"response","test_stimulus":{"position":0,"left":"bvh/return-bottle-hold-training4-lines.txt","right":"bvh/vr_prediction_models/model(dmp)-dataset(return-bottle-hold)-npsi(60)-hold(4)/final-lines.txt","att_check":false},"trial_type":"html-keyboard-response","trial_index":254,"time_elapsed":553075,"internal_node_id":"0.0-8.0-3.61","subject":"d3kcc3q54urk79u","sona":"7549"},{"rt":288.8100000564009,"stimulus":"<p>Bereit?</p>","key_press":32,"trial_type":"html-keyboard-response","trial_index":255,"time_elapsed":553370,"internal_node_id":"0.0-8.0-0.62","subject":"d3kcc3q54urk79u","sona":"7549"},{"rt":null,"stimulus":"<div style=\"font-size:60px;\">+</div>","key_press":null,"trial_type":"html-keyboard-response","trial_index":256,"time_elapsed":555373,"internal_node_id":"0.0-8.0-1.62","subject":"d3kcc3q54urk79u","sona":"7549"},{"trial_type":"turing-test","trial_index":257,"time_elapsed":561571,"internal_node_id":"0.0-8.0-2.62","subject":"d3kcc3q54urk79u","sona":"7549"},{"rt":661.4550000522286,"stimulus":"<p>Welche Sequenz haben Sie als natürlicher empfunden?</p>","key_press":74,"test_part":"response","test_stimulus":{"position":1,"left":"bvh/vr_prediction_models/model(vcgpdm)-dataset(return-bottle)-mode(ELBO)-parts(1)-dyn(20)-lvm(20)-hold(1)/final-lines.txt","right":"bvh/return-bottle-training1-lines.txt","att_check":false},"trial_type":"html-keyboard-response","trial_index":258,"time_elapsed":562241,"internal_node_id":"0.0-8.0-3.62","subject":"d3kcc3q54urk79u","sona":"7549"},{"rt":281.93000005558133,"stimulus":"<p>Bereit?</p>","key_press":32,"trial_type":"html-keyboard-response","trial_index":259,"time_elapsed":562529,"internal_node_id":"0.0-8.0-0.63","subject":"d3kcc3q54urk79u","sona":"7549"},{"rt":null,"stimulus":"<div style=\"font-size:60px;\">+</div>","key_press":null,"trial_type":"html-keyboard-response","trial_index":260,"time_elapsed":564533,"internal_node_id":"0.0-8.0-1.63","subject":"d3kcc3q54urk79u","sona":"7549"},{"trial_type":"turing-test","trial_index":261,"time_elapsed":568267,"internal_node_id":"0.0-8.0-2.63","subject":"d3kcc3q54urk79u","sona":"7549"},{"rt":774.1450001485646,"stimulus":"<p>Welche Sequenz haben Sie als natürlicher empfunden?</p>","key_press":70,"test_part":"response","test_stimulus":{"position":0,"left":"bvh/pass-bottle-hold-training4-lines.txt","right":"bvh/vr_prediction_models/model(vcgpdm)-dataset(pass-bottle-hold)-mode(ELBO)-parts(3)-dyn(10)-lvm(25)-hold(4)/final-lines.txt","att_check":false},"trial_type":"html-keyboard-response","trial_index":262,"time_elapsed":569049,"internal_node_id":"0.0-8.0-3.63","subject":"d3kcc3q54urk79u","sona":"7549"},{"rt":271.25500002875924,"stimulus":"<p>Bereit?</p>","key_press":32,"trial_type":"html-keyboard-response","trial_index":263,"time_elapsed":569328,"internal_node_id":"0.0-8.0-0.64","subject":"d3kcc3q54urk79u","sona":"7549"},{"rt":null,"stimulus":"<div style=\"font-size:60px;\">+</div>","key_press":null,"trial_type":"html-keyboard-response","trial_index":264,"time_elapsed":571331,"internal_node_id":"0.0-8.0-1.64","subject":"d3kcc3q54urk79u","sona":"7549"},{"trial_type":"turing-test","trial_index":265,"time_elapsed":577338,"internal_node_id":"0.0-8.0-2.64","subject":"d3kcc3q54urk79u","sona":"7549"},{"rt":869.7500000707805,"stimulus":"<p>Welche Sequenz haben Sie als natürlicher empfunden?</p>","key_press":74,"test_part":"response","test_stimulus":{"position":1,"left":"bvh/vr_prediction_models/model(vcgpdm)-dataset(pass-bottle)-mode(ELBO)-parts(3)-dyn(25)-lvm(15)-hold(3)/final-lines.txt","right":"bvh/pass-bottle-training3-lines.txt","att_check":false},"trial_type":"html-keyboard-response","trial_index":266,"time_elapsed":578216,"internal_node_id":"0.0-8.0-3.64","subject":"d3kcc3q54urk79u","sona":"7549"},{"rt":312.23500007763505,"stimulus":"<p>Bereit?</p>","key_press":32,"trial_type":"html-keyboard-response","trial_index":267,"time_elapsed":578536,"internal_node_id":"0.0-8.0-0.65","subject":"d3kcc3q54urk79u","sona":"7549"},{"rt":null,"stimulus":"<div style=\"font-size:60px;\">+</div>","key_press":null,"trial_type":"html-keyboard-response","trial_index":268,"time_elapsed":580540,"internal_node_id":"0.0-8.0-1.65","subject":"d3kcc3q54urk79u","sona":"7549"},{"trial_type":"turing-test","trial_index":269,"time_elapsed":587375,"internal_node_id":"0.0-8.0-2.65","subject":"d3kcc3q54urk79u","sona":"7549"},{"rt":599.495000205934,"stimulus":"<p>Welche Sequenz haben Sie als natürlicher empfunden?</p>","key_press":74,"test_part":"response","test_stimulus":{"position":1,"left":"bvh/vr_prediction_models/model(vcgpdm)-dataset(return-bottle)-mode(ELBO)-parts(1)-dyn(35)-lvm(10)-hold(2)/final-lines.txt","right":"bvh/return-bottle-training2-lines.txt","att_check":false},"trial_type":"html-keyboard-response","trial_index":270,"time_elapsed":587985,"internal_node_id":"0.0-8.0-3.65","subject":"d3kcc3q54urk79u","sona":"7549"},{"rt":295.63999990932643,"stimulus":"<p>Bereit?</p>","key_press":32,"trial_type":"html-keyboard-response","trial_index":271,"time_elapsed":588287,"internal_node_id":"0.0-8.0-0.66","subject":"d3kcc3q54urk79u","sona":"7549"},{"rt":null,"stimulus":"<div style=\"font-size:60px;\">+</div>","key_press":null,"trial_type":"html-keyboard-response","trial_index":272,"time_elapsed":590292,"internal_node_id":"0.0-8.0-1.66","subject":"d3kcc3q54urk79u","sona":"7549"},{"trial_type":"turing-test","trial_index":273,"time_elapsed":596231,"internal_node_id":"0.0-8.0-2.66","subject":"d3kcc3q54urk79u","sona":"7549"},{"rt":973.2850000727922,"stimulus":"<p>Welche Sequenz haben Sie als natürlicher empfunden?</p>","key_press":70,"test_part":"response","test_stimulus":{"position":0,"left":"bvh/pass-bottle-training4-lines.txt","right":"bvh/vr_prediction_models/model(vcgpdm)-dataset(pass-bottle)-mode(ELBO)-parts(3)-dyn(35)-lvm(20)-hold(4)/final-lines.txt","att_check":false},"trial_type":"html-keyboard-response","trial_index":274,"time_elapsed":597215,"internal_node_id":"0.0-8.0-3.66","subject":"d3kcc3q54urk79u","sona":"7549"},{"rt":201.87500002793968,"stimulus":"<p>Bereit?</p>","key_press":32,"trial_type":"html-keyboard-response","trial_index":275,"time_elapsed":597423,"internal_node_id":"0.0-8.0-0.67","subject":"d3kcc3q54urk79u","sona":"7549"},{"rt":null,"stimulus":"<div style=\"font-size:60px;\">+</div>","key_press":null,"trial_type":"html-keyboard-response","trial_index":276,"time_elapsed":599426,"internal_node_id":"0.0-8.0-1.67","subject":"d3kcc3q54urk79u","sona":"7549"},{"trial_type":"turing-test","trial_index":277,"time_elapsed":603601,"internal_node_id":"0.0-8.0-2.67","subject":"d3kcc3q54urk79u","sona":"7549"},{"rt":526.2249999213964,"stimulus":"<p>Welche Sequenz haben Sie als natürlicher empfunden?</p>","key_press":70,"test_part":"response","test_stimulus":{"position":1,"left":"bvh/vr_prediction_models/model(vcgpdm)-dataset(pass-bottle-hold)-mode(ELBO)-parts(1)-dyn(30)-lvm(20)-hold(2)/final-lines.txt","right":"bvh/pass-bottle-hold-training2-lines.txt","att_check":false},"trial_type":"html-keyboard-response","trial_index":278,"time_elapsed":604135,"internal_node_id":"0.0-8.0-3.67","subject":"d3kcc3q54urk79u","sona":"7549"},{"rt":232.46499989181757,"stimulus":"<p>Bereit?</p>","key_press":32,"trial_type":"html-keyboard-response","trial_index":279,"time_elapsed":604374,"internal_node_id":"0.0-8.0-0.68","subject":"d3kcc3q54urk79u","sona":"7549"},{"rt":null,"stimulus":"<div style=\"font-size:60px;\">+</div>","key_press":null,"trial_type":"html-keyboard-response","trial_index":280,"time_elapsed":606378,"internal_node_id":"0.0-8.0-1.68","subject":"d3kcc3q54urk79u","sona":"7549"},{"trial_type":"turing-test","trial_index":281,"time_elapsed":612140,"internal_node_id":"0.0-8.0-2.68","subject":"d3kcc3q54urk79u","sona":"7549"},{"rt":543.5750000178814,"stimulus":"<p>Welche Sequenz haben Sie als natürlicher empfunden?</p>","key_press":74,"test_part":"response","test_stimulus":{"position":0,"left":"bvh/return-bottle-training4-lines.txt","right":"bvh/vr_prediction_models/model(tmp)-dataset(return-bottle)-numprim(8)-hold(4)/final-lines.txt","att_check":false},"trial_type":"html-keyboard-response","trial_index":282,"time_elapsed":612693,"internal_node_id":"0.0-8.0-3.68","subject":"d3kcc3q54urk79u","sona":"7549"},{"rt":479.72499998286366,"stimulus":"<p>Bereit?</p>","key_press":32,"trial_type":"html-keyboard-response","trial_index":283,"time_elapsed":613181,"internal_node_id":"0.0-8.0-0.69","subject":"d3kcc3q54urk79u","sona":"7549"},{"rt":null,"stimulus":"<div style=\"font-size:60px;\">+</div>","key_press":null,"trial_type":"html-keyboard-response","trial_index":284,"time_elapsed":615184,"internal_node_id":"0.0-8.0-1.69","subject":"d3kcc3q54urk79u","sona":"7549"},{"trial_type":"turing-test","trial_index":285,"time_elapsed":618727,"internal_node_id":"0.0-8.0-2.69","subject":"d3kcc3q54urk79u","sona":"7549"},{"rt":726.2699999846518,"stimulus":"<p>Welche Sequenz haben Sie als natürlicher empfunden?</p>","key_press":74,"test_part":"response","test_stimulus":{"position":1,"left":"bvh/vr_prediction_models/model(dmp)-dataset(pass-bottle-hold)-npsi(90)-hold(3)/final-lines.txt","right":"bvh/pass-bottle-hold-training3-lines.txt","att_check":false},"trial_type":"html-keyboard-response","trial_index":286,"time_elapsed":619502,"internal_node_id":"0.0-8.0-3.69","subject":"d3kcc3q54urk79u","sona":"7549"},{"rt":269.60500003769994,"stimulus":"<p>Bereit?</p>","key_press":32,"trial_type":"html-keyboard-response","trial_index":287,"time_elapsed":619780,"internal_node_id":"0.0-8.0-0.70","subject":"d3kcc3q54urk79u","sona":"7549"},{"rt":null,"stimulus":"<div style=\"font-size:60px;\">+</div>","key_press":null,"trial_type":"html-keyboard-response","trial_index":288,"time_elapsed":621785,"internal_node_id":"0.0-8.0-1.70","subject":"d3kcc3q54urk79u","sona":"7549"},{"trial_type":"turing-test","trial_index":289,"time_elapsed":627560,"internal_node_id":"0.0-8.0-2.70","subject":"d3kcc3q54urk79u","sona":"7549"},{"rt":355.005000019446,"stimulus":"<p>Welche Sequenz haben Sie als natürlicher empfunden?</p>","key_press":74,"test_part":"response","test_stimulus":{"position":0,"left":"bvh/return-bottle-training3-lines.txt","right":"bvh/vr_prediction_models/model(tmp)-dataset(return-bottle)-numprim(5)-hold(3)/final-lines.txt","att_check":false},"trial_type":"html-keyboard-response","trial_index":290,"time_elapsed":627923,"internal_node_id":"0.0-8.0-3.70","subject":"d3kcc3q54urk79u","sona":"7549"},{"rt":295.29999988153577,"stimulus":"<p>Bereit?</p>","key_press":32,"trial_type":"html-keyboard-response","trial_index":291,"time_elapsed":628227,"internal_node_id":"0.0-8.0-0.71","subject":"d3kcc3q54urk79u","sona":"7549"},{"rt":null,"stimulus":"<div style=\"font-size:60px;\">+</div>","key_press":null,"trial_type":"html-keyboard-response","trial_index":292,"time_elapsed":630232,"internal_node_id":"0.0-8.0-1.71","subject":"d3kcc3q54urk79u","sona":"7549"},{"trial_type":"turing-test","trial_index":293,"time_elapsed":633587,"internal_node_id":"0.0-8.0-2.71","subject":"d3kcc3q54urk79u","sona":"7549"},{"rt":356.17000004276633,"stimulus":"<p>Welche Sequenz haben Sie als natürlicher empfunden?</p>","key_press":74,"test_part":"response","test_stimulus":{"position":1,"left":"bvh/vr_prediction_models/model(tmp)-dataset(pass-bottle-hold)-numprim(10)-hold(0)/final-lines.txt","right":"bvh/pass-bottle-hold-training0-lines.txt","att_check":false},"trial_type":"html-keyboard-response","trial_index":294,"time_elapsed":633955,"internal_node_id":"0.0-8.0-3.71","subject":"d3kcc3q54urk79u","sona":"7549"},{"rt":390.27500012889504,"stimulus":"<p>Bereit?</p>","key_press":32,"trial_type":"html-keyboard-response","trial_index":295,"time_elapsed":634354,"internal_node_id":"0.0-8.0-0.72","subject":"d3kcc3q54urk79u","sona":"7549"},{"rt":null,"stimulus":"<div style=\"font-size:60px;\">+</div>","key_press":null,"trial_type":"html-keyboard-response","trial_index":296,"time_elapsed":636358,"internal_node_id":"0.0-8.0-1.72","subject":"d3kcc3q54urk79u","sona":"7549"},{"trial_type":"turing-test","trial_index":297,"time_elapsed":641728,"internal_node_id":"0.0-8.0-2.72","subject":"d3kcc3q54urk79u","sona":"7549"},{"rt":847.2250001505017,"stimulus":"<p>Welche Sequenz haben Sie als natürlicher empfunden?</p>","key_press":70,"test_part":"response","test_stimulus":{"position":0,"left":"bvh/pass-bottle-training1-lines.txt","right":"bvh/vr_prediction_models/model(tmp)-dataset(pass-bottle)-numprim(3)-hold(1)/final-lines.txt","att_check":false},"trial_type":"html-keyboard-response","trial_index":298,"time_elapsed":642582,"internal_node_id":"0.0-8.0-3.72","subject":"d3kcc3q54urk79u","sona":"7549"},{"rt":383.9400000870228,"stimulus":"<p>Bereit?</p>","key_press":32,"trial_type":"html-keyboard-response","trial_index":299,"time_elapsed":642975,"internal_node_id":"0.0-8.0-0.73","subject":"d3kcc3q54urk79u","sona":"7549"},{"rt":null,"stimulus":"<div style=\"font-size:60px;\">+</div>","key_press":null,"trial_type":"html-keyboard-response","trial_index":300,"time_elapsed":644979,"internal_node_id":"0.0-8.0-1.73","subject":"d3kcc3q54urk79u","sona":"7549"},{"trial_type":"turing-test","trial_index":301,"time_elapsed":650455,"internal_node_id":"0.0-8.0-2.73","subject":"d3kcc3q54urk79u","sona":"7549"},{"rt":563.469999935478,"stimulus":"<p>Welche Sequenz haben Sie als natürlicher empfunden?</p>","key_press":74,"test_part":"response","test_stimulus":{"position":0,"left":"bvh/return-bottle-training0-lines.txt","right":"bvh/vr_prediction_models/model(tmp)-dataset(return-bottle)-numprim(12)-hold(0)/final-lines.txt","att_check":false},"trial_type":"html-keyboard-response","trial_index":302,"time_elapsed":651032,"internal_node_id":"0.0-8.0-3.73","subject":"d3kcc3q54urk79u","sona":"7549"},{"rt":430.80500001087785,"stimulus":"<p>Bereit?</p>","key_press":32,"trial_type":"html-keyboard-response","trial_index":303,"time_elapsed":651471,"internal_node_id":"0.0-8.0-0.74","subject":"d3kcc3q54urk79u","sona":"7549"},{"rt":null,"stimulus":"<div style=\"font-size:60px;\">+</div>","key_press":null,"trial_type":"html-keyboard-response","trial_index":304,"time_elapsed":653474,"internal_node_id":"0.0-8.0-1.74","subject":"d3kcc3q54urk79u","sona":"7549"},{"trial_type":"turing-test","trial_index":305,"time_elapsed":660415,"internal_node_id":"0.0-8.0-2.74","subject":"d3kcc3q54urk79u","sona":"7549"},{"rt":615.2149999979883,"stimulus":"<p>Welche Sequenz haben Sie als natürlicher empfunden?</p>","key_press":74,"test_part":"response","test_stimulus":{"position":1,"left":"bvh/vr_prediction_models/model(vcgpdm)-dataset(pass-bottle)-mode(ELBO)-parts(3)-dyn(30)-lvm(15)-hold(0)/final-lines.txt","right":"bvh/pass-bottle-training0-lines.txt","att_check":false},"trial_type":"html-keyboard-response","trial_index":306,"time_elapsed":661040,"internal_node_id":"0.0-8.0-3.74","subject":"d3kcc3q54urk79u","sona":"7549"},{"rt":543.8599998597056,"stimulus":"<p>Bereit?</p>","key_press":32,"trial_type":"html-keyboard-response","trial_index":307,"time_elapsed":661590,"internal_node_id":"0.0-8.0-0.75","subject":"d3kcc3q54urk79u","sona":"7549"},{"rt":null,"stimulus":"<div style=\"font-size:60px;\">+</div>","key_press":null,"trial_type":"html-keyboard-response","trial_index":308,"time_elapsed":663593,"internal_node_id":"0.0-8.0-1.75","subject":"d3kcc3q54urk79u","sona":"7549"},{"trial_type":"turing-test","trial_index":309,"time_elapsed":666784,"internal_node_id":"0.0-8.0-2.75","subject":"d3kcc3q54urk79u","sona":"7549"},{"rt":1161.2450000829995,"stimulus":"<p>Welche Sequenz haben Sie als natürlicher empfunden?</p>","key_press":70,"test_part":"response","test_stimulus":{"position":0,"left":"bvh/pass-bottle-hold-training1-lines.txt","right":"bvh/vr_prediction_models/model(vcgpdm)-dataset(pass-bottle-hold)-mode(ELBO)-parts(1)-dyn(20)-lvm(20)-hold(1)/final-lines.txt","att_check":false},"trial_type":"html-keyboard-response","trial_index":310,"time_elapsed":667956,"internal_node_id":"0.0-8.0-3.75","subject":"d3kcc3q54urk79u","sona":"7549"},{"rt":400.774999987334,"stimulus":"<p>Bereit?</p>","key_press":32,"trial_type":"html-keyboard-response","trial_index":311,"time_elapsed":668365,"internal_node_id":"0.0-8.0-0.76","subject":"d3kcc3q54urk79u","sona":"7549"},{"rt":null,"stimulus":"<div style=\"font-size:60px;\">+</div>","key_press":null,"trial_type":"html-keyboard-response","trial_index":312,"time_elapsed":670369,"internal_node_id":"0.0-8.0-1.76","subject":"d3kcc3q54urk79u","sona":"7549"},{"trial_type":"turing-test","trial_index":313,"time_elapsed":676552,"internal_node_id":"0.0-8.0-2.76","subject":"d3kcc3q54urk79u","sona":"7549"},{"rt":621.735000051558,"stimulus":"<p>Welche Sequenz haben Sie als natürlicher empfunden?</p>","key_press":70,"test_part":"response","test_stimulus":{"position":0,"left":"bvh/return-bottle-training1-lines.txt","right":"bvh/vr_prediction_models/model(dmp)-dataset(return-bottle)-npsi(30)-hold(1)/final-lines.txt","att_check":false},"trial_type":"html-keyboard-response","trial_index":314,"time_elapsed":677182,"internal_node_id":"0.0-8.0-3.76","subject":"d3kcc3q54urk79u","sona":"7549"},{"rt":446.63000013679266,"stimulus":"<p>Bereit?</p>","key_press":32,"trial_type":"html-keyboard-response","trial_index":315,"time_elapsed":677637,"internal_node_id":"0.0-8.0-0.77","subject":"d3kcc3q54urk79u","sona":"7549"},{"rt":null,"stimulus":"<div style=\"font-size:60px;\">+</div>","key_press":null,"trial_type":"html-keyboard-response","trial_index":316,"time_elapsed":679640,"internal_node_id":"0.0-8.0-1.77","subject":"d3kcc3q54urk79u","sona":"7549"},{"trial_type":"turing-test","trial_index":317,"time_elapsed":685923,"internal_node_id":"0.0-8.0-2.77","subject":"d3kcc3q54urk79u","sona":"7549"},{"rt":903.120000148192,"stimulus":"<p>Welche Sequenz haben Sie als natürlicher empfunden?</p>","key_press":74,"test_part":"response","test_stimulus":{"position":1,"left":"bvh/vr_prediction_models/model(vcgpdm)-dataset(return-bottle)-mode(ELBO)-parts(3)-dyn(15)-lvm(30)-hold(1)/final-lines.txt","right":"bvh/return-bottle-training1-lines.txt","att_check":false},"trial_type":"html-keyboard-response","trial_index":318,"time_elapsed":686836,"internal_node_id":"0.0-8.0-3.77","subject":"d3kcc3q54urk79u","sona":"7549"},{"rt":474.4299999438226,"stimulus":"<p>Bereit?</p>","key_press":32,"trial_type":"html-keyboard-response","trial_index":319,"time_elapsed":687318,"internal_node_id":"0.0-8.0-0.78","subject":"d3kcc3q54urk79u","sona":"7549"},{"rt":null,"stimulus":"<div style=\"font-size:60px;\">+</div>","key_press":null,"trial_type":"html-keyboard-response","trial_index":320,"time_elapsed":689322,"internal_node_id":"0.0-8.0-1.78","subject":"d3kcc3q54urk79u","sona":"7549"},{"trial_type":"turing-test","trial_index":321,"time_elapsed":692830,"internal_node_id":"0.0-8.0-2.78","subject":"d3kcc3q54urk79u","sona":"7549"},{"rt":1197.3649999126792,"stimulus":"<p>Welche Sequenz haben Sie als natürlicher empfunden?</p>","key_press":70,"test_part":"response","test_stimulus":{"position":1,"left":"bvh/vr_prediction_models/model(vcgpdm)-dataset(pass-bottle-hold)-mode(ELBO)-parts(3)-dyn(35)-lvm(20)-hold(0)/final-lines.txt","right":"bvh/pass-bottle-hold-training0-lines.txt","att_check":false},"trial_type":"html-keyboard-response","trial_index":322,"time_elapsed":694035,"internal_node_id":"0.0-8.0-3.78","subject":"d3kcc3q54urk79u","sona":"7549"},{"rt":425.444999942556,"stimulus":"<p>Bereit?</p>","key_press":32,"trial_type":"html-keyboard-response","trial_index":323,"time_elapsed":694468,"internal_node_id":"0.0-8.0-0.79","subject":"d3kcc3q54urk79u","sona":"7549"},{"rt":null,"stimulus":"<div style=\"font-size:60px;\">+</div>","key_press":null,"trial_type":"html-keyboard-response","trial_index":324,"time_elapsed":696471,"internal_node_id":"0.0-8.0-1.79","subject":"d3kcc3q54urk79u","sona":"7549"},{"trial_type":"turing-test","trial_index":325,"time_elapsed":703251,"internal_node_id":"0.0-8.0-2.79","subject":"d3kcc3q54urk79u","sona":"7549"},{"rt":1927.445000037551,"stimulus":"<p>Welche Sequenz haben Sie als natürlicher empfunden?</p>","key_press":74,"test_part":"response","test_stimulus":{"position":0,"left":"bvh/pass-bottle-training0-lines.txt","right":"bvh/vr_prediction_models/model(tmp)-dataset(pass-bottle)-numprim(15)-hold(0)/final-lines.txt","att_check":false},"trial_type":"html-keyboard-response","trial_index":326,"time_elapsed":705189,"internal_node_id":"0.0-8.0-3.79","subject":"d3kcc3q54urk79u","sona":"7549"},{"rt":7114.549999823794,"responses":"{\"age\":\" 20\",\"gender\":\"weiblich\"}","trial_type":"survey-text","trial_index":327,"time_elapsed":712323,"internal_node_id":"0.0-10.0-0.0","subject":"d3kcc3q54urk79u","sona":"7549"},{"rt":178282.4299999047,"responses":"{\"area\":\"auf den Hals\",\"Q1\":\"wenn die Bewegungsabfolge nicht flüssig war\",\"Q2\":\"wenn sich dass Strichmännchen weggedreht hat\"}","trial_type":"survey-text","trial_index":328,"time_elapsed":890623,"internal_node_id":"0.0-10.0-1.0","subject":"d3kcc3q54urk79u","sona":"7549"}]