[{"rt":6855.905000003986,"stimulus":"<p>Welcome!<br> Please choose your language to start the experiment in the chosen language.</p><p>Willkommen!<br> Bitte wählen Sie eine Sprache, um das Experiment in der ausgewählten Sprache zu starten</p>","button_pressed":"1","trial_type":"html-button-response","trial_index":0,"time_elapsed":6880,"internal_node_id":"0.0-0.0","subject":"br8up7jygprhgt1","sona":"9712"},{"view_history":"[{\"page_index\":0,\"viewing_time\":13701.48499996867},{\"page_index\":1,\"viewing_time\":5335.659999982454},{\"page_index\":2,\"viewing_time\":8568.150000006426},{\"page_index\":3,\"viewing_time\":6375.900000042748},{\"page_index\":4,\"viewing_time\":3856.339999998454}]","rt":37838.2799999672,"trial_type":"instructions","trial_index":1,"time_elapsed":44719,"internal_node_id":"0.0-1.0-0.0","subject":"br8up7jygprhgt1","sona":"9712"},{"rt":5236.849999986589,"stimulus":"<p>Bereit?</p>","key_press":32,"trial_type":"html-keyboard-response","trial_index":2,"time_elapsed":49958,"internal_node_id":"0.0-3.0","subject":"br8up7jygprhgt1","sona":"9712"},{"rt":null,"stimulus":"<div style=\"font-size:60px;\">+</div>","key_press":null,"trial_type":"html-keyboard-response","trial_index":3,"time_elapsed":51961,"internal_node_id":"0.0-4.0","subject":"br8up7jygprhgt1","sona":"9712"},{"trial_type":"training","trial_index":4,"time_elapsed":55486,"internal_node_id":"0.0-5.0","subject":"br8up7jygprhgt1","sona":"9712"},{"rt":4794.560000009369,"stimulus":"<p>Welche Sequenz haben Sie als natürlicher empfunden?</p>","key_press":70,"trial_type":"html-keyboard-response","trial_index":5,"time_elapsed":60283,"internal_node_id":"0.0-6.0","subject":"br8up7jygprhgt1","sona":"9712"},{"rt":8256.735000002664,"stimulus":"<p>Das Experiment startet nun.</p><p><small>Bitte drücken Sie den Knopf, wenn Sie bereit sind.</small></p>","button_pressed":"0","trial_type":"html-button-response","trial_index":6,"time_elapsed":68542,"internal_node_id":"0.0-7.0","subject":"br8up7jygprhgt1","sona":"9712"},{"rt":2545.8449999568984,"stimulus":"<p>Bereit?</p>","key_press":32,"trial_type":"html-keyboard-response","trial_index":7,"time_elapsed":71089,"internal_node_id":"0.0-8.0-0.0","subject":"br8up7jygprhgt1","sona":"9712"},{"rt":null,"stimulus":"<div style=\"font-size:60px;\">+</div>","key_press":null,"trial_type":"html-keyboard-response","trial_index":8,"time_elapsed":73093,"internal_node_id":"0.0-8.0-1.0","subject":"br8up7jygprhgt1","sona":"9712"},{"trial_type":"turing-test","trial_index":9,"time_elapsed":79643,"internal_node_id":"0.0-8.0-2.0","subject":"br8up7jygprhgt1","sona":"9712"},{"rt":841.9899999862537,"stimulus":"<p>Welche Sequenz haben Sie als natürlicher empfunden?</p>","key_press":74,"test_part":"response","test_stimulus":{"position":1,"left":"bvh/vr_prediction_models/model(tmp)-dataset(return-bottle)-numprim(8)-hold(2)/final-lines.txt","right":"bvh/return-bottle-training2-lines.txt","att_check":false},"trial_type":"html-keyboard-response","trial_index":10,"time_elapsed":80492,"internal_node_id":"0.0-8.0-3.0","subject":"br8up7jygprhgt1","sona":"9712"},{"rt":1356.1550000449643,"stimulus":"<p>Bereit?</p>","key_press":32,"trial_type":"html-keyboard-response","trial_index":11,"time_elapsed":81853,"internal_node_id":"0.0-8.0-0.1","subject":"br8up7jygprhgt1","sona":"9712"},{"rt":null,"stimulus":"<div style=\"font-size:60px;\">+</div>","key_press":null,"trial_type":"html-keyboard-response","trial_index":12,"time_elapsed":83856,"internal_node_id":"0.0-8.0-1.1","subject":"br8up7jygprhgt1","sona":"9712"},{"trial_type":"turing-test","trial_index":13,"time_elapsed":89399,"internal_node_id":"0.0-8.0-2.1","subject":"br8up7jygprhgt1","sona":"9712"},{"rt":1261.7900000186637,"stimulus":"<p>Welche Sequenz haben Sie als natürlicher empfunden?</p>","key_press":70,"test_part":"response","test_stimulus":{"position":0,"left":"bvh/return-bottle-training0-lines.txt","right":"bvh/vr_prediction_models/model(vcgpdm)-dataset(return-bottle)-mode(ELBO)-parts(3)-dyn(25)-lvm(15)-hold(0)/final-lines.txt","att_check":false},"trial_type":"html-keyboard-response","trial_index":14,"time_elapsed":90667,"internal_node_id":"0.0-8.0-3.1","subject":"br8up7jygprhgt1","sona":"9712"},{"rt":902.2600000025705,"stimulus":"<p>Bereit?</p>","key_press":32,"trial_type":"html-keyboard-response","trial_index":15,"time_elapsed":91573,"internal_node_id":"0.0-8.0-0.2","subject":"br8up7jygprhgt1","sona":"9712"},{"rt":null,"stimulus":"<div style=\"font-size:60px;\">+</div>","key_press":null,"trial_type":"html-keyboard-response","trial_index":16,"time_elapsed":93576,"internal_node_id":"0.0-8.0-1.2","subject":"br8up7jygprhgt1","sona":"9712"},{"trial_type":"turing-test","trial_index":17,"time_elapsed":99591,"internal_node_id":"0.0-8.0-2.2","subject":"br8up7jygprhgt1","sona":"9712"},{"rt":566.530000010971,"stimulus":"<p>Welche Sequenz haben Sie als natürlicher empfunden?</p>","key_press":74,"test_part":"response","test_stimulus":{"position":0,"left":"bvh/pass-bottle-training3-lines.txt","right":"bvh/vr_prediction_models/model(vcgpdm)-dataset(pass-bottle)-mode(ELBO)-parts(3)-dyn(20)-lvm(15)-hold(3)/final-lines.txt","att_check":false},"trial_type":"html-keyboard-response","trial_index":18,"time_elapsed":100164,"internal_node_id":"0.0-8.0-3.2","subject":"br8up7jygprhgt1","sona":"9712"},{"rt":1026.3099999865517,"stimulus":"<p>Bereit?</p>","key_press":32,"trial_type":"html-keyboard-response","trial_index":19,"time_elapsed":101195,"internal_node_id":"0.0-8.0-0.3","subject":"br8up7jygprhgt1","sona":"9712"},{"rt":null,"stimulus":"<div style=\"font-size:60px;\">+</div>","key_press":null,"trial_type":"html-keyboard-response","trial_index":20,"time_elapsed":103198,"internal_node_id":"0.0-8.0-1.3","subject":"br8up7jygprhgt1","sona":"9712"},{"trial_type":"turing-test","trial_index":21,"time_elapsed":108700,"internal_node_id":"0.0-8.0-2.3","subject":"br8up7jygprhgt1","sona":"9712"},{"rt":594.905000005383,"stimulus":"<p>Welche Sequenz haben Sie als natürlicher empfunden?</p>","key_press":70,"test_part":"response","test_stimulus":{"position":0,"left":"bvh/return-bottle-training0-lines.txt","right":"bvh/vr_prediction_models/model(vcgpdm)-dataset(return-bottle)-mode(ELBO)-parts(1)-dyn(30)-lvm(30)-hold(0)/final-lines.txt","att_check":false},"trial_type":"html-keyboard-response","trial_index":22,"time_elapsed":109301,"internal_node_id":"0.0-8.0-3.3","subject":"br8up7jygprhgt1","sona":"9712"},{"rt":854.3449999997392,"stimulus":"<p>Bereit?</p>","key_press":32,"trial_type":"html-keyboard-response","trial_index":23,"time_elapsed":110160,"internal_node_id":"0.0-8.0-0.4","subject":"br8up7jygprhgt1","sona":"9712"},{"rt":null,"stimulus":"<div style=\"font-size:60px;\">+</div>","key_press":null,"trial_type":"html-keyboard-response","trial_index":24,"time_elapsed":112162,"internal_node_id":"0.0-8.0-1.4","subject":"br8up7jygprhgt1","sona":"9712"},{"trial_type":"turing-test","trial_index":25,"time_elapsed":118075,"internal_node_id":"0.0-8.0-2.4","subject":"br8up7jygprhgt1","sona":"9712"},{"rt":1216.7999999946915,"stimulus":"<p>Welche Sequenz haben Sie als natürlicher empfunden?</p>","key_press":74,"test_part":"response","test_stimulus":{"position":0,"left":"bvh/pass-bottle-training1-lines.txt","right":"bvh/vr_prediction_models/model(vcgpdm)-dataset(pass-bottle)-mode(MAP)-parts(1)-hold(1)/final-lines.txt","att_check":false},"trial_type":"html-keyboard-response","trial_index":26,"time_elapsed":119299,"internal_node_id":"0.0-8.0-3.4","subject":"br8up7jygprhgt1","sona":"9712"},{"rt":1106.48499999661,"stimulus":"<p>Bereit?</p>","key_press":32,"trial_type":"html-keyboard-response","trial_index":27,"time_elapsed":120409,"internal_node_id":"0.0-8.0-0.5","subject":"br8up7jygprhgt1","sona":"9712"},{"rt":null,"stimulus":"<div style=\"font-size:60px;\">+</div>","key_press":null,"trial_type":"html-keyboard-response","trial_index":28,"time_elapsed":122412,"internal_node_id":"0.0-8.0-1.5","subject":"br8up7jygprhgt1","sona":"9712"},{"trial_type":"turing-test","trial_index":29,"time_elapsed":128206,"internal_node_id":"0.0-8.0-2.5","subject":"br8up7jygprhgt1","sona":"9712"},{"rt":511.3250000285916,"stimulus":"<p>Welche Sequenz haben Sie als natürlicher empfunden?</p>","key_press":74,"test_part":"response","test_stimulus":{"position":0,"left":"bvh/return-bottle-training3-lines.txt","right":"bvh/vr_prediction_models/model(dmp)-dataset(return-bottle)-npsi(40)-hold(3)/final-lines.txt","att_check":false},"trial_type":"html-keyboard-response","trial_index":30,"time_elapsed":128724,"internal_node_id":"0.0-8.0-3.5","subject":"br8up7jygprhgt1","sona":"9712"},{"rt":584.9549999693409,"stimulus":"<p>Bereit?</p>","key_press":32,"trial_type":"html-keyboard-response","trial_index":31,"time_elapsed":129312,"internal_node_id":"0.0-8.0-0.6","subject":"br8up7jygprhgt1","sona":"9712"},{"rt":null,"stimulus":"<div style=\"font-size:60px;\">+</div>","key_press":null,"trial_type":"html-keyboard-response","trial_index":32,"time_elapsed":131315,"internal_node_id":"0.0-8.0-1.6","subject":"br8up7jygprhgt1","sona":"9712"},{"trial_type":"turing-test","trial_index":33,"time_elapsed":136629,"internal_node_id":"0.0-8.0-2.6","subject":"br8up7jygprhgt1","sona":"9712"},{"rt":569.0150000154972,"stimulus":"<p>Welche Sequenz haben Sie als natürlicher empfunden?</p>","key_press":74,"test_part":"response","test_stimulus":{"position":1,"left":"bvh/vr_prediction_models/model(vcgpdm)-dataset(return-bottle-hold)-mode(ELBO)-parts(3)-dyn(20)-lvm(35)-hold(0)/final-lines.txt","right":"bvh/return-bottle-hold-training0-lines.txt","att_check":false},"trial_type":"html-keyboard-response","trial_index":34,"time_elapsed":137212,"internal_node_id":"0.0-8.0-3.6","subject":"br8up7jygprhgt1","sona":"9712"},{"rt":663.1800000322983,"stimulus":"<p>Bereit?</p>","key_press":32,"trial_type":"html-keyboard-response","trial_index":35,"time_elapsed":137879,"internal_node_id":"0.0-8.0-0.7","subject":"br8up7jygprhgt1","sona":"9712"},{"rt":null,"stimulus":"<div style=\"font-size:60px;\">+</div>","key_press":null,"trial_type":"html-keyboard-response","trial_index":36,"time_elapsed":139881,"internal_node_id":"0.0-8.0-1.7","subject":"br8up7jygprhgt1","sona":"9712"},{"trial_type":"turing-test","trial_index":37,"time_elapsed":143700,"internal_node_id":"0.0-8.0-2.7","subject":"br8up7jygprhgt1","sona":"9712"},{"rt":2385.9299999894574,"stimulus":"<p>Welche Sequenz haben Sie als natürlicher empfunden?</p>","key_press":70,"test_part":"response","test_stimulus":{"position":0,"left":"bvh/return-bottle-hold-training3-lines.txt","right":"bvh/vr_prediction_models/model(vcgpdm)-dataset(return-bottle-hold)-mode(ELBO)-parts(1)-dyn(30)-lvm(20)-hold(3)/final-lines.txt","att_check":false},"trial_type":"html-keyboard-response","trial_index":38,"time_elapsed":146093,"internal_node_id":"0.0-8.0-3.7","subject":"br8up7jygprhgt1","sona":"9712"},{"rt":613.5299999732524,"stimulus":"<p>Bereit?</p>","key_press":32,"trial_type":"html-keyboard-response","trial_index":39,"time_elapsed":146711,"internal_node_id":"0.0-8.0-0.8","subject":"br8up7jygprhgt1","sona":"9712"},{"rt":null,"stimulus":"<div style=\"font-size:60px;\">+</div>","key_press":null,"trial_type":"html-keyboard-response","trial_index":40,"time_elapsed":148713,"internal_node_id":"0.0-8.0-1.8","subject":"br8up7jygprhgt1","sona":"9712"},{"trial_type":"turing-test","trial_index":41,"time_elapsed":154347,"internal_node_id":"0.0-8.0-2.8","subject":"br8up7jygprhgt1","sona":"9712"},{"rt":684.4000000273809,"stimulus":"<p>Welche Sequenz haben Sie als natürlicher empfunden?</p>","key_press":74,"test_part":"response","test_stimulus":{"position":1,"left":"bvh/vr_prediction_models/model(dmp)-dataset(return-bottle)-npsi(40)-hold(3)/final-lines.txt","right":"bvh/return-bottle-training3-lines.txt","att_check":true},"trial_type":"html-keyboard-response","trial_index":42,"time_elapsed":155038,"internal_node_id":"0.0-8.0-3.8","subject":"br8up7jygprhgt1","sona":"9712"},{"rt":363.17999998573214,"stimulus":"<p>Bereit?</p>","key_press":32,"trial_type":"html-keyboard-response","trial_index":43,"time_elapsed":155405,"internal_node_id":"0.0-8.0-0.9","subject":"br8up7jygprhgt1","sona":"9712"},{"rt":null,"stimulus":"<div style=\"font-size:60px;\">+</div>","key_press":null,"trial_type":"html-keyboard-response","trial_index":44,"time_elapsed":157407,"internal_node_id":"0.0-8.0-1.9","subject":"br8up7jygprhgt1","sona":"9712"},{"trial_type":"turing-test","trial_index":45,"time_elapsed":163339,"internal_node_id":"0.0-8.0-2.9","subject":"br8up7jygprhgt1","sona":"9712"},{"rt":889.7500000311993,"stimulus":"<p>Welche Sequenz haben Sie als natürlicher empfunden?</p>","key_press":74,"test_part":"response","test_stimulus":{"position":0,"left":"bvh/pass-bottle-training4-lines.txt","right":"bvh/vr_prediction_models/model(vcgpdm)-dataset(pass-bottle)-mode(ELBO)-parts(3)-dyn(25)-lvm(15)-hold(4)/final-lines.txt","att_check":false},"trial_type":"html-keyboard-response","trial_index":46,"time_elapsed":164236,"internal_node_id":"0.0-8.0-3.9","subject":"br8up7jygprhgt1","sona":"9712"},{"rt":651.6300000366755,"stimulus":"<p>Bereit?</p>","key_press":32,"trial_type":"html-keyboard-response","trial_index":47,"time_elapsed":164891,"internal_node_id":"0.0-8.0-0.10","subject":"br8up7jygprhgt1","sona":"9712"},{"rt":null,"stimulus":"<div style=\"font-size:60px;\">+</div>","key_press":null,"trial_type":"html-keyboard-response","trial_index":48,"time_elapsed":166894,"internal_node_id":"0.0-8.0-1.10","subject":"br8up7jygprhgt1","sona":"9712"},{"trial_type":"turing-test","trial_index":49,"time_elapsed":172137,"internal_node_id":"0.0-8.0-2.10","subject":"br8up7jygprhgt1","sona":"9712"},{"rt":926.6150000039488,"stimulus":"<p>Welche Sequenz haben Sie als natürlicher empfunden?</p>","key_press":74,"test_part":"response","test_stimulus":{"position":0,"left":"bvh/return-bottle-hold-training0-lines.txt","right":"bvh/vr_prediction_models/model(vcgpdm)-dataset(return-bottle-hold)-mode(ELBO)-parts(1)-dyn(35)-lvm(10)-hold(0)/final-lines.txt","att_check":false},"trial_type":"html-keyboard-response","trial_index":50,"time_elapsed":173070,"internal_node_id":"0.0-8.0-3.10","subject":"br8up7jygprhgt1","sona":"9712"},{"rt":623.6449999851175,"stimulus":"<p>Bereit?</p>","key_press":32,"trial_type":"html-keyboard-response","trial_index":51,"time_elapsed":173698,"internal_node_id":"0.0-8.0-0.11","subject":"br8up7jygprhgt1","sona":"9712"},{"rt":null,"stimulus":"<div style=\"font-size:60px;\">+</div>","key_press":null,"trial_type":"html-keyboard-response","trial_index":52,"time_elapsed":175701,"internal_node_id":"0.0-8.0-1.11","subject":"br8up7jygprhgt1","sona":"9712"}]