[{"rt":2740.07000005804,"stimulus":"<p>Welcome!<br> Please choose your language to start the experiment in the chosen language.</p><p>Willkommen!<br> Bitte wählen Sie eine Sprache um das Experiment in der ausgewählten Sprache zu starten</p>","button_pressed":"1","trial_type":"html-button-response","trial_index":0,"time_elapsed":2779,"internal_node_id":"0.0-0.0","subject":"onzokuqujwnax3t"},{"view_history":"[{\"page_index\":0,\"viewing_time\":1359.8750000819564},{\"page_index\":1,\"viewing_time\":1103.8399999961257},{\"page_index\":2,\"viewing_time\":220.3499999595806},{\"page_index\":3,\"viewing_time\":1216.2399999797344}]","rt":3902.6900000171736,"trial_type":"instructions","trial_index":1,"time_elapsed":6685,"internal_node_id":"0.0-1.0","subject":"onzokuqujwnax3t"},{"rt":1007.0400000549853,"stimulus":"<p>Bereit?</p>","button_pressed":"0","trial_type":"html-button-response","trial_index":2,"time_elapsed":7696,"internal_node_id":"0.0-2.0","subject":"onzokuqujwnax3t"},{"rt":null,"stimulus":"<div style=\"font-size:60px;\">+</div>","key_press":null,"trial_type":"html-keyboard-response","trial_index":3,"time_elapsed":9701,"internal_node_id":"0.0-3.0","subject":"onzokuqujwnax3t"},{"trial_type":"training","trial_index":4,"time_elapsed":13642,"internal_node_id":"0.0-4.0","subject":"onzokuqujwnax3t"},{"rt":3169.925000052899,"stimulus":"<p>Welche Sequenz haben Sie als natürlicher empfunden?</p>","button_pressed":"1","trial_type":"html-button-response","trial_index":5,"time_elapsed":16815,"internal_node_id":"0.0-5.0","subject":"onzokuqujwnax3t"},{"rt":19346.190000069328,"stimulus":"<p>Das Experiment startet nun.</p><p> Bitte drücken Sie den Knopf, wenn Sie bereit sind.</p>","button_pressed":"0","trial_type":"html-button-response","trial_index":6,"time_elapsed":36165,"internal_node_id":"0.0-6.0","subject":"onzokuqujwnax3t"},{"rt":1141.9749999186024,"stimulus":"<p>Bereit?</p>","button_pressed":"0","trial_type":"html-button-response","trial_index":7,"time_elapsed":37311,"internal_node_id":"0.0-7.0-0.0","subject":"onzokuqujwnax3t"},{"rt":null,"stimulus":"<div style=\"font-size:60px;\">+</div>","key_press":null,"trial_type":"html-keyboard-response","trial_index":8,"time_elapsed":39322,"internal_node_id":"0.0-7.0-1.0","subject":"onzokuqujwnax3t"},{"trial_type":"turing-test","trial_index":9,"time_elapsed":45206,"internal_node_id":"0.0-7.0-2.0","subject":"onzokuqujwnax3t"},{"rt":128349.91500002798,"stimulus":"<p>Welche Sequenz haben Sie als natürlicher empfunden?</p>","button_pressed":"0","test_part":"response","test_stimulus":{"position":0,"left":"bvh/pass-bottle-hold-training4-lines.txt","right":"bvh/vr_prediction_models/model(vcgpdm)-dataset(pass-bottle-hold)-mode(ELBO)-parts(1)-dyn(15)-lvm(35)-hold(4)/final-lines.txt","att_check":false},"trial_type":"html-button-response","trial_index":10,"time_elapsed":173562,"internal_node_id":"0.0-7.0-3.0","subject":"onzokuqujwnax3t"},{"rt":1067.9849999723956,"stimulus":"<p>Bereit?</p>","button_pressed":"0","trial_type":"html-button-response","trial_index":11,"time_elapsed":174637,"internal_node_id":"0.0-7.0-0.1","subject":"onzokuqujwnax3t"},{"rt":null,"stimulus":"<div style=\"font-size:60px;\">+</div>","key_press":null,"trial_type":"html-keyboard-response","trial_index":12,"time_elapsed":176645,"internal_node_id":"0.0-7.0-1.1","subject":"onzokuqujwnax3t"},{"trial_type":"turing-test","trial_index":13,"time_elapsed":180936,"internal_node_id":"0.0-7.0-2.1","subject":"onzokuqujwnax3t"},{"rt":1181.845000013709,"stimulus":"<p>Welche Sequenz haben Sie als natürlicher empfunden?</p>","button_pressed":"1","test_part":"response","test_stimulus":{"position":0,"left":"bvh/return-bottle-training2-lines.txt","right":"bvh/vr_prediction_models/model(dmp)-dataset(return-bottle)-npsi(60)-hold(2)/final-lines.txt","att_check":true},"trial_type":"html-button-response","trial_index":14,"time_elapsed":182125,"internal_node_id":"0.0-7.0-3.1","subject":"onzokuqujwnax3t"},{"rt":838.8199999462813,"stimulus":"<p>Bereit?</p>","button_pressed":"0","trial_type":"html-button-response","trial_index":15,"time_elapsed":182974,"internal_node_id":"0.0-7.0-0.2","subject":"onzokuqujwnax3t"},{"rt":null,"stimulus":"<div style=\"font-size:60px;\">+</div>","key_press":null,"trial_type":"html-keyboard-response","trial_index":16,"time_elapsed":184980,"internal_node_id":"0.0-7.0-1.2","subject":"onzokuqujwnax3t"},{"trial_type":"turing-test","trial_index":17,"time_elapsed":189257,"internal_node_id":"0.0-7.0-2.2","subject":"onzokuqujwnax3t"},{"rt":853.1299999449402,"stimulus":"<p>Welche Sequenz haben Sie als natürlicher empfunden?</p>","button_pressed":"1","test_part":"response","test_stimulus":{"position":0,"left":"bvh/pass-bottle-hold-training2-lines.txt","right":"bvh/vr_prediction_models/model(dmp)-dataset(pass-bottle-hold)-npsi(80)-hold(2)/final-lines.txt","att_check":false},"trial_type":"html-button-response","trial_index":18,"time_elapsed":190114,"internal_node_id":"0.0-7.0-3.2","subject":"onzokuqujwnax3t"},{"rt":1189.9699999485165,"stimulus":"<p>Bereit?</p>","button_pressed":"0","trial_type":"html-button-response","trial_index":19,"time_elapsed":191312,"internal_node_id":"0.0-7.0-0.3","subject":"onzokuqujwnax3t"},{"rt":null,"stimulus":"<div style=\"font-size:60px;\">+</div>","key_press":null,"trial_type":"html-keyboard-response","trial_index":20,"time_elapsed":193322,"internal_node_id":"0.0-7.0-1.3","subject":"onzokuqujwnax3t"},{"trial_type":"turing-test","trial_index":21,"time_elapsed":198859,"internal_node_id":"0.0-7.0-2.3","subject":"onzokuqujwnax3t"},{"rt":1721.6499999631196,"stimulus":"<p>Welche Sequenz haben Sie als natürlicher empfunden?</p>","button_pressed":"0","test_part":"response","test_stimulus":{"position":1,"left":"bvh/vr_prediction_models/model(vcgpdm)-dataset(pass-bottle)-mode(ELBO)-parts(1)-dyn(30)-lvm(30)-hold(0)/final-lines.txt","right":"bvh/pass-bottle-training0-lines.txt","att_check":false},"trial_type":"html-button-response","trial_index":22,"time_elapsed":200587,"internal_node_id":"0.0-7.0-3.3","subject":"onzokuqujwnax3t"},{"rt":963.9549999265,"stimulus":"<p>Bereit?</p>","button_pressed":"0","trial_type":"html-button-response","trial_index":23,"time_elapsed":201557,"internal_node_id":"0.0-7.0-0.4","subject":"onzokuqujwnax3t"},{"rt":null,"stimulus":"<div style=\"font-size:60px;\">+</div>","key_press":null,"trial_type":"html-keyboard-response","trial_index":24,"time_elapsed":203568,"internal_node_id":"0.0-7.0-1.4","subject":"onzokuqujwnax3t"},{"trial_type":"turing-test","trial_index":25,"time_elapsed":207960,"internal_node_id":"0.0-7.0-2.4","subject":"onzokuqujwnax3t"},{"rt":1179.340000031516,"stimulus":"<p>Welche Sequenz haben Sie als natürlicher empfunden?</p>","button_pressed":"0","test_part":"response","test_stimulus":{"position":0,"left":"bvh/return-bottle-training0-lines.txt","right":"bvh/vr_prediction_models/model(tmp)-dataset(return-bottle)-numprim(12)-hold(0)/final-lines.txt","att_check":false},"trial_type":"html-button-response","trial_index":26,"time_elapsed":209145,"internal_node_id":"0.0-7.0-3.4","subject":"onzokuqujwnax3t"},{"rt":933.7999999988824,"stimulus":"<p>Bereit?</p>","button_pressed":"0","trial_type":"html-button-response","trial_index":27,"time_elapsed":210088,"internal_node_id":"0.0-7.0-0.5","subject":"onzokuqujwnax3t"},{"rt":null,"stimulus":"<div style=\"font-size:60px;\">+</div>","key_press":null,"trial_type":"html-keyboard-response","trial_index":28,"time_elapsed":212095,"internal_node_id":"0.0-7.0-1.5","subject":"onzokuqujwnax3t"},{"trial_type":"turing-test","trial_index":29,"time_elapsed":216452,"internal_node_id":"0.0-7.0-2.5","subject":"onzokuqujwnax3t"},{"rt":1723.1100000208244,"stimulus":"<p>Welche Sequenz haben Sie als natürlicher empfunden?</p>","button_pressed":"1","test_part":"response","test_stimulus":{"position":1,"left":"bvh/vr_prediction_models/model(tmp)-dataset(return-bottle)-numprim(14)-hold(4)/final-lines.txt","right":"bvh/return-bottle-training4-lines.txt","att_check":false},"trial_type":"html-button-response","trial_index":30,"time_elapsed":218182,"internal_node_id":"0.0-7.0-3.5","subject":"onzokuqujwnax3t"},{"rt":984.3400000827387,"stimulus":"<p>Bereit?</p>","button_pressed":"0","trial_type":"html-button-response","trial_index":31,"time_elapsed":219172,"internal_node_id":"0.0-7.0-0.6","subject":"onzokuqujwnax3t"},{"rt":null,"stimulus":"<div style=\"font-size:60px;\">+</div>","key_press":null,"trial_type":"html-keyboard-response","trial_index":32,"time_elapsed":221181,"internal_node_id":"0.0-7.0-1.6","subject":"onzokuqujwnax3t"},{"trial_type":"turing-test","trial_index":33,"time_elapsed":225365,"internal_node_id":"0.0-7.0-2.6","subject":"onzokuqujwnax3t"},{"rt":1248.325000051409,"stimulus":"<p>Welche Sequenz haben Sie als natürlicher empfunden?</p>","button_pressed":"0","test_part":"response","test_stimulus":{"position":0,"left":"bvh/pass-bottle-training4-lines.txt","right":"bvh/vr_prediction_models/model(dmp)-dataset(pass-bottle)-npsi(70)-hold(4)/final-lines.txt","att_check":true},"trial_type":"html-button-response","trial_index":34,"time_elapsed":226621,"internal_node_id":"0.0-7.0-3.6","subject":"onzokuqujwnax3t"},{"rt":1620.1750000473112,"stimulus":"<p>Bereit?</p>","button_pressed":"0","trial_type":"html-button-response","trial_index":35,"time_elapsed":228247,"internal_node_id":"0.0-7.0-0.7","subject":"onzokuqujwnax3t"},{"rt":null,"stimulus":"<div style=\"font-size:60px;\">+</div>","key_press":null,"trial_type":"html-keyboard-response","trial_index":36,"time_elapsed":230263,"internal_node_id":"0.0-7.0-1.7","subject":"onzokuqujwnax3t"},{"trial_type":"turing-test","trial_index":37,"time_elapsed":235847,"internal_node_id":"0.0-7.0-2.7","subject":"onzokuqujwnax3t"},{"rt":1372.7649999782443,"stimulus":"<p>Welche Sequenz haben Sie als natürlicher empfunden?</p>","button_pressed":"0","test_part":"response","test_stimulus":{"position":1,"left":"bvh/vr_prediction_models/model(vcgpdm)-dataset(pass-bottle)-mode(ELBO)-parts(1)-dyn(35)-lvm(30)-hold(2)/final-lines.txt","right":"bvh/pass-bottle-training2-lines.txt","att_check":false},"trial_type":"html-button-response","trial_index":38,"time_elapsed":237226,"internal_node_id":"0.0-7.0-3.7","subject":"onzokuqujwnax3t"},{"rt":768.9600000157952,"stimulus":"<p>Bereit?</p>","button_pressed":"0","trial_type":"html-button-response","trial_index":39,"time_elapsed":238003,"internal_node_id":"0.0-7.0-0.8","subject":"onzokuqujwnax3t"},{"rt":null,"stimulus":"<div style=\"font-size:60px;\">+</div>","key_press":null,"trial_type":"html-keyboard-response","trial_index":40,"time_elapsed":240006,"internal_node_id":"0.0-7.0-1.8","subject":"onzokuqujwnax3t"},{"trial_type":"turing-test","trial_index":41,"time_elapsed":244242,"internal_node_id":"0.0-7.0-2.8","subject":"onzokuqujwnax3t"},{"rt":1274.9349999940023,"stimulus":"<p>Welche Sequenz haben Sie als natürlicher empfunden?</p>","button_pressed":"1","test_part":"response","test_stimulus":{"position":0,"left":"bvh/return-bottle-training2-lines.txt","right":"bvh/vr_prediction_models/model(tmp)-dataset(return-bottle)-numprim(10)-hold(2)/final-lines.txt","att_check":false},"trial_type":"html-button-response","trial_index":42,"time_elapsed":245523,"internal_node_id":"0.0-7.0-3.8","subject":"onzokuqujwnax3t"},{"rt":981.3950000097975,"stimulus":"<p>Bereit?</p>","button_pressed":"0","trial_type":"html-button-response","trial_index":43,"time_elapsed":246508,"internal_node_id":"0.0-7.0-0.9","subject":"onzokuqujwnax3t"},{"rt":null,"stimulus":"<div style=\"font-size:60px;\">+</div>","key_press":null,"trial_type":"html-keyboard-response","trial_index":44,"time_elapsed":248512,"internal_node_id":"0.0-7.0-1.9","subject":"onzokuqujwnax3t"},{"trial_type":"turing-test","trial_index":45,"time_elapsed":254185,"internal_node_id":"0.0-7.0-2.9","subject":"onzokuqujwnax3t"},{"rt":912.735000019893,"stimulus":"<p>Welche Sequenz haben Sie als natürlicher empfunden?</p>","button_pressed":"1","test_part":"response","test_stimulus":{"position":1,"left":"bvh/vr_prediction_models/model(vcgpdm)-dataset(pass-bottle-hold)-mode(ELBO)-parts(1)-dyn(20)-lvm(30)-hold(2)/final-lines.txt","right":"bvh/pass-bottle-hold-training2-lines.txt","att_check":false},"trial_type":"html-button-response","trial_index":46,"time_elapsed":255107,"internal_node_id":"0.0-7.0-3.9","subject":"onzokuqujwnax3t"}]