[{"rt":3664.665000513196,"stimulus":"<p>Welcome!<br> Please choose your language to start the experiment in the chosen language.</p><p>Willkommen!<br> Bitte wählen Sie eine Sprache, um das Experiment in der ausgewählten Sprache zu starten</p>","button_pressed":"1","trial_type":"html-button-response","trial_index":0,"time_elapsed":3734,"internal_node_id":"0.0-0.0","subject":"cgp2o0bduv2qj8v","sona":"7723"},{"view_history":"[{\"page_index\":0,\"viewing_time\":8733.539999462664},{\"page_index\":1,\"viewing_time\":1767.7150005474687},{\"page_index\":2,\"viewing_time\":1560.2700002491474},{\"page_index\":3,\"viewing_time\":4719.64499913156},{\"page_index\":4,\"viewing_time\":864.1900001093745}]","rt":17646.34499978274,"trial_type":"instructions","trial_index":1,"time_elapsed":21381,"internal_node_id":"0.0-1.0-0.0","subject":"cgp2o0bduv2qj8v","sona":"7723"},{"rt":1215.680000372231,"stimulus":"<p>Bereit?</p>","key_press":32,"trial_type":"html-keyboard-response","trial_index":2,"time_elapsed":22598,"internal_node_id":"0.0-3.0","subject":"cgp2o0bduv2qj8v","sona":"7723"},{"rt":null,"stimulus":"<div style=\"font-size:60px;\">+</div>","key_press":null,"trial_type":"html-keyboard-response","trial_index":3,"time_elapsed":24620,"internal_node_id":"0.0-4.0","subject":"cgp2o0bduv2qj8v","sona":"7723"},{"trial_type":"training","trial_index":4,"time_elapsed":27870,"internal_node_id":"0.0-5.0","subject":"cgp2o0bduv2qj8v","sona":"7723"},{"rt":526.6800001263618,"stimulus":"<p>Welche Sequenz haben Sie als natürlicher empfunden?</p>","key_press":70,"trial_type":"html-keyboard-response","trial_index":5,"time_elapsed":28397,"internal_node_id":"0.0-6.0","subject":"cgp2o0bduv2qj8v","sona":"7723"},{"rt":2254.1899997740984,"stimulus":"<p>Das Experiment startet nun.</p><p><small>Bitte drücken Sie den Knopf, wenn Sie bereit sind.</small></p>","button_pressed":"0","trial_type":"html-button-response","trial_index":6,"time_elapsed":30652,"internal_node_id":"0.0-7.0","subject":"cgp2o0bduv2qj8v","sona":"7723"},{"rt":945.2550001442432,"stimulus":"<p>Bereit?</p>","key_press":32,"trial_type":"html-keyboard-response","trial_index":7,"time_elapsed":31599,"internal_node_id":"0.0-8.0-0.0","subject":"cgp2o0bduv2qj8v","sona":"7723"},{"rt":null,"stimulus":"<div style=\"font-size:60px;\">+</div>","key_press":null,"trial_type":"html-keyboard-response","trial_index":8,"time_elapsed":33601,"internal_node_id":"0.0-8.0-1.0","subject":"cgp2o0bduv2qj8v","sona":"7723"},{"trial_type":"turing-test","trial_index":9,"time_elapsed":36964,"internal_node_id":"0.0-8.0-2.0","subject":"cgp2o0bduv2qj8v","sona":"7723"},{"rt":194.43999975919724,"stimulus":"<p>Welche Sequenz haben Sie als natürlicher empfunden?</p>","key_press":74,"test_part":"response","test_stimulus":{"position":0,"left":"bvh/pass-bottle-hold-training2-lines.txt","right":"bvh/vr_prediction_models/model(dmp)-dataset(pass-bottle-hold)-npsi(30)-hold(2)/final-lines.txt","att_check":false},"trial_type":"html-keyboard-response","trial_index":10,"time_elapsed":37161,"internal_node_id":"0.0-8.0-3.0","subject":"cgp2o0bduv2qj8v","sona":"7723"},{"rt":684.0899996459484,"stimulus":"<p>Bereit?</p>","key_press":32,"trial_type":"html-keyboard-response","trial_index":11,"time_elapsed":37847,"internal_node_id":"0.0-8.0-0.1","subject":"cgp2o0bduv2qj8v","sona":"7723"},{"rt":null,"stimulus":"<div style=\"font-size:60px;\">+</div>","key_press":null,"trial_type":"html-keyboard-response","trial_index":12,"time_elapsed":39849,"internal_node_id":"0.0-8.0-1.1","subject":"cgp2o0bduv2qj8v","sona":"7723"},{"trial_type":"turing-test","trial_index":13,"time_elapsed":45760,"internal_node_id":"0.0-8.0-2.1","subject":"cgp2o0bduv2qj8v","sona":"7723"},{"rt":457.8949995338917,"stimulus":"<p>Welche Sequenz haben Sie als natürlicher empfunden?</p>","key_press":74,"test_part":"response","test_stimulus":{"position":0,"left":"bvh/pass-bottle-training3-lines.txt","right":"bvh/vr_prediction_models/model(vcgpdm)-dataset(pass-bottle)-mode(ELBO)-parts(1)-dyn(10)-lvm(5)-hold(3)/final-lines.txt","att_check":false},"trial_type":"html-keyboard-response","trial_index":14,"time_elapsed":46220,"internal_node_id":"0.0-8.0-3.1","subject":"cgp2o0bduv2qj8v","sona":"7723"},{"rt":517.3300001770258,"stimulus":"<p>Bereit?</p>","key_press":32,"trial_type":"html-keyboard-response","trial_index":15,"time_elapsed":46739,"internal_node_id":"0.0-8.0-0.2","subject":"cgp2o0bduv2qj8v","sona":"7723"},{"rt":null,"stimulus":"<div style=\"font-size:60px;\">+</div>","key_press":null,"trial_type":"html-keyboard-response","trial_index":16,"time_elapsed":48741,"internal_node_id":"0.0-8.0-1.2","subject":"cgp2o0bduv2qj8v","sona":"7723"},{"trial_type":"turing-test","trial_index":17,"time_elapsed":52042,"internal_node_id":"0.0-8.0-2.2","subject":"cgp2o0bduv2qj8v","sona":"7723"},{"rt":438.9549996703863,"stimulus":"<p>Welche Sequenz haben Sie als natürlicher empfunden?</p>","key_press":70,"test_part":"response","test_stimulus":{"position":0,"left":"bvh/pass-bottle-hold-training0-lines.txt","right":"bvh/vr_prediction_models/model(dmp)-dataset(pass-bottle-hold)-npsi(90)-hold(0)/final-lines.txt","att_check":false},"trial_type":"html-keyboard-response","trial_index":18,"time_elapsed":52483,"internal_node_id":"0.0-8.0-3.2","subject":"cgp2o0bduv2qj8v","sona":"7723"},{"rt":489.5450007170439,"stimulus":"<p>Bereit?</p>","key_press":32,"trial_type":"html-keyboard-response","trial_index":19,"time_elapsed":52974,"internal_node_id":"0.0-8.0-0.3","subject":"cgp2o0bduv2qj8v","sona":"7723"},{"rt":null,"stimulus":"<div style=\"font-size:60px;\">+</div>","key_press":null,"trial_type":"html-keyboard-response","trial_index":20,"time_elapsed":54976,"internal_node_id":"0.0-8.0-1.3","subject":"cgp2o0bduv2qj8v","sona":"7723"},{"trial_type":"turing-test","trial_index":21,"time_elapsed":61060,"internal_node_id":"0.0-8.0-2.3","subject":"cgp2o0bduv2qj8v","sona":"7723"},{"rt":756.8349996581674,"stimulus":"<p>Welche Sequenz haben Sie als natürlicher empfunden?</p>","key_press":74,"test_part":"response","test_stimulus":{"position":1,"left":"bvh/vr_prediction_models/model(tmp)-dataset(pass-bottle)-numprim(4)-hold(2)/final-lines.txt","right":"bvh/pass-bottle-training2-lines.txt","att_check":false},"trial_type":"html-keyboard-response","trial_index":22,"time_elapsed":61818,"internal_node_id":"0.0-8.0-3.3","subject":"cgp2o0bduv2qj8v","sona":"7723"},{"rt":431.16999976336956,"stimulus":"<p>Bereit?</p>","key_press":32,"trial_type":"html-keyboard-response","trial_index":23,"time_elapsed":62251,"internal_node_id":"0.0-8.0-0.4","subject":"cgp2o0bduv2qj8v","sona":"7723"},{"rt":null,"stimulus":"<div style=\"font-size:60px;\">+</div>","key_press":null,"trial_type":"html-keyboard-response","trial_index":24,"time_elapsed":64253,"internal_node_id":"0.0-8.0-1.4","subject":"cgp2o0bduv2qj8v","sona":"7723"},{"trial_type":"turing-test","trial_index":25,"time_elapsed":68085,"internal_node_id":"0.0-8.0-2.4","subject":"cgp2o0bduv2qj8v","sona":"7723"},{"rt":1467.2050001099706,"stimulus":"<p>Welche Sequenz haben Sie als natürlicher empfunden?</p>","key_press":74,"test_part":"response","test_stimulus":{"position":1,"left":"bvh/vr_prediction_models/model(vcgpdm)-dataset(return-bottle-hold)-mode(ELBO)-parts(3)-dyn(20)-lvm(20)-hold(4)/final-lines.txt","right":"bvh/return-bottle-hold-training4-lines.txt","att_check":false},"trial_type":"html-keyboard-response","trial_index":26,"time_elapsed":69554,"internal_node_id":"0.0-8.0-3.4","subject":"cgp2o0bduv2qj8v","sona":"7723"},{"rt":717.5450008362532,"stimulus":"<p>Bereit?</p>","key_press":32,"trial_type":"html-keyboard-response","trial_index":27,"time_elapsed":70274,"internal_node_id":"0.0-8.0-0.5","subject":"cgp2o0bduv2qj8v","sona":"7723"},{"rt":null,"stimulus":"<div style=\"font-size:60px;\">+</div>","key_press":null,"trial_type":"html-keyboard-response","trial_index":28,"time_elapsed":72276,"internal_node_id":"0.0-8.0-1.5","subject":"cgp2o0bduv2qj8v","sona":"7723"},{"trial_type":"turing-test","trial_index":29,"time_elapsed":75804,"internal_node_id":"0.0-8.0-2.5","subject":"cgp2o0bduv2qj8v","sona":"7723"},{"rt":640.6450001522899,"stimulus":"<p>Welche Sequenz haben Sie als natürlicher empfunden?</p>","key_press":74,"test_part":"response","test_stimulus":{"position":0,"left":"bvh/pass-bottle-hold-training3-lines.txt","right":"bvh/vr_prediction_models/model(dmp)-dataset(pass-bottle-hold)-npsi(70)-hold(3)/final-lines.txt","att_check":false},"trial_type":"html-keyboard-response","trial_index":30,"time_elapsed":76448,"internal_node_id":"0.0-8.0-3.5","subject":"cgp2o0bduv2qj8v","sona":"7723"},{"rt":339.12499994039536,"stimulus":"<p>Bereit?</p>","key_press":32,"trial_type":"html-keyboard-response","trial_index":31,"time_elapsed":76789,"internal_node_id":"0.0-8.0-0.6","subject":"cgp2o0bduv2qj8v","sona":"7723"},{"rt":null,"stimulus":"<div style=\"font-size:60px;\">+</div>","key_press":null,"trial_type":"html-keyboard-response","trial_index":32,"time_elapsed":78791,"internal_node_id":"0.0-8.0-1.6","subject":"cgp2o0bduv2qj8v","sona":"7723"},{"trial_type":"turing-test","trial_index":33,"time_elapsed":82505,"internal_node_id":"0.0-8.0-2.6","subject":"cgp2o0bduv2qj8v","sona":"7723"},{"rt":509.07000061124563,"stimulus":"<p>Welche Sequenz haben Sie als natürlicher empfunden?</p>","key_press":70,"test_part":"response","test_stimulus":{"position":0,"left":"bvh/return-bottle-hold-training4-lines.txt","right":"bvh/vr_prediction_models/model(dmp)-dataset(return-bottle-hold)-npsi(80)-hold(4)/final-lines.txt","att_check":false},"trial_type":"html-keyboard-response","trial_index":34,"time_elapsed":83016,"internal_node_id":"0.0-8.0-3.6","subject":"cgp2o0bduv2qj8v","sona":"7723"},{"rt":390.5550008639693,"stimulus":"<p>Bereit?</p>","key_press":32,"trial_type":"html-keyboard-response","trial_index":35,"time_elapsed":83409,"internal_node_id":"0.0-8.0-0.7","subject":"cgp2o0bduv2qj8v","sona":"7723"},{"rt":null,"stimulus":"<div style=\"font-size:60px;\">+</div>","key_press":null,"trial_type":"html-keyboard-response","trial_index":36,"time_elapsed":85411,"internal_node_id":"0.0-8.0-1.7","subject":"cgp2o0bduv2qj8v","sona":"7723"},{"trial_type":"turing-test","trial_index":37,"time_elapsed":89197,"internal_node_id":"0.0-8.0-2.7","subject":"cgp2o0bduv2qj8v","sona":"7723"},{"rt":524.2349999025464,"stimulus":"<p>Welche Sequenz haben Sie als natürlicher empfunden?</p>","key_press":70,"test_part":"response","test_stimulus":{"position":0,"left":"bvh/pass-bottle-hold-training3-lines.txt","right":"bvh/vr_prediction_models/model(vcgpdm)-dataset(pass-bottle-hold)-mode(ELBO)-parts(1)-dyn(30)-lvm(30)-hold(3)/final-lines.txt","att_check":false},"trial_type":"html-keyboard-response","trial_index":38,"time_elapsed":89724,"internal_node_id":"0.0-8.0-3.7","subject":"cgp2o0bduv2qj8v","sona":"7723"},{"rt":351.4650007709861,"stimulus":"<p>Bereit?</p>","key_press":32,"trial_type":"html-keyboard-response","trial_index":39,"time_elapsed":90077,"internal_node_id":"0.0-8.0-0.8","subject":"cgp2o0bduv2qj8v","sona":"7723"},{"rt":null,"stimulus":"<div style=\"font-size:60px;\">+</div>","key_press":null,"trial_type":"html-keyboard-response","trial_index":40,"time_elapsed":92080,"internal_node_id":"0.0-8.0-1.8","subject":"cgp2o0bduv2qj8v","sona":"7723"},{"trial_type":"turing-test","trial_index":41,"time_elapsed":97940,"internal_node_id":"0.0-8.0-2.8","subject":"cgp2o0bduv2qj8v","sona":"7723"},{"rt":25.799999944865704,"stimulus":"<p>Welche Sequenz haben Sie als natürlicher empfunden?</p>","key_press":74,"test_part":"response","test_stimulus":{"position":1,"left":"bvh/vr_prediction_models/model(vcgpdm)-dataset(return-bottle)-mode(ELBO)-parts(3)-dyn(10)-lvm(10)-hold(4)/final-lines.txt","right":"bvh/return-bottle-training4-lines.txt","att_check":false},"trial_type":"html-keyboard-response","trial_index":42,"time_elapsed":97968,"internal_node_id":"0.0-8.0-3.8","subject":"cgp2o0bduv2qj8v","sona":"7723"},{"rt":564.5499993115664,"stimulus":"<p>Bereit?</p>","key_press":32,"trial_type":"html-keyboard-response","trial_index":43,"time_elapsed":98534,"internal_node_id":"0.0-8.0-0.9","subject":"cgp2o0bduv2qj8v","sona":"7723"},{"rt":null,"stimulus":"<div style=\"font-size:60px;\">+</div>","key_press":null,"trial_type":"html-keyboard-response","trial_index":44,"time_elapsed":100537,"internal_node_id":"0.0-8.0-1.9","subject":"cgp2o0bduv2qj8v","sona":"7723"},{"trial_type":"turing-test","trial_index":45,"time_elapsed":107245,"internal_node_id":"0.0-8.0-2.9","subject":"cgp2o0bduv2qj8v","sona":"7723"},{"rt":399.2849998176098,"stimulus":"<p>Welche Sequenz haben Sie als natürlicher empfunden?</p>","key_press":74,"test_part":"response","test_stimulus":{"position":1,"left":"bvh/vr_prediction_models/model(dmp)-dataset(pass-bottle)-npsi(50)-hold(0)/final-lines.txt","right":"bvh/pass-bottle-training0-lines.txt","att_check":false},"trial_type":"html-keyboard-response","trial_index":46,"time_elapsed":107647,"internal_node_id":"0.0-8.0-3.9","subject":"cgp2o0bduv2qj8v","sona":"7723"},{"rt":646.0549999028444,"stimulus":"<p>Bereit?</p>","key_press":32,"trial_type":"html-keyboard-response","trial_index":47,"time_elapsed":108295,"internal_node_id":"0.0-8.0-0.10","subject":"cgp2o0bduv2qj8v","sona":"7723"},{"rt":null,"stimulus":"<div style=\"font-size:60px;\">+</div>","key_press":null,"trial_type":"html-keyboard-response","trial_index":48,"time_elapsed":110297,"internal_node_id":"0.0-8.0-1.10","subject":"cgp2o0bduv2qj8v","sona":"7723"},{"trial_type":"turing-test","trial_index":49,"time_elapsed":115337,"internal_node_id":"0.0-8.0-2.10","subject":"cgp2o0bduv2qj8v","sona":"7723"},{"rt":447.3900003358722,"stimulus":"<p>Welche Sequenz haben Sie als natürlicher empfunden?</p>","key_press":74,"test_part":"response","test_stimulus":{"position":1,"left":"bvh/vr_prediction_models/model(vcgpdm)-dataset(return-bottle-hold)-mode(ELBO)-parts(1)-dyn(20)-lvm(20)-hold(0)/final-lines.txt","right":"bvh/return-bottle-hold-training0-lines.txt","att_check":false},"trial_type":"html-keyboard-response","trial_index":50,"time_elapsed":115787,"internal_node_id":"0.0-8.0-3.10","subject":"cgp2o0bduv2qj8v","sona":"7723"},{"rt":419.3350002169609,"stimulus":"<p>Bereit?</p>","key_press":32,"trial_type":"html-keyboard-response","trial_index":51,"time_elapsed":116208,"internal_node_id":"0.0-8.0-0.11","subject":"cgp2o0bduv2qj8v","sona":"7723"},{"rt":null,"stimulus":"<div style=\"font-size:60px;\">+</div>","key_press":null,"trial_type":"html-keyboard-response","trial_index":52,"time_elapsed":118210,"internal_node_id":"0.0-8.0-1.11","subject":"cgp2o0bduv2qj8v","sona":"7723"}]