[{"rt":2546.0650000022724,"stimulus":"<p>Welcome!<br> Please choose your language to start the experiment in the chosen language.</p><p>Willkommen!<br> Bitte wählen Sie eine Sprache, um das Experiment in der ausgewählten Sprache zu starten</p>","button_pressed":"1","trial_type":"html-button-response","trial_index":0,"time_elapsed":2559,"internal_node_id":"0.0-0.0","subject":"16e4ltbe3e3rhwu","sona":"9688"},{"view_history":"[{\"page_index\":0,\"viewing_time\":714.5099999906961},{\"page_index\":1,\"viewing_time\":757.7349999919534},{\"page_index\":2,\"viewing_time\":720.035000005737},{\"page_index\":3,\"viewing_time\":2652.1599999978207},{\"page_index\":4,\"viewing_time\":2439.975000015693}]","rt":7285.050000005867,"trial_type":"instructions","trial_index":1,"time_elapsed":9845,"internal_node_id":"0.0-1.0-0.0","subject":"16e4ltbe3e3rhwu","sona":"9688"},{"rt":3035.7399999920744,"stimulus":"<p>Bereit?</p>","key_press":32,"trial_type":"html-keyboard-response","trial_index":2,"time_elapsed":12882,"internal_node_id":"0.0-3.0","subject":"16e4ltbe3e3rhwu","sona":"9688"},{"rt":null,"stimulus":"<div style=\"font-size:60px;\">+</div>","key_press":null,"trial_type":"html-keyboard-response","trial_index":3,"time_elapsed":14885,"internal_node_id":"0.0-4.0","subject":"16e4ltbe3e3rhwu","sona":"9688"},{"trial_type":"training","trial_index":4,"time_elapsed":18086,"internal_node_id":"0.0-5.0","subject":"16e4ltbe3e3rhwu","sona":"9688"},{"rt":427.64000000897795,"stimulus":"<p>Welche Sequenz haben Sie als natürlicher empfunden?</p>","key_press":70,"trial_type":"html-keyboard-response","trial_index":5,"time_elapsed":18515,"internal_node_id":"0.0-6.0","subject":"16e4ltbe3e3rhwu","sona":"9688"},{"rt":2392.9400000197347,"stimulus":"<p>Das Experiment startet nun.</p><p><small>Bitte drücken Sie den Knopf, wenn Sie bereit sind.</small></p>","button_pressed":"0","trial_type":"html-button-response","trial_index":6,"time_elapsed":20909,"internal_node_id":"0.0-7.0","subject":"16e4ltbe3e3rhwu","sona":"9688"},{"rt":2471.4350000140257,"stimulus":"<p>Bereit?</p>","key_press":32,"trial_type":"html-keyboard-response","trial_index":7,"time_elapsed":23381,"internal_node_id":"0.0-8.0-0.0","subject":"16e4ltbe3e3rhwu","sona":"9688"},{"rt":null,"stimulus":"<div style=\"font-size:60px;\">+</div>","key_press":null,"trial_type":"html-keyboard-response","trial_index":8,"time_elapsed":25383,"internal_node_id":"0.0-8.0-1.0","subject":"16e4ltbe3e3rhwu","sona":"9688"},{"trial_type":"turing-test","trial_index":9,"time_elapsed":31409,"internal_node_id":"0.0-8.0-2.0","subject":"16e4ltbe3e3rhwu","sona":"9688"},{"rt":369.52500001643784,"stimulus":"<p>Welche Sequenz haben Sie als natürlicher empfunden?</p>","key_press":70,"test_part":"response","test_stimulus":{"position":1,"left":"bvh/vr_prediction_models/model(tmp)-dataset(pass-bottle)-numprim(10)-hold(2)/final-lines.txt","right":"bvh/pass-bottle-training2-lines.txt","att_check":false},"trial_type":"html-keyboard-response","trial_index":10,"time_elapsed":31781,"internal_node_id":"0.0-8.0-3.0","subject":"16e4ltbe3e3rhwu","sona":"9688"},{"rt":209.4550000037998,"stimulus":"<p>Bereit?</p>","key_press":32,"trial_type":"html-keyboard-response","trial_index":11,"time_elapsed":31991,"internal_node_id":"0.0-8.0-0.1","subject":"16e4ltbe3e3rhwu","sona":"9688"},{"rt":null,"stimulus":"<div style=\"font-size:60px;\">+</div>","key_press":null,"trial_type":"html-keyboard-response","trial_index":12,"time_elapsed":33992,"internal_node_id":"0.0-8.0-1.1","subject":"16e4ltbe3e3rhwu","sona":"9688"},{"trial_type":"turing-test","trial_index":13,"time_elapsed":37461,"internal_node_id":"0.0-8.0-2.1","subject":"16e4ltbe3e3rhwu","sona":"9688"},{"rt":272.4599999783095,"stimulus":"<p>Welche Sequenz haben Sie als natürlicher empfunden?</p>","key_press":74,"test_part":"response","test_stimulus":{"position":0,"left":"bvh/return-bottle-hold-training2-lines.txt","right":"bvh/vr_prediction_models/model(vcgpdm)-dataset(return-bottle-hold)-mode(ELBO)-parts(3)-dyn(30)-lvm(15)-hold(2)/final-lines.txt","att_check":false},"trial_type":"html-keyboard-response","trial_index":14,"time_elapsed":37735,"internal_node_id":"0.0-8.0-3.1","subject":"16e4ltbe3e3rhwu","sona":"9688"},{"rt":219.48500000871718,"stimulus":"<p>Bereit?</p>","key_press":32,"trial_type":"html-keyboard-response","trial_index":15,"time_elapsed":37955,"internal_node_id":"0.0-8.0-0.2","subject":"16e4ltbe3e3rhwu","sona":"9688"},{"rt":null,"stimulus":"<div style=\"font-size:60px;\">+</div>","key_press":null,"trial_type":"html-keyboard-response","trial_index":16,"time_elapsed":39957,"internal_node_id":"0.0-8.0-1.2","subject":"16e4ltbe3e3rhwu","sona":"9688"},{"trial_type":"turing-test","trial_index":17,"time_elapsed":46488,"internal_node_id":"0.0-8.0-2.2","subject":"16e4ltbe3e3rhwu","sona":"9688"},{"rt":307.16499997652136,"stimulus":"<p>Welche Sequenz haben Sie als natürlicher empfunden?</p>","key_press":74,"test_part":"response","test_stimulus":{"position":0,"left":"bvh/return-bottle-training2-lines.txt","right":"bvh/vr_prediction_models/model(vcgpdm)-dataset(return-bottle)-mode(ELBO)-parts(1)-dyn(20)-lvm(5)-hold(2)/final-lines.txt","att_check":false},"trial_type":"html-keyboard-response","trial_index":18,"time_elapsed":46796,"internal_node_id":"0.0-8.0-3.2","subject":"16e4ltbe3e3rhwu","sona":"9688"},{"rt":284.8099999828264,"stimulus":"<p>Bereit?</p>","key_press":32,"trial_type":"html-keyboard-response","trial_index":19,"time_elapsed":47082,"internal_node_id":"0.0-8.0-0.3","subject":"16e4ltbe3e3rhwu","sona":"9688"},{"rt":null,"stimulus":"<div style=\"font-size:60px;\">+</div>","key_press":null,"trial_type":"html-keyboard-response","trial_index":20,"time_elapsed":49084,"internal_node_id":"0.0-8.0-1.3","subject":"16e4ltbe3e3rhwu","sona":"9688"},{"trial_type":"turing-test","trial_index":21,"time_elapsed":52722,"internal_node_id":"0.0-8.0-2.3","subject":"16e4ltbe3e3rhwu","sona":"9688"},{"rt":473.6200000043027,"stimulus":"<p>Welche Sequenz haben Sie als natürlicher empfunden?</p>","key_press":74,"test_part":"response","test_stimulus":{"position":0,"left":"bvh/return-bottle-hold-training4-lines.txt","right":"bvh/vr_prediction_models/model(tmp)-dataset(return-bottle-hold)-numprim(11)-hold(4)/final-lines.txt","att_check":false},"trial_type":"html-keyboard-response","trial_index":22,"time_elapsed":53197,"internal_node_id":"0.0-8.0-3.3","subject":"16e4ltbe3e3rhwu","sona":"9688"},{"rt":530.4000000178348,"stimulus":"<p>Bereit?</p>","key_press":32,"trial_type":"html-keyboard-response","trial_index":23,"time_elapsed":53728,"internal_node_id":"0.0-8.0-0.4","subject":"16e4ltbe3e3rhwu","sona":"9688"},{"rt":null,"stimulus":"<div style=\"font-size:60px;\">+</div>","key_press":null,"trial_type":"html-keyboard-response","trial_index":24,"time_elapsed":55730,"internal_node_id":"0.0-8.0-1.4","subject":"16e4ltbe3e3rhwu","sona":"9688"},{"trial_type":"turing-test","trial_index":25,"time_elapsed":59186,"internal_node_id":"0.0-8.0-2.4","subject":"16e4ltbe3e3rhwu","sona":"9688"},{"rt":1170.3149999957532,"stimulus":"<p>Welche Sequenz haben Sie als natürlicher empfunden?</p>","key_press":70,"test_part":"response","test_stimulus":{"position":0,"left":"bvh/return-bottle-hold-training2-lines.txt","right":"bvh/vr_prediction_models/model(vcgpdm)-dataset(return-bottle-hold)-mode(ELBO)-parts(1)-dyn(15)-lvm(35)-hold(2)/final-lines.txt","att_check":false},"trial_type":"html-keyboard-response","trial_index":26,"time_elapsed":60358,"internal_node_id":"0.0-8.0-3.4","subject":"16e4ltbe3e3rhwu","sona":"9688"},{"rt":189.8349999974016,"stimulus":"<p>Bereit?</p>","key_press":32,"trial_type":"html-keyboard-response","trial_index":27,"time_elapsed":60549,"internal_node_id":"0.0-8.0-0.5","subject":"16e4ltbe3e3rhwu","sona":"9688"},{"rt":null,"stimulus":"<div style=\"font-size:60px;\">+</div>","key_press":null,"trial_type":"html-keyboard-response","trial_index":28,"time_elapsed":62550,"internal_node_id":"0.0-8.0-1.5","subject":"16e4ltbe3e3rhwu","sona":"9688"},{"trial_type":"turing-test","trial_index":29,"time_elapsed":65787,"internal_node_id":"0.0-8.0-2.5","subject":"16e4ltbe3e3rhwu","sona":"9688"},{"rt":715.185000008205,"stimulus":"<p>Welche Sequenz haben Sie als natürlicher empfunden?</p>","key_press":70,"test_part":"response","test_stimulus":{"position":0,"left":"bvh/pass-bottle-hold-training0-lines.txt","right":"bvh/vr_prediction_models/model(dmp)-dataset(pass-bottle-hold)-npsi(60)-hold(0)/final-lines.txt","att_check":false},"trial_type":"html-keyboard-response","trial_index":30,"time_elapsed":66503,"internal_node_id":"0.0-8.0-3.5","subject":"16e4ltbe3e3rhwu","sona":"9688"},{"rt":173.54499999783002,"stimulus":"<p>Bereit?</p>","key_press":32,"trial_type":"html-keyboard-response","trial_index":31,"time_elapsed":66678,"internal_node_id":"0.0-8.0-0.6","subject":"16e4ltbe3e3rhwu","sona":"9688"},{"rt":null,"stimulus":"<div style=\"font-size:60px;\">+</div>","key_press":null,"trial_type":"html-keyboard-response","trial_index":32,"time_elapsed":68680,"internal_node_id":"0.0-8.0-1.6","subject":"16e4ltbe3e3rhwu","sona":"9688"},{"trial_type":"turing-test","trial_index":33,"time_elapsed":72050,"internal_node_id":"0.0-8.0-2.6","subject":"16e4ltbe3e3rhwu","sona":"9688"},{"rt":516.4949999889359,"stimulus":"<p>Welche Sequenz haben Sie als natürlicher empfunden?</p>","key_press":70,"test_part":"response","test_stimulus":{"position":0,"left":"bvh/return-bottle-hold-training2-lines.txt","right":"bvh/vr_prediction_models/model(dmp)-dataset(return-bottle-hold)-npsi(80)-hold(2)/final-lines.txt","att_check":false},"trial_type":"html-keyboard-response","trial_index":34,"time_elapsed":72568,"internal_node_id":"0.0-8.0-3.6","subject":"16e4ltbe3e3rhwu","sona":"9688"},{"rt":213.99999997811392,"stimulus":"<p>Bereit?</p>","key_press":32,"trial_type":"html-keyboard-response","trial_index":35,"time_elapsed":72783,"internal_node_id":"0.0-8.0-0.7","subject":"16e4ltbe3e3rhwu","sona":"9688"},{"rt":null,"stimulus":"<div style=\"font-size:60px;\">+</div>","key_press":null,"trial_type":"html-keyboard-response","trial_index":36,"time_elapsed":74786,"internal_node_id":"0.0-8.0-1.7","subject":"16e4ltbe3e3rhwu","sona":"9688"},{"trial_type":"turing-test","trial_index":37,"time_elapsed":78323,"internal_node_id":"0.0-8.0-2.7","subject":"16e4ltbe3e3rhwu","sona":"9688"},{"rt":458.2149999914691,"stimulus":"<p>Welche Sequenz haben Sie als natürlicher empfunden?</p>","key_press":70,"test_part":"response","test_stimulus":{"position":0,"left":"bvh/return-bottle-hold-training3-lines.txt","right":"bvh/vr_prediction_models/model(tmp)-dataset(return-bottle-hold)-numprim(10)-hold(3)/final-lines.txt","att_check":false},"trial_type":"html-keyboard-response","trial_index":38,"time_elapsed":78783,"internal_node_id":"0.0-8.0-3.7","subject":"16e4ltbe3e3rhwu","sona":"9688"},{"rt":233.9700000011362,"stimulus":"<p>Bereit?</p>","key_press":32,"trial_type":"html-keyboard-response","trial_index":39,"time_elapsed":79018,"internal_node_id":"0.0-8.0-0.8","subject":"16e4ltbe3e3rhwu","sona":"9688"},{"rt":null,"stimulus":"<div style=\"font-size:60px;\">+</div>","key_press":null,"trial_type":"html-keyboard-response","trial_index":40,"time_elapsed":81022,"internal_node_id":"0.0-8.0-1.8","subject":"16e4ltbe3e3rhwu","sona":"9688"},{"trial_type":"turing-test","trial_index":41,"time_elapsed":84597,"internal_node_id":"0.0-8.0-2.8","subject":"16e4ltbe3e3rhwu","sona":"9688"},{"rt":404.6399999933783,"stimulus":"<p>Welche Sequenz haben Sie als natürlicher empfunden?</p>","key_press":70,"test_part":"response","test_stimulus":{"position":1,"left":"bvh/vr_prediction_models/model(vcgpdm)-dataset(pass-bottle-hold)-mode(ELBO)-parts(1)-dyn(35)-lvm(10)-hold(4)/final-lines.txt","right":"bvh/pass-bottle-hold-training4-lines.txt","att_check":false},"trial_type":"html-keyboard-response","trial_index":42,"time_elapsed":85002,"internal_node_id":"0.0-8.0-3.8","subject":"16e4ltbe3e3rhwu","sona":"9688"},{"rt":173.69500000495464,"stimulus":"<p>Bereit?</p>","key_press":32,"trial_type":"html-keyboard-response","trial_index":43,"time_elapsed":85177,"internal_node_id":"0.0-8.0-0.9","subject":"16e4ltbe3e3rhwu","sona":"9688"},{"rt":null,"stimulus":"<div style=\"font-size:60px;\">+</div>","key_press":null,"trial_type":"html-keyboard-response","trial_index":44,"time_elapsed":87180,"internal_node_id":"0.0-8.0-1.9","subject":"16e4ltbe3e3rhwu","sona":"9688"},{"trial_type":"turing-test","trial_index":45,"time_elapsed":90427,"internal_node_id":"0.0-8.0-2.9","subject":"16e4ltbe3e3rhwu","sona":"9688"},{"rt":387.46500000706874,"stimulus":"<p>Welche Sequenz haben Sie als natürlicher empfunden?</p>","key_press":74,"test_part":"response","test_stimulus":{"position":1,"left":"bvh/vr_prediction_models/model(dmp)-dataset(return-bottle-hold)-npsi(20)-hold(1)/final-lines.txt","right":"bvh/return-bottle-hold-training1-lines.txt","att_check":false},"trial_type":"html-keyboard-response","trial_index":46,"time_elapsed":90816,"internal_node_id":"0.0-8.0-3.9","subject":"16e4ltbe3e3rhwu","sona":"9688"},{"rt":164.0950000146404,"stimulus":"<p>Bereit?</p>","key_press":32,"trial_type":"html-keyboard-response","trial_index":47,"time_elapsed":90981,"internal_node_id":"0.0-8.0-0.10","subject":"16e4ltbe3e3rhwu","sona":"9688"},{"rt":null,"stimulus":"<div style=\"font-size:60px;\">+</div>","key_press":null,"trial_type":"html-keyboard-response","trial_index":48,"time_elapsed":92984,"internal_node_id":"0.0-8.0-1.10","subject":"16e4ltbe3e3rhwu","sona":"9688"},{"trial_type":"turing-test","trial_index":49,"time_elapsed":96319,"internal_node_id":"0.0-8.0-2.10","subject":"16e4ltbe3e3rhwu","sona":"9688"},{"rt":1562.565000000177,"stimulus":"<p>Welche Sequenz haben Sie als natürlicher empfunden?</p>","key_press":74,"test_part":"response","test_stimulus":{"position":1,"left":"bvh/vr_prediction_models/model(vcgpdm)-dataset(pass-bottle-hold)-mode(ELBO)-parts(3)-dyn(15)-lvm(30)-hold(0)/final-lines.txt","right":"bvh/pass-bottle-hold-training0-lines.txt","att_check":false},"trial_type":"html-keyboard-response","trial_index":50,"time_elapsed":97884,"internal_node_id":"0.0-8.0-3.10","subject":"16e4ltbe3e3rhwu","sona":"9688"},{"rt":163.40499999932945,"stimulus":"<p>Bereit?</p>","key_press":32,"trial_type":"html-keyboard-response","trial_index":51,"time_elapsed":98048,"internal_node_id":"0.0-8.0-0.11","subject":"16e4ltbe3e3rhwu","sona":"9688"},{"rt":null,"stimulus":"<div style=\"font-size:60px;\">+</div>","key_press":null,"trial_type":"html-keyboard-response","trial_index":52,"time_elapsed":100050,"internal_node_id":"0.0-8.0-1.11","subject":"16e4ltbe3e3rhwu","sona":"9688"}]