[{"rt":1815,"stimulus":"<p>Welcome!<br> Please choose your language to start the experiment in the chosen language.</p><p>Willkommen!<br> Bitte wählen Sie eine Sprache, um das Experiment in der ausgewählten Sprache zu starten</p>","button_pressed":"1","trial_type":"html-button-response","trial_index":0,"time_elapsed":1822,"internal_node_id":"0.0-0.0","subject":"gcvd5nj7u4yuwo7","sona":"7594"},{"view_history":"[{\"page_index\":0,\"viewing_time\":742},{\"page_index\":1,\"viewing_time\":1366},{\"page_index\":2,\"viewing_time\":1103},{\"page_index\":3,\"viewing_time\":1158},{\"page_index\":4,\"viewing_time\":1263}]","rt":5633,"trial_type":"instructions","trial_index":1,"time_elapsed":7455,"internal_node_id":"0.0-1.0-0.0","subject":"gcvd5nj7u4yuwo7","sona":"7594"},{"rt":3047,"stimulus":"<p>Bereit?</p>","key_press":32,"trial_type":"html-keyboard-response","trial_index":2,"time_elapsed":10504,"internal_node_id":"0.0-3.0","subject":"gcvd5nj7u4yuwo7","sona":"7594"},{"rt":null,"stimulus":"<div style=\"font-size:60px;\">+</div>","key_press":null,"trial_type":"html-keyboard-response","trial_index":3,"time_elapsed":12507,"internal_node_id":"0.0-4.0","subject":"gcvd5nj7u4yuwo7","sona":"7594"},{"trial_type":"training","trial_index":4,"time_elapsed":15710,"internal_node_id":"0.0-5.0","subject":"gcvd5nj7u4yuwo7","sona":"7594"},{"rt":1069,"stimulus":"<p>Welche Sequenz haben Sie als natürlicher empfunden?</p>","key_press":70,"trial_type":"html-keyboard-response","trial_index":5,"time_elapsed":16779,"internal_node_id":"0.0-6.0","subject":"gcvd5nj7u4yuwo7","sona":"7594"},{"rt":3052,"stimulus":"<p>Das Experiment startet nun.</p><p><small>Bitte drücken Sie den Knopf, wenn Sie bereit sind.</small></p>","button_pressed":"0","trial_type":"html-button-response","trial_index":6,"time_elapsed":19832,"internal_node_id":"0.0-7.0","subject":"gcvd5nj7u4yuwo7","sona":"7594"},{"rt":1446,"stimulus":"<p>Bereit?</p>","key_press":32,"trial_type":"html-keyboard-response","trial_index":7,"time_elapsed":21279,"internal_node_id":"0.0-8.0-0.0","subject":"gcvd5nj7u4yuwo7","sona":"7594"},{"rt":null,"stimulus":"<div style=\"font-size:60px;\">+</div>","key_press":null,"trial_type":"html-keyboard-response","trial_index":8,"time_elapsed":23284,"internal_node_id":"0.0-8.0-1.0","subject":"gcvd5nj7u4yuwo7","sona":"7594"},{"trial_type":"turing-test","trial_index":9,"time_elapsed":29480,"internal_node_id":"0.0-8.0-2.0","subject":"gcvd5nj7u4yuwo7","sona":"7594"},{"rt":329,"stimulus":"<p>Welche Sequenz haben Sie als natürlicher empfunden?</p>","key_press":70,"test_part":"response","test_stimulus":{"position":0,"left":"bvh/return-bottle-training1-lines.txt","right":"bvh/vr_prediction_models/model(vcgpdm)-dataset(return-bottle)-mode(ELBO)-parts(1)-dyn(10)-lvm(5)-hold(1)/final-lines.txt","att_check":false},"trial_type":"html-keyboard-response","trial_index":10,"time_elapsed":29810,"internal_node_id":"0.0-8.0-3.0","subject":"gcvd5nj7u4yuwo7","sona":"7594"},{"rt":464,"stimulus":"<p>Bereit?</p>","key_press":32,"trial_type":"html-keyboard-response","trial_index":11,"time_elapsed":30276,"internal_node_id":"0.0-8.0-0.1","subject":"gcvd5nj7u4yuwo7","sona":"7594"},{"rt":null,"stimulus":"<div style=\"font-size:60px;\">+</div>","key_press":null,"trial_type":"html-keyboard-response","trial_index":12,"time_elapsed":32277,"internal_node_id":"0.0-8.0-1.1","subject":"gcvd5nj7u4yuwo7","sona":"7594"},{"trial_type":"turing-test","trial_index":13,"time_elapsed":37414,"internal_node_id":"0.0-8.0-2.1","subject":"gcvd5nj7u4yuwo7","sona":"7594"},{"rt":3797,"stimulus":"<p>Welche Sequenz haben Sie als natürlicher empfunden?</p>","key_press":70,"test_part":"response","test_stimulus":{"position":0,"left":"bvh/return-bottle-hold-training0-lines.txt","right":"bvh/vr_prediction_models/model(dmp)-dataset(return-bottle-hold)-npsi(90)-hold(0)/final-lines.txt","att_check":false},"trial_type":"html-keyboard-response","trial_index":14,"time_elapsed":41212,"internal_node_id":"0.0-8.0-3.1","subject":"gcvd5nj7u4yuwo7","sona":"7594"},{"rt":377,"stimulus":"<p>Bereit?</p>","key_press":32,"trial_type":"html-keyboard-response","trial_index":15,"time_elapsed":41589,"internal_node_id":"0.0-8.0-0.2","subject":"gcvd5nj7u4yuwo7","sona":"7594"},{"rt":null,"stimulus":"<div style=\"font-size:60px;\">+</div>","key_press":null,"trial_type":"html-keyboard-response","trial_index":16,"time_elapsed":43592,"internal_node_id":"0.0-8.0-1.2","subject":"gcvd5nj7u4yuwo7","sona":"7594"},{"trial_type":"turing-test","trial_index":17,"time_elapsed":49155,"internal_node_id":"0.0-8.0-2.2","subject":"gcvd5nj7u4yuwo7","sona":"7594"},{"rt":508,"stimulus":"<p>Welche Sequenz haben Sie als natürlicher empfunden?</p>","key_press":70,"test_part":"response","test_stimulus":{"position":1,"left":"bvh/vr_prediction_models/model(vcgpdm)-dataset(pass-bottle)-mode(ELBO)-parts(1)-dyn(35)-lvm(10)-hold(1)/final-lines.txt","right":"bvh/pass-bottle-training1-lines.txt","att_check":false},"trial_type":"html-keyboard-response","trial_index":18,"time_elapsed":49665,"internal_node_id":"0.0-8.0-3.2","subject":"gcvd5nj7u4yuwo7","sona":"7594"},{"rt":248,"stimulus":"<p>Bereit?</p>","key_press":32,"trial_type":"html-keyboard-response","trial_index":19,"time_elapsed":49913,"internal_node_id":"0.0-8.0-0.3","subject":"gcvd5nj7u4yuwo7","sona":"7594"},{"rt":null,"stimulus":"<div style=\"font-size:60px;\">+</div>","key_press":null,"trial_type":"html-keyboard-response","trial_index":20,"time_elapsed":51918,"internal_node_id":"0.0-8.0-1.3","subject":"gcvd5nj7u4yuwo7","sona":"7594"},{"trial_type":"turing-test","trial_index":21,"time_elapsed":57119,"internal_node_id":"0.0-8.0-2.3","subject":"gcvd5nj7u4yuwo7","sona":"7594"},{"rt":462,"stimulus":"<p>Welche Sequenz haben Sie als natürlicher empfunden?</p>","key_press":70,"test_part":"response","test_stimulus":{"position":1,"left":"bvh/vr_prediction_models/model(vcgpdm)-dataset(return-bottle-hold)-mode(ELBO)-parts(1)-dyn(30)-lvm(35)-hold(0)/final-lines.txt","right":"bvh/return-bottle-hold-training0-lines.txt","att_check":false},"trial_type":"html-keyboard-response","trial_index":22,"time_elapsed":57583,"internal_node_id":"0.0-8.0-3.3","subject":"gcvd5nj7u4yuwo7","sona":"7594"},{"rt":261,"stimulus":"<p>Bereit?</p>","key_press":32,"trial_type":"html-keyboard-response","trial_index":23,"time_elapsed":57844,"internal_node_id":"0.0-8.0-0.4","subject":"gcvd5nj7u4yuwo7","sona":"7594"},{"rt":null,"stimulus":"<div style=\"font-size:60px;\">+</div>","key_press":null,"trial_type":"html-keyboard-response","trial_index":24,"time_elapsed":59850,"internal_node_id":"0.0-8.0-1.4","subject":"gcvd5nj7u4yuwo7","sona":"7594"},{"trial_type":"turing-test","trial_index":25,"time_elapsed":63530,"internal_node_id":"0.0-8.0-2.4","subject":"gcvd5nj7u4yuwo7","sona":"7594"},{"rt":395,"stimulus":"<p>Welche Sequenz haben Sie als natürlicher empfunden?</p>","key_press":70,"test_part":"response","test_stimulus":{"position":0,"left":"bvh/return-bottle-hold-training3-lines.txt","right":"bvh/vr_prediction_models/model(dmp)-dataset(return-bottle-hold)-npsi(30)-hold(3)/final-lines.txt","att_check":false},"trial_type":"html-keyboard-response","trial_index":26,"time_elapsed":63925,"internal_node_id":"0.0-8.0-3.4","subject":"gcvd5nj7u4yuwo7","sona":"7594"},{"rt":297,"stimulus":"<p>Bereit?</p>","key_press":32,"trial_type":"html-keyboard-response","trial_index":27,"time_elapsed":64222,"internal_node_id":"0.0-8.0-0.5","subject":"gcvd5nj7u4yuwo7","sona":"7594"},{"rt":null,"stimulus":"<div style=\"font-size:60px;\">+</div>","key_press":null,"trial_type":"html-keyboard-response","trial_index":28,"time_elapsed":66225,"internal_node_id":"0.0-8.0-1.5","subject":"gcvd5nj7u4yuwo7","sona":"7594"},{"trial_type":"turing-test","trial_index":29,"time_elapsed":69861,"internal_node_id":"0.0-8.0-2.5","subject":"gcvd5nj7u4yuwo7","sona":"7594"},{"rt":415,"stimulus":"<p>Welche Sequenz haben Sie als natürlicher empfunden?</p>","key_press":70,"test_part":"response","test_stimulus":{"position":1,"left":"bvh/vr_prediction_models/model(dmp)-dataset(pass-bottle-hold)-npsi(50)-hold(4)/final-lines.txt","right":"bvh/pass-bottle-hold-training4-lines.txt","att_check":false},"trial_type":"html-keyboard-response","trial_index":30,"time_elapsed":70278,"internal_node_id":"0.0-8.0-3.5","subject":"gcvd5nj7u4yuwo7","sona":"7594"},{"rt":254,"stimulus":"<p>Bereit?</p>","key_press":32,"trial_type":"html-keyboard-response","trial_index":31,"time_elapsed":70532,"internal_node_id":"0.0-8.0-0.6","subject":"gcvd5nj7u4yuwo7","sona":"7594"},{"rt":null,"stimulus":"<div style=\"font-size:60px;\">+</div>","key_press":null,"trial_type":"html-keyboard-response","trial_index":32,"time_elapsed":72538,"internal_node_id":"0.0-8.0-1.6","subject":"gcvd5nj7u4yuwo7","sona":"7594"},{"trial_type":"turing-test","trial_index":33,"time_elapsed":76052,"internal_node_id":"0.0-8.0-2.6","subject":"gcvd5nj7u4yuwo7","sona":"7594"},{"rt":608,"stimulus":"<p>Welche Sequenz haben Sie als natürlicher empfunden?</p>","key_press":70,"test_part":"response","test_stimulus":{"position":1,"left":"bvh/vr_prediction_models/model(tmp)-dataset(return-bottle-hold)-numprim(14)-hold(2)/final-lines.txt","right":"bvh/return-bottle-hold-training2-lines.txt","att_check":false},"trial_type":"html-keyboard-response","trial_index":34,"time_elapsed":76662,"internal_node_id":"0.0-8.0-3.6","subject":"gcvd5nj7u4yuwo7","sona":"7594"},{"rt":245,"stimulus":"<p>Bereit?</p>","key_press":32,"trial_type":"html-keyboard-response","trial_index":35,"time_elapsed":76907,"internal_node_id":"0.0-8.0-0.7","subject":"gcvd5nj7u4yuwo7","sona":"7594"},{"rt":null,"stimulus":"<div style=\"font-size:60px;\">+</div>","key_press":null,"trial_type":"html-keyboard-response","trial_index":36,"time_elapsed":78910,"internal_node_id":"0.0-8.0-1.7","subject":"gcvd5nj7u4yuwo7","sona":"7594"},{"trial_type":"turing-test","trial_index":37,"time_elapsed":82587,"internal_node_id":"0.0-8.0-2.7","subject":"gcvd5nj7u4yuwo7","sona":"7594"},{"rt":458,"stimulus":"<p>Welche Sequenz haben Sie als natürlicher empfunden?</p>","key_press":70,"test_part":"response","test_stimulus":{"position":0,"left":"bvh/return-bottle-hold-training3-lines.txt","right":"bvh/vr_prediction_models/model(dmp)-dataset(return-bottle-hold)-npsi(80)-hold(3)/final-lines.txt","att_check":false},"trial_type":"html-keyboard-response","trial_index":38,"time_elapsed":83047,"internal_node_id":"0.0-8.0-3.7","subject":"gcvd5nj7u4yuwo7","sona":"7594"},{"rt":270,"stimulus":"<p>Bereit?</p>","key_press":32,"trial_type":"html-keyboard-response","trial_index":39,"time_elapsed":83319,"internal_node_id":"0.0-8.0-0.8","subject":"gcvd5nj7u4yuwo7","sona":"7594"},{"rt":null,"stimulus":"<div style=\"font-size:60px;\">+</div>","key_press":null,"trial_type":"html-keyboard-response","trial_index":40,"time_elapsed":85322,"internal_node_id":"0.0-8.0-1.8","subject":"gcvd5nj7u4yuwo7","sona":"7594"},{"trial_type":"turing-test","trial_index":41,"time_elapsed":89089,"internal_node_id":"0.0-8.0-2.8","subject":"gcvd5nj7u4yuwo7","sona":"7594"},{"rt":270,"stimulus":"<p>Welche Sequenz haben Sie als natürlicher empfunden?</p>","key_press":70,"test_part":"response","test_stimulus":{"position":1,"left":"bvh/vr_prediction_models/model(vcgpdm)-dataset(return-bottle-hold)-mode(ELBO)-parts(1)-dyn(30)-lvm(30)-hold(3)/final-lines.txt","right":"bvh/return-bottle-hold-training3-lines.txt","att_check":false},"trial_type":"html-keyboard-response","trial_index":42,"time_elapsed":89360,"internal_node_id":"0.0-8.0-3.8","subject":"gcvd5nj7u4yuwo7","sona":"7594"},{"rt":337,"stimulus":"<p>Bereit?</p>","key_press":32,"trial_type":"html-keyboard-response","trial_index":43,"time_elapsed":89698,"internal_node_id":"0.0-8.0-0.9","subject":"gcvd5nj7u4yuwo7","sona":"7594"},{"rt":null,"stimulus":"<div style=\"font-size:60px;\">+</div>","key_press":null,"trial_type":"html-keyboard-response","trial_index":44,"time_elapsed":91702,"internal_node_id":"0.0-8.0-1.9","subject":"gcvd5nj7u4yuwo7","sona":"7594"},{"trial_type":"turing-test","trial_index":45,"time_elapsed":97959,"internal_node_id":"0.0-8.0-2.9","subject":"gcvd5nj7u4yuwo7","sona":"7594"},{"rt":491,"stimulus":"<p>Welche Sequenz haben Sie als natürlicher empfunden?</p>","key_press":74,"test_part":"response","test_stimulus":{"position":0,"left":"bvh/pass-bottle-training2-lines.txt","right":"bvh/vr_prediction_models/model(vcgpdm)-dataset(pass-bottle)-mode(ELBO)-parts(1)-dyn(30)-lvm(30)-hold(2)/final-lines.txt","att_check":false},"trial_type":"html-keyboard-response","trial_index":46,"time_elapsed":98452,"internal_node_id":"0.0-8.0-3.9","subject":"gcvd5nj7u4yuwo7","sona":"7594"},{"rt":278,"stimulus":"<p>Bereit?</p>","key_press":32,"trial_type":"html-keyboard-response","trial_index":47,"time_elapsed":98731,"internal_node_id":"0.0-8.0-0.10","subject":"gcvd5nj7u4yuwo7","sona":"7594"},{"rt":null,"stimulus":"<div style=\"font-size:60px;\">+</div>","key_press":null,"trial_type":"html-keyboard-response","trial_index":48,"time_elapsed":100736,"internal_node_id":"0.0-8.0-1.10","subject":"gcvd5nj7u4yuwo7","sona":"7594"},{"trial_type":"turing-test","trial_index":49,"time_elapsed":103998,"internal_node_id":"0.0-8.0-2.10","subject":"gcvd5nj7u4yuwo7","sona":"7594"},{"rt":332,"stimulus":"<p>Welche Sequenz haben Sie als natürlicher empfunden?</p>","key_press":70,"test_part":"response","test_stimulus":{"position":0,"left":"bvh/pass-bottle-hold-training1-lines.txt","right":"bvh/vr_prediction_models/model(dmp)-dataset(pass-bottle-hold)-npsi(10)-hold(1)/final-lines.txt","att_check":false},"trial_type":"html-keyboard-response","trial_index":50,"time_elapsed":104332,"internal_node_id":"0.0-8.0-3.10","subject":"gcvd5nj7u4yuwo7","sona":"7594"},{"rt":263,"stimulus":"<p>Bereit?</p>","key_press":32,"trial_type":"html-keyboard-response","trial_index":51,"time_elapsed":104595,"internal_node_id":"0.0-8.0-0.11","subject":"gcvd5nj7u4yuwo7","sona":"7594"},{"rt":null,"stimulus":"<div style=\"font-size:60px;\">+</div>","key_press":null,"trial_type":"html-keyboard-response","trial_index":52,"time_elapsed":106598,"internal_node_id":"0.0-8.0-1.11","subject":"gcvd5nj7u4yuwo7","sona":"7594"}]