[{"rt":2913,"stimulus":"<p>Welcome!<br> Please choose your language to start the experiment in the chosen language.</p><p>Willkommen!<br> Bitte wählen Sie eine Sprache, um das Experiment in der ausgewählten Sprache zu starten</p>","button_pressed":"1","trial_type":"html-button-response","trial_index":0,"time_elapsed":2923,"internal_node_id":"0.0-0.0","subject":"2noge1ud7l3pgay","sona":"7498"},{"view_history":"[{\"page_index\":0,\"viewing_time\":3499},{\"page_index\":1,\"viewing_time\":2379},{\"page_index\":2,\"viewing_time\":5052},{\"page_index\":3,\"viewing_time\":11765},{\"page_index\":4,\"viewing_time\":1816}]","rt":24511,"trial_type":"instructions","trial_index":1,"time_elapsed":27436,"internal_node_id":"0.0-1.0-0.0","subject":"2noge1ud7l3pgay","sona":"7498"},{"rt":1191,"stimulus":"<p>Bereit?</p>","key_press":32,"trial_type":"html-keyboard-response","trial_index":2,"time_elapsed":28630,"internal_node_id":"0.0-3.0","subject":"2noge1ud7l3pgay","sona":"7498"},{"rt":null,"stimulus":"<div style=\"font-size:60px;\">+</div>","key_press":null,"trial_type":"html-keyboard-response","trial_index":3,"time_elapsed":30634,"internal_node_id":"0.0-4.0","subject":"2noge1ud7l3pgay","sona":"7498"},{"trial_type":"training","trial_index":4,"time_elapsed":33951,"internal_node_id":"0.0-5.0","subject":"2noge1ud7l3pgay","sona":"7498"},{"rt":1234,"stimulus":"<p>Welche Sequenz haben Sie als natürlicher empfunden?</p>","key_press":70,"trial_type":"html-keyboard-response","trial_index":5,"time_elapsed":35186,"internal_node_id":"0.0-6.0","subject":"2noge1ud7l3pgay","sona":"7498"},{"rt":8158,"stimulus":"<p>Das Experiment startet nun.</p><p><small>Bitte drücken Sie den Knopf, wenn Sie bereit sind.</small></p>","button_pressed":"0","trial_type":"html-button-response","trial_index":6,"time_elapsed":43345,"internal_node_id":"0.0-7.0","subject":"2noge1ud7l3pgay","sona":"7498"},{"rt":2695,"stimulus":"<p>Bereit?</p>","key_press":32,"trial_type":"html-keyboard-response","trial_index":7,"time_elapsed":46043,"internal_node_id":"0.0-8.0-0.0","subject":"2noge1ud7l3pgay","sona":"7498"},{"rt":null,"stimulus":"<div style=\"font-size:60px;\">+</div>","key_press":null,"trial_type":"html-keyboard-response","trial_index":8,"time_elapsed":48049,"internal_node_id":"0.0-8.0-1.0","subject":"2noge1ud7l3pgay","sona":"7498"},{"trial_type":"turing-test","trial_index":9,"time_elapsed":53521,"internal_node_id":"0.0-8.0-2.0","subject":"2noge1ud7l3pgay","sona":"7498"},{"rt":603,"stimulus":"<p>Welche Sequenz haben Sie als natürlicher empfunden?</p>","key_press":74,"test_part":"response","test_stimulus":{"position":1,"left":"bvh/vr_prediction_models/model(vcgpdm)-dataset(pass-bottle)-mode(ELBO)-parts(1)-dyn(10)-lvm(5)-hold(1)/final-lines.txt","right":"bvh/pass-bottle-training1-lines.txt","att_check":false},"trial_type":"html-keyboard-response","trial_index":10,"time_elapsed":54125,"internal_node_id":"0.0-8.0-3.0","subject":"2noge1ud7l3pgay","sona":"7498"},{"rt":719,"stimulus":"<p>Bereit?</p>","key_press":32,"trial_type":"html-keyboard-response","trial_index":11,"time_elapsed":54845,"internal_node_id":"0.0-8.0-0.1","subject":"2noge1ud7l3pgay","sona":"7498"},{"rt":null,"stimulus":"<div style=\"font-size:60px;\">+</div>","key_press":null,"trial_type":"html-keyboard-response","trial_index":12,"time_elapsed":56847,"internal_node_id":"0.0-8.0-1.1","subject":"2noge1ud7l3pgay","sona":"7498"},{"trial_type":"turing-test","trial_index":13,"time_elapsed":63426,"internal_node_id":"0.0-8.0-2.1","subject":"2noge1ud7l3pgay","sona":"7498"},{"rt":324,"stimulus":"<p>Welche Sequenz haben Sie als natürlicher empfunden?</p>","key_press":74,"test_part":"response","test_stimulus":{"position":0,"left":"bvh/return-bottle-training2-lines.txt","right":"bvh/vr_prediction_models/model(vcgpdm)-dataset(return-bottle)-mode(ELBO)-parts(3)-dyn(20)-lvm(15)-hold(2)/final-lines.txt","att_check":false},"trial_type":"html-keyboard-response","trial_index":14,"time_elapsed":63752,"internal_node_id":"0.0-8.0-3.1","subject":"2noge1ud7l3pgay","sona":"7498"},{"rt":723,"stimulus":"<p>Bereit?</p>","key_press":32,"trial_type":"html-keyboard-response","trial_index":15,"time_elapsed":64475,"internal_node_id":"0.0-8.0-0.2","subject":"2noge1ud7l3pgay","sona":"7498"},{"rt":null,"stimulus":"<div style=\"font-size:60px;\">+</div>","key_press":null,"trial_type":"html-keyboard-response","trial_index":16,"time_elapsed":66482,"internal_node_id":"0.0-8.0-1.2","subject":"2noge1ud7l3pgay","sona":"7498"},{"trial_type":"turing-test","trial_index":17,"time_elapsed":72536,"internal_node_id":"0.0-8.0-2.2","subject":"2noge1ud7l3pgay","sona":"7498"},{"rt":678,"stimulus":"<p>Welche Sequenz haben Sie als natürlicher empfunden?</p>","key_press":70,"test_part":"response","test_stimulus":{"position":0,"left":"bvh/return-bottle-training1-lines.txt","right":"bvh/vr_prediction_models/model(vcgpdm)-dataset(return-bottle)-mode(ELBO)-parts(3)-dyn(10)-lvm(30)-hold(1)/final-lines.txt","att_check":false},"trial_type":"html-keyboard-response","trial_index":18,"time_elapsed":73217,"internal_node_id":"0.0-8.0-3.2","subject":"2noge1ud7l3pgay","sona":"7498"},{"rt":470,"stimulus":"<p>Bereit?</p>","key_press":32,"trial_type":"html-keyboard-response","trial_index":19,"time_elapsed":73687,"internal_node_id":"0.0-8.0-0.3","subject":"2noge1ud7l3pgay","sona":"7498"},{"rt":null,"stimulus":"<div style=\"font-size:60px;\">+</div>","key_press":null,"trial_type":"html-keyboard-response","trial_index":20,"time_elapsed":75692,"internal_node_id":"0.0-8.0-1.3","subject":"2noge1ud7l3pgay","sona":"7498"},{"trial_type":"turing-test","trial_index":21,"time_elapsed":79184,"internal_node_id":"0.0-8.0-2.3","subject":"2noge1ud7l3pgay","sona":"7498"},{"rt":675,"stimulus":"<p>Welche Sequenz haben Sie als natürlicher empfunden?</p>","key_press":74,"test_part":"response","test_stimulus":{"position":1,"left":"bvh/vr_prediction_models/model(dmp)-dataset(pass-bottle-hold)-npsi(10)-hold(3)/final-lines.txt","right":"bvh/pass-bottle-hold-training3-lines.txt","att_check":true},"trial_type":"html-keyboard-response","trial_index":22,"time_elapsed":79861,"internal_node_id":"0.0-8.0-3.3","subject":"2noge1ud7l3pgay","sona":"7498"},{"rt":591,"stimulus":"<p>Bereit?</p>","key_press":32,"trial_type":"html-keyboard-response","trial_index":23,"time_elapsed":80454,"internal_node_id":"0.0-8.0-0.4","subject":"2noge1ud7l3pgay","sona":"7498"},{"rt":null,"stimulus":"<div style=\"font-size:60px;\">+</div>","key_press":null,"trial_type":"html-keyboard-response","trial_index":24,"time_elapsed":82461,"internal_node_id":"0.0-8.0-1.4","subject":"2noge1ud7l3pgay","sona":"7498"},{"trial_type":"turing-test","trial_index":25,"time_elapsed":88304,"internal_node_id":"0.0-8.0-2.4","subject":"2noge1ud7l3pgay","sona":"7498"},{"rt":670,"stimulus":"<p>Welche Sequenz haben Sie als natürlicher empfunden?</p>","key_press":74,"test_part":"response","test_stimulus":{"position":1,"left":"bvh/vr_prediction_models/model(vcgpdm)-dataset(pass-bottle)-mode(ELBO)-parts(3)-dyn(20)-lvm(35)-hold(3)/final-lines.txt","right":"bvh/pass-bottle-training3-lines.txt","att_check":false},"trial_type":"html-keyboard-response","trial_index":26,"time_elapsed":88975,"internal_node_id":"0.0-8.0-3.4","subject":"2noge1ud7l3pgay","sona":"7498"},{"rt":373,"stimulus":"<p>Bereit?</p>","key_press":32,"trial_type":"html-keyboard-response","trial_index":27,"time_elapsed":89350,"internal_node_id":"0.0-8.0-0.5","subject":"2noge1ud7l3pgay","sona":"7498"},{"rt":null,"stimulus":"<div style=\"font-size:60px;\">+</div>","key_press":null,"trial_type":"html-keyboard-response","trial_index":28,"time_elapsed":91355,"internal_node_id":"0.0-8.0-1.5","subject":"2noge1ud7l3pgay","sona":"7498"},{"trial_type":"turing-test","trial_index":29,"time_elapsed":96843,"internal_node_id":"0.0-8.0-2.5","subject":"2noge1ud7l3pgay","sona":"7498"},{"rt":663,"stimulus":"<p>Welche Sequenz haben Sie als natürlicher empfunden?</p>","key_press":70,"test_part":"response","test_stimulus":{"position":0,"left":"bvh/pass-bottle-training1-lines.txt","right":"bvh/vr_prediction_models/model(vcgpdm)-dataset(pass-bottle)-mode(MAP)-parts(3)-hold(1)/final-lines.txt","att_check":false},"trial_type":"html-keyboard-response","trial_index":30,"time_elapsed":97508,"internal_node_id":"0.0-8.0-3.5","subject":"2noge1ud7l3pgay","sona":"7498"},{"rt":379,"stimulus":"<p>Bereit?</p>","key_press":32,"trial_type":"html-keyboard-response","trial_index":31,"time_elapsed":97889,"internal_node_id":"0.0-8.0-0.6","subject":"2noge1ud7l3pgay","sona":"7498"},{"rt":null,"stimulus":"<div style=\"font-size:60px;\">+</div>","key_press":null,"trial_type":"html-keyboard-response","trial_index":32,"time_elapsed":99890,"internal_node_id":"0.0-8.0-1.6","subject":"2noge1ud7l3pgay","sona":"7498"},{"trial_type":"turing-test","trial_index":33,"time_elapsed":106685,"internal_node_id":"0.0-8.0-2.6","subject":"2noge1ud7l3pgay","sona":"7498"},{"rt":522,"stimulus":"<p>Welche Sequenz haben Sie als natürlicher empfunden?</p>","key_press":74,"test_part":"response","test_stimulus":{"position":1,"left":"bvh/vr_prediction_models/model(vcgpdm)-dataset(pass-bottle)-mode(ELBO)-parts(3)-dyn(10)-lvm(10)-hold(0)/final-lines.txt","right":"bvh/pass-bottle-training0-lines.txt","att_check":false},"trial_type":"html-keyboard-response","trial_index":34,"time_elapsed":107209,"internal_node_id":"0.0-8.0-3.6","subject":"2noge1ud7l3pgay","sona":"7498"},{"rt":380,"stimulus":"<p>Bereit?</p>","key_press":32,"trial_type":"html-keyboard-response","trial_index":35,"time_elapsed":107590,"internal_node_id":"0.0-8.0-0.7","subject":"2noge1ud7l3pgay","sona":"7498"},{"rt":null,"stimulus":"<div style=\"font-size:60px;\">+</div>","key_press":null,"trial_type":"html-keyboard-response","trial_index":36,"time_elapsed":109594,"internal_node_id":"0.0-8.0-1.7","subject":"2noge1ud7l3pgay","sona":"7498"},{"trial_type":"turing-test","trial_index":37,"time_elapsed":115714,"internal_node_id":"0.0-8.0-2.7","subject":"2noge1ud7l3pgay","sona":"7498"},{"rt":581,"stimulus":"<p>Welche Sequenz haben Sie als natürlicher empfunden?</p>","key_press":74,"test_part":"response","test_stimulus":{"position":0,"left":"bvh/pass-bottle-training2-lines.txt","right":"bvh/vr_prediction_models/model(tmp)-dataset(pass-bottle)-numprim(8)-hold(2)/final-lines.txt","att_check":false},"trial_type":"html-keyboard-response","trial_index":38,"time_elapsed":116297,"internal_node_id":"0.0-8.0-3.7","subject":"2noge1ud7l3pgay","sona":"7498"},{"rt":476,"stimulus":"<p>Bereit?</p>","key_press":32,"trial_type":"html-keyboard-response","trial_index":39,"time_elapsed":116773,"internal_node_id":"0.0-8.0-0.8","subject":"2noge1ud7l3pgay","sona":"7498"},{"rt":null,"stimulus":"<div style=\"font-size:60px;\">+</div>","key_press":null,"trial_type":"html-keyboard-response","trial_index":40,"time_elapsed":118781,"internal_node_id":"0.0-8.0-1.8","subject":"2noge1ud7l3pgay","sona":"7498"},{"trial_type":"turing-test","trial_index":41,"time_elapsed":125439,"internal_node_id":"0.0-8.0-2.8","subject":"2noge1ud7l3pgay","sona":"7498"},{"rt":817,"stimulus":"<p>Welche Sequenz haben Sie als natürlicher empfunden?</p>","key_press":70,"test_part":"response","test_stimulus":{"position":0,"left":"bvh/pass-bottle-training0-lines.txt","right":"bvh/vr_prediction_models/model(dmp)-dataset(pass-bottle)-npsi(70)-hold(0)/final-lines.txt","att_check":false},"trial_type":"html-keyboard-response","trial_index":42,"time_elapsed":126258,"internal_node_id":"0.0-8.0-3.8","subject":"2noge1ud7l3pgay","sona":"7498"},{"rt":223,"stimulus":"<p>Bereit?</p>","key_press":32,"trial_type":"html-keyboard-response","trial_index":43,"time_elapsed":126481,"internal_node_id":"0.0-8.0-0.9","subject":"2noge1ud7l3pgay","sona":"7498"},{"rt":null,"stimulus":"<div style=\"font-size:60px;\">+</div>","key_press":null,"trial_type":"html-keyboard-response","trial_index":44,"time_elapsed":128484,"internal_node_id":"0.0-8.0-1.9","subject":"2noge1ud7l3pgay","sona":"7498"},{"trial_type":"turing-test","trial_index":45,"time_elapsed":132133,"internal_node_id":"0.0-8.0-2.9","subject":"2noge1ud7l3pgay","sona":"7498"},{"rt":956,"stimulus":"<p>Welche Sequenz haben Sie als natürlicher empfunden?</p>","key_press":70,"test_part":"response","test_stimulus":{"position":0,"left":"bvh/pass-bottle-hold-training2-lines.txt","right":"bvh/vr_prediction_models/model(vcgpdm)-dataset(pass-bottle-hold)-mode(ELBO)-parts(1)-dyn(30)-lvm(35)-hold(2)/final-lines.txt","att_check":false},"trial_type":"html-keyboard-response","trial_index":46,"time_elapsed":133090,"internal_node_id":"0.0-8.0-3.9","subject":"2noge1ud7l3pgay","sona":"7498"},{"rt":293,"stimulus":"<p>Bereit?</p>","key_press":32,"trial_type":"html-keyboard-response","trial_index":47,"time_elapsed":133386,"internal_node_id":"0.0-8.0-0.10","subject":"2noge1ud7l3pgay","sona":"7498"},{"rt":null,"stimulus":"<div style=\"font-size:60px;\">+</div>","key_press":null,"trial_type":"html-keyboard-response","trial_index":48,"time_elapsed":135393,"internal_node_id":"0.0-8.0-1.10","subject":"2noge1ud7l3pgay","sona":"7498"},{"trial_type":"turing-test","trial_index":49,"time_elapsed":141878,"internal_node_id":"0.0-8.0-2.10","subject":"2noge1ud7l3pgay","sona":"7498"},{"rt":634,"stimulus":"<p>Welche Sequenz haben Sie als natürlicher empfunden?</p>","key_press":70,"test_part":"response","test_stimulus":{"position":0,"left":"bvh/return-bottle-training2-lines.txt","right":"bvh/vr_prediction_models/model(tmp)-dataset(return-bottle)-numprim(5)-hold(2)/final-lines.txt","att_check":false},"trial_type":"html-keyboard-response","trial_index":50,"time_elapsed":142513,"internal_node_id":"0.0-8.0-3.10","subject":"2noge1ud7l3pgay","sona":"7498"},{"rt":358,"stimulus":"<p>Bereit?</p>","key_press":32,"trial_type":"html-keyboard-response","trial_index":51,"time_elapsed":142872,"internal_node_id":"0.0-8.0-0.11","subject":"2noge1ud7l3pgay","sona":"7498"},{"rt":null,"stimulus":"<div style=\"font-size:60px;\">+</div>","key_press":null,"trial_type":"html-keyboard-response","trial_index":52,"time_elapsed":144873,"internal_node_id":"0.0-8.0-1.11","subject":"2noge1ud7l3pgay","sona":"7498"},{"trial_type":"turing-test","trial_index":53,"time_elapsed":148678,"internal_node_id":"0.0-8.0-2.11","subject":"2noge1ud7l3pgay","sona":"7498"}]