[{"rt":1688,"stimulus":"<p>Welcome!<br> Please choose your language to start the experiment in the chosen language.</p><p>Willkommen!<br> Bitte wählen Sie eine Sprache, um das Experiment in der ausgewählten Sprache zu starten</p>","button_pressed":"1","trial_type":"html-button-response","trial_index":0,"time_elapsed":1708,"internal_node_id":"0.0-0.0","subject":"6lx5sonf9xj4m0b","sona":"9643"},{"view_history":"[{\"page_index\":0,\"viewing_time\":428},{\"page_index\":1,\"viewing_time\":896},{\"page_index\":2,\"viewing_time\":488},{\"page_index\":3,\"viewing_time\":1006},{\"page_index\":4,\"viewing_time\":730}]","rt":3549,"trial_type":"instructions","trial_index":1,"time_elapsed":5260,"internal_node_id":"0.0-1.0-0.0","subject":"6lx5sonf9xj4m0b","sona":"9643"},{"rt":1477,"stimulus":"<p>Bereit?</p>","key_press":32,"trial_type":"html-keyboard-response","trial_index":2,"time_elapsed":6740,"internal_node_id":"0.0-3.0","subject":"6lx5sonf9xj4m0b","sona":"9643"},{"rt":null,"stimulus":"<div style=\"font-size:60px;\">+</div>","key_press":null,"trial_type":"html-keyboard-response","trial_index":3,"time_elapsed":8768,"internal_node_id":"0.0-4.0","subject":"6lx5sonf9xj4m0b","sona":"9643"},{"trial_type":"training","trial_index":4,"time_elapsed":12479,"internal_node_id":"0.0-5.0","subject":"6lx5sonf9xj4m0b","sona":"9643"},{"rt":130,"stimulus":"<p>Welche Sequenz haben Sie als natürlicher empfunden?</p>","key_press":70,"trial_type":"html-keyboard-response","trial_index":5,"time_elapsed":12612,"internal_node_id":"0.0-6.0","subject":"6lx5sonf9xj4m0b","sona":"9643"},{"rt":2581,"stimulus":"<p>Das Experiment startet nun.</p><p><small>Bitte drücken Sie den Knopf, wenn Sie bereit sind.</small></p>","button_pressed":"0","trial_type":"html-button-response","trial_index":6,"time_elapsed":15196,"internal_node_id":"0.0-7.0","subject":"6lx5sonf9xj4m0b","sona":"9643"},{"rt":1169,"stimulus":"<p>Bereit?</p>","key_press":32,"trial_type":"html-keyboard-response","trial_index":7,"time_elapsed":16371,"internal_node_id":"0.0-8.0-0.0","subject":"6lx5sonf9xj4m0b","sona":"9643"},{"rt":null,"stimulus":"<div style=\"font-size:60px;\">+</div>","key_press":null,"trial_type":"html-keyboard-response","trial_index":8,"time_elapsed":18408,"internal_node_id":"0.0-8.0-1.0","subject":"6lx5sonf9xj4m0b","sona":"9643"},{"trial_type":"turing-test","trial_index":9,"time_elapsed":22412,"internal_node_id":"0.0-8.0-2.0","subject":"6lx5sonf9xj4m0b","sona":"9643"},{"rt":261,"stimulus":"<p>Welche Sequenz haben Sie als natürlicher empfunden?</p>","key_press":70,"test_part":"response","test_stimulus":{"position":0,"left":"bvh/return-bottle-hold-training3-lines.txt","right":"bvh/vr_prediction_models/model(vcgpdm)-dataset(return-bottle-hold)-mode(ELBO)-parts(3)-dyn(20)-lvm(20)-hold(3)/final-lines.txt","att_check":false},"trial_type":"html-keyboard-response","trial_index":10,"time_elapsed":22680,"internal_node_id":"0.0-8.0-3.0","subject":"6lx5sonf9xj4m0b","sona":"9643"},{"rt":160,"stimulus":"<p>Bereit?</p>","key_press":32,"trial_type":"html-keyboard-response","trial_index":11,"time_elapsed":22844,"internal_node_id":"0.0-8.0-0.1","subject":"6lx5sonf9xj4m0b","sona":"9643"},{"rt":null,"stimulus":"<div style=\"font-size:60px;\">+</div>","key_press":null,"trial_type":"html-keyboard-response","trial_index":12,"time_elapsed":24881,"internal_node_id":"0.0-8.0-1.1","subject":"6lx5sonf9xj4m0b","sona":"9643"},{"trial_type":"turing-test","trial_index":13,"time_elapsed":28395,"internal_node_id":"0.0-8.0-2.1","subject":"6lx5sonf9xj4m0b","sona":"9643"},{"rt":229,"stimulus":"<p>Welche Sequenz haben Sie als natürlicher empfunden?</p>","key_press":74,"test_part":"response","test_stimulus":{"position":1,"left":"bvh/vr_prediction_models/model(dmp)-dataset(return-bottle-hold)-npsi(100)-hold(1)/final-lines.txt","right":"bvh/return-bottle-hold-training1-lines.txt","att_check":true},"trial_type":"html-keyboard-response","trial_index":14,"time_elapsed":28628,"internal_node_id":"0.0-8.0-3.1","subject":"6lx5sonf9xj4m0b","sona":"9643"},{"rt":683,"stimulus":"<p>Bereit?</p>","key_press":32,"trial_type":"html-keyboard-response","trial_index":15,"time_elapsed":29314,"internal_node_id":"0.0-8.0-0.2","subject":"6lx5sonf9xj4m0b","sona":"9643"},{"rt":null,"stimulus":"<div style=\"font-size:60px;\">+</div>","key_press":null,"trial_type":"html-keyboard-response","trial_index":16,"time_elapsed":31325,"internal_node_id":"0.0-8.0-1.2","subject":"6lx5sonf9xj4m0b","sona":"9643"},{"trial_type":"turing-test","trial_index":17,"time_elapsed":34928,"internal_node_id":"0.0-8.0-2.2","subject":"6lx5sonf9xj4m0b","sona":"9643"},{"rt":268,"stimulus":"<p>Welche Sequenz haben Sie als natürlicher empfunden?</p>","key_press":70,"test_part":"response","test_stimulus":{"position":0,"left":"bvh/pass-bottle-hold-training0-lines.txt","right":"bvh/vr_prediction_models/model(vcgpdm)-dataset(pass-bottle-hold)-mode(ELBO)-parts(3)-dyn(25)-lvm(30)-hold(0)/final-lines.txt","att_check":false},"trial_type":"html-keyboard-response","trial_index":18,"time_elapsed":35201,"internal_node_id":"0.0-8.0-3.2","subject":"6lx5sonf9xj4m0b","sona":"9643"},{"rt":303,"stimulus":"<p>Bereit?</p>","key_press":32,"trial_type":"html-keyboard-response","trial_index":19,"time_elapsed":35508,"internal_node_id":"0.0-8.0-0.3","subject":"6lx5sonf9xj4m0b","sona":"9643"},{"rt":null,"stimulus":"<div style=\"font-size:60px;\">+</div>","key_press":null,"trial_type":"html-keyboard-response","trial_index":20,"time_elapsed":37549,"internal_node_id":"0.0-8.0-1.3","subject":"6lx5sonf9xj4m0b","sona":"9643"},{"trial_type":"turing-test","trial_index":21,"time_elapsed":41375,"internal_node_id":"0.0-8.0-2.3","subject":"6lx5sonf9xj4m0b","sona":"9643"},{"rt":2305,"stimulus":"<p>Welche Sequenz haben Sie als natürlicher empfunden?</p>","key_press":74,"test_part":"response","test_stimulus":{"position":0,"left":"bvh/pass-bottle-hold-training4-lines.txt","right":"bvh/vr_prediction_models/model(dmp)-dataset(pass-bottle-hold)-npsi(20)-hold(4)/final-lines.txt","att_check":false},"trial_type":"html-keyboard-response","trial_index":22,"time_elapsed":43687,"internal_node_id":"0.0-8.0-3.3","subject":"6lx5sonf9xj4m0b","sona":"9643"},{"rt":374,"stimulus":"<p>Bereit?</p>","key_press":32,"trial_type":"html-keyboard-response","trial_index":23,"time_elapsed":44064,"internal_node_id":"0.0-8.0-0.4","subject":"6lx5sonf9xj4m0b","sona":"9643"},{"rt":null,"stimulus":"<div style=\"font-size:60px;\">+</div>","key_press":null,"trial_type":"html-keyboard-response","trial_index":24,"time_elapsed":46096,"internal_node_id":"0.0-8.0-1.4","subject":"6lx5sonf9xj4m0b","sona":"9643"},{"trial_type":"turing-test","trial_index":25,"time_elapsed":49651,"internal_node_id":"0.0-8.0-2.4","subject":"6lx5sonf9xj4m0b","sona":"9643"},{"rt":276,"stimulus":"<p>Welche Sequenz haben Sie als natürlicher empfunden?</p>","key_press":70,"test_part":"response","test_stimulus":{"position":0,"left":"bvh/return-bottle-hold-training1-lines.txt","right":"bvh/vr_prediction_models/model(vcgpdm)-dataset(return-bottle-hold)-mode(ELBO)-parts(1)-dyn(10)-lvm(30)-hold(1)/final-lines.txt","att_check":false},"trial_type":"html-keyboard-response","trial_index":26,"time_elapsed":49932,"internal_node_id":"0.0-8.0-3.4","subject":"6lx5sonf9xj4m0b","sona":"9643"},{"rt":388,"stimulus":"<p>Bereit?</p>","key_press":32,"trial_type":"html-keyboard-response","trial_index":27,"time_elapsed":50322,"internal_node_id":"0.0-8.0-0.5","subject":"6lx5sonf9xj4m0b","sona":"9643"},{"rt":null,"stimulus":"<div style=\"font-size:60px;\">+</div>","key_press":null,"trial_type":"html-keyboard-response","trial_index":28,"time_elapsed":52352,"internal_node_id":"0.0-8.0-1.5","subject":"6lx5sonf9xj4m0b","sona":"9643"},{"trial_type":"turing-test","trial_index":29,"time_elapsed":55939,"internal_node_id":"0.0-8.0-2.5","subject":"6lx5sonf9xj4m0b","sona":"9643"},{"rt":268,"stimulus":"<p>Welche Sequenz haben Sie als natürlicher empfunden?</p>","key_press":74,"test_part":"response","test_stimulus":{"position":0,"left":"bvh/pass-bottle-hold-training0-lines.txt","right":"bvh/vr_prediction_models/model(vcgpdm)-dataset(pass-bottle-hold)-mode(ELBO)-parts(3)-dyn(15)-lvm(30)-hold(0)/final-lines.txt","att_check":false},"trial_type":"html-keyboard-response","trial_index":30,"time_elapsed":56210,"internal_node_id":"0.0-8.0-3.5","subject":"6lx5sonf9xj4m0b","sona":"9643"},{"rt":423,"stimulus":"<p>Bereit?</p>","key_press":32,"trial_type":"html-keyboard-response","trial_index":31,"time_elapsed":56637,"internal_node_id":"0.0-8.0-0.6","subject":"6lx5sonf9xj4m0b","sona":"9643"},{"rt":null,"stimulus":"<div style=\"font-size:60px;\">+</div>","key_press":null,"trial_type":"html-keyboard-response","trial_index":32,"time_elapsed":58659,"internal_node_id":"0.0-8.0-1.6","subject":"6lx5sonf9xj4m0b","sona":"9643"},{"trial_type":"turing-test","trial_index":33,"time_elapsed":64674,"internal_node_id":"0.0-8.0-2.6","subject":"6lx5sonf9xj4m0b","sona":"9643"},{"rt":343,"stimulus":"<p>Welche Sequenz haben Sie als natürlicher empfunden?</p>","key_press":70,"test_part":"response","test_stimulus":{"position":0,"left":"bvh/pass-bottle-training3-lines.txt","right":"bvh/vr_prediction_models/model(dmp)-dataset(pass-bottle)-npsi(100)-hold(3)/final-lines.txt","att_check":false},"trial_type":"html-keyboard-response","trial_index":34,"time_elapsed":65020,"internal_node_id":"0.0-8.0-3.6","subject":"6lx5sonf9xj4m0b","sona":"9643"},{"rt":15,"stimulus":"<p>Bereit?</p>","key_press":32,"trial_type":"html-keyboard-response","trial_index":35,"time_elapsed":65040,"internal_node_id":"0.0-8.0-0.7","subject":"6lx5sonf9xj4m0b","sona":"9643"},{"rt":null,"stimulus":"<div style=\"font-size:60px;\">+</div>","key_press":null,"trial_type":"html-keyboard-response","trial_index":36,"time_elapsed":67075,"internal_node_id":"0.0-8.0-1.7","subject":"6lx5sonf9xj4m0b","sona":"9643"},{"trial_type":"turing-test","trial_index":37,"time_elapsed":72530,"internal_node_id":"0.0-8.0-2.7","subject":"6lx5sonf9xj4m0b","sona":"9643"},{"rt":245,"stimulus":"<p>Welche Sequenz haben Sie als natürlicher empfunden?</p>","key_press":74,"test_part":"response","test_stimulus":{"position":1,"left":"bvh/vr_prediction_models/model(vcgpdm)-dataset(return-bottle-hold)-mode(ELBO)-parts(3)-dyn(20)-lvm(15)-hold(0)/final-lines.txt","right":"bvh/return-bottle-hold-training0-lines.txt","att_check":false},"trial_type":"html-keyboard-response","trial_index":38,"time_elapsed":72781,"internal_node_id":"0.0-8.0-3.7","subject":"6lx5sonf9xj4m0b","sona":"9643"},{"rt":150,"stimulus":"<p>Bereit?</p>","key_press":32,"trial_type":"html-keyboard-response","trial_index":39,"time_elapsed":72934,"internal_node_id":"0.0-8.0-0.8","subject":"6lx5sonf9xj4m0b","sona":"9643"},{"rt":null,"stimulus":"<div style=\"font-size:60px;\">+</div>","key_press":null,"trial_type":"html-keyboard-response","trial_index":40,"time_elapsed":74960,"internal_node_id":"0.0-8.0-1.8","subject":"6lx5sonf9xj4m0b","sona":"9643"},{"trial_type":"turing-test","trial_index":41,"time_elapsed":80554,"internal_node_id":"0.0-8.0-2.8","subject":"6lx5sonf9xj4m0b","sona":"9643"},{"rt":1439,"stimulus":"<p>Welche Sequenz haben Sie als natürlicher empfunden?</p>","key_press":74,"test_part":"response","test_stimulus":{"position":1,"left":"bvh/vr_prediction_models/model(tmp)-dataset(pass-bottle)-numprim(3)-hold(1)/final-lines.txt","right":"bvh/pass-bottle-training1-lines.txt","att_check":false},"trial_type":"html-keyboard-response","trial_index":42,"time_elapsed":81997,"internal_node_id":"0.0-8.0-3.8","subject":"6lx5sonf9xj4m0b","sona":"9643"},{"rt":223,"stimulus":"<p>Bereit?</p>","key_press":32,"trial_type":"html-keyboard-response","trial_index":43,"time_elapsed":82225,"internal_node_id":"0.0-8.0-0.9","subject":"6lx5sonf9xj4m0b","sona":"9643"},{"rt":null,"stimulus":"<div style=\"font-size:60px;\">+</div>","key_press":null,"trial_type":"html-keyboard-response","trial_index":44,"time_elapsed":84254,"internal_node_id":"0.0-8.0-1.9","subject":"6lx5sonf9xj4m0b","sona":"9643"},{"trial_type":"turing-test","trial_index":45,"time_elapsed":90571,"internal_node_id":"0.0-8.0-2.9","subject":"6lx5sonf9xj4m0b","sona":"9643"},{"rt":739,"stimulus":"<p>Welche Sequenz haben Sie als natürlicher empfunden?</p>","key_press":70,"test_part":"response","test_stimulus":{"position":0,"left":"bvh/return-bottle-training1-lines.txt","right":"bvh/vr_prediction_models/model(dmp)-dataset(return-bottle)-npsi(30)-hold(1)/final-lines.txt","att_check":false},"trial_type":"html-keyboard-response","trial_index":46,"time_elapsed":91313,"internal_node_id":"0.0-8.0-3.9","subject":"6lx5sonf9xj4m0b","sona":"9643"},{"rt":272,"stimulus":"<p>Bereit?</p>","key_press":32,"trial_type":"html-keyboard-response","trial_index":47,"time_elapsed":91588,"internal_node_id":"0.0-8.0-0.10","subject":"6lx5sonf9xj4m0b","sona":"9643"},{"rt":null,"stimulus":"<div style=\"font-size:60px;\">+</div>","key_press":null,"trial_type":"html-keyboard-response","trial_index":48,"time_elapsed":93611,"internal_node_id":"0.0-8.0-1.10","subject":"6lx5sonf9xj4m0b","sona":"9643"},{"trial_type":"turing-test","trial_index":49,"time_elapsed":99737,"internal_node_id":"0.0-8.0-2.10","subject":"6lx5sonf9xj4m0b","sona":"9643"},{"rt":245,"stimulus":"<p>Welche Sequenz haben Sie als natürlicher empfunden?</p>","key_press":74,"test_part":"response","test_stimulus":{"position":1,"left":"bvh/vr_prediction_models/model(vcgpdm)-dataset(return-bottle)-mode(MAP)-parts(1)-hold(4)/final-lines.txt","right":"bvh/return-bottle-training4-lines.txt","att_check":false},"trial_type":"html-keyboard-response","trial_index":50,"time_elapsed":99985,"internal_node_id":"0.0-8.0-3.10","subject":"6lx5sonf9xj4m0b","sona":"9643"},{"rt":872,"stimulus":"<p>Bereit?</p>","key_press":32,"trial_type":"html-keyboard-response","trial_index":51,"time_elapsed":100860,"internal_node_id":"0.0-8.0-0.11","subject":"6lx5sonf9xj4m0b","sona":"9643"},{"rt":null,"stimulus":"<div style=\"font-size:60px;\">+</div>","key_press":null,"trial_type":"html-keyboard-response","trial_index":52,"time_elapsed":102887,"internal_node_id":"0.0-8.0-1.11","subject":"6lx5sonf9xj4m0b","sona":"9643"},{"trial_type":"turing-test","trial_index":53,"time_elapsed":109032,"internal_node_id":"0.0-8.0-2.11","subject":"6lx5sonf9xj4m0b","sona":"9643"}]