[{"rt":2244.1449998877943,"stimulus":"<p>Welcome!<br> Please choose your language to start the experiment in the chosen language.</p><p>Willkommen!<br> Bitte wählen Sie eine Sprache, um das Experiment in der ausgewählten Sprache zu starten</p>","button_pressed":"1","trial_type":"html-button-response","trial_index":0,"time_elapsed":2259,"internal_node_id":"0.0-0.0","subject":"qc51duycf6v2xjd","sona":"6982"},{"view_history":"[{\"page_index\":0,\"viewing_time\":6558.785000117496},{\"page_index\":1,\"viewing_time\":2463.8199999462813},{\"page_index\":2,\"viewing_time\":8087.624999927357},{\"page_index\":3,\"viewing_time\":5120.035000145435},{\"page_index\":4,\"viewing_time\":1984.6049998886883}]","rt":24215.42500006035,"trial_type":"instructions","trial_index":1,"time_elapsed":26475,"internal_node_id":"0.0-1.0-0.0","subject":"qc51duycf6v2xjd","sona":"6982"},{"rt":1390.6399998813868,"stimulus":"<p>Bereit?</p>","key_press":32,"trial_type":"html-keyboard-response","trial_index":2,"time_elapsed":27867,"internal_node_id":"0.0-3.0","subject":"qc51duycf6v2xjd","sona":"6982"},{"rt":null,"stimulus":"<div style=\"font-size:60px;\">+</div>","key_press":null,"trial_type":"html-keyboard-response","trial_index":3,"time_elapsed":29883,"internal_node_id":"0.0-4.0","subject":"qc51duycf6v2xjd","sona":"6982"},{"trial_type":"training","trial_index":4,"time_elapsed":33110,"internal_node_id":"0.0-5.0","subject":"qc51duycf6v2xjd","sona":"6982"},{"rt":3419.2250000778586,"stimulus":"<p>Welche Sequenz haben Sie als natürlicher empfunden?</p>","key_press":70,"trial_type":"html-keyboard-response","trial_index":5,"time_elapsed":36530,"internal_node_id":"0.0-6.0","subject":"qc51duycf6v2xjd","sona":"6982"},{"rt":2391.5450000204146,"stimulus":"<p>Das Experiment startet nun.</p><p><small>Bitte drücken Sie den Knopf, wenn Sie bereit sind.</small></p>","button_pressed":"0","trial_type":"html-button-response","trial_index":6,"time_elapsed":38923,"internal_node_id":"0.0-7.0","subject":"qc51duycf6v2xjd","sona":"6982"},{"rt":3246.9749997835606,"stimulus":"<p>Bereit?</p>","key_press":32,"trial_type":"html-keyboard-response","trial_index":7,"time_elapsed":42170,"internal_node_id":"0.0-8.0-0.0","subject":"qc51duycf6v2xjd","sona":"6982"},{"rt":null,"stimulus":"<div style=\"font-size:60px;\">+</div>","key_press":null,"trial_type":"html-keyboard-response","trial_index":8,"time_elapsed":44173,"internal_node_id":"0.0-8.0-1.0","subject":"qc51duycf6v2xjd","sona":"6982"},{"trial_type":"turing-test","trial_index":9,"time_elapsed":47725,"internal_node_id":"0.0-8.0-2.0","subject":"qc51duycf6v2xjd","sona":"6982"},{"rt":676.5850000083447,"stimulus":"<p>Welche Sequenz haben Sie als natürlicher empfunden?</p>","key_press":74,"test_part":"response","test_stimulus":{"position":1,"left":"bvh/vr_prediction_models/model(dmp)-dataset(return-bottle-hold)-npsi(90)-hold(3)/final-lines.txt","right":"bvh/return-bottle-hold-training3-lines.txt","att_check":false},"trial_type":"html-keyboard-response","trial_index":10,"time_elapsed":48403,"internal_node_id":"0.0-8.0-3.0","subject":"qc51duycf6v2xjd","sona":"6982"},{"rt":502.22499994561076,"stimulus":"<p>Bereit?</p>","key_press":32,"trial_type":"html-keyboard-response","trial_index":11,"time_elapsed":48906,"internal_node_id":"0.0-8.0-0.1","subject":"qc51duycf6v2xjd","sona":"6982"},{"rt":null,"stimulus":"<div style=\"font-size:60px;\">+</div>","key_press":null,"trial_type":"html-keyboard-response","trial_index":12,"time_elapsed":50908,"internal_node_id":"0.0-8.0-1.1","subject":"qc51duycf6v2xjd","sona":"6982"},{"trial_type":"turing-test","trial_index":13,"time_elapsed":54127,"internal_node_id":"0.0-8.0-2.1","subject":"qc51duycf6v2xjd","sona":"6982"},{"rt":474.5549999643117,"stimulus":"<p>Welche Sequenz haben Sie als natürlicher empfunden?</p>","key_press":74,"test_part":"response","test_stimulus":{"position":1,"left":"bvh/vr_prediction_models/model(tmp)-dataset(return-bottle-hold)-numprim(8)-hold(1)/final-lines.txt","right":"bvh/return-bottle-hold-training1-lines.txt","att_check":false},"trial_type":"html-keyboard-response","trial_index":14,"time_elapsed":54602,"internal_node_id":"0.0-8.0-3.1","subject":"qc51duycf6v2xjd","sona":"6982"},{"rt":351.0250002145767,"stimulus":"<p>Bereit?</p>","key_press":32,"trial_type":"html-keyboard-response","trial_index":15,"time_elapsed":54954,"internal_node_id":"0.0-8.0-0.2","subject":"qc51duycf6v2xjd","sona":"6982"},{"rt":null,"stimulus":"<div style=\"font-size:60px;\">+</div>","key_press":null,"trial_type":"html-keyboard-response","trial_index":16,"time_elapsed":56966,"internal_node_id":"0.0-8.0-1.2","subject":"qc51duycf6v2xjd","sona":"6982"},{"trial_type":"turing-test","trial_index":17,"time_elapsed":61938,"internal_node_id":"0.0-8.0-2.2","subject":"qc51duycf6v2xjd","sona":"6982"},{"rt":663.6500000022352,"stimulus":"<p>Welche Sequenz haben Sie als natürlicher empfunden?</p>","key_press":70,"test_part":"response","test_stimulus":{"position":0,"left":"bvh/return-bottle-hold-training0-lines.txt","right":"bvh/vr_prediction_models/model(dmp)-dataset(return-bottle-hold)-npsi(10)-hold(0)/final-lines.txt","att_check":false},"trial_type":"html-keyboard-response","trial_index":18,"time_elapsed":62602,"internal_node_id":"0.0-8.0-3.2","subject":"qc51duycf6v2xjd","sona":"6982"},{"rt":351.03000001981854,"stimulus":"<p>Bereit?</p>","key_press":32,"trial_type":"html-keyboard-response","trial_index":19,"time_elapsed":62954,"internal_node_id":"0.0-8.0-0.3","subject":"qc51duycf6v2xjd","sona":"6982"},{"rt":null,"stimulus":"<div style=\"font-size:60px;\">+</div>","key_press":null,"trial_type":"html-keyboard-response","trial_index":20,"time_elapsed":64956,"internal_node_id":"0.0-8.0-1.3","subject":"qc51duycf6v2xjd","sona":"6982"},{"trial_type":"turing-test","trial_index":21,"time_elapsed":70613,"internal_node_id":"0.0-8.0-2.3","subject":"qc51duycf6v2xjd","sona":"6982"},{"rt":443.629999877885,"stimulus":"<p>Welche Sequenz haben Sie als natürlicher empfunden?</p>","key_press":74,"test_part":"response","test_stimulus":{"position":1,"left":"bvh/vr_prediction_models/model(vcgpdm)-dataset(return-bottle)-mode(ELBO)-parts(1)-dyn(20)-lvm(30)-hold(3)/final-lines.txt","right":"bvh/return-bottle-training3-lines.txt","att_check":false},"trial_type":"html-keyboard-response","trial_index":22,"time_elapsed":71058,"internal_node_id":"0.0-8.0-3.3","subject":"qc51duycf6v2xjd","sona":"6982"},{"rt":430.29500008560717,"stimulus":"<p>Bereit?</p>","key_press":32,"trial_type":"html-keyboard-response","trial_index":23,"time_elapsed":71490,"internal_node_id":"0.0-8.0-0.4","subject":"qc51duycf6v2xjd","sona":"6982"},{"rt":null,"stimulus":"<div style=\"font-size:60px;\">+</div>","key_press":null,"trial_type":"html-keyboard-response","trial_index":24,"time_elapsed":73492,"internal_node_id":"0.0-8.0-1.4","subject":"qc51duycf6v2xjd","sona":"6982"},{"trial_type":"turing-test","trial_index":25,"time_elapsed":78802,"internal_node_id":"0.0-8.0-2.4","subject":"qc51duycf6v2xjd","sona":"6982"},{"rt":694.2849999759346,"stimulus":"<p>Welche Sequenz haben Sie als natürlicher empfunden?</p>","key_press":74,"test_part":"response","test_stimulus":{"position":0,"left":"bvh/return-bottle-training0-lines.txt","right":"bvh/vr_prediction_models/model(vcgpdm)-dataset(return-bottle)-mode(ELBO)-parts(1)-dyn(10)-lvm(5)-hold(0)/final-lines.txt","att_check":false},"trial_type":"html-keyboard-response","trial_index":26,"time_elapsed":79498,"internal_node_id":"0.0-8.0-3.4","subject":"qc51duycf6v2xjd","sona":"6982"},{"rt":310.67000003531575,"stimulus":"<p>Bereit?</p>","key_press":32,"trial_type":"html-keyboard-response","trial_index":27,"time_elapsed":79809,"internal_node_id":"0.0-8.0-0.5","subject":"qc51duycf6v2xjd","sona":"6982"},{"rt":null,"stimulus":"<div style=\"font-size:60px;\">+</div>","key_press":null,"trial_type":"html-keyboard-response","trial_index":28,"time_elapsed":81811,"internal_node_id":"0.0-8.0-1.5","subject":"qc51duycf6v2xjd","sona":"6982"},{"trial_type":"turing-test","trial_index":29,"time_elapsed":85287,"internal_node_id":"0.0-8.0-2.5","subject":"qc51duycf6v2xjd","sona":"6982"},{"rt":960.8599999919534,"stimulus":"<p>Welche Sequenz haben Sie als natürlicher empfunden?</p>","key_press":70,"test_part":"response","test_stimulus":{"position":0,"left":"bvh/pass-bottle-hold-training3-lines.txt","right":"bvh/vr_prediction_models/model(vcgpdm)-dataset(pass-bottle-hold)-mode(ELBO)-parts(3)-dyn(10)-lvm(25)-hold(3)/final-lines.txt","att_check":false},"trial_type":"html-keyboard-response","trial_index":30,"time_elapsed":86250,"internal_node_id":"0.0-8.0-3.5","subject":"qc51duycf6v2xjd","sona":"6982"},{"rt":223.29999995417893,"stimulus":"<p>Bereit?</p>","key_press":32,"trial_type":"html-keyboard-response","trial_index":31,"time_elapsed":86474,"internal_node_id":"0.0-8.0-0.6","subject":"qc51duycf6v2xjd","sona":"6982"},{"rt":null,"stimulus":"<div style=\"font-size:60px;\">+</div>","key_press":null,"trial_type":"html-keyboard-response","trial_index":32,"time_elapsed":88476,"internal_node_id":"0.0-8.0-1.6","subject":"qc51duycf6v2xjd","sona":"6982"},{"trial_type":"turing-test","trial_index":33,"time_elapsed":91938,"internal_node_id":"0.0-8.0-2.6","subject":"qc51duycf6v2xjd","sona":"6982"},{"rt":910.450000083074,"stimulus":"<p>Welche Sequenz haben Sie als natürlicher empfunden?</p>","key_press":70,"test_part":"response","test_stimulus":{"position":1,"left":"bvh/vr_prediction_models/model(dmp)-dataset(pass-bottle-hold)-npsi(50)-hold(4)/final-lines.txt","right":"bvh/pass-bottle-hold-training4-lines.txt","att_check":false},"trial_type":"html-keyboard-response","trial_index":34,"time_elapsed":92850,"internal_node_id":"0.0-8.0-3.6","subject":"qc51duycf6v2xjd","sona":"6982"},{"rt":231.2849999871105,"stimulus":"<p>Bereit?</p>","key_press":32,"trial_type":"html-keyboard-response","trial_index":35,"time_elapsed":93082,"internal_node_id":"0.0-8.0-0.7","subject":"qc51duycf6v2xjd","sona":"6982"},{"rt":null,"stimulus":"<div style=\"font-size:60px;\">+</div>","key_press":null,"trial_type":"html-keyboard-response","trial_index":36,"time_elapsed":95097,"internal_node_id":"0.0-8.0-1.7","subject":"qc51duycf6v2xjd","sona":"6982"},{"trial_type":"turing-test","trial_index":37,"time_elapsed":98663,"internal_node_id":"0.0-8.0-2.7","subject":"qc51duycf6v2xjd","sona":"6982"},{"rt":673.1900000013411,"stimulus":"<p>Welche Sequenz haben Sie als natürlicher empfunden?</p>","key_press":74,"test_part":"response","test_stimulus":{"position":1,"left":"bvh/vr_prediction_models/model(vcgpdm)-dataset(pass-bottle-hold)-mode(MAP)-parts(1)-hold(4)/final-lines.txt","right":"bvh/pass-bottle-hold-training4-lines.txt","att_check":false},"trial_type":"html-keyboard-response","trial_index":38,"time_elapsed":99338,"internal_node_id":"0.0-8.0-3.7","subject":"qc51duycf6v2xjd","sona":"6982"},{"rt":207.0250001270324,"stimulus":"<p>Bereit?</p>","key_press":32,"trial_type":"html-keyboard-response","trial_index":39,"time_elapsed":99546,"internal_node_id":"0.0-8.0-0.8","subject":"qc51duycf6v2xjd","sona":"6982"},{"rt":null,"stimulus":"<div style=\"font-size:60px;\">+</div>","key_press":null,"trial_type":"html-keyboard-response","trial_index":40,"time_elapsed":101549,"internal_node_id":"0.0-8.0-1.8","subject":"qc51duycf6v2xjd","sona":"6982"},{"trial_type":"turing-test","trial_index":41,"time_elapsed":105139,"internal_node_id":"0.0-8.0-2.8","subject":"qc51duycf6v2xjd","sona":"6982"},{"rt":1677.644999930635,"stimulus":"<p>Welche Sequenz haben Sie als natürlicher empfunden?</p>","key_press":70,"test_part":"response","test_stimulus":{"position":0,"left":"bvh/return-bottle-hold-training4-lines.txt","right":"bvh/vr_prediction_models/model(tmp)-dataset(return-bottle-hold)-numprim(12)-hold(4)/final-lines.txt","att_check":false},"trial_type":"html-keyboard-response","trial_index":42,"time_elapsed":106818,"internal_node_id":"0.0-8.0-3.8","subject":"qc51duycf6v2xjd","sona":"6982"},{"rt":246.53500015847385,"stimulus":"<p>Bereit?</p>","key_press":32,"trial_type":"html-keyboard-response","trial_index":43,"time_elapsed":107065,"internal_node_id":"0.0-8.0-0.9","subject":"qc51duycf6v2xjd","sona":"6982"},{"rt":null,"stimulus":"<div style=\"font-size:60px;\">+</div>","key_press":null,"trial_type":"html-keyboard-response","trial_index":44,"time_elapsed":109069,"internal_node_id":"0.0-8.0-1.9","subject":"qc51duycf6v2xjd","sona":"6982"},{"trial_type":"turing-test","trial_index":45,"time_elapsed":112654,"internal_node_id":"0.0-8.0-2.9","subject":"qc51duycf6v2xjd","sona":"6982"},{"rt":890.855000121519,"stimulus":"<p>Welche Sequenz haben Sie als natürlicher empfunden?</p>","key_press":74,"test_part":"response","test_stimulus":{"position":0,"left":"bvh/return-bottle-hold-training4-lines.txt","right":"bvh/vr_prediction_models/model(tmp)-dataset(return-bottle-hold)-numprim(9)-hold(4)/final-lines.txt","att_check":false},"trial_type":"html-keyboard-response","trial_index":46,"time_elapsed":113546,"internal_node_id":"0.0-8.0-3.9","subject":"qc51duycf6v2xjd","sona":"6982"},{"rt":206.92000002600253,"stimulus":"<p>Bereit?</p>","key_press":32,"trial_type":"html-keyboard-response","trial_index":47,"time_elapsed":113754,"internal_node_id":"0.0-8.0-0.10","subject":"qc51duycf6v2xjd","sona":"6982"},{"rt":null,"stimulus":"<div style=\"font-size:60px;\">+</div>","key_press":null,"trial_type":"html-keyboard-response","trial_index":48,"time_elapsed":115762,"internal_node_id":"0.0-8.0-1.10","subject":"qc51duycf6v2xjd","sona":"6982"},{"trial_type":"turing-test","trial_index":49,"time_elapsed":121822,"internal_node_id":"0.0-8.0-2.10","subject":"qc51duycf6v2xjd","sona":"6982"},{"rt":579.3449999764562,"stimulus":"<p>Welche Sequenz haben Sie als natürlicher empfunden?</p>","key_press":74,"test_part":"response","test_stimulus":{"position":1,"left":"bvh/vr_prediction_models/model(vcgpdm)-dataset(pass-bottle)-mode(MAP)-parts(3)-hold(2)/final-lines.txt","right":"bvh/pass-bottle-training2-lines.txt","att_check":false},"trial_type":"html-keyboard-response","trial_index":50,"time_elapsed":122403,"internal_node_id":"0.0-8.0-3.10","subject":"qc51duycf6v2xjd","sona":"6982"},{"rt":278.96000002510846,"stimulus":"<p>Bereit?</p>","key_press":32,"trial_type":"html-keyboard-response","trial_index":51,"time_elapsed":122683,"internal_node_id":"0.0-8.0-0.11","subject":"qc51duycf6v2xjd","sona":"6982"},{"rt":null,"stimulus":"<div style=\"font-size:60px;\">+</div>","key_press":null,"trial_type":"html-keyboard-response","trial_index":52,"time_elapsed":124685,"internal_node_id":"0.0-8.0-1.11","subject":"qc51duycf6v2xjd","sona":"6982"},{"trial_type":"turing-test","trial_index":53,"time_elapsed":127770,"internal_node_id":"0.0-8.0-2.11","subject":"qc51duycf6v2xjd","sona":"6982"},{"rt":759.3300000298768,"stimulus":"<p>Welche Sequenz haben Sie als natürlicher empfunden?</p>","key_press":74,"test_part":"response","test_stimulus":{"position":0,"left":"bvh/pass-bottle-hold-training1-lines.txt","right":"bvh/vr_prediction_models/model(dmp)-dataset(pass-bottle-hold)-npsi(90)-hold(1)/final-lines.txt","att_check":false},"trial_type":"html-keyboard-response","trial_index":54,"time_elapsed":128530,"internal_node_id":"0.0-8.0-3.11","subject":"qc51duycf6v2xjd","sona":"6982"},{"rt":214.4049999769777,"stimulus":"<p>Bereit?</p>","key_press":32,"trial_type":"html-keyboard-response","trial_index":55,"time_elapsed":128746,"internal_node_id":"0.0-8.0-0.12","subject":"qc51duycf6v2xjd","sona":"6982"},{"rt":null,"stimulus":"<div style=\"font-size:60px;\">+</div>","key_press":null,"trial_type":"html-keyboard-response","trial_index":56,"time_elapsed":130755,"internal_node_id":"0.0-8.0-1.12","subject":"qc51duycf6v2xjd","sona":"6982"},{"trial_type":"turing-test","trial_index":57,"time_elapsed":133978,"internal_node_id":"0.0-8.0-2.12","subject":"qc51duycf6v2xjd","sona":"6982"},{"rt":463.9000000897795,"stimulus":"<p>Welche Sequenz haben Sie als natürlicher empfunden?</p>","key_press":74,"test_part":"response","test_stimulus":{"position":1,"left":"bvh/vr_prediction_models/model(dmp)-dataset(return-bottle-hold)-npsi(80)-hold(1)/final-lines.txt","right":"bvh/return-bottle-hold-training1-lines.txt","att_check":false},"trial_type":"html-keyboard-response","trial_index":58,"time_elapsed":134443,"internal_node_id":"0.0-8.0-3.12","subject":"qc51duycf6v2xjd","sona":"6982"},{"rt":206.20499993674457,"stimulus":"<p>Bereit?</p>","key_press":32,"trial_type":"html-keyboard-response","trial_index":59,"time_elapsed":134650,"internal_node_id":"0.0-8.0-0.13","subject":"qc51duycf6v2xjd","sona":"6982"},{"rt":null,"stimulus":"<div style=\"font-size:60px;\">+</div>","key_press":null,"trial_type":"html-keyboard-response","trial_index":60,"time_elapsed":136653,"internal_node_id":"0.0-8.0-1.13","subject":"qc51duycf6v2xjd","sona":"6982"},{"trial_type":"turing-test","trial_index":61,"time_elapsed":143305,"internal_node_id":"0.0-8.0-2.13","subject":"qc51duycf6v2xjd","sona":"6982"},{"rt":472.27499983273447,"stimulus":"<p>Welche Sequenz haben Sie als natürlicher empfunden?</p>","key_press":74,"test_part":"response","test_stimulus":{"position":1,"left":"bvh/vr_prediction_models/model(vcgpdm)-dataset(pass-bottle)-mode(ELBO)-parts(3)-dyn(20)-lvm(35)-hold(0)/final-lines.txt","right":"bvh/pass-bottle-training0-lines.txt","att_check":false},"trial_type":"html-keyboard-response","trial_index":62,"time_elapsed":143778,"internal_node_id":"0.0-8.0-3.13","subject":"qc51duycf6v2xjd","sona":"6982"},{"rt":254.96000004932284,"stimulus":"<p>Bereit?</p>","key_press":32,"trial_type":"html-keyboard-response","trial_index":63,"time_elapsed":144034,"internal_node_id":"0.0-8.0-0.14","subject":"qc51duycf6v2xjd","sona":"6982"},{"rt":null,"stimulus":"<div style=\"font-size:60px;\">+</div>","key_press":null,"trial_type":"html-keyboard-response","trial_index":64,"time_elapsed":146037,"internal_node_id":"0.0-8.0-1.14","subject":"qc51duycf6v2xjd","sona":"6982"},{"trial_type":"turing-test","trial_index":65,"time_elapsed":151001,"internal_node_id":"0.0-8.0-2.14","subject":"qc51duycf6v2xjd","sona":"6982"},{"rt":672.2199998330325,"stimulus":"<p>Welche Sequenz haben Sie als natürlicher empfunden?</p>","key_press":74,"test_part":"response","test_stimulus":{"position":1,"left":"bvh/vr_prediction_models/model(tmp)-dataset(return-bottle-hold)-numprim(5)-hold(0)/final-lines.txt","right":"bvh/return-bottle-hold-training0-lines.txt","att_check":false},"trial_type":"html-keyboard-response","trial_index":66,"time_elapsed":151674,"internal_node_id":"0.0-8.0-3.14","subject":"qc51duycf6v2xjd","sona":"6982"},{"rt":390.9599999897182,"stimulus":"<p>Bereit?</p>","key_press":32,"trial_type":"html-keyboard-response","trial_index":67,"time_elapsed":152066,"internal_node_id":"0.0-8.0-0.15","subject":"qc51duycf6v2xjd","sona":"6982"},{"rt":null,"stimulus":"<div style=\"font-size:60px;\">+</div>","key_press":null,"trial_type":"html-keyboard-response","trial_index":68,"time_elapsed":154069,"internal_node_id":"0.0-8.0-1.15","subject":"qc51duycf6v2xjd","sona":"6982"},{"trial_type":"turing-test","trial_index":69,"time_elapsed":157333,"internal_node_id":"0.0-8.0-2.15","subject":"qc51duycf6v2xjd","sona":"6982"},{"rt":324.0950000472367,"stimulus":"<p>Welche Sequenz haben Sie als natürlicher empfunden?</p>","key_press":70,"test_part":"response","test_stimulus":{"position":1,"left":"bvh/vr_prediction_models/model(vcgpdm)-dataset(pass-bottle-hold)-mode(ELBO)-parts(1)-dyn(35)-lvm(10)-hold(0)/final-lines.txt","right":"bvh/pass-bottle-hold-training0-lines.txt","att_check":false},"trial_type":"html-keyboard-response","trial_index":70,"time_elapsed":157658,"internal_node_id":"0.0-8.0-3.15","subject":"qc51duycf6v2xjd","sona":"6982"},{"rt":247.05499992705882,"stimulus":"<p>Bereit?</p>","key_press":32,"trial_type":"html-keyboard-response","trial_index":71,"time_elapsed":157906,"internal_node_id":"0.0-8.0-0.16","subject":"qc51duycf6v2xjd","sona":"6982"},{"rt":null,"stimulus":"<div style=\"font-size:60px;\">+</div>","key_press":null,"trial_type":"html-keyboard-response","trial_index":72,"time_elapsed":159908,"internal_node_id":"0.0-8.0-1.16","subject":"qc51duycf6v2xjd","sona":"6982"},{"trial_type":"turing-test","trial_index":73,"time_elapsed":163121,"internal_node_id":"0.0-8.0-2.16","subject":"qc51duycf6v2xjd","sona":"6982"},{"rt":327.67000002786517,"stimulus":"<p>Welche Sequenz haben Sie als natürlicher empfunden?</p>","key_press":70,"test_part":"response","test_stimulus":{"position":0,"left":"bvh/pass-bottle-hold-training2-lines.txt","right":"bvh/vr_prediction_models/model(dmp)-dataset(pass-bottle-hold)-npsi(50)-hold(2)/final-lines.txt","att_check":false},"trial_type":"html-keyboard-response","trial_index":74,"time_elapsed":163450,"internal_node_id":"0.0-8.0-3.16","subject":"qc51duycf6v2xjd","sona":"6982"},{"rt":239.10999996587634,"stimulus":"<p>Bereit?</p>","key_press":32,"trial_type":"html-keyboard-response","trial_index":75,"time_elapsed":163690,"internal_node_id":"0.0-8.0-0.17","subject":"qc51duycf6v2xjd","sona":"6982"},{"rt":null,"stimulus":"<div style=\"font-size:60px;\">+</div>","key_press":null,"trial_type":"html-keyboard-response","trial_index":76,"time_elapsed":165692,"internal_node_id":"0.0-8.0-1.17","subject":"qc51duycf6v2xjd","sona":"6982"},{"trial_type":"turing-test","trial_index":77,"time_elapsed":171048,"internal_node_id":"0.0-8.0-2.17","subject":"qc51duycf6v2xjd","sona":"6982"},{"rt":744.4899999536574,"stimulus":"<p>Welche Sequenz haben Sie als natürlicher empfunden?</p>","key_press":74,"test_part":"response","test_stimulus":{"position":1,"left":"bvh/vr_prediction_models/model(vcgpdm)-dataset(pass-bottle)-mode(ELBO)-parts(3)-dyn(10)-lvm(25)-hold(1)/final-lines.txt","right":"bvh/pass-bottle-training1-lines.txt","att_check":false},"trial_type":"html-keyboard-response","trial_index":78,"time_elapsed":171794,"internal_node_id":"0.0-8.0-3.17","subject":"qc51duycf6v2xjd","sona":"6982"},{"rt":231.18999996222556,"stimulus":"<p>Bereit?</p>","key_press":32,"trial_type":"html-keyboard-response","trial_index":79,"time_elapsed":172026,"internal_node_id":"0.0-8.0-0.18","subject":"qc51duycf6v2xjd","sona":"6982"},{"rt":null,"stimulus":"<div style=\"font-size:60px;\">+</div>","key_press":null,"trial_type":"html-keyboard-response","trial_index":80,"time_elapsed":174033,"internal_node_id":"0.0-8.0-1.18","subject":"qc51duycf6v2xjd","sona":"6982"},{"trial_type":"turing-test","trial_index":81,"time_elapsed":179288,"internal_node_id":"0.0-8.0-2.18","subject":"qc51duycf6v2xjd","sona":"6982"},{"rt":648.3000000007451,"stimulus":"<p>Welche Sequenz haben Sie als natürlicher empfunden?</p>","key_press":74,"test_part":"response","test_stimulus":{"position":0,"left":"bvh/return-bottle-training0-lines.txt","right":"bvh/vr_prediction_models/model(tmp)-dataset(return-bottle)-numprim(10)-hold(0)/final-lines.txt","att_check":false},"trial_type":"html-keyboard-response","trial_index":82,"time_elapsed":179938,"internal_node_id":"0.0-8.0-3.18","subject":"qc51duycf6v2xjd","sona":"6982"},{"rt":238.62499999813735,"stimulus":"<p>Bereit?</p>","key_press":32,"trial_type":"html-keyboard-response","trial_index":83,"time_elapsed":180178,"internal_node_id":"0.0-8.0-0.19","subject":"qc51duycf6v2xjd","sona":"6982"},{"rt":null,"stimulus":"<div style=\"font-size:60px;\">+</div>","key_press":null,"trial_type":"html-keyboard-response","trial_index":84,"time_elapsed":182181,"internal_node_id":"0.0-8.0-1.19","subject":"qc51duycf6v2xjd","sona":"6982"},{"trial_type":"turing-test","trial_index":85,"time_elapsed":185689,"internal_node_id":"0.0-8.0-2.19","subject":"qc51duycf6v2xjd","sona":"6982"},{"rt":503.5749999806285,"stimulus":"<p>Welche Sequenz haben Sie als natürlicher empfunden?</p>","key_press":70,"test_part":"response","test_stimulus":{"position":0,"left":"bvh/pass-bottle-hold-training4-lines.txt","right":"bvh/vr_prediction_models/model(vcgpdm)-dataset(pass-bottle-hold)-mode(ELBO)-parts(3)-dyn(20)-lvm(20)-hold(4)/final-lines.txt","att_check":false},"trial_type":"html-keyboard-response","trial_index":86,"time_elapsed":186194,"internal_node_id":"0.0-8.0-3.19","subject":"qc51duycf6v2xjd","sona":"6982"},{"rt":422.7799999061972,"stimulus":"<p>Bereit?</p>","key_press":32,"trial_type":"html-keyboard-response","trial_index":87,"time_elapsed":186618,"internal_node_id":"0.0-8.0-0.20","subject":"qc51duycf6v2xjd","sona":"6982"},{"rt":null,"stimulus":"<div style=\"font-size:60px;\">+</div>","key_press":null,"trial_type":"html-keyboard-response","trial_index":88,"time_elapsed":188621,"internal_node_id":"0.0-8.0-1.20","subject":"qc51duycf6v2xjd","sona":"6982"},{"trial_type":"turing-test","trial_index":89,"time_elapsed":194018,"internal_node_id":"0.0-8.0-2.20","subject":"qc51duycf6v2xjd","sona":"6982"},{"rt":2182.8399999067187,"stimulus":"<p>Welche Sequenz haben Sie als natürlicher empfunden?</p>","key_press":70,"test_part":"response","test_stimulus":{"position":1,"left":"bvh/vr_prediction_models/model(vcgpdm)-dataset(pass-bottle)-mode(ELBO)-parts(3)-dyn(20)-lvm(20)-hold(1)/final-lines.txt","right":"bvh/pass-bottle-training1-lines.txt","att_check":false},"trial_type":"html-keyboard-response","trial_index":90,"time_elapsed":196202,"internal_node_id":"0.0-8.0-3.20","subject":"qc51duycf6v2xjd","sona":"6982"},{"rt":182.98000004142523,"stimulus":"<p>Bereit?</p>","key_press":32,"trial_type":"html-keyboard-response","trial_index":91,"time_elapsed":196386,"internal_node_id":"0.0-8.0-0.21","subject":"qc51duycf6v2xjd","sona":"6982"},{"rt":null,"stimulus":"<div style=\"font-size:60px;\">+</div>","key_press":null,"trial_type":"html-keyboard-response","trial_index":92,"time_elapsed":198388,"internal_node_id":"0.0-8.0-1.21","subject":"qc51duycf6v2xjd","sona":"6982"},{"trial_type":"turing-test","trial_index":93,"time_elapsed":201471,"internal_node_id":"0.0-8.0-2.21","subject":"qc51duycf6v2xjd","sona":"6982"},{"rt":610.0200000219047,"stimulus":"<p>Welche Sequenz haben Sie als natürlicher empfunden?</p>","key_press":74,"test_part":"response","test_stimulus":{"position":0,"left":"bvh/pass-bottle-hold-training1-lines.txt","right":"bvh/vr_prediction_models/model(tmp)-dataset(pass-bottle-hold)-numprim(14)-hold(1)/final-lines.txt","att_check":false},"trial_type":"html-keyboard-response","trial_index":94,"time_elapsed":202082,"internal_node_id":"0.0-8.0-3.21","subject":"qc51duycf6v2xjd","sona":"6982"},{"rt":263.59499990940094,"stimulus":"<p>Bereit?</p>","key_press":32,"trial_type":"html-keyboard-response","trial_index":95,"time_elapsed":202347,"internal_node_id":"0.0-8.0-0.22","subject":"qc51duycf6v2xjd","sona":"6982"},{"rt":null,"stimulus":"<div style=\"font-size:60px;\">+</div>","key_press":null,"trial_type":"html-keyboard-response","trial_index":96,"time_elapsed":204348,"internal_node_id":"0.0-8.0-1.22","subject":"qc51duycf6v2xjd","sona":"6982"},{"trial_type":"turing-test","trial_index":97,"time_elapsed":209697,"internal_node_id":"0.0-8.0-2.22","subject":"qc51duycf6v2xjd","sona":"6982"},{"rt":416.4099998306483,"stimulus":"<p>Welche Sequenz haben Sie als natürlicher empfunden?</p>","key_press":74,"test_part":"response","test_stimulus":{"position":1,"left":"bvh/vr_prediction_models/model(tmp)-dataset(pass-bottle)-numprim(13)-hold(1)/final-lines.txt","right":"bvh/pass-bottle-training1-lines.txt","att_check":false},"trial_type":"html-keyboard-response","trial_index":98,"time_elapsed":210114,"internal_node_id":"0.0-8.0-3.22","subject":"qc51duycf6v2xjd","sona":"6982"},{"rt":214.46499996818602,"stimulus":"<p>Bereit?</p>","key_press":32,"trial_type":"html-keyboard-response","trial_index":99,"time_elapsed":210330,"internal_node_id":"0.0-8.0-0.23","subject":"qc51duycf6v2xjd","sona":"6982"},{"rt":null,"stimulus":"<div style=\"font-size:60px;\">+</div>","key_press":null,"trial_type":"html-keyboard-response","trial_index":100,"time_elapsed":212333,"internal_node_id":"0.0-8.0-1.23","subject":"qc51duycf6v2xjd","sona":"6982"},{"trial_type":"turing-test","trial_index":101,"time_elapsed":215423,"internal_node_id":"0.0-8.0-2.23","subject":"qc51duycf6v2xjd","sona":"6982"},{"rt":4161.384999984875,"stimulus":"<p>Welche Sequenz haben Sie als natürlicher empfunden?</p>","key_press":74,"test_part":"response","test_stimulus":{"position":1,"left":"bvh/vr_prediction_models/model(tmp)-dataset(pass-bottle-hold)-numprim(10)-hold(1)/final-lines.txt","right":"bvh/pass-bottle-hold-training1-lines.txt","att_check":false},"trial_type":"html-keyboard-response","trial_index":102,"time_elapsed":219586,"internal_node_id":"0.0-8.0-3.23","subject":"qc51duycf6v2xjd","sona":"6982"},{"rt":318.28000000678,"stimulus":"<p>Bereit?</p>","key_press":32,"trial_type":"html-keyboard-response","trial_index":103,"time_elapsed":219906,"internal_node_id":"0.0-8.0-0.24","subject":"qc51duycf6v2xjd","sona":"6982"},{"rt":null,"stimulus":"<div style=\"font-size:60px;\">+</div>","key_press":null,"trial_type":"html-keyboard-response","trial_index":104,"time_elapsed":221908,"internal_node_id":"0.0-8.0-1.24","subject":"qc51duycf6v2xjd","sona":"6982"},{"trial_type":"turing-test","trial_index":105,"time_elapsed":225177,"internal_node_id":"0.0-8.0-2.24","subject":"qc51duycf6v2xjd","sona":"6982"},{"rt":640.0150000117719,"stimulus":"<p>Welche Sequenz haben Sie als natürlicher empfunden?</p>","key_press":70,"test_part":"response","test_stimulus":{"position":0,"left":"bvh/pass-bottle-hold-training2-lines.txt","right":"bvh/vr_prediction_models/model(vcgpdm)-dataset(pass-bottle-hold)-mode(ELBO)-parts(3)-dyn(25)-lvm(15)-hold(2)/final-lines.txt","att_check":false},"trial_type":"html-keyboard-response","trial_index":106,"time_elapsed":225818,"internal_node_id":"0.0-8.0-3.24","subject":"qc51duycf6v2xjd","sona":"6982"},{"rt":254.42499993368983,"stimulus":"<p>Bereit?</p>","key_press":32,"trial_type":"html-keyboard-response","trial_index":107,"time_elapsed":226074,"internal_node_id":"0.0-8.0-0.25","subject":"qc51duycf6v2xjd","sona":"6982"},{"rt":null,"stimulus":"<div style=\"font-size:60px;\">+</div>","key_press":null,"trial_type":"html-keyboard-response","trial_index":108,"time_elapsed":228077,"internal_node_id":"0.0-8.0-1.25","subject":"qc51duycf6v2xjd","sona":"6982"},{"trial_type":"turing-test","trial_index":109,"time_elapsed":231365,"internal_node_id":"0.0-8.0-2.25","subject":"qc51duycf6v2xjd","sona":"6982"},{"rt":275.74499999172986,"stimulus":"<p>Welche Sequenz haben Sie als natürlicher empfunden?</p>","key_press":70,"test_part":"response","test_stimulus":{"position":0,"left":"bvh/pass-bottle-hold-training0-lines.txt","right":"bvh/vr_prediction_models/model(vcgpdm)-dataset(pass-bottle-hold)-mode(ELBO)-parts(1)-dyn(25)-lvm(35)-hold(0)/final-lines.txt","att_check":false},"trial_type":"html-keyboard-response","trial_index":110,"time_elapsed":231642,"internal_node_id":"0.0-8.0-3.25","subject":"qc51duycf6v2xjd","sona":"6982"},{"rt":263.0200001876801,"stimulus":"<p>Bereit?</p>","key_press":32,"trial_type":"html-keyboard-response","trial_index":111,"time_elapsed":231906,"internal_node_id":"0.0-8.0-0.26","subject":"qc51duycf6v2xjd","sona":"6982"},{"rt":null,"stimulus":"<div style=\"font-size:60px;\">+</div>","key_press":null,"trial_type":"html-keyboard-response","trial_index":112,"time_elapsed":233908,"internal_node_id":"0.0-8.0-1.26","subject":"qc51duycf6v2xjd","sona":"6982"},{"trial_type":"turing-test","trial_index":113,"time_elapsed":237416,"internal_node_id":"0.0-8.0-2.26","subject":"qc51duycf6v2xjd","sona":"6982"},{"rt":391.8300000950694,"stimulus":"<p>Welche Sequenz haben Sie als natürlicher empfunden?</p>","key_press":74,"test_part":"response","test_stimulus":{"position":0,"left":"bvh/pass-bottle-hold-training4-lines.txt","right":"bvh/vr_prediction_models/model(vcgpdm)-dataset(pass-bottle-hold)-mode(ELBO)-parts(3)-dyn(15)-lvm(30)-hold(4)/final-lines.txt","att_check":false},"trial_type":"html-keyboard-response","trial_index":114,"time_elapsed":237810,"internal_node_id":"0.0-8.0-3.26","subject":"qc51duycf6v2xjd","sona":"6982"},{"rt":191.08999986201525,"stimulus":"<p>Bereit?</p>","key_press":32,"trial_type":"html-keyboard-response","trial_index":115,"time_elapsed":238002,"internal_node_id":"0.0-8.0-0.27","subject":"qc51duycf6v2xjd","sona":"6982"},{"rt":null,"stimulus":"<div style=\"font-size:60px;\">+</div>","key_press":null,"trial_type":"html-keyboard-response","trial_index":116,"time_elapsed":240006,"internal_node_id":"0.0-8.0-1.27","subject":"qc51duycf6v2xjd","sona":"6982"},{"trial_type":"turing-test","trial_index":117,"time_elapsed":243496,"internal_node_id":"0.0-8.0-2.27","subject":"qc51duycf6v2xjd","sona":"6982"},{"rt":521.004999987781,"stimulus":"<p>Welche Sequenz haben Sie als natürlicher empfunden?</p>","key_press":74,"test_part":"response","test_stimulus":{"position":0,"left":"bvh/return-bottle-hold-training2-lines.txt","right":"bvh/vr_prediction_models/model(vcgpdm)-dataset(return-bottle-hold)-mode(ELBO)-parts(1)-dyn(35)-lvm(30)-hold(2)/final-lines.txt","att_check":false},"trial_type":"html-keyboard-response","trial_index":118,"time_elapsed":244018,"internal_node_id":"0.0-8.0-3.27","subject":"qc51duycf6v2xjd","sona":"6982"},{"rt":214.95499997399747,"stimulus":"<p>Bereit?</p>","key_press":32,"trial_type":"html-keyboard-response","trial_index":119,"time_elapsed":244234,"internal_node_id":"0.0-8.0-0.28","subject":"qc51duycf6v2xjd","sona":"6982"},{"rt":null,"stimulus":"<div style=\"font-size:60px;\">+</div>","key_press":null,"trial_type":"html-keyboard-response","trial_index":120,"time_elapsed":246235,"internal_node_id":"0.0-8.0-1.28","subject":"qc51duycf6v2xjd","sona":"6982"},{"trial_type":"turing-test","trial_index":121,"time_elapsed":252168,"internal_node_id":"0.0-8.0-2.28","subject":"qc51duycf6v2xjd","sona":"6982"},{"rt":447.66499986872077,"stimulus":"<p>Welche Sequenz haben Sie als natürlicher empfunden?</p>","key_press":70,"test_part":"response","test_stimulus":{"position":0,"left":"bvh/return-bottle-training1-lines.txt","right":"bvh/vr_prediction_models/model(dmp)-dataset(return-bottle)-npsi(80)-hold(1)/final-lines.txt","att_check":false},"trial_type":"html-keyboard-response","trial_index":122,"time_elapsed":252618,"internal_node_id":"0.0-8.0-3.28","subject":"qc51duycf6v2xjd","sona":"6982"},{"rt":262.7299998421222,"stimulus":"<p>Bereit?</p>","key_press":32,"trial_type":"html-keyboard-response","trial_index":123,"time_elapsed":252882,"internal_node_id":"0.0-8.0-0.29","subject":"qc51duycf6v2xjd","sona":"6982"},{"rt":null,"stimulus":"<div style=\"font-size:60px;\">+</div>","key_press":null,"trial_type":"html-keyboard-response","trial_index":124,"time_elapsed":254883,"internal_node_id":"0.0-8.0-1.29","subject":"qc51duycf6v2xjd","sona":"6982"},{"trial_type":"turing-test","trial_index":125,"time_elapsed":258218,"internal_node_id":"0.0-8.0-2.29","subject":"qc51duycf6v2xjd","sona":"6982"},{"rt":583.3449999336153,"stimulus":"<p>Welche Sequenz haben Sie als natürlicher empfunden?</p>","key_press":70,"test_part":"response","test_stimulus":{"position":0,"left":"bvh/return-bottle-hold-training2-lines.txt","right":"bvh/vr_prediction_models/model(tmp)-dataset(return-bottle-hold)-numprim(10)-hold(2)/final-lines.txt","att_check":false},"trial_type":"html-keyboard-response","trial_index":126,"time_elapsed":258802,"internal_node_id":"0.0-8.0-3.29","subject":"qc51duycf6v2xjd","sona":"6982"},{"rt":246.73500005155802,"stimulus":"<p>Bereit?</p>","key_press":32,"trial_type":"html-keyboard-response","trial_index":127,"time_elapsed":259050,"internal_node_id":"0.0-8.0-0.30","subject":"qc51duycf6v2xjd","sona":"6982"},{"rt":null,"stimulus":"<div style=\"font-size:60px;\">+</div>","key_press":null,"trial_type":"html-keyboard-response","trial_index":128,"time_elapsed":261052,"internal_node_id":"0.0-8.0-1.30","subject":"qc51duycf6v2xjd","sona":"6982"},{"trial_type":"turing-test","trial_index":129,"time_elapsed":267055,"internal_node_id":"0.0-8.0-2.30","subject":"qc51duycf6v2xjd","sona":"6982"},{"rt":481.7850000690669,"stimulus":"<p>Welche Sequenz haben Sie als natürlicher empfunden?</p>","key_press":74,"test_part":"response","test_stimulus":{"position":1,"left":"bvh/vr_prediction_models/model(vcgpdm)-dataset(return-bottle)-mode(ELBO)-parts(3)-dyn(15)-lvm(30)-hold(1)/final-lines.txt","right":"bvh/return-bottle-training1-lines.txt","att_check":false},"trial_type":"html-keyboard-response","trial_index":130,"time_elapsed":267538,"internal_node_id":"0.0-8.0-3.30","subject":"qc51duycf6v2xjd","sona":"6982"},{"rt":198.21000006049871,"stimulus":"<p>Bereit?</p>","key_press":32,"trial_type":"html-keyboard-response","trial_index":131,"time_elapsed":267738,"internal_node_id":"0.0-8.0-0.31","subject":"qc51duycf6v2xjd","sona":"6982"},{"rt":null,"stimulus":"<div style=\"font-size:60px;\">+</div>","key_press":null,"trial_type":"html-keyboard-response","trial_index":132,"time_elapsed":269744,"internal_node_id":"0.0-8.0-1.31","subject":"qc51duycf6v2xjd","sona":"6982"},{"trial_type":"turing-test","trial_index":133,"time_elapsed":273386,"internal_node_id":"0.0-8.0-2.31","subject":"qc51duycf6v2xjd","sona":"6982"},{"rt":1814.57499996759,"stimulus":"<p>Welche Sequenz haben Sie als natürlicher empfunden?</p>","key_press":74,"test_part":"response","test_stimulus":{"position":0,"left":"bvh/return-bottle-hold-training4-lines.txt","right":"bvh/vr_prediction_models/model(vcgpdm)-dataset(return-bottle-hold)-mode(ELBO)-parts(1)-dyn(30)-lvm(20)-hold(4)/final-lines.txt","att_check":false},"trial_type":"html-keyboard-response","trial_index":134,"time_elapsed":275202,"internal_node_id":"0.0-8.0-3.31","subject":"qc51duycf6v2xjd","sona":"6982"},{"rt":198.91000003553927,"stimulus":"<p>Bereit?</p>","key_press":32,"trial_type":"html-keyboard-response","trial_index":135,"time_elapsed":275402,"internal_node_id":"0.0-8.0-0.32","subject":"qc51duycf6v2xjd","sona":"6982"},{"rt":null,"stimulus":"<div style=\"font-size:60px;\">+</div>","key_press":null,"trial_type":"html-keyboard-response","trial_index":136,"time_elapsed":277404,"internal_node_id":"0.0-8.0-1.32","subject":"qc51duycf6v2xjd","sona":"6982"},{"trial_type":"turing-test","trial_index":137,"time_elapsed":283938,"internal_node_id":"0.0-8.0-2.32","subject":"qc51duycf6v2xjd","sona":"6982"},{"rt":1046.085000038147,"stimulus":"<p>Welche Sequenz haben Sie als natürlicher empfunden?</p>","key_press":70,"test_part":"response","test_stimulus":{"position":0,"left":"bvh/return-bottle-training2-lines.txt","right":"bvh/vr_prediction_models/model(vcgpdm)-dataset(return-bottle)-mode(ELBO)-parts(1)-dyn(20)-lvm(5)-hold(2)/final-lines.txt","att_check":false},"trial_type":"html-keyboard-response","trial_index":138,"time_elapsed":284986,"internal_node_id":"0.0-8.0-3.32","subject":"qc51duycf6v2xjd","sona":"6982"},{"rt":222.635000012815,"stimulus":"<p>Bereit?</p>","key_press":32,"trial_type":"html-keyboard-response","trial_index":139,"time_elapsed":285210,"internal_node_id":"0.0-8.0-0.33","subject":"qc51duycf6v2xjd","sona":"6982"},{"rt":null,"stimulus":"<div style=\"font-size:60px;\">+</div>","key_press":null,"trial_type":"html-keyboard-response","trial_index":140,"time_elapsed":287211,"internal_node_id":"0.0-8.0-1.33","subject":"qc51duycf6v2xjd","sona":"6982"},{"trial_type":"turing-test","trial_index":141,"time_elapsed":292468,"internal_node_id":"0.0-8.0-2.33","subject":"qc51duycf6v2xjd","sona":"6982"},{"rt":436.7700000293553,"stimulus":"<p>Welche Sequenz haben Sie als natürlicher empfunden?</p>","key_press":70,"test_part":"response","test_stimulus":{"position":0,"left":"bvh/return-bottle-training0-lines.txt","right":"bvh/vr_prediction_models/model(tmp)-dataset(return-bottle)-numprim(12)-hold(0)/final-lines.txt","att_check":false},"trial_type":"html-keyboard-response","trial_index":142,"time_elapsed":292906,"internal_node_id":"0.0-8.0-3.33","subject":"qc51duycf6v2xjd","sona":"6982"},{"rt":334.7849999554455,"stimulus":"<p>Bereit?</p>","key_press":32,"trial_type":"html-keyboard-response","trial_index":143,"time_elapsed":293242,"internal_node_id":"0.0-8.0-0.34","subject":"qc51duycf6v2xjd","sona":"6982"},{"rt":null,"stimulus":"<div style=\"font-size:60px;\">+</div>","key_press":null,"trial_type":"html-keyboard-response","trial_index":144,"time_elapsed":295245,"internal_node_id":"0.0-8.0-1.34","subject":"qc51duycf6v2xjd","sona":"6982"},{"trial_type":"turing-test","trial_index":145,"time_elapsed":298801,"internal_node_id":"0.0-8.0-2.34","subject":"qc51duycf6v2xjd","sona":"6982"},{"rt":415.99000012502074,"stimulus":"<p>Welche Sequenz haben Sie als natürlicher empfunden?</p>","key_press":70,"test_part":"response","test_stimulus":{"position":0,"left":"bvh/return-bottle-hold-training3-lines.txt","right":"bvh/vr_prediction_models/model(vcgpdm)-dataset(return-bottle-hold)-mode(MAP)-parts(1)-hold(3)/final-lines.txt","att_check":false},"trial_type":"html-keyboard-response","trial_index":146,"time_elapsed":299218,"internal_node_id":"0.0-8.0-3.34","subject":"qc51duycf6v2xjd","sona":"6982"},{"rt":262.6350000500679,"stimulus":"<p>Bereit?</p>","key_press":32,"trial_type":"html-keyboard-response","trial_index":147,"time_elapsed":299482,"internal_node_id":"0.0-8.0-0.35","subject":"qc51duycf6v2xjd","sona":"6982"},{"rt":null,"stimulus":"<div style=\"font-size:60px;\">+</div>","key_press":null,"trial_type":"html-keyboard-response","trial_index":148,"time_elapsed":301484,"internal_node_id":"0.0-8.0-1.35","subject":"qc51duycf6v2xjd","sona":"6982"},{"trial_type":"turing-test","trial_index":149,"time_elapsed":304807,"internal_node_id":"0.0-8.0-2.35","subject":"qc51duycf6v2xjd","sona":"6982"},{"rt":585.7100000139326,"stimulus":"<p>Welche Sequenz haben Sie als natürlicher empfunden?</p>","key_press":74,"test_part":"response","test_stimulus":{"position":1,"left":"bvh/vr_prediction_models/model(vcgpdm)-dataset(pass-bottle-hold)-mode(ELBO)-parts(1)-dyn(10)-lvm(30)-hold(0)/final-lines.txt","right":"bvh/pass-bottle-hold-training0-lines.txt","att_check":false},"trial_type":"html-keyboard-response","trial_index":150,"time_elapsed":305394,"internal_node_id":"0.0-8.0-3.35","subject":"qc51duycf6v2xjd","sona":"6982"},{"rt":303.06999990716577,"stimulus":"<p>Bereit?</p>","key_press":32,"trial_type":"html-keyboard-response","trial_index":151,"time_elapsed":305698,"internal_node_id":"0.0-8.0-0.36","subject":"qc51duycf6v2xjd","sona":"6982"},{"rt":null,"stimulus":"<div style=\"font-size:60px;\">+</div>","key_press":null,"trial_type":"html-keyboard-response","trial_index":152,"time_elapsed":307700,"internal_node_id":"0.0-8.0-1.36","subject":"qc51duycf6v2xjd","sona":"6982"},{"trial_type":"turing-test","trial_index":153,"time_elapsed":313624,"internal_node_id":"0.0-8.0-2.36","subject":"qc51duycf6v2xjd","sona":"6982"},{"rt":439.2099999822676,"stimulus":"<p>Welche Sequenz haben Sie als natürlicher empfunden?</p>","key_press":74,"test_part":"response","test_stimulus":{"position":1,"left":"bvh/vr_prediction_models/model(dmp)-dataset(return-bottle)-npsi(50)-hold(1)/final-lines.txt","right":"bvh/return-bottle-training1-lines.txt","att_check":false},"trial_type":"html-keyboard-response","trial_index":154,"time_elapsed":314066,"internal_node_id":"0.0-8.0-3.36","subject":"qc51duycf6v2xjd","sona":"6982"},{"rt":342.6250000484288,"stimulus":"<p>Bereit?</p>","key_press":32,"trial_type":"html-keyboard-response","trial_index":155,"time_elapsed":314410,"internal_node_id":"0.0-8.0-0.37","subject":"qc51duycf6v2xjd","sona":"6982"},{"rt":null,"stimulus":"<div style=\"font-size:60px;\">+</div>","key_press":null,"trial_type":"html-keyboard-response","trial_index":156,"time_elapsed":316413,"internal_node_id":"0.0-8.0-1.37","subject":"qc51duycf6v2xjd","sona":"6982"},{"trial_type":"turing-test","trial_index":157,"time_elapsed":319873,"internal_node_id":"0.0-8.0-2.37","subject":"qc51duycf6v2xjd","sona":"6982"},{"rt":551.3500000815839,"stimulus":"<p>Welche Sequenz haben Sie als natürlicher empfunden?</p>","key_press":74,"test_part":"response","test_stimulus":{"position":1,"left":"bvh/vr_prediction_models/model(dmp)-dataset(pass-bottle-hold)-npsi(100)-hold(4)/final-lines.txt","right":"bvh/pass-bottle-hold-training4-lines.txt","att_check":false},"trial_type":"html-keyboard-response","trial_index":158,"time_elapsed":320426,"internal_node_id":"0.0-8.0-3.37","subject":"qc51duycf6v2xjd","sona":"6982"},{"rt":222.7449999190867,"stimulus":"<p>Bereit?</p>","key_press":32,"trial_type":"html-keyboard-response","trial_index":159,"time_elapsed":320650,"internal_node_id":"0.0-8.0-0.38","subject":"qc51duycf6v2xjd","sona":"6982"},{"rt":null,"stimulus":"<div style=\"font-size:60px;\">+</div>","key_press":null,"trial_type":"html-keyboard-response","trial_index":160,"time_elapsed":322652,"internal_node_id":"0.0-8.0-1.38","subject":"qc51duycf6v2xjd","sona":"6982"},{"trial_type":"turing-test","trial_index":161,"time_elapsed":328300,"internal_node_id":"0.0-8.0-2.38","subject":"qc51duycf6v2xjd","sona":"6982"},{"rt":412.4199999496341,"stimulus":"<p>Welche Sequenz haben Sie als natürlicher empfunden?</p>","key_press":74,"test_part":"response","test_stimulus":{"position":1,"left":"bvh/vr_prediction_models/model(vcgpdm)-dataset(pass-bottle)-mode(ELBO)-parts(1)-dyn(20)-lvm(5)-hold(4)/final-lines.txt","right":"bvh/pass-bottle-training4-lines.txt","att_check":false},"trial_type":"html-keyboard-response","trial_index":162,"time_elapsed":328714,"internal_node_id":"0.0-8.0-3.38","subject":"qc51duycf6v2xjd","sona":"6982"},{"rt":326.27000007778406,"stimulus":"<p>Bereit?</p>","key_press":32,"trial_type":"html-keyboard-response","trial_index":163,"time_elapsed":329042,"internal_node_id":"0.0-8.0-0.39","subject":"qc51duycf6v2xjd","sona":"6982"},{"rt":null,"stimulus":"<div style=\"font-size:60px;\">+</div>","key_press":null,"trial_type":"html-keyboard-response","trial_index":164,"time_elapsed":331044,"internal_node_id":"0.0-8.0-1.39","subject":"qc51duycf6v2xjd","sona":"6982"},{"trial_type":"turing-test","trial_index":165,"time_elapsed":336353,"internal_node_id":"0.0-8.0-2.39","subject":"qc51duycf6v2xjd","sona":"6982"},{"rt":518.6300000641495,"stimulus":"<p>Welche Sequenz haben Sie als natürlicher empfunden?</p>","key_press":74,"test_part":"response","test_stimulus":{"position":1,"left":"bvh/vr_prediction_models/model(tmp)-dataset(pass-bottle)-numprim(9)-hold(1)/final-lines.txt","right":"bvh/pass-bottle-training1-lines.txt","att_check":false},"trial_type":"html-keyboard-response","trial_index":166,"time_elapsed":336874,"internal_node_id":"0.0-8.0-3.39","subject":"qc51duycf6v2xjd","sona":"6982"},{"rt":246.71999993734062,"stimulus":"<p>Bereit?</p>","key_press":32,"trial_type":"html-keyboard-response","trial_index":167,"time_elapsed":337122,"internal_node_id":"0.0-8.0-0.40","subject":"qc51duycf6v2xjd","sona":"6982"},{"rt":null,"stimulus":"<div style=\"font-size:60px;\">+</div>","key_press":null,"trial_type":"html-keyboard-response","trial_index":168,"time_elapsed":339123,"internal_node_id":"0.0-8.0-1.40","subject":"qc51duycf6v2xjd","sona":"6982"},{"trial_type":"turing-test","trial_index":169,"time_elapsed":342261,"internal_node_id":"0.0-8.0-2.40","subject":"qc51duycf6v2xjd","sona":"6982"},{"rt":1923.8099998328835,"stimulus":"<p>Welche Sequenz haben Sie als natürlicher empfunden?</p>","key_press":70,"test_part":"response","test_stimulus":{"position":1,"left":"bvh/vr_prediction_models/model(vcgpdm)-dataset(pass-bottle-hold)-mode(ELBO)-parts(3)-dyn(20)-lvm(15)-hold(1)/final-lines.txt","right":"bvh/pass-bottle-hold-training1-lines.txt","att_check":false},"trial_type":"html-keyboard-response","trial_index":170,"time_elapsed":344186,"internal_node_id":"0.0-8.0-3.40","subject":"qc51duycf6v2xjd","sona":"6982"},{"rt":1078.4799999091774,"stimulus":"<p>Bereit?</p>","key_press":32,"trial_type":"html-keyboard-response","trial_index":171,"time_elapsed":345266,"internal_node_id":"0.0-8.0-0.41","subject":"qc51duycf6v2xjd","sona":"6982"},{"rt":null,"stimulus":"<div style=\"font-size:60px;\">+</div>","key_press":null,"trial_type":"html-keyboard-response","trial_index":172,"time_elapsed":347270,"internal_node_id":"0.0-8.0-1.41","subject":"qc51duycf6v2xjd","sona":"6982"},{"trial_type":"turing-test","trial_index":173,"time_elapsed":350488,"internal_node_id":"0.0-8.0-2.41","subject":"qc51duycf6v2xjd","sona":"6982"},{"rt":456.0499999206513,"stimulus":"<p>Welche Sequenz haben Sie als natürlicher empfunden?</p>","key_press":74,"test_part":"response","test_stimulus":{"position":1,"left":"bvh/vr_prediction_models/model(dmp)-dataset(pass-bottle-hold)-npsi(100)-hold(2)/final-lines.txt","right":"bvh/pass-bottle-hold-training2-lines.txt","att_check":true},"trial_type":"html-keyboard-response","trial_index":174,"time_elapsed":350946,"internal_node_id":"0.0-8.0-3.41","subject":"qc51duycf6v2xjd","sona":"6982"},{"rt":190.81000005826354,"stimulus":"<p>Bereit?</p>","key_press":32,"trial_type":"html-keyboard-response","trial_index":175,"time_elapsed":351138,"internal_node_id":"0.0-8.0-0.42","subject":"qc51duycf6v2xjd","sona":"6982"},{"rt":null,"stimulus":"<div style=\"font-size:60px;\">+</div>","key_press":null,"trial_type":"html-keyboard-response","trial_index":176,"time_elapsed":353142,"internal_node_id":"0.0-8.0-1.42","subject":"qc51duycf6v2xjd","sona":"6982"},{"trial_type":"turing-test","trial_index":177,"time_elapsed":359773,"internal_node_id":"0.0-8.0-2.42","subject":"qc51duycf6v2xjd","sona":"6982"},{"rt":355.72000010870397,"stimulus":"<p>Welche Sequenz haben Sie als natürlicher empfunden?</p>","key_press":74,"test_part":"response","test_stimulus":{"position":1,"left":"bvh/vr_prediction_models/model(vcgpdm)-dataset(pass-bottle)-mode(ELBO)-parts(1)-dyn(15)-lvm(35)-hold(0)/final-lines.txt","right":"bvh/pass-bottle-training0-lines.txt","att_check":false},"trial_type":"html-keyboard-response","trial_index":178,"time_elapsed":360130,"internal_node_id":"0.0-8.0-3.42","subject":"qc51duycf6v2xjd","sona":"6982"},{"rt":358.22499985806644,"stimulus":"<p>Bereit?</p>","key_press":32,"trial_type":"html-keyboard-response","trial_index":179,"time_elapsed":360489,"internal_node_id":"0.0-8.0-0.43","subject":"qc51duycf6v2xjd","sona":"6982"},{"rt":null,"stimulus":"<div style=\"font-size:60px;\">+</div>","key_press":null,"trial_type":"html-keyboard-response","trial_index":180,"time_elapsed":362492,"internal_node_id":"0.0-8.0-1.43","subject":"qc51duycf6v2xjd","sona":"6982"},{"trial_type":"turing-test","trial_index":181,"time_elapsed":366068,"internal_node_id":"0.0-8.0-2.43","subject":"qc51duycf6v2xjd","sona":"6982"},{"rt":1148.1900000944734,"stimulus":"<p>Welche Sequenz haben Sie als natürlicher empfunden?</p>","key_press":74,"test_part":"response","test_stimulus":{"position":1,"left":"bvh/vr_prediction_models/model(vcgpdm)-dataset(return-bottle-hold)-mode(ELBO)-parts(3)-dyn(20)-lvm(20)-hold(3)/final-lines.txt","right":"bvh/return-bottle-hold-training3-lines.txt","att_check":false},"trial_type":"html-keyboard-response","trial_index":182,"time_elapsed":367218,"internal_node_id":"0.0-8.0-3.43","subject":"qc51duycf6v2xjd","sona":"6982"},{"rt":349.9049998354167,"stimulus":"<p>Bereit?</p>","key_press":32,"trial_type":"html-keyboard-response","trial_index":183,"time_elapsed":367570,"internal_node_id":"0.0-8.0-0.44","subject":"qc51duycf6v2xjd","sona":"6982"},{"rt":null,"stimulus":"<div style=\"font-size:60px;\">+</div>","key_press":null,"trial_type":"html-keyboard-response","trial_index":184,"time_elapsed":369572,"internal_node_id":"0.0-8.0-1.44","subject":"qc51duycf6v2xjd","sona":"6982"},{"trial_type":"turing-test","trial_index":185,"time_elapsed":375529,"internal_node_id":"0.0-8.0-2.44","subject":"qc51duycf6v2xjd","sona":"6982"},{"rt":535.0549998693168,"stimulus":"<p>Welche Sequenz haben Sie als natürlicher empfunden?</p>","key_press":74,"test_part":"response","test_stimulus":{"position":1,"left":"bvh/vr_prediction_models/model(dmp)-dataset(return-bottle)-npsi(70)-hold(1)/final-lines.txt","right":"bvh/return-bottle-training1-lines.txt","att_check":false},"trial_type":"html-keyboard-response","trial_index":186,"time_elapsed":376066,"internal_node_id":"0.0-8.0-3.44","subject":"qc51duycf6v2xjd","sona":"6982"},{"rt":246.3499999139458,"stimulus":"<p>Bereit?</p>","key_press":32,"trial_type":"html-keyboard-response","trial_index":187,"time_elapsed":376314,"internal_node_id":"0.0-8.0-0.45","subject":"qc51duycf6v2xjd","sona":"6982"},{"rt":null,"stimulus":"<div style=\"font-size:60px;\">+</div>","key_press":null,"trial_type":"html-keyboard-response","trial_index":188,"time_elapsed":378315,"internal_node_id":"0.0-8.0-1.45","subject":"qc51duycf6v2xjd","sona":"6982"},{"trial_type":"turing-test","trial_index":189,"time_elapsed":384287,"internal_node_id":"0.0-8.0-2.45","subject":"qc51duycf6v2xjd","sona":"6982"},{"rt":576.9100000616163,"stimulus":"<p>Welche Sequenz haben Sie als natürlicher empfunden?</p>","key_press":74,"test_part":"response","test_stimulus":{"position":0,"left":"bvh/return-bottle-training1-lines.txt","right":"bvh/vr_prediction_models/model(vcgpdm)-dataset(return-bottle)-mode(ELBO)-parts(1)-dyn(10)-lvm(30)-hold(1)/final-lines.txt","att_check":false},"trial_type":"html-keyboard-response","trial_index":190,"time_elapsed":384866,"internal_node_id":"0.0-8.0-3.45","subject":"qc51duycf6v2xjd","sona":"6982"},{"rt":390.06500015966594,"stimulus":"<p>Bereit?</p>","key_press":32,"trial_type":"html-keyboard-response","trial_index":191,"time_elapsed":385258,"internal_node_id":"0.0-8.0-0.46","subject":"qc51duycf6v2xjd","sona":"6982"},{"rt":null,"stimulus":"<div style=\"font-size:60px;\">+</div>","key_press":null,"trial_type":"html-keyboard-response","trial_index":192,"time_elapsed":387267,"internal_node_id":"0.0-8.0-1.46","subject":"qc51duycf6v2xjd","sona":"6982"},{"trial_type":"turing-test","trial_index":193,"time_elapsed":390853,"internal_node_id":"0.0-8.0-2.46","subject":"qc51duycf6v2xjd","sona":"6982"},{"rt":387.87500001490116,"stimulus":"<p>Welche Sequenz haben Sie als natürlicher empfunden?</p>","key_press":70,"test_part":"response","test_stimulus":{"position":0,"left":"bvh/return-bottle-hold-training4-lines.txt","right":"bvh/vr_prediction_models/model(dmp)-dataset(return-bottle-hold)-npsi(90)-hold(4)/final-lines.txt","att_check":false},"trial_type":"html-keyboard-response","trial_index":194,"time_elapsed":391242,"internal_node_id":"0.0-8.0-3.46","subject":"qc51duycf6v2xjd","sona":"6982"},{"rt":350.3550000023097,"stimulus":"<p>Bereit?</p>","key_press":32,"trial_type":"html-keyboard-response","trial_index":195,"time_elapsed":391594,"internal_node_id":"0.0-8.0-0.47","subject":"qc51duycf6v2xjd","sona":"6982"},{"rt":null,"stimulus":"<div style=\"font-size:60px;\">+</div>","key_press":null,"trial_type":"html-keyboard-response","trial_index":196,"time_elapsed":393596,"internal_node_id":"0.0-8.0-1.47","subject":"qc51duycf6v2xjd","sona":"6982"},{"trial_type":"turing-test","trial_index":197,"time_elapsed":399181,"internal_node_id":"0.0-8.0-2.47","subject":"qc51duycf6v2xjd","sona":"6982"},{"rt":338.8849999755621,"stimulus":"<p>Welche Sequenz haben Sie als natürlicher empfunden?</p>","key_press":70,"test_part":"response","test_stimulus":{"position":0,"left":"bvh/pass-bottle-training4-lines.txt","right":"bvh/vr_prediction_models/model(dmp)-dataset(pass-bottle)-npsi(70)-hold(4)/final-lines.txt","att_check":false},"trial_type":"html-keyboard-response","trial_index":198,"time_elapsed":399522,"internal_node_id":"0.0-8.0-3.47","subject":"qc51duycf6v2xjd","sona":"6982"},{"rt":278.5700000822544,"stimulus":"<p>Bereit?</p>","key_press":32,"trial_type":"html-keyboard-response","trial_index":199,"time_elapsed":399802,"internal_node_id":"0.0-8.0-0.48","subject":"qc51duycf6v2xjd","sona":"6982"},{"rt":null,"stimulus":"<div style=\"font-size:60px;\">+</div>","key_press":null,"trial_type":"html-keyboard-response","trial_index":200,"time_elapsed":401803,"internal_node_id":"0.0-8.0-1.48","subject":"qc51duycf6v2xjd","sona":"6982"},{"trial_type":"turing-test","trial_index":201,"time_elapsed":407461,"internal_node_id":"0.0-8.0-2.48","subject":"qc51duycf6v2xjd","sona":"6982"},{"rt":1745.0250000692904,"stimulus":"<p>Welche Sequenz haben Sie als natürlicher empfunden?</p>","key_press":74,"test_part":"response","test_stimulus":{"position":0,"left":"bvh/pass-bottle-training4-lines.txt","right":"bvh/vr_prediction_models/model(vcgpdm)-dataset(pass-bottle)-mode(ELBO)-parts(3)-dyn(25)-lvm(25)-hold(4)/final-lines.txt","att_check":false},"trial_type":"html-keyboard-response","trial_index":202,"time_elapsed":409210,"internal_node_id":"0.0-8.0-3.48","subject":"qc51duycf6v2xjd","sona":"6982"},{"rt":2694.669999880716,"stimulus":"<p>Bereit?</p>","key_press":32,"trial_type":"html-keyboard-response","trial_index":203,"time_elapsed":411906,"internal_node_id":"0.0-8.0-0.49","subject":"qc51duycf6v2xjd","sona":"6982"},{"rt":null,"stimulus":"<div style=\"font-size:60px;\">+</div>","key_press":null,"trial_type":"html-keyboard-response","trial_index":204,"time_elapsed":413907,"internal_node_id":"0.0-8.0-1.49","subject":"qc51duycf6v2xjd","sona":"6982"},{"trial_type":"turing-test","trial_index":205,"time_elapsed":418944,"internal_node_id":"0.0-8.0-2.49","subject":"qc51duycf6v2xjd","sona":"6982"},{"rt":335.6099999509752,"stimulus":"<p>Welche Sequenz haben Sie als natürlicher empfunden?</p>","key_press":70,"test_part":"response","test_stimulus":{"position":0,"left":"bvh/return-bottle-hold-training0-lines.txt","right":"bvh/vr_prediction_models/model(vcgpdm)-dataset(return-bottle-hold)-mode(ELBO)-parts(1)-dyn(10)-lvm(30)-hold(0)/final-lines.txt","att_check":false},"trial_type":"html-keyboard-response","trial_index":206,"time_elapsed":419282,"internal_node_id":"0.0-8.0-3.49","subject":"qc51duycf6v2xjd","sona":"6982"},{"rt":382.2549998294562,"stimulus":"<p>Bereit?</p>","key_press":32,"trial_type":"html-keyboard-response","trial_index":207,"time_elapsed":419666,"internal_node_id":"0.0-8.0-0.50","subject":"qc51duycf6v2xjd","sona":"6982"},{"rt":null,"stimulus":"<div style=\"font-size:60px;\">+</div>","key_press":null,"trial_type":"html-keyboard-response","trial_index":208,"time_elapsed":421668,"internal_node_id":"0.0-8.0-1.50","subject":"qc51duycf6v2xjd","sona":"6982"},{"trial_type":"turing-test","trial_index":209,"time_elapsed":424927,"internal_node_id":"0.0-8.0-2.50","subject":"qc51duycf6v2xjd","sona":"6982"},{"rt":353.0099999625236,"stimulus":"<p>Welche Sequenz haben Sie als natürlicher empfunden?</p>","key_press":70,"test_part":"response","test_stimulus":{"position":0,"left":"bvh/return-bottle-hold-training1-lines.txt","right":"bvh/vr_prediction_models/model(vcgpdm)-dataset(return-bottle-hold)-mode(ELBO)-parts(1)-dyn(10)-lvm(5)-hold(1)/final-lines.txt","att_check":false},"trial_type":"html-keyboard-response","trial_index":210,"time_elapsed":425282,"internal_node_id":"0.0-8.0-3.50","subject":"qc51duycf6v2xjd","sona":"6982"},{"rt":670.6050001084805,"stimulus":"<p>Bereit?</p>","key_press":32,"trial_type":"html-keyboard-response","trial_index":211,"time_elapsed":425954,"internal_node_id":"0.0-8.0-0.51","subject":"qc51duycf6v2xjd","sona":"6982"},{"rt":null,"stimulus":"<div style=\"font-size:60px;\">+</div>","key_press":null,"trial_type":"html-keyboard-response","trial_index":212,"time_elapsed":427955,"internal_node_id":"0.0-8.0-1.51","subject":"qc51duycf6v2xjd","sona":"6982"},{"trial_type":"turing-test","trial_index":213,"time_elapsed":431179,"internal_node_id":"0.0-8.0-2.51","subject":"qc51duycf6v2xjd","sona":"6982"},{"rt":436.84499990195036,"stimulus":"<p>Welche Sequenz haben Sie als natürlicher empfunden?</p>","key_press":74,"test_part":"response","test_stimulus":{"position":0,"left":"bvh/pass-bottle-hold-training2-lines.txt","right":"bvh/vr_prediction_models/model(dmp)-dataset(pass-bottle-hold)-npsi(90)-hold(2)/final-lines.txt","att_check":false},"trial_type":"html-keyboard-response","trial_index":214,"time_elapsed":431618,"internal_node_id":"0.0-8.0-3.51","subject":"qc51duycf6v2xjd","sona":"6982"},{"rt":246.46000005304813,"stimulus":"<p>Bereit?</p>","key_press":32,"trial_type":"html-keyboard-response","trial_index":215,"time_elapsed":431866,"internal_node_id":"0.0-8.0-0.52","subject":"qc51duycf6v2xjd","sona":"6982"},{"rt":null,"stimulus":"<div style=\"font-size:60px;\">+</div>","key_press":null,"trial_type":"html-keyboard-response","trial_index":216,"time_elapsed":433868,"internal_node_id":"0.0-8.0-1.52","subject":"qc51duycf6v2xjd","sona":"6982"},{"trial_type":"turing-test","trial_index":217,"time_elapsed":437335,"internal_node_id":"0.0-8.0-2.52","subject":"qc51duycf6v2xjd","sona":"6982"},{"rt":392.38999993540347,"stimulus":"<p>Welche Sequenz haben Sie als natürlicher empfunden?</p>","key_press":70,"test_part":"response","test_stimulus":{"position":1,"left":"bvh/vr_prediction_models/model(dmp)-dataset(pass-bottle-hold)-npsi(20)-hold(4)/final-lines.txt","right":"bvh/pass-bottle-hold-training4-lines.txt","att_check":false},"trial_type":"html-keyboard-response","trial_index":218,"time_elapsed":437729,"internal_node_id":"0.0-8.0-3.52","subject":"qc51duycf6v2xjd","sona":"6982"},{"rt":342.11499989032745,"stimulus":"<p>Bereit?</p>","key_press":32,"trial_type":"html-keyboard-response","trial_index":219,"time_elapsed":438074,"internal_node_id":"0.0-8.0-0.53","subject":"qc51duycf6v2xjd","sona":"6982"},{"rt":null,"stimulus":"<div style=\"font-size:60px;\">+</div>","key_press":null,"trial_type":"html-keyboard-response","trial_index":220,"time_elapsed":440076,"internal_node_id":"0.0-8.0-1.53","subject":"qc51duycf6v2xjd","sona":"6982"},{"trial_type":"turing-test","trial_index":221,"time_elapsed":443535,"internal_node_id":"0.0-8.0-2.53","subject":"qc51duycf6v2xjd","sona":"6982"},{"rt":425.1149999909103,"stimulus":"<p>Welche Sequenz haben Sie als natürlicher empfunden?</p>","key_press":74,"test_part":"response","test_stimulus":{"position":0,"left":"bvh/pass-bottle-hold-training4-lines.txt","right":"bvh/vr_prediction_models/model(dmp)-dataset(pass-bottle-hold)-npsi(80)-hold(4)/final-lines.txt","att_check":true},"trial_type":"html-keyboard-response","trial_index":222,"time_elapsed":443962,"internal_node_id":"0.0-8.0-3.53","subject":"qc51duycf6v2xjd","sona":"6982"},{"rt":309.7299998626113,"stimulus":"<p>Bereit?</p>","key_press":32,"trial_type":"html-keyboard-response","trial_index":223,"time_elapsed":444273,"internal_node_id":"0.0-8.0-0.54","subject":"qc51duycf6v2xjd","sona":"6982"},{"rt":null,"stimulus":"<div style=\"font-size:60px;\">+</div>","key_press":null,"trial_type":"html-keyboard-response","trial_index":224,"time_elapsed":446276,"internal_node_id":"0.0-8.0-1.54","subject":"qc51duycf6v2xjd","sona":"6982"},{"trial_type":"turing-test","trial_index":225,"time_elapsed":449705,"internal_node_id":"0.0-8.0-2.54","subject":"qc51duycf6v2xjd","sona":"6982"},{"rt":407.03000011853874,"stimulus":"<p>Welche Sequenz haben Sie als natürlicher empfunden?</p>","key_press":70,"test_part":"response","test_stimulus":{"position":0,"left":"bvh/pass-bottle-hold-training3-lines.txt","right":"bvh/vr_prediction_models/model(tmp)-dataset(pass-bottle-hold)-numprim(14)-hold(3)/final-lines.txt","att_check":false},"trial_type":"html-keyboard-response","trial_index":226,"time_elapsed":450114,"internal_node_id":"0.0-8.0-3.54","subject":"qc51duycf6v2xjd","sona":"6982"},{"rt":189.88499999977648,"stimulus":"<p>Bereit?</p>","key_press":32,"trial_type":"html-keyboard-response","trial_index":227,"time_elapsed":450305,"internal_node_id":"0.0-8.0-0.55","subject":"qc51duycf6v2xjd","sona":"6982"},{"rt":null,"stimulus":"<div style=\"font-size:60px;\">+</div>","key_press":null,"trial_type":"html-keyboard-response","trial_index":228,"time_elapsed":452313,"internal_node_id":"0.0-8.0-1.55","subject":"qc51duycf6v2xjd","sona":"6982"},{"trial_type":"turing-test","trial_index":229,"time_elapsed":458279,"internal_node_id":"0.0-8.0-2.55","subject":"qc51duycf6v2xjd","sona":"6982"},{"rt":641.2250001449138,"stimulus":"<p>Welche Sequenz haben Sie als natürlicher empfunden?</p>","key_press":74,"test_part":"response","test_stimulus":{"position":0,"left":"bvh/pass-bottle-training2-lines.txt","right":"bvh/vr_prediction_models/model(tmp)-dataset(pass-bottle)-numprim(13)-hold(2)/final-lines.txt","att_check":false},"trial_type":"html-keyboard-response","trial_index":230,"time_elapsed":458922,"internal_node_id":"0.0-8.0-3.55","subject":"qc51duycf6v2xjd","sona":"6982"},{"rt":165.35500017926097,"stimulus":"<p>Bereit?</p>","key_press":32,"trial_type":"html-keyboard-response","trial_index":231,"time_elapsed":459089,"internal_node_id":"0.0-8.0-0.56","subject":"qc51duycf6v2xjd","sona":"6982"},{"rt":null,"stimulus":"<div style=\"font-size:60px;\">+</div>","key_press":null,"trial_type":"html-keyboard-response","trial_index":232,"time_elapsed":461092,"internal_node_id":"0.0-8.0-1.56","subject":"qc51duycf6v2xjd","sona":"6982"},{"trial_type":"turing-test","trial_index":233,"time_elapsed":466734,"internal_node_id":"0.0-8.0-2.56","subject":"qc51duycf6v2xjd","sona":"6982"},{"rt":594.2700000014156,"stimulus":"<p>Welche Sequenz haben Sie als natürlicher empfunden?</p>","key_press":70,"test_part":"response","test_stimulus":{"position":0,"left":"bvh/return-bottle-training3-lines.txt","right":"bvh/vr_prediction_models/model(vcgpdm)-dataset(return-bottle)-mode(ELBO)-parts(1)-dyn(20)-lvm(20)-hold(3)/final-lines.txt","att_check":false},"trial_type":"html-keyboard-response","trial_index":234,"time_elapsed":467330,"internal_node_id":"0.0-8.0-3.56","subject":"qc51duycf6v2xjd","sona":"6982"},{"rt":262.35500001348555,"stimulus":"<p>Bereit?</p>","key_press":32,"trial_type":"html-keyboard-response","trial_index":235,"time_elapsed":467593,"internal_node_id":"0.0-8.0-0.57","subject":"qc51duycf6v2xjd","sona":"6982"},{"rt":null,"stimulus":"<div style=\"font-size:60px;\">+</div>","key_press":null,"trial_type":"html-keyboard-response","trial_index":236,"time_elapsed":469596,"internal_node_id":"0.0-8.0-1.57","subject":"qc51duycf6v2xjd","sona":"6982"},{"trial_type":"turing-test","trial_index":237,"time_elapsed":472677,"internal_node_id":"0.0-8.0-2.57","subject":"qc51duycf6v2xjd","sona":"6982"},{"rt":466.28499985672534,"stimulus":"<p>Welche Sequenz haben Sie als natürlicher empfunden?</p>","key_press":70,"test_part":"response","test_stimulus":{"position":0,"left":"bvh/pass-bottle-hold-training1-lines.txt","right":"bvh/vr_prediction_models/model(dmp)-dataset(pass-bottle-hold)-npsi(20)-hold(1)/final-lines.txt","att_check":false},"trial_type":"html-keyboard-response","trial_index":238,"time_elapsed":473146,"internal_node_id":"0.0-8.0-3.57","subject":"qc51duycf6v2xjd","sona":"6982"},{"rt":238.39500010944903,"stimulus":"<p>Bereit?</p>","key_press":32,"trial_type":"html-keyboard-response","trial_index":239,"time_elapsed":473386,"internal_node_id":"0.0-8.0-0.58","subject":"qc51duycf6v2xjd","sona":"6982"},{"rt":null,"stimulus":"<div style=\"font-size:60px;\">+</div>","key_press":null,"trial_type":"html-keyboard-response","trial_index":240,"time_elapsed":475388,"internal_node_id":"0.0-8.0-1.58","subject":"qc51duycf6v2xjd","sona":"6982"},{"trial_type":"turing-test","trial_index":241,"time_elapsed":481830,"internal_node_id":"0.0-8.0-2.58","subject":"qc51duycf6v2xjd","sona":"6982"},{"rt":689.9149999953806,"stimulus":"<p>Welche Sequenz haben Sie als natürlicher empfunden?</p>","key_press":74,"test_part":"response","test_stimulus":{"position":1,"left":"bvh/vr_prediction_models/model(tmp)-dataset(return-bottle)-numprim(12)-hold(2)/final-lines.txt","right":"bvh/return-bottle-training2-lines.txt","att_check":false},"trial_type":"html-keyboard-response","trial_index":242,"time_elapsed":482522,"internal_node_id":"0.0-8.0-3.58","subject":"qc51duycf6v2xjd","sona":"6982"},{"rt":173.76999999396503,"stimulus":"<p>Bereit?</p>","key_press":32,"trial_type":"html-keyboard-response","trial_index":243,"time_elapsed":482698,"internal_node_id":"0.0-8.0-0.59","subject":"qc51duycf6v2xjd","sona":"6982"},{"rt":null,"stimulus":"<div style=\"font-size:60px;\">+</div>","key_press":null,"trial_type":"html-keyboard-response","trial_index":244,"time_elapsed":484700,"internal_node_id":"0.0-8.0-1.59","subject":"qc51duycf6v2xjd","sona":"6982"},{"trial_type":"turing-test","trial_index":245,"time_elapsed":490336,"internal_node_id":"0.0-8.0-2.59","subject":"qc51duycf6v2xjd","sona":"6982"},{"rt":640.1100000366569,"stimulus":"<p>Welche Sequenz haben Sie als natürlicher empfunden?</p>","key_press":74,"test_part":"response","test_stimulus":{"position":1,"left":"bvh/vr_prediction_models/model(vcgpdm)-dataset(return-bottle)-mode(ELBO)-parts(3)-dyn(15)-lvm(30)-hold(3)/final-lines.txt","right":"bvh/return-bottle-training3-lines.txt","att_check":false},"trial_type":"html-keyboard-response","trial_index":246,"time_elapsed":490978,"internal_node_id":"0.0-8.0-3.59","subject":"qc51duycf6v2xjd","sona":"6982"},{"rt":327.05999980680645,"stimulus":"<p>Bereit?</p>","key_press":32,"trial_type":"html-keyboard-response","trial_index":247,"time_elapsed":491306,"internal_node_id":"0.0-8.0-0.60","subject":"qc51duycf6v2xjd","sona":"6982"},{"rt":null,"stimulus":"<div style=\"font-size:60px;\">+</div>","key_press":null,"trial_type":"html-keyboard-response","trial_index":248,"time_elapsed":493309,"internal_node_id":"0.0-8.0-1.60","subject":"qc51duycf6v2xjd","sona":"6982"},{"trial_type":"turing-test","trial_index":249,"time_elapsed":498273,"internal_node_id":"0.0-8.0-2.60","subject":"qc51duycf6v2xjd","sona":"6982"},{"rt":598.3550001401454,"stimulus":"<p>Welche Sequenz haben Sie als natürlicher empfunden?</p>","key_press":70,"test_part":"response","test_stimulus":{"position":1,"left":"bvh/vr_prediction_models/model(tmp)-dataset(return-bottle-hold)-numprim(3)-hold(0)/final-lines.txt","right":"bvh/return-bottle-hold-training0-lines.txt","att_check":false},"trial_type":"html-keyboard-response","trial_index":250,"time_elapsed":498874,"internal_node_id":"0.0-8.0-3.60","subject":"qc51duycf6v2xjd","sona":"6982"},{"rt":302.4999999906868,"stimulus":"<p>Bereit?</p>","key_press":32,"trial_type":"html-keyboard-response","trial_index":251,"time_elapsed":499178,"internal_node_id":"0.0-8.0-0.61","subject":"qc51duycf6v2xjd","sona":"6982"},{"rt":null,"stimulus":"<div style=\"font-size:60px;\">+</div>","key_press":null,"trial_type":"html-keyboard-response","trial_index":252,"time_elapsed":501180,"internal_node_id":"0.0-8.0-1.61","subject":"qc51duycf6v2xjd","sona":"6982"},{"trial_type":"turing-test","trial_index":253,"time_elapsed":506832,"internal_node_id":"0.0-8.0-2.61","subject":"qc51duycf6v2xjd","sona":"6982"},{"rt":351.38000012375414,"stimulus":"<p>Welche Sequenz haben Sie als natürlicher empfunden?</p>","key_press":74,"test_part":"response","test_stimulus":{"position":1,"left":"bvh/vr_prediction_models/model(dmp)-dataset(return-bottle)-npsi(60)-hold(4)/final-lines.txt","right":"bvh/return-bottle-training4-lines.txt","att_check":false},"trial_type":"html-keyboard-response","trial_index":254,"time_elapsed":507186,"internal_node_id":"0.0-8.0-3.61","subject":"qc51duycf6v2xjd","sona":"6982"},{"rt":446.23500015586615,"stimulus":"<p>Bereit?</p>","key_press":32,"trial_type":"html-keyboard-response","trial_index":255,"time_elapsed":507634,"internal_node_id":"0.0-8.0-0.62","subject":"qc51duycf6v2xjd","sona":"6982"},{"rt":null,"stimulus":"<div style=\"font-size:60px;\">+</div>","key_press":null,"trial_type":"html-keyboard-response","trial_index":256,"time_elapsed":509636,"internal_node_id":"0.0-8.0-1.62","subject":"qc51duycf6v2xjd","sona":"6982"},{"trial_type":"turing-test","trial_index":257,"time_elapsed":512770,"internal_node_id":"0.0-8.0-2.62","subject":"qc51duycf6v2xjd","sona":"6982"},{"rt":1614.2399997916073,"stimulus":"<p>Welche Sequenz haben Sie als natürlicher empfunden?</p>","key_press":74,"test_part":"response","test_stimulus":{"position":1,"left":"bvh/vr_prediction_models/model(vcgpdm)-dataset(pass-bottle-hold)-mode(ELBO)-parts(3)-dyn(20)-lvm(20)-hold(1)/final-lines.txt","right":"bvh/pass-bottle-hold-training1-lines.txt","att_check":false},"trial_type":"html-keyboard-response","trial_index":258,"time_elapsed":514386,"internal_node_id":"0.0-8.0-3.62","subject":"qc51duycf6v2xjd","sona":"6982"},{"rt":918.440000154078,"stimulus":"<p>Bereit?</p>","key_press":32,"trial_type":"html-keyboard-response","trial_index":259,"time_elapsed":515306,"internal_node_id":"0.0-8.0-0.63","subject":"qc51duycf6v2xjd","sona":"6982"},{"rt":null,"stimulus":"<div style=\"font-size:60px;\">+</div>","key_press":null,"trial_type":"html-keyboard-response","trial_index":260,"time_elapsed":517308,"internal_node_id":"0.0-8.0-1.63","subject":"qc51duycf6v2xjd","sona":"6982"},{"trial_type":"turing-test","trial_index":261,"time_elapsed":522900,"internal_node_id":"0.0-8.0-2.63","subject":"qc51duycf6v2xjd","sona":"6982"},{"rt":1068.3949999511242,"stimulus":"<p>Welche Sequenz haben Sie als natürlicher empfunden?</p>","key_press":74,"test_part":"response","test_stimulus":{"position":1,"left":"bvh/vr_prediction_models/model(tmp)-dataset(pass-bottle)-numprim(10)-hold(4)/final-lines.txt","right":"bvh/pass-bottle-training4-lines.txt","att_check":false},"trial_type":"html-keyboard-response","trial_index":262,"time_elapsed":523970,"internal_node_id":"0.0-8.0-3.63","subject":"qc51duycf6v2xjd","sona":"6982"},{"rt":342.09499997086823,"stimulus":"<p>Bereit?</p>","key_press":32,"trial_type":"html-keyboard-response","trial_index":263,"time_elapsed":524314,"internal_node_id":"0.0-8.0-0.64","subject":"qc51duycf6v2xjd","sona":"6982"},{"rt":null,"stimulus":"<div style=\"font-size:60px;\">+</div>","key_press":null,"trial_type":"html-keyboard-response","trial_index":264,"time_elapsed":526316,"internal_node_id":"0.0-8.0-1.64","subject":"qc51duycf6v2xjd","sona":"6982"},{"trial_type":"turing-test","trial_index":265,"time_elapsed":529902,"internal_node_id":"0.0-8.0-2.64","subject":"qc51duycf6v2xjd","sona":"6982"},{"rt":641.910000005737,"stimulus":"<p>Welche Sequenz haben Sie als natürlicher empfunden?</p>","key_press":74,"test_part":"response","test_stimulus":{"position":1,"left":"bvh/vr_prediction_models/model(tmp)-dataset(return-bottle-hold)-numprim(8)-hold(4)/final-lines.txt","right":"bvh/return-bottle-hold-training4-lines.txt","att_check":false},"trial_type":"html-keyboard-response","trial_index":266,"time_elapsed":530546,"internal_node_id":"0.0-8.0-3.64","subject":"qc51duycf6v2xjd","sona":"6982"},{"rt":446.22000004164875,"stimulus":"<p>Bereit?</p>","key_press":32,"trial_type":"html-keyboard-response","trial_index":267,"time_elapsed":530994,"internal_node_id":"0.0-8.0-0.65","subject":"qc51duycf6v2xjd","sona":"6982"},{"rt":null,"stimulus":"<div style=\"font-size:60px;\">+</div>","key_press":null,"trial_type":"html-keyboard-response","trial_index":268,"time_elapsed":532996,"internal_node_id":"0.0-8.0-1.65","subject":"qc51duycf6v2xjd","sona":"6982"},{"trial_type":"turing-test","trial_index":269,"time_elapsed":538010,"internal_node_id":"0.0-8.0-2.65","subject":"qc51duycf6v2xjd","sona":"6982"},{"rt":366.0950001794845,"stimulus":"<p>Welche Sequenz haben Sie als natürlicher empfunden?</p>","key_press":70,"test_part":"response","test_stimulus":{"position":1,"left":"bvh/vr_prediction_models/model(vcgpdm)-dataset(return-bottle-hold)-mode(ELBO)-parts(1)-dyn(10)-lvm(25)-hold(0)/final-lines.txt","right":"bvh/return-bottle-hold-training0-lines.txt","att_check":false},"trial_type":"html-keyboard-response","trial_index":270,"time_elapsed":538378,"internal_node_id":"0.0-8.0-3.65","subject":"qc51duycf6v2xjd","sona":"6982"},{"rt":398.5499998088926,"stimulus":"<p>Bereit?</p>","key_press":32,"trial_type":"html-keyboard-response","trial_index":271,"time_elapsed":538778,"internal_node_id":"0.0-8.0-0.66","subject":"qc51duycf6v2xjd","sona":"6982"},{"rt":null,"stimulus":"<div style=\"font-size:60px;\">+</div>","key_press":null,"trial_type":"html-keyboard-response","trial_index":272,"time_elapsed":540778,"internal_node_id":"0.0-8.0-1.66","subject":"qc51duycf6v2xjd","sona":"6982"},{"trial_type":"turing-test","trial_index":273,"time_elapsed":544366,"internal_node_id":"0.0-8.0-2.66","subject":"qc51duycf6v2xjd","sona":"6982"},{"rt":417.58499993011355,"stimulus":"<p>Welche Sequenz haben Sie als natürlicher empfunden?</p>","key_press":74,"test_part":"response","test_stimulus":{"position":1,"left":"bvh/vr_prediction_models/model(dmp)-dataset(return-bottle-hold)-npsi(100)-hold(4)/final-lines.txt","right":"bvh/return-bottle-hold-training4-lines.txt","att_check":false},"trial_type":"html-keyboard-response","trial_index":274,"time_elapsed":544786,"internal_node_id":"0.0-8.0-3.66","subject":"qc51duycf6v2xjd","sona":"6982"},{"rt":333.98999995552003,"stimulus":"<p>Bereit?</p>","key_press":32,"trial_type":"html-keyboard-response","trial_index":275,"time_elapsed":545122,"internal_node_id":"0.0-8.0-0.67","subject":"qc51duycf6v2xjd","sona":"6982"},{"rt":null,"stimulus":"<div style=\"font-size:60px;\">+</div>","key_press":null,"trial_type":"html-keyboard-response","trial_index":276,"time_elapsed":547124,"internal_node_id":"0.0-8.0-1.67","subject":"qc51duycf6v2xjd","sona":"6982"},{"trial_type":"turing-test","trial_index":277,"time_elapsed":552471,"internal_node_id":"0.0-8.0-2.67","subject":"qc51duycf6v2xjd","sona":"6982"},{"rt":689.2799998167902,"stimulus":"<p>Welche Sequenz haben Sie als natürlicher empfunden?</p>","key_press":74,"test_part":"response","test_stimulus":{"position":1,"left":"bvh/vr_prediction_models/model(vcgpdm)-dataset(pass-bottle)-mode(ELBO)-parts(1)-dyn(10)-lvm(5)-hold(1)/final-lines.txt","right":"bvh/pass-bottle-training1-lines.txt","att_check":false},"trial_type":"html-keyboard-response","trial_index":278,"time_elapsed":553162,"internal_node_id":"0.0-8.0-3.67","subject":"qc51duycf6v2xjd","sona":"6982"},{"rt":238.73000009916723,"stimulus":"<p>Bereit?</p>","key_press":32,"trial_type":"html-keyboard-response","trial_index":279,"time_elapsed":553402,"internal_node_id":"0.0-8.0-0.68","subject":"qc51duycf6v2xjd","sona":"6982"},{"rt":null,"stimulus":"<div style=\"font-size:60px;\">+</div>","key_press":null,"trial_type":"html-keyboard-response","trial_index":280,"time_elapsed":555404,"internal_node_id":"0.0-8.0-1.68","subject":"qc51duycf6v2xjd","sona":"6982"},{"trial_type":"turing-test","trial_index":281,"time_elapsed":560711,"internal_node_id":"0.0-8.0-2.68","subject":"qc51duycf6v2xjd","sona":"6982"},{"rt":495.8049999549985,"stimulus":"<p>Welche Sequenz haben Sie als natürlicher empfunden?</p>","key_press":74,"test_part":"response","test_stimulus":{"position":1,"left":"bvh/vr_prediction_models/model(tmp)-dataset(pass-bottle)-numprim(10)-hold(1)/final-lines.txt","right":"bvh/pass-bottle-training1-lines.txt","att_check":false},"trial_type":"html-keyboard-response","trial_index":282,"time_elapsed":561210,"internal_node_id":"0.0-8.0-3.68","subject":"qc51duycf6v2xjd","sona":"6982"},{"rt":349.94000010192394,"stimulus":"<p>Bereit?</p>","key_press":32,"trial_type":"html-keyboard-response","trial_index":283,"time_elapsed":561561,"internal_node_id":"0.0-8.0-0.69","subject":"qc51duycf6v2xjd","sona":"6982"},{"rt":null,"stimulus":"<div style=\"font-size:60px;\">+</div>","key_press":null,"trial_type":"html-keyboard-response","trial_index":284,"time_elapsed":563563,"internal_node_id":"0.0-8.0-1.69","subject":"qc51duycf6v2xjd","sona":"6982"},{"trial_type":"turing-test","trial_index":285,"time_elapsed":570034,"internal_node_id":"0.0-8.0-2.69","subject":"qc51duycf6v2xjd","sona":"6982"},{"rt":838.1000000517815,"stimulus":"<p>Welche Sequenz haben Sie als natürlicher empfunden?</p>","key_press":74,"test_part":"response","test_stimulus":{"position":1,"left":"bvh/vr_prediction_models/model(vcgpdm)-dataset(return-bottle)-mode(ELBO)-parts(1)-dyn(10)-lvm(25)-hold(2)/final-lines.txt","right":"bvh/return-bottle-training2-lines.txt","att_check":false},"trial_type":"html-keyboard-response","trial_index":286,"time_elapsed":570874,"internal_node_id":"0.0-8.0-3.69","subject":"qc51duycf6v2xjd","sona":"6982"},{"rt":206.38999994844198,"stimulus":"<p>Bereit?</p>","key_press":32,"trial_type":"html-keyboard-response","trial_index":287,"time_elapsed":571081,"internal_node_id":"0.0-8.0-0.70","subject":"qc51duycf6v2xjd","sona":"6982"},{"rt":null,"stimulus":"<div style=\"font-size:60px;\">+</div>","key_press":null,"trial_type":"html-keyboard-response","trial_index":288,"time_elapsed":573083,"internal_node_id":"0.0-8.0-1.70","subject":"qc51duycf6v2xjd","sona":"6982"},{"trial_type":"turing-test","trial_index":289,"time_elapsed":578682,"internal_node_id":"0.0-8.0-2.70","subject":"qc51duycf6v2xjd","sona":"6982"},{"rt":2509.7500002011657,"stimulus":"<p>Welche Sequenz haben Sie als natürlicher empfunden?</p>","key_press":70,"test_part":"response","test_stimulus":{"position":1,"left":"bvh/vr_prediction_models/model(vcgpdm)-dataset(return-bottle)-mode(ELBO)-parts(3)-dyn(15)-lvm(30)-hold(3)/final-lines.txt","right":"bvh/return-bottle-training3-lines.txt","att_check":false},"trial_type":"html-keyboard-response","trial_index":290,"time_elapsed":581194,"internal_node_id":"0.0-8.0-3.70","subject":"qc51duycf6v2xjd","sona":"6982"},{"rt":646.3949999306351,"stimulus":"<p>Bereit?</p>","key_press":32,"trial_type":"html-keyboard-response","trial_index":291,"time_elapsed":581842,"internal_node_id":"0.0-8.0-0.71","subject":"qc51duycf6v2xjd","sona":"6982"},{"rt":null,"stimulus":"<div style=\"font-size:60px;\">+</div>","key_press":null,"trial_type":"html-keyboard-response","trial_index":292,"time_elapsed":583844,"internal_node_id":"0.0-8.0-1.71","subject":"qc51duycf6v2xjd","sona":"6982"},{"trial_type":"turing-test","trial_index":293,"time_elapsed":587115,"internal_node_id":"0.0-8.0-2.71","subject":"qc51duycf6v2xjd","sona":"6982"},{"rt":1012.3400001320988,"stimulus":"<p>Welche Sequenz haben Sie als natürlicher empfunden?</p>","key_press":74,"test_part":"response","test_stimulus":{"position":1,"left":"bvh/vr_prediction_models/model(tmp)-dataset(return-bottle-hold)-numprim(9)-hold(1)/final-lines.txt","right":"bvh/return-bottle-hold-training1-lines.txt","att_check":false},"trial_type":"html-keyboard-response","trial_index":294,"time_elapsed":588129,"internal_node_id":"0.0-8.0-3.71","subject":"qc51duycf6v2xjd","sona":"6982"},{"rt":165.86500010453165,"stimulus":"<p>Bereit?</p>","key_press":32,"trial_type":"html-keyboard-response","trial_index":295,"time_elapsed":588297,"internal_node_id":"0.0-8.0-0.72","subject":"qc51duycf6v2xjd","sona":"6982"},{"rt":null,"stimulus":"<div style=\"font-size:60px;\">+</div>","key_press":null,"trial_type":"html-keyboard-response","trial_index":296,"time_elapsed":590299,"internal_node_id":"0.0-8.0-1.72","subject":"qc51duycf6v2xjd","sona":"6982"},{"trial_type":"turing-test","trial_index":297,"time_elapsed":593569,"internal_node_id":"0.0-8.0-2.72","subject":"qc51duycf6v2xjd","sona":"6982"},{"rt":598.0749998707324,"stimulus":"<p>Welche Sequenz haben Sie als natürlicher empfunden?</p>","key_press":70,"test_part":"response","test_stimulus":{"position":1,"left":"bvh/vr_prediction_models/model(vcgpdm)-dataset(pass-bottle-hold)-mode(ELBO)-parts(3)-dyn(25)-lvm(30)-hold(2)/final-lines.txt","right":"bvh/pass-bottle-hold-training2-lines.txt","att_check":false},"trial_type":"html-keyboard-response","trial_index":298,"time_elapsed":594169,"internal_node_id":"0.0-8.0-3.72","subject":"qc51duycf6v2xjd","sona":"6982"},{"rt":230.52999982610345,"stimulus":"<p>Bereit?</p>","key_press":32,"trial_type":"html-keyboard-response","trial_index":299,"time_elapsed":594401,"internal_node_id":"0.0-8.0-0.73","subject":"qc51duycf6v2xjd","sona":"6982"},{"rt":null,"stimulus":"<div style=\"font-size:60px;\">+</div>","key_press":null,"trial_type":"html-keyboard-response","trial_index":300,"time_elapsed":596403,"internal_node_id":"0.0-8.0-1.73","subject":"qc51duycf6v2xjd","sona":"6982"},{"trial_type":"turing-test","trial_index":301,"time_elapsed":599488,"internal_node_id":"0.0-8.0-2.73","subject":"qc51duycf6v2xjd","sona":"6982"},{"rt":439.5250000525266,"stimulus":"<p>Welche Sequenz haben Sie als natürlicher empfunden?</p>","key_press":74,"test_part":"response","test_stimulus":{"position":1,"left":"bvh/vr_prediction_models/model(dmp)-dataset(pass-bottle-hold)-npsi(50)-hold(1)/final-lines.txt","right":"bvh/pass-bottle-hold-training1-lines.txt","att_check":false},"trial_type":"html-keyboard-response","trial_index":302,"time_elapsed":599929,"internal_node_id":"0.0-8.0-3.73","subject":"qc51duycf6v2xjd","sona":"6982"},{"rt":222.150000045076,"stimulus":"<p>Bereit?</p>","key_press":32,"trial_type":"html-keyboard-response","trial_index":303,"time_elapsed":600153,"internal_node_id":"0.0-8.0-0.74","subject":"qc51duycf6v2xjd","sona":"6982"},{"rt":null,"stimulus":"<div style=\"font-size:60px;\">+</div>","key_press":null,"trial_type":"html-keyboard-response","trial_index":304,"time_elapsed":602156,"internal_node_id":"0.0-8.0-1.74","subject":"qc51duycf6v2xjd","sona":"6982"},{"trial_type":"turing-test","trial_index":305,"time_elapsed":607946,"internal_node_id":"0.0-8.0-2.74","subject":"qc51duycf6v2xjd","sona":"6982"},{"rt":701.8349999561906,"stimulus":"<p>Welche Sequenz haben Sie als natürlicher empfunden?</p>","key_press":70,"test_part":"response","test_stimulus":{"position":0,"left":"bvh/pass-bottle-training3-lines.txt","right":"bvh/vr_prediction_models/model(vcgpdm)-dataset(pass-bottle)-mode(ELBO)-parts(1)-dyn(20)-lvm(5)-hold(3)/final-lines.txt","att_check":false},"trial_type":"html-keyboard-response","trial_index":306,"time_elapsed":608650,"internal_node_id":"0.0-8.0-3.74","subject":"qc51duycf6v2xjd","sona":"6982"},{"rt":270.1950001064688,"stimulus":"<p>Bereit?</p>","key_press":32,"trial_type":"html-keyboard-response","trial_index":307,"time_elapsed":608921,"internal_node_id":"0.0-8.0-0.75","subject":"qc51duycf6v2xjd","sona":"6982"},{"rt":null,"stimulus":"<div style=\"font-size:60px;\">+</div>","key_press":null,"trial_type":"html-keyboard-response","trial_index":308,"time_elapsed":610923,"internal_node_id":"0.0-8.0-1.75","subject":"qc51duycf6v2xjd","sona":"6982"},{"trial_type":"turing-test","trial_index":309,"time_elapsed":614554,"internal_node_id":"0.0-8.0-2.75","subject":"qc51duycf6v2xjd","sona":"6982"},{"rt":789.6249999757856,"stimulus":"<p>Welche Sequenz haben Sie als natürlicher empfunden?</p>","key_press":74,"test_part":"response","test_stimulus":{"position":0,"left":"bvh/return-bottle-hold-training4-lines.txt","right":"bvh/vr_prediction_models/model(vcgpdm)-dataset(return-bottle-hold)-mode(ELBO)-parts(3)-dyn(30)-lvm(15)-hold(4)/final-lines.txt","att_check":false},"trial_type":"html-keyboard-response","trial_index":310,"time_elapsed":615345,"internal_node_id":"0.0-8.0-3.75","subject":"qc51duycf6v2xjd","sona":"6982"},{"rt":190.48499991185963,"stimulus":"<p>Bereit?</p>","key_press":32,"trial_type":"html-keyboard-response","trial_index":311,"time_elapsed":615537,"internal_node_id":"0.0-8.0-0.76","subject":"qc51duycf6v2xjd","sona":"6982"},{"rt":null,"stimulus":"<div style=\"font-size:60px;\">+</div>","key_press":null,"trial_type":"html-keyboard-response","trial_index":312,"time_elapsed":617540,"internal_node_id":"0.0-8.0-1.76","subject":"qc51duycf6v2xjd","sona":"6982"},{"trial_type":"turing-test","trial_index":313,"time_elapsed":623506,"internal_node_id":"0.0-8.0-2.76","subject":"qc51duycf6v2xjd","sona":"6982"},{"rt":437.6449999399483,"stimulus":"<p>Welche Sequenz haben Sie als natürlicher empfunden?</p>","key_press":74,"test_part":"response","test_stimulus":{"position":1,"left":"bvh/vr_prediction_models/model(dmp)-dataset(pass-bottle)-npsi(60)-hold(2)/final-lines.txt","right":"bvh/pass-bottle-training2-lines.txt","att_check":true},"trial_type":"html-keyboard-response","trial_index":314,"time_elapsed":623946,"internal_node_id":"0.0-8.0-3.76","subject":"qc51duycf6v2xjd","sona":"6982"},{"rt":533.6599999573082,"stimulus":"<p>Bereit?</p>","key_press":32,"trial_type":"html-keyboard-response","trial_index":315,"time_elapsed":624481,"internal_node_id":"0.0-8.0-0.77","subject":"qc51duycf6v2xjd","sona":"6982"},{"rt":null,"stimulus":"<div style=\"font-size:60px;\">+</div>","key_press":null,"trial_type":"html-keyboard-response","trial_index":316,"time_elapsed":626483,"internal_node_id":"0.0-8.0-1.77","subject":"qc51duycf6v2xjd","sona":"6982"},{"trial_type":"turing-test","trial_index":317,"time_elapsed":629984,"internal_node_id":"0.0-8.0-2.77","subject":"qc51duycf6v2xjd","sona":"6982"},{"rt":1070.9899999201298,"stimulus":"<p>Welche Sequenz haben Sie als natürlicher empfunden?</p>","key_press":74,"test_part":"response","test_stimulus":{"position":0,"left":"bvh/return-bottle-hold-training3-lines.txt","right":"bvh/vr_prediction_models/model(tmp)-dataset(return-bottle-hold)-numprim(11)-hold(3)/final-lines.txt","att_check":false},"trial_type":"html-keyboard-response","trial_index":318,"time_elapsed":631057,"internal_node_id":"0.0-8.0-3.77","subject":"qc51duycf6v2xjd","sona":"6982"},{"rt":261.9249999988824,"stimulus":"<p>Bereit?</p>","key_press":32,"trial_type":"html-keyboard-response","trial_index":319,"time_elapsed":631321,"internal_node_id":"0.0-8.0-0.78","subject":"qc51duycf6v2xjd","sona":"6982"},{"rt":null,"stimulus":"<div style=\"font-size:60px;\">+</div>","key_press":null,"trial_type":"html-keyboard-response","trial_index":320,"time_elapsed":633323,"internal_node_id":"0.0-8.0-1.78","subject":"qc51duycf6v2xjd","sona":"6982"},{"trial_type":"turing-test","trial_index":321,"time_elapsed":636588,"internal_node_id":"0.0-8.0-2.78","subject":"qc51duycf6v2xjd","sona":"6982"},{"rt":379.10500005818903,"stimulus":"<p>Welche Sequenz haben Sie als natürlicher empfunden?</p>","key_press":70,"test_part":"response","test_stimulus":{"position":0,"left":"bvh/pass-bottle-hold-training0-lines.txt","right":"bvh/vr_prediction_models/model(vcgpdm)-dataset(pass-bottle-hold)-mode(ELBO)-parts(3)-dyn(25)-lvm(25)-hold(0)/final-lines.txt","att_check":false},"trial_type":"html-keyboard-response","trial_index":322,"time_elapsed":636969,"internal_node_id":"0.0-8.0-3.78","subject":"qc51duycf6v2xjd","sona":"6982"},{"rt":342.6750001963228,"stimulus":"<p>Bereit?</p>","key_press":32,"trial_type":"html-keyboard-response","trial_index":323,"time_elapsed":637313,"internal_node_id":"0.0-8.0-0.79","subject":"qc51duycf6v2xjd","sona":"6982"},{"rt":null,"stimulus":"<div style=\"font-size:60px;\">+</div>","key_press":null,"trial_type":"html-keyboard-response","trial_index":324,"time_elapsed":639316,"internal_node_id":"0.0-8.0-1.79","subject":"qc51duycf6v2xjd","sona":"6982"},{"trial_type":"turing-test","trial_index":325,"time_elapsed":642778,"internal_node_id":"0.0-8.0-2.79","subject":"qc51duycf6v2xjd","sona":"6982"},{"rt":917.7999999374151,"stimulus":"<p>Welche Sequenz haben Sie als natürlicher empfunden?</p>","key_press":74,"test_part":"response","test_stimulus":{"position":1,"left":"bvh/vr_prediction_models/model(tmp)-dataset(pass-bottle-hold)-numprim(9)-hold(3)/final-lines.txt","right":"bvh/pass-bottle-hold-training3-lines.txt","att_check":false},"trial_type":"html-keyboard-response","trial_index":326,"time_elapsed":643697,"internal_node_id":"0.0-8.0-3.79","subject":"qc51duycf6v2xjd","sona":"6982"},{"rt":11915.784999961033,"responses":"{\"age\":\" 25\",\"gender\":\"männlich\"}","trial_type":"survey-text","trial_index":327,"time_elapsed":655618,"internal_node_id":"0.0-10.0-0.0","subject":"qc51duycf6v2xjd","sona":"6982"},{"rt":55487.5250000041,"responses":"{\"area\":\"Arme\",\"Q1\":\"gleichmäßige, monotone Bewegung\",\"Q2\":\"langsame Bewegung oder wildes Zittern\"}","trial_type":"survey-text","trial_index":328,"time_elapsed":711113,"internal_node_id":"0.0-10.0-1.0","subject":"qc51duycf6v2xjd","sona":"6982"}]