[{"rt":5219.559999881312,"stimulus":"<p>Welcome!<br> Please choose your language to start the experiment in the chosen language.</p><p>Willkommen!<br> Bitte wählen Sie eine Sprache, um das Experiment in der ausgewählten Sprache zu starten</p>","button_pressed":"1","trial_type":"html-button-response","trial_index":0,"time_elapsed":5261,"internal_node_id":"0.0-0.0","subject":"6hu373vvccrumpf","sona":"9715"},{"view_history":"[{\"page_index\":0,\"viewing_time\":8930.764999939129},{\"page_index\":1,\"viewing_time\":6928.810000186786},{\"page_index\":2,\"viewing_time\":10801.564999856055},{\"page_index\":3,\"viewing_time\":10336.980000138283},{\"page_index\":4,\"viewing_time\":4605.169999878854}]","rt":41603.85500011034,"trial_type":"instructions","trial_index":1,"time_elapsed":46866,"internal_node_id":"0.0-1.0-0.0","subject":"6hu373vvccrumpf","sona":"9715"},{"rt":2798.4899999573827,"stimulus":"<p>Bereit?</p>","key_press":32,"trial_type":"html-keyboard-response","trial_index":2,"time_elapsed":49665,"internal_node_id":"0.0-3.0","subject":"6hu373vvccrumpf","sona":"9715"},{"rt":null,"stimulus":"<div style=\"font-size:60px;\">+</div>","key_press":null,"trial_type":"html-keyboard-response","trial_index":3,"time_elapsed":51694,"internal_node_id":"0.0-4.0","subject":"6hu373vvccrumpf","sona":"9715"},{"trial_type":"training","trial_index":4,"time_elapsed":55094,"internal_node_id":"0.0-5.0","subject":"6hu373vvccrumpf","sona":"9715"},{"rt":5339.679999975488,"stimulus":"<p>Welche Sequenz haben Sie als natürlicher empfunden?</p>","key_press":70,"trial_type":"html-keyboard-response","trial_index":5,"time_elapsed":60430,"internal_node_id":"0.0-6.0","subject":"6hu373vvccrumpf","sona":"9715"},{"rt":3658.9700002223253,"stimulus":"<p>Das Experiment startet nun.</p><p><small>Bitte drücken Sie den Knopf, wenn Sie bereit sind.</small></p>","button_pressed":"0","trial_type":"html-button-response","trial_index":6,"time_elapsed":64090,"internal_node_id":"0.0-7.0","subject":"6hu373vvccrumpf","sona":"9715"},{"rt":5244.024999905378,"stimulus":"<p>Bereit?</p>","key_press":32,"trial_type":"html-keyboard-response","trial_index":7,"time_elapsed":69334,"internal_node_id":"0.0-8.0-0.0","subject":"6hu373vvccrumpf","sona":"9715"},{"rt":null,"stimulus":"<div style=\"font-size:60px;\">+</div>","key_press":null,"trial_type":"html-keyboard-response","trial_index":8,"time_elapsed":71350,"internal_node_id":"0.0-8.0-1.0","subject":"6hu373vvccrumpf","sona":"9715"},{"trial_type":"turing-test","trial_index":9,"time_elapsed":77323,"internal_node_id":"0.0-8.0-2.0","subject":"6hu373vvccrumpf","sona":"9715"},{"rt":2190.429999958724,"stimulus":"<p>Welche Sequenz haben Sie als natürlicher empfunden?</p>","key_press":70,"test_part":"response","test_stimulus":{"position":1,"left":"bvh/vr_prediction_models/model(vcgpdm)-dataset(pass-bottle)-mode(ELBO)-parts(3)-dyn(15)-lvm(30)-hold(4)/final-lines.txt","right":"bvh/pass-bottle-training4-lines.txt","att_check":false},"trial_type":"html-keyboard-response","trial_index":10,"time_elapsed":79516,"internal_node_id":"0.0-8.0-3.0","subject":"6hu373vvccrumpf","sona":"9715"},{"rt":1683.9799999725074,"stimulus":"<p>Bereit?</p>","key_press":32,"trial_type":"html-keyboard-response","trial_index":11,"time_elapsed":81201,"internal_node_id":"0.0-8.0-0.1","subject":"6hu373vvccrumpf","sona":"9715"},{"rt":null,"stimulus":"<div style=\"font-size:60px;\">+</div>","key_press":null,"trial_type":"html-keyboard-response","trial_index":12,"time_elapsed":83215,"internal_node_id":"0.0-8.0-1.1","subject":"6hu373vvccrumpf","sona":"9715"},{"trial_type":"turing-test","trial_index":13,"time_elapsed":87074,"internal_node_id":"0.0-8.0-2.1","subject":"6hu373vvccrumpf","sona":"9715"},{"rt":630.0600001122802,"stimulus":"<p>Welche Sequenz haben Sie als natürlicher empfunden?</p>","key_press":74,"test_part":"response","test_stimulus":{"position":1,"left":"bvh/vr_prediction_models/model(vcgpdm)-dataset(return-bottle-hold)-mode(ELBO)-parts(3)-dyn(15)-lvm(30)-hold(3)/final-lines.txt","right":"bvh/return-bottle-hold-training3-lines.txt","att_check":false},"trial_type":"html-keyboard-response","trial_index":14,"time_elapsed":87705,"internal_node_id":"0.0-8.0-3.1","subject":"6hu373vvccrumpf","sona":"9715"},{"rt":1040.7499999273568,"stimulus":"<p>Bereit?</p>","key_press":32,"trial_type":"html-keyboard-response","trial_index":15,"time_elapsed":88749,"internal_node_id":"0.0-8.0-0.2","subject":"6hu373vvccrumpf","sona":"9715"},{"rt":null,"stimulus":"<div style=\"font-size:60px;\">+</div>","key_press":null,"trial_type":"html-keyboard-response","trial_index":16,"time_elapsed":90767,"internal_node_id":"0.0-8.0-1.2","subject":"6hu373vvccrumpf","sona":"9715"},{"trial_type":"turing-test","trial_index":17,"time_elapsed":97676,"internal_node_id":"0.0-8.0-2.2","subject":"6hu373vvccrumpf","sona":"9715"},{"rt":773.0300000403076,"stimulus":"<p>Welche Sequenz haben Sie als natürlicher empfunden?</p>","key_press":70,"test_part":"response","test_stimulus":{"position":0,"left":"bvh/pass-bottle-training0-lines.txt","right":"bvh/vr_prediction_models/model(vcgpdm)-dataset(pass-bottle)-mode(MAP)-parts(1)-hold(0)/final-lines.txt","att_check":false},"trial_type":"html-keyboard-response","trial_index":18,"time_elapsed":98451,"internal_node_id":"0.0-8.0-3.2","subject":"6hu373vvccrumpf","sona":"9715"},{"rt":914.8450000211596,"stimulus":"<p>Bereit?</p>","key_press":32,"trial_type":"html-keyboard-response","trial_index":19,"time_elapsed":99367,"internal_node_id":"0.0-8.0-0.3","subject":"6hu373vvccrumpf","sona":"9715"},{"rt":null,"stimulus":"<div style=\"font-size:60px;\">+</div>","key_press":null,"trial_type":"html-keyboard-response","trial_index":20,"time_elapsed":101382,"internal_node_id":"0.0-8.0-1.3","subject":"6hu373vvccrumpf","sona":"9715"},{"trial_type":"turing-test","trial_index":21,"time_elapsed":108245,"internal_node_id":"0.0-8.0-2.3","subject":"6hu373vvccrumpf","sona":"9715"},{"rt":938.1049999501556,"stimulus":"<p>Welche Sequenz haben Sie als natürlicher empfunden?</p>","key_press":70,"test_part":"response","test_stimulus":{"position":0,"left":"bvh/pass-bottle-training0-lines.txt","right":"bvh/vr_prediction_models/model(vcgpdm)-dataset(pass-bottle)-mode(ELBO)-parts(1)-dyn(10)-lvm(5)-hold(0)/final-lines.txt","att_check":false},"trial_type":"html-keyboard-response","trial_index":22,"time_elapsed":109187,"internal_node_id":"0.0-8.0-3.3","subject":"6hu373vvccrumpf","sona":"9715"},{"rt":879.2400001548231,"stimulus":"<p>Bereit?</p>","key_press":32,"trial_type":"html-keyboard-response","trial_index":23,"time_elapsed":110068,"internal_node_id":"0.0-8.0-0.4","subject":"6hu373vvccrumpf","sona":"9715"},{"rt":null,"stimulus":"<div style=\"font-size:60px;\">+</div>","key_press":null,"trial_type":"html-keyboard-response","trial_index":24,"time_elapsed":112084,"internal_node_id":"0.0-8.0-1.4","subject":"6hu373vvccrumpf","sona":"9715"},{"trial_type":"turing-test","trial_index":25,"time_elapsed":115454,"internal_node_id":"0.0-8.0-2.4","subject":"6hu373vvccrumpf","sona":"9715"},{"rt":1026.2950002215803,"stimulus":"<p>Welche Sequenz haben Sie als natürlicher empfunden?</p>","key_press":74,"test_part":"response","test_stimulus":{"position":0,"left":"bvh/return-bottle-hold-training1-lines.txt","right":"bvh/vr_prediction_models/model(tmp)-dataset(return-bottle-hold)-numprim(12)-hold(1)/final-lines.txt","att_check":false},"trial_type":"html-keyboard-response","trial_index":26,"time_elapsed":116483,"internal_node_id":"0.0-8.0-3.4","subject":"6hu373vvccrumpf","sona":"9715"},{"rt":973.0749998707324,"stimulus":"<p>Bereit?</p>","key_press":32,"trial_type":"html-keyboard-response","trial_index":27,"time_elapsed":117458,"internal_node_id":"0.0-8.0-0.5","subject":"6hu373vvccrumpf","sona":"9715"},{"rt":null,"stimulus":"<div style=\"font-size:60px;\">+</div>","key_press":null,"trial_type":"html-keyboard-response","trial_index":28,"time_elapsed":119469,"internal_node_id":"0.0-8.0-1.5","subject":"6hu373vvccrumpf","sona":"9715"},{"trial_type":"turing-test","trial_index":29,"time_elapsed":123081,"internal_node_id":"0.0-8.0-2.5","subject":"6hu373vvccrumpf","sona":"9715"},{"rt":554.7350000124425,"stimulus":"<p>Welche Sequenz haben Sie als natürlicher empfunden?</p>","key_press":74,"test_part":"response","test_stimulus":{"position":1,"left":"bvh/vr_prediction_models/model(dmp)-dataset(return-bottle-hold)-npsi(20)-hold(3)/final-lines.txt","right":"bvh/return-bottle-hold-training3-lines.txt","att_check":false},"trial_type":"html-keyboard-response","trial_index":30,"time_elapsed":123639,"internal_node_id":"0.0-8.0-3.5","subject":"6hu373vvccrumpf","sona":"9715"},{"rt":571.7949999962002,"stimulus":"<p>Bereit?</p>","key_press":32,"trial_type":"html-keyboard-response","trial_index":31,"time_elapsed":124213,"internal_node_id":"0.0-8.0-0.6","subject":"6hu373vvccrumpf","sona":"9715"},{"rt":null,"stimulus":"<div style=\"font-size:60px;\">+</div>","key_press":null,"trial_type":"html-keyboard-response","trial_index":32,"time_elapsed":126224,"internal_node_id":"0.0-8.0-1.6","subject":"6hu373vvccrumpf","sona":"9715"},{"trial_type":"turing-test","trial_index":33,"time_elapsed":129794,"internal_node_id":"0.0-8.0-2.6","subject":"6hu373vvccrumpf","sona":"9715"},{"rt":2166.0350000020117,"stimulus":"<p>Welche Sequenz haben Sie als natürlicher empfunden?</p>","key_press":70,"test_part":"response","test_stimulus":{"position":1,"left":"bvh/vr_prediction_models/model(dmp)-dataset(pass-bottle-hold)-npsi(90)-hold(3)/final-lines.txt","right":"bvh/pass-bottle-hold-training3-lines.txt","att_check":false},"trial_type":"html-keyboard-response","trial_index":34,"time_elapsed":131963,"internal_node_id":"0.0-8.0-3.6","subject":"6hu373vvccrumpf","sona":"9715"},{"rt":297.4199999589473,"stimulus":"<p>Bereit?</p>","key_press":32,"trial_type":"html-keyboard-response","trial_index":35,"time_elapsed":132262,"internal_node_id":"0.0-8.0-0.7","subject":"6hu373vvccrumpf","sona":"9715"},{"rt":null,"stimulus":"<div style=\"font-size:60px;\">+</div>","key_press":null,"trial_type":"html-keyboard-response","trial_index":36,"time_elapsed":134290,"internal_node_id":"0.0-8.0-1.7","subject":"6hu373vvccrumpf","sona":"9715"},{"trial_type":"turing-test","trial_index":37,"time_elapsed":137714,"internal_node_id":"0.0-8.0-2.7","subject":"6hu373vvccrumpf","sona":"9715"},{"rt":1017.8249999880791,"stimulus":"<p>Welche Sequenz haben Sie als natürlicher empfunden?</p>","key_press":74,"test_part":"response","test_stimulus":{"position":1,"left":"bvh/vr_prediction_models/model(vcgpdm)-dataset(pass-bottle-hold)-mode(ELBO)-parts(1)-dyn(30)-lvm(30)-hold(1)/final-lines.txt","right":"bvh/pass-bottle-hold-training1-lines.txt","att_check":false},"trial_type":"html-keyboard-response","trial_index":38,"time_elapsed":138735,"internal_node_id":"0.0-8.0-3.7","subject":"6hu373vvccrumpf","sona":"9715"},{"rt":577.9250001069158,"stimulus":"<p>Bereit?</p>","key_press":32,"trial_type":"html-keyboard-response","trial_index":39,"time_elapsed":139315,"internal_node_id":"0.0-8.0-0.8","subject":"6hu373vvccrumpf","sona":"9715"},{"rt":null,"stimulus":"<div style=\"font-size:60px;\">+</div>","key_press":null,"trial_type":"html-keyboard-response","trial_index":40,"time_elapsed":141325,"internal_node_id":"0.0-8.0-1.8","subject":"6hu373vvccrumpf","sona":"9715"},{"trial_type":"turing-test","trial_index":41,"time_elapsed":144963,"internal_node_id":"0.0-8.0-2.8","subject":"6hu373vvccrumpf","sona":"9715"},{"rt":1214.6900000516325,"stimulus":"<p>Welche Sequenz haben Sie als natürlicher empfunden?</p>","key_press":70,"test_part":"response","test_stimulus":{"position":1,"left":"bvh/vr_prediction_models/model(dmp)-dataset(return-bottle-hold)-npsi(60)-hold(3)/final-lines.txt","right":"bvh/return-bottle-hold-training3-lines.txt","att_check":false},"trial_type":"html-keyboard-response","trial_index":42,"time_elapsed":146183,"internal_node_id":"0.0-8.0-3.8","subject":"6hu373vvccrumpf","sona":"9715"},{"rt":1483.3850001450628,"stimulus":"<p>Bereit?</p>","key_press":32,"trial_type":"html-keyboard-response","trial_index":43,"time_elapsed":147668,"internal_node_id":"0.0-8.0-0.9","subject":"6hu373vvccrumpf","sona":"9715"},{"rt":null,"stimulus":"<div style=\"font-size:60px;\">+</div>","key_press":null,"trial_type":"html-keyboard-response","trial_index":44,"time_elapsed":149675,"internal_node_id":"0.0-8.0-1.9","subject":"6hu373vvccrumpf","sona":"9715"},{"trial_type":"turing-test","trial_index":45,"time_elapsed":156398,"internal_node_id":"0.0-8.0-2.9","subject":"6hu373vvccrumpf","sona":"9715"},{"rt":2101.3050000183284,"stimulus":"<p>Welche Sequenz haben Sie als natürlicher empfunden?</p>","key_press":74,"test_part":"response","test_stimulus":{"position":0,"left":"bvh/pass-bottle-training0-lines.txt","right":"bvh/vr_prediction_models/model(tmp)-dataset(pass-bottle)-numprim(13)-hold(0)/final-lines.txt","att_check":false},"trial_type":"html-keyboard-response","trial_index":46,"time_elapsed":158500,"internal_node_id":"0.0-8.0-3.9","subject":"6hu373vvccrumpf","sona":"9715"},{"rt":767.9749999660999,"stimulus":"<p>Bereit?</p>","key_press":32,"trial_type":"html-keyboard-response","trial_index":47,"time_elapsed":159270,"internal_node_id":"0.0-8.0-0.10","subject":"6hu373vvccrumpf","sona":"9715"},{"rt":null,"stimulus":"<div style=\"font-size:60px;\">+</div>","key_press":null,"trial_type":"html-keyboard-response","trial_index":48,"time_elapsed":161289,"internal_node_id":"0.0-8.0-1.10","subject":"6hu373vvccrumpf","sona":"9715"},{"trial_type":"turing-test","trial_index":49,"time_elapsed":164950,"internal_node_id":"0.0-8.0-2.10","subject":"6hu373vvccrumpf","sona":"9715"},{"rt":1095.6350001506507,"stimulus":"<p>Welche Sequenz haben Sie als natürlicher empfunden?</p>","key_press":70,"test_part":"response","test_stimulus":{"position":0,"left":"bvh/return-bottle-hold-training2-lines.txt","right":"bvh/vr_prediction_models/model(vcgpdm)-dataset(return-bottle-hold)-mode(ELBO)-parts(3)-dyn(25)-lvm(25)-hold(2)/final-lines.txt","att_check":false},"trial_type":"html-keyboard-response","trial_index":50,"time_elapsed":166047,"internal_node_id":"0.0-8.0-3.10","subject":"6hu373vvccrumpf","sona":"9715"},{"rt":1326.365000102669,"stimulus":"<p>Bereit?</p>","key_press":32,"trial_type":"html-keyboard-response","trial_index":51,"time_elapsed":167375,"internal_node_id":"0.0-8.0-0.11","subject":"6hu373vvccrumpf","sona":"9715"},{"rt":null,"stimulus":"<div style=\"font-size:60px;\">+</div>","key_press":null,"trial_type":"html-keyboard-response","trial_index":52,"time_elapsed":169392,"internal_node_id":"0.0-8.0-1.11","subject":"6hu373vvccrumpf","sona":"9715"}]