[{"rt":3235.9,"stimulus":"<p>Welcome!<br> Please choose your language to start the experiment in the chosen language.</p><p>Willkommen!<br> Bitte wählen Sie eine Sprache, um das Experiment in der ausgewählten Sprache zu starten</p>","button_pressed":"1","trial_type":"html-button-response","trial_index":0,"time_elapsed":3242,"internal_node_id":"0.0-0.0","subject":"fyc0r609fgfcrw2","sona":"5494"},{"view_history":"[{\"page_index\":0,\"viewing_time\":5881.499999999999},{\"page_index\":1,\"viewing_time\":2367.9000000000015},{\"page_index\":2,\"viewing_time\":11056},{\"page_index\":3,\"viewing_time\":6143.9000000000015},{\"page_index\":4,\"viewing_time\":2664.100000000002}]","rt":28114.000000000004,"trial_type":"instructions","trial_index":1,"time_elapsed":31359,"internal_node_id":"0.0-1.0-0.0","subject":"fyc0r609fgfcrw2","sona":"5494"},{"rt":1717.800000000003,"stimulus":"<p>Bereit?</p>","key_press":32,"trial_type":"html-keyboard-response","trial_index":2,"time_elapsed":33078,"internal_node_id":"0.0-3.0","subject":"fyc0r609fgfcrw2","sona":"5494"},{"rt":null,"stimulus":"<div style=\"font-size:60px;\">+</div>","key_press":null,"trial_type":"html-keyboard-response","trial_index":3,"time_elapsed":35081,"internal_node_id":"0.0-4.0","subject":"fyc0r609fgfcrw2","sona":"5494"},{"trial_type":"training","trial_index":4,"time_elapsed":38375,"internal_node_id":"0.0-5.0","subject":"fyc0r609fgfcrw2","sona":"5494"},{"rt":1802.5,"stimulus":"<p>Welche Sequenz haben Sie als natürlicher empfunden?</p>","key_press":70,"trial_type":"html-keyboard-response","trial_index":5,"time_elapsed":40178,"internal_node_id":"0.0-6.0","subject":"fyc0r609fgfcrw2","sona":"5494"},{"rt":4108.699999999997,"stimulus":"<p>Das Experiment startet nun.</p><p><small>Bitte drücken Sie den Knopf, wenn Sie bereit sind.</small></p>","button_pressed":"0","trial_type":"html-button-response","trial_index":6,"time_elapsed":44287,"internal_node_id":"0.0-7.0","subject":"fyc0r609fgfcrw2","sona":"5494"},{"rt":1174.0999999999913,"stimulus":"<p>Bereit?</p>","key_press":32,"trial_type":"html-keyboard-response","trial_index":7,"time_elapsed":45466,"internal_node_id":"0.0-8.0-0.0","subject":"fyc0r609fgfcrw2","sona":"5494"},{"rt":null,"stimulus":"<div style=\"font-size:60px;\">+</div>","key_press":null,"trial_type":"html-keyboard-response","trial_index":8,"time_elapsed":47469,"internal_node_id":"0.0-8.0-1.0","subject":"fyc0r609fgfcrw2","sona":"5494"},{"trial_type":"turing-test","trial_index":9,"time_elapsed":50966,"internal_node_id":"0.0-8.0-2.0","subject":"fyc0r609fgfcrw2","sona":"5494"},{"rt":910.6000000000058,"stimulus":"<p>Welche Sequenz haben Sie als natürlicher empfunden?</p>","key_press":74,"test_part":"response","test_stimulus":{"position":1,"left":"bvh/vr_prediction_models/model(vcgpdm)-dataset(return-bottle-hold)-mode(ELBO)-parts(3)-dyn(25)-lvm(15)-hold(2)/final-lines.txt","right":"bvh/return-bottle-hold-training2-lines.txt","att_check":false},"trial_type":"html-keyboard-response","trial_index":10,"time_elapsed":51878,"internal_node_id":"0.0-8.0-3.0","subject":"fyc0r609fgfcrw2","sona":"5494"},{"rt":1173.6000000000058,"stimulus":"<p>Bereit?</p>","key_press":32,"trial_type":"html-keyboard-response","trial_index":11,"time_elapsed":53053,"internal_node_id":"0.0-8.0-0.1","subject":"fyc0r609fgfcrw2","sona":"5494"},{"rt":null,"stimulus":"<div style=\"font-size:60px;\">+</div>","key_press":null,"trial_type":"html-keyboard-response","trial_index":12,"time_elapsed":55056,"internal_node_id":"0.0-8.0-1.1","subject":"fyc0r609fgfcrw2","sona":"5494"},{"trial_type":"turing-test","trial_index":13,"time_elapsed":58714,"internal_node_id":"0.0-8.0-2.1","subject":"fyc0r609fgfcrw2","sona":"5494"},{"rt":688.3000000000029,"stimulus":"<p>Welche Sequenz haben Sie als natürlicher empfunden?</p>","key_press":74,"test_part":"response","test_stimulus":{"position":1,"left":"bvh/vr_prediction_models/model(vcgpdm)-dataset(return-bottle-hold)-mode(ELBO)-parts(1)-dyn(30)-lvm(20)-hold(3)/final-lines.txt","right":"bvh/return-bottle-hold-training3-lines.txt","att_check":false},"trial_type":"html-keyboard-response","trial_index":14,"time_elapsed":59404,"internal_node_id":"0.0-8.0-3.1","subject":"fyc0r609fgfcrw2","sona":"5494"},{"rt":1848.800000000003,"stimulus":"<p>Bereit?</p>","key_press":32,"trial_type":"html-keyboard-response","trial_index":15,"time_elapsed":61253,"internal_node_id":"0.0-8.0-0.2","subject":"fyc0r609fgfcrw2","sona":"5494"},{"rt":null,"stimulus":"<div style=\"font-size:60px;\">+</div>","key_press":null,"trial_type":"html-keyboard-response","trial_index":16,"time_elapsed":63256,"internal_node_id":"0.0-8.0-1.2","subject":"fyc0r609fgfcrw2","sona":"5494"},{"trial_type":"turing-test","trial_index":17,"time_elapsed":68932,"internal_node_id":"0.0-8.0-2.2","subject":"fyc0r609fgfcrw2","sona":"5494"},{"rt":1595.7999999999884,"stimulus":"<p>Welche Sequenz haben Sie als natürlicher empfunden?</p>","key_press":74,"test_part":"response","test_stimulus":{"position":1,"left":"bvh/vr_prediction_models/model(dmp)-dataset(return-bottle)-npsi(100)-hold(3)/final-lines.txt","right":"bvh/return-bottle-training3-lines.txt","att_check":false},"trial_type":"html-keyboard-response","trial_index":18,"time_elapsed":70529,"internal_node_id":"0.0-8.0-3.2","subject":"fyc0r609fgfcrw2","sona":"5494"},{"rt":1036.3999999999942,"stimulus":"<p>Bereit?</p>","key_press":32,"trial_type":"html-keyboard-response","trial_index":19,"time_elapsed":71566,"internal_node_id":"0.0-8.0-0.3","subject":"fyc0r609fgfcrw2","sona":"5494"},{"rt":null,"stimulus":"<div style=\"font-size:60px;\">+</div>","key_press":null,"trial_type":"html-keyboard-response","trial_index":20,"time_elapsed":73568,"internal_node_id":"0.0-8.0-1.3","subject":"fyc0r609fgfcrw2","sona":"5494"},{"trial_type":"turing-test","trial_index":21,"time_elapsed":78983,"internal_node_id":"0.0-8.0-2.3","subject":"fyc0r609fgfcrw2","sona":"5494"},{"rt":882.8000000000029,"stimulus":"<p>Welche Sequenz haben Sie als natürlicher empfunden?</p>","key_press":70,"test_part":"response","test_stimulus":{"position":0,"left":"bvh/return-bottle-training0-lines.txt","right":"bvh/vr_prediction_models/model(vcgpdm)-dataset(return-bottle)-mode(ELBO)-parts(1)-dyn(10)-lvm(5)-hold(0)/final-lines.txt","att_check":false},"trial_type":"html-keyboard-response","trial_index":22,"time_elapsed":79867,"internal_node_id":"0.0-8.0-3.3","subject":"fyc0r609fgfcrw2","sona":"5494"},{"rt":1186,"stimulus":"<p>Bereit?</p>","key_press":32,"trial_type":"html-keyboard-response","trial_index":23,"time_elapsed":81054,"internal_node_id":"0.0-8.0-0.4","subject":"fyc0r609fgfcrw2","sona":"5494"},{"rt":null,"stimulus":"<div style=\"font-size:60px;\">+</div>","key_press":null,"trial_type":"html-keyboard-response","trial_index":24,"time_elapsed":83056,"internal_node_id":"0.0-8.0-1.4","subject":"fyc0r609fgfcrw2","sona":"5494"},{"trial_type":"turing-test","trial_index":25,"time_elapsed":86608,"internal_node_id":"0.0-8.0-2.4","subject":"fyc0r609fgfcrw2","sona":"5494"},{"rt":470.3999999999942,"stimulus":"<p>Welche Sequenz haben Sie als natürlicher empfunden?</p>","key_press":70,"test_part":"response","test_stimulus":{"position":0,"left":"bvh/return-bottle-hold-training3-lines.txt","right":"bvh/vr_prediction_models/model(dmp)-dataset(return-bottle-hold)-npsi(90)-hold(3)/final-lines.txt","att_check":true},"trial_type":"html-keyboard-response","trial_index":26,"time_elapsed":87079,"internal_node_id":"0.0-8.0-3.4","subject":"fyc0r609fgfcrw2","sona":"5494"},{"rt":536.1999999999971,"stimulus":"<p>Bereit?</p>","key_press":32,"trial_type":"html-keyboard-response","trial_index":27,"time_elapsed":87617,"internal_node_id":"0.0-8.0-0.5","subject":"fyc0r609fgfcrw2","sona":"5494"},{"rt":null,"stimulus":"<div style=\"font-size:60px;\">+</div>","key_press":null,"trial_type":"html-keyboard-response","trial_index":28,"time_elapsed":89619,"internal_node_id":"0.0-8.0-1.5","subject":"fyc0r609fgfcrw2","sona":"5494"},{"trial_type":"turing-test","trial_index":29,"time_elapsed":95628,"internal_node_id":"0.0-8.0-2.5","subject":"fyc0r609fgfcrw2","sona":"5494"},{"rt":550.2999999999884,"stimulus":"<p>Welche Sequenz haben Sie als natürlicher empfunden?</p>","key_press":74,"test_part":"response","test_stimulus":{"position":1,"left":"bvh/vr_prediction_models/model(tmp)-dataset(return-bottle)-numprim(5)-hold(1)/final-lines.txt","right":"bvh/return-bottle-training1-lines.txt","att_check":false},"trial_type":"html-keyboard-response","trial_index":30,"time_elapsed":96180,"internal_node_id":"0.0-8.0-3.5","subject":"fyc0r609fgfcrw2","sona":"5494"},{"rt":524,"stimulus":"<p>Bereit?</p>","key_press":32,"trial_type":"html-keyboard-response","trial_index":31,"time_elapsed":96705,"internal_node_id":"0.0-8.0-0.6","subject":"fyc0r609fgfcrw2","sona":"5494"},{"rt":null,"stimulus":"<div style=\"font-size:60px;\">+</div>","key_press":null,"trial_type":"html-keyboard-response","trial_index":32,"time_elapsed":98707,"internal_node_id":"0.0-8.0-1.6","subject":"fyc0r609fgfcrw2","sona":"5494"},{"trial_type":"turing-test","trial_index":33,"time_elapsed":102183,"internal_node_id":"0.0-8.0-2.6","subject":"fyc0r609fgfcrw2","sona":"5494"},{"rt":582.7999999999884,"stimulus":"<p>Welche Sequenz haben Sie als natürlicher empfunden?</p>","key_press":74,"test_part":"response","test_stimulus":{"position":0,"left":"bvh/pass-bottle-hold-training3-lines.txt","right":"bvh/vr_prediction_models/model(dmp)-dataset(pass-bottle-hold)-npsi(70)-hold(3)/final-lines.txt","att_check":true},"trial_type":"html-keyboard-response","trial_index":34,"time_elapsed":102768,"internal_node_id":"0.0-8.0-3.6","subject":"fyc0r609fgfcrw2","sona":"5494"},{"rt":786.3000000000029,"stimulus":"<p>Bereit?</p>","key_press":32,"trial_type":"html-keyboard-response","trial_index":35,"time_elapsed":103555,"internal_node_id":"0.0-8.0-0.7","subject":"fyc0r609fgfcrw2","sona":"5494"},{"rt":null,"stimulus":"<div style=\"font-size:60px;\">+</div>","key_press":null,"trial_type":"html-keyboard-response","trial_index":36,"time_elapsed":105558,"internal_node_id":"0.0-8.0-1.7","subject":"fyc0r609fgfcrw2","sona":"5494"},{"trial_type":"turing-test","trial_index":37,"time_elapsed":112136,"internal_node_id":"0.0-8.0-2.7","subject":"fyc0r609fgfcrw2","sona":"5494"},{"rt":1105.3999999999942,"stimulus":"<p>Welche Sequenz haben Sie als natürlicher empfunden?</p>","key_press":70,"test_part":"response","test_stimulus":{"position":0,"left":"bvh/return-bottle-training2-lines.txt","right":"bvh/vr_prediction_models/model(vcgpdm)-dataset(return-bottle)-mode(ELBO)-parts(1)-dyn(10)-lvm(5)-hold(2)/final-lines.txt","att_check":false},"trial_type":"html-keyboard-response","trial_index":38,"time_elapsed":113243,"internal_node_id":"0.0-8.0-3.7","subject":"fyc0r609fgfcrw2","sona":"5494"},{"rt":523.8999999999942,"stimulus":"<p>Bereit?</p>","key_press":32,"trial_type":"html-keyboard-response","trial_index":39,"time_elapsed":113768,"internal_node_id":"0.0-8.0-0.8","subject":"fyc0r609fgfcrw2","sona":"5494"},{"rt":null,"stimulus":"<div style=\"font-size:60px;\">+</div>","key_press":null,"trial_type":"html-keyboard-response","trial_index":40,"time_elapsed":115771,"internal_node_id":"0.0-8.0-1.8","subject":"fyc0r609fgfcrw2","sona":"5494"},{"trial_type":"turing-test","trial_index":41,"time_elapsed":119134,"internal_node_id":"0.0-8.0-2.8","subject":"fyc0r609fgfcrw2","sona":"5494"},{"rt":994.9999999999854,"stimulus":"<p>Welche Sequenz haben Sie als natürlicher empfunden?</p>","key_press":70,"test_part":"response","test_stimulus":{"position":1,"left":"bvh/vr_prediction_models/model(vcgpdm)-dataset(return-bottle-hold)-mode(ELBO)-parts(3)-dyn(25)-lvm(15)-hold(1)/final-lines.txt","right":"bvh/return-bottle-hold-training1-lines.txt","att_check":false},"trial_type":"html-keyboard-response","trial_index":42,"time_elapsed":120131,"internal_node_id":"0.0-8.0-3.8","subject":"fyc0r609fgfcrw2","sona":"5494"},{"rt":423.6000000000058,"stimulus":"<p>Bereit?</p>","key_press":32,"trial_type":"html-keyboard-response","trial_index":43,"time_elapsed":120555,"internal_node_id":"0.0-8.0-0.9","subject":"fyc0r609fgfcrw2","sona":"5494"},{"rt":null,"stimulus":"<div style=\"font-size:60px;\">+</div>","key_press":null,"trial_type":"html-keyboard-response","trial_index":44,"time_elapsed":122558,"internal_node_id":"0.0-8.0-1.9","subject":"fyc0r609fgfcrw2","sona":"5494"},{"trial_type":"turing-test","trial_index":45,"time_elapsed":126156,"internal_node_id":"0.0-8.0-2.9","subject":"fyc0r609fgfcrw2","sona":"5494"},{"rt":948.7999999999884,"stimulus":"<p>Welche Sequenz haben Sie als natürlicher empfunden?</p>","key_press":74,"test_part":"response","test_stimulus":{"position":0,"left":"bvh/pass-bottle-hold-training4-lines.txt","right":"bvh/vr_prediction_models/model(vcgpdm)-dataset(pass-bottle-hold)-mode(ELBO)-parts(1)-dyn(20)-lvm(5)-hold(4)/final-lines.txt","att_check":false},"trial_type":"html-keyboard-response","trial_index":46,"time_elapsed":127106,"internal_node_id":"0.0-8.0-3.9","subject":"fyc0r609fgfcrw2","sona":"5494"},{"rt":2124.0000000000146,"stimulus":"<p>Bereit?</p>","key_press":32,"trial_type":"html-keyboard-response","trial_index":47,"time_elapsed":129231,"internal_node_id":"0.0-8.0-0.10","subject":"fyc0r609fgfcrw2","sona":"5494"},{"rt":null,"stimulus":"<div style=\"font-size:60px;\">+</div>","key_press":null,"trial_type":"html-keyboard-response","trial_index":48,"time_elapsed":131234,"internal_node_id":"0.0-8.0-1.10","subject":"fyc0r609fgfcrw2","sona":"5494"},{"trial_type":"turing-test","trial_index":49,"time_elapsed":136872,"internal_node_id":"0.0-8.0-2.10","subject":"fyc0r609fgfcrw2","sona":"5494"},{"rt":382.70000000001164,"stimulus":"<p>Welche Sequenz haben Sie als natürlicher empfunden?</p>","key_press":70,"test_part":"response","test_stimulus":{"position":0,"left":"bvh/return-bottle-training3-lines.txt","right":"bvh/vr_prediction_models/model(tmp)-dataset(return-bottle)-numprim(11)-hold(3)/final-lines.txt","att_check":false},"trial_type":"html-keyboard-response","trial_index":50,"time_elapsed":137256,"internal_node_id":"0.0-8.0-3.10","subject":"fyc0r609fgfcrw2","sona":"5494"},{"rt":648.6999999999825,"stimulus":"<p>Bereit?</p>","key_press":32,"trial_type":"html-keyboard-response","trial_index":51,"time_elapsed":137906,"internal_node_id":"0.0-8.0-0.11","subject":"fyc0r609fgfcrw2","sona":"5494"},{"rt":null,"stimulus":"<div style=\"font-size:60px;\">+</div>","key_press":null,"trial_type":"html-keyboard-response","trial_index":52,"time_elapsed":139909,"internal_node_id":"0.0-8.0-1.11","subject":"fyc0r609fgfcrw2","sona":"5494"}]