[{"rt":10535.215000010794,"stimulus":"<p>Welcome!<br> Please choose your language to start the experiment in the chosen language.</p><p>Willkommen!<br> Bitte wählen Sie eine Sprache, um das Experiment in der ausgewählten Sprache zu starten</p>","button_pressed":"1","trial_type":"html-button-response","trial_index":0,"time_elapsed":10658,"internal_node_id":"0.0-0.0","subject":"cqgyw37m1k04wte","sona":"7567"},{"view_history":"[{\"page_index\":0,\"viewing_time\":1651.0549999948125},{\"page_index\":1,\"viewing_time\":1892.0800000050804},{\"page_index\":2,\"viewing_time\":3525.499999988824},{\"page_index\":3,\"viewing_time\":1538.8349999993807},{\"page_index\":4,\"viewing_time\":1874.695000005886}]","rt":10483.074999996461,"trial_type":"instructions","trial_index":1,"time_elapsed":21142,"internal_node_id":"0.0-1.0-0.0","subject":"cqgyw37m1k04wte","sona":"7567"},{"rt":1655.3899999998976,"stimulus":"<p>Bereit?</p>","key_press":32,"trial_type":"html-keyboard-response","trial_index":2,"time_elapsed":22799,"internal_node_id":"0.0-3.0","subject":"cqgyw37m1k04wte","sona":"7567"},{"rt":null,"stimulus":"<div style=\"font-size:60px;\">+</div>","key_press":null,"trial_type":"html-keyboard-response","trial_index":3,"time_elapsed":24828,"internal_node_id":"0.0-4.0","subject":"cqgyw37m1k04wte","sona":"7567"},{"trial_type":"training","trial_index":4,"time_elapsed":28224,"internal_node_id":"0.0-5.0","subject":"cqgyw37m1k04wte","sona":"7567"},{"rt":572.8050000034273,"stimulus":"<p>Welche Sequenz haben Sie als natürlicher empfunden?</p>","key_press":74,"trial_type":"html-keyboard-response","trial_index":5,"time_elapsed":28798,"internal_node_id":"0.0-6.0","subject":"cqgyw37m1k04wte","sona":"7567"},{"rt":3690.084999994724,"stimulus":"<p>Das Experiment startet nun.</p><p><small>Bitte drücken Sie den Knopf, wenn Sie bereit sind.</small></p>","button_pressed":"0","trial_type":"html-button-response","trial_index":6,"time_elapsed":32490,"internal_node_id":"0.0-7.0","subject":"cqgyw37m1k04wte","sona":"7567"},{"rt":1519.1649999906076,"stimulus":"<p>Bereit?</p>","key_press":32,"trial_type":"html-keyboard-response","trial_index":7,"time_elapsed":34011,"internal_node_id":"0.0-8.0-0.0","subject":"cqgyw37m1k04wte","sona":"7567"},{"rt":null,"stimulus":"<div style=\"font-size:60px;\">+</div>","key_press":null,"trial_type":"html-keyboard-response","trial_index":8,"time_elapsed":36026,"internal_node_id":"0.0-8.0-1.0","subject":"cqgyw37m1k04wte","sona":"7567"},{"trial_type":"turing-test","trial_index":9,"time_elapsed":41859,"internal_node_id":"0.0-8.0-2.0","subject":"cqgyw37m1k04wte","sona":"7567"},{"rt":2244.330000001355,"stimulus":"<p>Welche Sequenz haben Sie als natürlicher empfunden?</p>","key_press":74,"test_part":"response","test_stimulus":{"position":1,"left":"bvh/vr_prediction_models/model(vcgpdm)-dataset(return-bottle)-mode(ELBO)-parts(1)-dyn(20)-lvm(5)-hold(4)/final-lines.txt","right":"bvh/return-bottle-training4-lines.txt","att_check":false},"trial_type":"html-keyboard-response","trial_index":10,"time_elapsed":44105,"internal_node_id":"0.0-8.0-3.0","subject":"cqgyw37m1k04wte","sona":"7567"},{"rt":431.4049999957206,"stimulus":"<p>Bereit?</p>","key_press":32,"trial_type":"html-keyboard-response","trial_index":11,"time_elapsed":44539,"internal_node_id":"0.0-8.0-0.1","subject":"cqgyw37m1k04wte","sona":"7567"},{"rt":null,"stimulus":"<div style=\"font-size:60px;\">+</div>","key_press":null,"trial_type":"html-keyboard-response","trial_index":12,"time_elapsed":46554,"internal_node_id":"0.0-8.0-1.1","subject":"cqgyw37m1k04wte","sona":"7567"},{"trial_type":"turing-test","trial_index":13,"time_elapsed":50177,"internal_node_id":"0.0-8.0-2.1","subject":"cqgyw37m1k04wte","sona":"7567"},{"rt":625.2499999973224,"stimulus":"<p>Welche Sequenz haben Sie als natürlicher empfunden?</p>","key_press":74,"test_part":"response","test_stimulus":{"position":1,"left":"bvh/vr_prediction_models/model(tmp)-dataset(pass-bottle-hold)-numprim(9)-hold(3)/final-lines.txt","right":"bvh/pass-bottle-hold-training3-lines.txt","att_check":false},"trial_type":"html-keyboard-response","trial_index":14,"time_elapsed":50805,"internal_node_id":"0.0-8.0-3.1","subject":"cqgyw37m1k04wte","sona":"7567"},{"rt":495.56500000471715,"stimulus":"<p>Bereit?</p>","key_press":32,"trial_type":"html-keyboard-response","trial_index":15,"time_elapsed":51302,"internal_node_id":"0.0-8.0-0.2","subject":"cqgyw37m1k04wte","sona":"7567"},{"rt":null,"stimulus":"<div style=\"font-size:60px;\">+</div>","key_press":null,"trial_type":"html-keyboard-response","trial_index":16,"time_elapsed":53330,"internal_node_id":"0.0-8.0-1.2","subject":"cqgyw37m1k04wte","sona":"7567"},{"trial_type":"turing-test","trial_index":17,"time_elapsed":59124,"internal_node_id":"0.0-8.0-2.2","subject":"cqgyw37m1k04wte","sona":"7567"},{"rt":97.46499999891967,"stimulus":"<p>Welche Sequenz haben Sie als natürlicher empfunden?</p>","key_press":74,"test_part":"response","test_stimulus":{"position":1,"left":"bvh/vr_prediction_models/model(tmp)-dataset(pass-bottle)-numprim(6)-hold(3)/final-lines.txt","right":"bvh/pass-bottle-training3-lines.txt","att_check":false},"trial_type":"html-keyboard-response","trial_index":18,"time_elapsed":59224,"internal_node_id":"0.0-8.0-3.2","subject":"cqgyw37m1k04wte","sona":"7567"},{"rt":475.59000000183005,"stimulus":"<p>Bereit?</p>","key_press":32,"trial_type":"html-keyboard-response","trial_index":19,"time_elapsed":59701,"internal_node_id":"0.0-8.0-0.3","subject":"cqgyw37m1k04wte","sona":"7567"},{"rt":null,"stimulus":"<div style=\"font-size:60px;\">+</div>","key_press":null,"trial_type":"html-keyboard-response","trial_index":20,"time_elapsed":61720,"internal_node_id":"0.0-8.0-1.3","subject":"cqgyw37m1k04wte","sona":"7567"},{"trial_type":"turing-test","trial_index":21,"time_elapsed":65229,"internal_node_id":"0.0-8.0-2.3","subject":"cqgyw37m1k04wte","sona":"7567"},{"rt":1268.8800000032643,"stimulus":"<p>Welche Sequenz haben Sie als natürlicher empfunden?</p>","key_press":74,"test_part":"response","test_stimulus":{"position":1,"left":"bvh/vr_prediction_models/model(tmp)-dataset(return-bottle-hold)-numprim(15)-hold(2)/final-lines.txt","right":"bvh/return-bottle-hold-training2-lines.txt","att_check":false},"trial_type":"html-keyboard-response","trial_index":22,"time_elapsed":66501,"internal_node_id":"0.0-8.0-3.3","subject":"cqgyw37m1k04wte","sona":"7567"},{"rt":564.7949999984121,"stimulus":"<p>Bereit?</p>","key_press":32,"trial_type":"html-keyboard-response","trial_index":23,"time_elapsed":67067,"internal_node_id":"0.0-8.0-0.4","subject":"cqgyw37m1k04wte","sona":"7567"},{"rt":null,"stimulus":"<div style=\"font-size:60px;\">+</div>","key_press":null,"trial_type":"html-keyboard-response","trial_index":24,"time_elapsed":69106,"internal_node_id":"0.0-8.0-1.4","subject":"cqgyw37m1k04wte","sona":"7567"},{"trial_type":"turing-test","trial_index":25,"time_elapsed":74964,"internal_node_id":"0.0-8.0-2.4","subject":"cqgyw37m1k04wte","sona":"7567"},{"rt":426.275000005262,"stimulus":"<p>Welche Sequenz haben Sie als natürlicher empfunden?</p>","key_press":70,"test_part":"response","test_stimulus":{"position":1,"left":"bvh/vr_prediction_models/model(tmp)-dataset(return-bottle)-numprim(12)-hold(3)/final-lines.txt","right":"bvh/return-bottle-training3-lines.txt","att_check":false},"trial_type":"html-keyboard-response","trial_index":26,"time_elapsed":75393,"internal_node_id":"0.0-8.0-3.4","subject":"cqgyw37m1k04wte","sona":"7567"},{"rt":342.31000000727363,"stimulus":"<p>Bereit?</p>","key_press":32,"trial_type":"html-keyboard-response","trial_index":27,"time_elapsed":75737,"internal_node_id":"0.0-8.0-0.5","subject":"cqgyw37m1k04wte","sona":"7567"},{"rt":null,"stimulus":"<div style=\"font-size:60px;\">+</div>","key_press":null,"trial_type":"html-keyboard-response","trial_index":28,"time_elapsed":77754,"internal_node_id":"0.0-8.0-1.5","subject":"cqgyw37m1k04wte","sona":"7567"},{"trial_type":"turing-test","trial_index":29,"time_elapsed":81273,"internal_node_id":"0.0-8.0-2.5","subject":"cqgyw37m1k04wte","sona":"7567"},{"rt":4432.719999997062,"stimulus":"<p>Welche Sequenz haben Sie als natürlicher empfunden?</p>","key_press":74,"test_part":"response","test_stimulus":{"position":0,"left":"bvh/return-bottle-hold-training2-lines.txt","right":"bvh/vr_prediction_models/model(vcgpdm)-dataset(return-bottle-hold)-mode(ELBO)-parts(3)-dyn(25)-lvm(15)-hold(2)/final-lines.txt","att_check":false},"trial_type":"html-keyboard-response","trial_index":30,"time_elapsed":85707,"internal_node_id":"0.0-8.0-3.5","subject":"cqgyw37m1k04wte","sona":"7567"},{"rt":690.2150000096299,"stimulus":"<p>Bereit?</p>","key_press":32,"trial_type":"html-keyboard-response","trial_index":31,"time_elapsed":86399,"internal_node_id":"0.0-8.0-0.6","subject":"cqgyw37m1k04wte","sona":"7567"},{"rt":null,"stimulus":"<div style=\"font-size:60px;\">+</div>","key_press":null,"trial_type":"html-keyboard-response","trial_index":32,"time_elapsed":88421,"internal_node_id":"0.0-8.0-1.6","subject":"cqgyw37m1k04wte","sona":"7567"},{"trial_type":"turing-test","trial_index":33,"time_elapsed":92202,"internal_node_id":"0.0-8.0-2.6","subject":"cqgyw37m1k04wte","sona":"7567"},{"rt":3183.165000009467,"stimulus":"<p>Welche Sequenz haben Sie als natürlicher empfunden?</p>","key_press":74,"test_part":"response","test_stimulus":{"position":0,"left":"bvh/return-bottle-hold-training4-lines.txt","right":"bvh/vr_prediction_models/model(tmp)-dataset(return-bottle-hold)-numprim(11)-hold(4)/final-lines.txt","att_check":false},"trial_type":"html-keyboard-response","trial_index":34,"time_elapsed":95388,"internal_node_id":"0.0-8.0-3.6","subject":"cqgyw37m1k04wte","sona":"7567"},{"rt":380.59500000963453,"stimulus":"<p>Bereit?</p>","key_press":32,"trial_type":"html-keyboard-response","trial_index":35,"time_elapsed":95770,"internal_node_id":"0.0-8.0-0.7","subject":"cqgyw37m1k04wte","sona":"7567"},{"rt":null,"stimulus":"<div style=\"font-size:60px;\">+</div>","key_press":null,"trial_type":"html-keyboard-response","trial_index":36,"time_elapsed":97796,"internal_node_id":"0.0-8.0-1.7","subject":"cqgyw37m1k04wte","sona":"7567"},{"trial_type":"turing-test","trial_index":37,"time_elapsed":103698,"internal_node_id":"0.0-8.0-2.7","subject":"cqgyw37m1k04wte","sona":"7567"},{"rt":1714.814999999362,"stimulus":"<p>Welche Sequenz haben Sie als natürlicher empfunden?</p>","key_press":74,"test_part":"response","test_stimulus":{"position":0,"left":"bvh/pass-bottle-training4-lines.txt","right":"bvh/vr_prediction_models/model(vcgpdm)-dataset(pass-bottle)-mode(ELBO)-parts(1)-dyn(15)-lvm(35)-hold(4)/final-lines.txt","att_check":false},"trial_type":"html-keyboard-response","trial_index":38,"time_elapsed":105416,"internal_node_id":"0.0-8.0-3.7","subject":"cqgyw37m1k04wte","sona":"7567"},{"rt":439.39500000851694,"stimulus":"<p>Bereit?</p>","key_press":32,"trial_type":"html-keyboard-response","trial_index":39,"time_elapsed":105858,"internal_node_id":"0.0-8.0-0.8","subject":"cqgyw37m1k04wte","sona":"7567"},{"rt":null,"stimulus":"<div style=\"font-size:60px;\">+</div>","key_press":null,"trial_type":"html-keyboard-response","trial_index":40,"time_elapsed":107874,"internal_node_id":"0.0-8.0-1.8","subject":"cqgyw37m1k04wte","sona":"7567"},{"trial_type":"turing-test","trial_index":41,"time_elapsed":113393,"internal_node_id":"0.0-8.0-2.8","subject":"cqgyw37m1k04wte","sona":"7567"},{"rt":1333.7099999916973,"stimulus":"<p>Welche Sequenz haben Sie als natürlicher empfunden?</p>","key_press":70,"test_part":"response","test_stimulus":{"position":0,"left":"bvh/pass-bottle-training1-lines.txt","right":"bvh/vr_prediction_models/model(dmp)-dataset(pass-bottle)-npsi(90)-hold(1)/final-lines.txt","att_check":false},"trial_type":"html-keyboard-response","trial_index":42,"time_elapsed":114730,"internal_node_id":"0.0-8.0-3.8","subject":"cqgyw37m1k04wte","sona":"7567"},{"rt":312.91999999666587,"stimulus":"<p>Bereit?</p>","key_press":32,"trial_type":"html-keyboard-response","trial_index":43,"time_elapsed":115044,"internal_node_id":"0.0-8.0-0.9","subject":"cqgyw37m1k04wte","sona":"7567"},{"rt":null,"stimulus":"<div style=\"font-size:60px;\">+</div>","key_press":null,"trial_type":"html-keyboard-response","trial_index":44,"time_elapsed":117079,"internal_node_id":"0.0-8.0-1.9","subject":"cqgyw37m1k04wte","sona":"7567"},{"trial_type":"turing-test","trial_index":45,"time_elapsed":123177,"internal_node_id":"0.0-8.0-2.9","subject":"cqgyw37m1k04wte","sona":"7567"},{"rt":2086.444999993546,"stimulus":"<p>Welche Sequenz haben Sie als natürlicher empfunden?</p>","key_press":74,"test_part":"response","test_stimulus":{"position":0,"left":"bvh/return-bottle-training1-lines.txt","right":"bvh/vr_prediction_models/model(tmp)-dataset(return-bottle)-numprim(14)-hold(1)/final-lines.txt","att_check":false},"trial_type":"html-keyboard-response","trial_index":46,"time_elapsed":125266,"internal_node_id":"0.0-8.0-3.9","subject":"cqgyw37m1k04wte","sona":"7567"},{"rt":425.86999999184627,"stimulus":"<p>Bereit?</p>","key_press":32,"trial_type":"html-keyboard-response","trial_index":47,"time_elapsed":125693,"internal_node_id":"0.0-8.0-0.10","subject":"cqgyw37m1k04wte","sona":"7567"},{"rt":null,"stimulus":"<div style=\"font-size:60px;\">+</div>","key_press":null,"trial_type":"html-keyboard-response","trial_index":48,"time_elapsed":127719,"internal_node_id":"0.0-8.0-1.10","subject":"cqgyw37m1k04wte","sona":"7567"},{"trial_type":"turing-test","trial_index":49,"time_elapsed":134489,"internal_node_id":"0.0-8.0-2.10","subject":"cqgyw37m1k04wte","sona":"7567"},{"rt":3123.059999998077,"stimulus":"<p>Welche Sequenz haben Sie als natürlicher empfunden?</p>","key_press":70,"test_part":"response","test_stimulus":{"position":0,"left":"bvh/pass-bottle-training0-lines.txt","right":"bvh/vr_prediction_models/model(vcgpdm)-dataset(pass-bottle)-mode(ELBO)-parts(3)-dyn(10)-lvm(25)-hold(0)/final-lines.txt","att_check":false},"trial_type":"html-keyboard-response","trial_index":50,"time_elapsed":137615,"internal_node_id":"0.0-8.0-3.10","subject":"cqgyw37m1k04wte","sona":"7567"},{"rt":355.99500000535045,"stimulus":"<p>Bereit?</p>","key_press":32,"trial_type":"html-keyboard-response","trial_index":51,"time_elapsed":137973,"internal_node_id":"0.0-8.0-0.11","subject":"cqgyw37m1k04wte","sona":"7567"},{"rt":null,"stimulus":"<div style=\"font-size:60px;\">+</div>","key_press":null,"trial_type":"html-keyboard-response","trial_index":52,"time_elapsed":139994,"internal_node_id":"0.0-8.0-1.11","subject":"cqgyw37m1k04wte","sona":"7567"}]