[{"rt":2875,"stimulus":"<p>Welcome!<br> Please choose your language to start the experiment in the chosen language.</p><p>Willkommen!<br> Bitte wählen Sie eine Sprache, um das Experiment in der ausgewählten Sprache zu starten</p>","button_pressed":"1","trial_type":"html-button-response","trial_index":0,"time_elapsed":2894,"internal_node_id":"0.0-0.0","subject":"scuzpw2uwu6olql","sona":"8779"},{"view_history":"[{\"page_index\":0,\"viewing_time\":3601},{\"page_index\":1,\"viewing_time\":2468},{\"page_index\":2,\"viewing_time\":4271},{\"page_index\":3,\"viewing_time\":3620},{\"page_index\":4,\"viewing_time\":2221}]","rt":16183,"trial_type":"instructions","trial_index":1,"time_elapsed":19085,"internal_node_id":"0.0-1.0-0.0","subject":"scuzpw2uwu6olql","sona":"8779"},{"rt":1401,"stimulus":"<p>Bereit?</p>","key_press":32,"trial_type":"html-keyboard-response","trial_index":2,"time_elapsed":20494,"internal_node_id":"0.0-3.0","subject":"scuzpw2uwu6olql","sona":"8779"},{"rt":null,"stimulus":"<div style=\"font-size:60px;\">+</div>","key_press":null,"trial_type":"html-keyboard-response","trial_index":3,"time_elapsed":22531,"internal_node_id":"0.0-4.0","subject":"scuzpw2uwu6olql","sona":"8779"},{"trial_type":"training","trial_index":4,"time_elapsed":26053,"internal_node_id":"0.0-5.0","subject":"scuzpw2uwu6olql","sona":"8779"},{"rt":1154,"stimulus":"<p>Welche Sequenz haben Sie als natürlicher empfunden?</p>","key_press":74,"trial_type":"html-keyboard-response","trial_index":5,"time_elapsed":27217,"internal_node_id":"0.0-6.0","subject":"scuzpw2uwu6olql","sona":"8779"},{"rt":3727,"stimulus":"<p>Das Experiment startet nun.</p><p><small>Bitte drücken Sie den Knopf, wenn Sie bereit sind.</small></p>","button_pressed":"0","trial_type":"html-button-response","trial_index":6,"time_elapsed":30945,"internal_node_id":"0.0-7.0","subject":"scuzpw2uwu6olql","sona":"8779"},{"rt":1260,"stimulus":"<p>Bereit?</p>","key_press":32,"trial_type":"html-keyboard-response","trial_index":7,"time_elapsed":32211,"internal_node_id":"0.0-8.0-0.0","subject":"scuzpw2uwu6olql","sona":"8779"},{"rt":null,"stimulus":"<div style=\"font-size:60px;\">+</div>","key_press":null,"trial_type":"html-keyboard-response","trial_index":8,"time_elapsed":34223,"internal_node_id":"0.0-8.0-1.0","subject":"scuzpw2uwu6olql","sona":"8779"},{"trial_type":"turing-test","trial_index":9,"time_elapsed":41188,"internal_node_id":"0.0-8.0-2.0","subject":"scuzpw2uwu6olql","sona":"8779"},{"rt":443,"stimulus":"<p>Welche Sequenz haben Sie als natürlicher empfunden?</p>","key_press":70,"test_part":"response","test_stimulus":{"position":1,"left":"bvh/vr_prediction_models/model(dmp)-dataset(pass-bottle)-npsi(80)-hold(0)/final-lines.txt","right":"bvh/pass-bottle-training0-lines.txt","att_check":true},"trial_type":"html-keyboard-response","trial_index":10,"time_elapsed":41641,"internal_node_id":"0.0-8.0-3.0","subject":"scuzpw2uwu6olql","sona":"8779"},{"rt":1163,"stimulus":"<p>Bereit?</p>","key_press":32,"trial_type":"html-keyboard-response","trial_index":11,"time_elapsed":42813,"internal_node_id":"0.0-8.0-0.1","subject":"scuzpw2uwu6olql","sona":"8779"},{"rt":null,"stimulus":"<div style=\"font-size:60px;\">+</div>","key_press":null,"trial_type":"html-keyboard-response","trial_index":12,"time_elapsed":44848,"internal_node_id":"0.0-8.0-1.1","subject":"scuzpw2uwu6olql","sona":"8779"},{"trial_type":"turing-test","trial_index":13,"time_elapsed":51200,"internal_node_id":"0.0-8.0-2.1","subject":"scuzpw2uwu6olql","sona":"8779"},{"rt":704,"stimulus":"<p>Welche Sequenz haben Sie als natürlicher empfunden?</p>","key_press":70,"test_part":"response","test_stimulus":{"position":0,"left":"bvh/return-bottle-training1-lines.txt","right":"bvh/vr_prediction_models/model(vcgpdm)-dataset(return-bottle)-mode(ELBO)-parts(1)-dyn(20)-lvm(20)-hold(1)/final-lines.txt","att_check":false},"trial_type":"html-keyboard-response","trial_index":14,"time_elapsed":51908,"internal_node_id":"0.0-8.0-3.1","subject":"scuzpw2uwu6olql","sona":"8779"},{"rt":585,"stimulus":"<p>Bereit?</p>","key_press":32,"trial_type":"html-keyboard-response","trial_index":15,"time_elapsed":52500,"internal_node_id":"0.0-8.0-0.2","subject":"scuzpw2uwu6olql","sona":"8779"},{"rt":null,"stimulus":"<div style=\"font-size:60px;\">+</div>","key_press":null,"trial_type":"html-keyboard-response","trial_index":16,"time_elapsed":54541,"internal_node_id":"0.0-8.0-1.2","subject":"scuzpw2uwu6olql","sona":"8779"},{"trial_type":"turing-test","trial_index":17,"time_elapsed":61713,"internal_node_id":"0.0-8.0-2.2","subject":"scuzpw2uwu6olql","sona":"8779"},{"rt":367,"stimulus":"<p>Welche Sequenz haben Sie als natürlicher empfunden?</p>","key_press":70,"test_part":"response","test_stimulus":{"position":0,"left":"bvh/pass-bottle-training0-lines.txt","right":"bvh/vr_prediction_models/model(vcgpdm)-dataset(pass-bottle)-mode(ELBO)-parts(1)-dyn(10)-lvm(25)-hold(0)/final-lines.txt","att_check":false},"trial_type":"html-keyboard-response","trial_index":18,"time_elapsed":62087,"internal_node_id":"0.0-8.0-3.2","subject":"scuzpw2uwu6olql","sona":"8779"},{"rt":711,"stimulus":"<p>Bereit?</p>","key_press":32,"trial_type":"html-keyboard-response","trial_index":19,"time_elapsed":62803,"internal_node_id":"0.0-8.0-0.3","subject":"scuzpw2uwu6olql","sona":"8779"},{"rt":null,"stimulus":"<div style=\"font-size:60px;\">+</div>","key_press":null,"trial_type":"html-keyboard-response","trial_index":20,"time_elapsed":64825,"internal_node_id":"0.0-8.0-1.3","subject":"scuzpw2uwu6olql","sona":"8779"},{"trial_type":"turing-test","trial_index":21,"time_elapsed":68560,"internal_node_id":"0.0-8.0-2.3","subject":"scuzpw2uwu6olql","sona":"8779"},{"rt":1281,"stimulus":"<p>Welche Sequenz haben Sie als natürlicher empfunden?</p>","key_press":74,"test_part":"response","test_stimulus":{"position":1,"left":"bvh/vr_prediction_models/model(vcgpdm)-dataset(return-bottle-hold)-mode(ELBO)-parts(3)-dyn(15)-lvm(30)-hold(2)/final-lines.txt","right":"bvh/return-bottle-hold-training2-lines.txt","att_check":false},"trial_type":"html-keyboard-response","trial_index":22,"time_elapsed":69845,"internal_node_id":"0.0-8.0-3.3","subject":"scuzpw2uwu6olql","sona":"8779"},{"rt":589,"stimulus":"<p>Bereit?</p>","key_press":32,"trial_type":"html-keyboard-response","trial_index":23,"time_elapsed":70441,"internal_node_id":"0.0-8.0-0.4","subject":"scuzpw2uwu6olql","sona":"8779"},{"rt":null,"stimulus":"<div style=\"font-size:60px;\">+</div>","key_press":null,"trial_type":"html-keyboard-response","trial_index":24,"time_elapsed":72465,"internal_node_id":"0.0-8.0-1.4","subject":"scuzpw2uwu6olql","sona":"8779"},{"trial_type":"turing-test","trial_index":25,"time_elapsed":76153,"internal_node_id":"0.0-8.0-2.4","subject":"scuzpw2uwu6olql","sona":"8779"},{"rt":886,"stimulus":"<p>Welche Sequenz haben Sie als natürlicher empfunden?</p>","key_press":70,"test_part":"response","test_stimulus":{"position":1,"left":"bvh/vr_prediction_models/model(tmp)-dataset(pass-bottle-hold)-numprim(6)-hold(4)/final-lines.txt","right":"bvh/pass-bottle-hold-training4-lines.txt","att_check":false},"trial_type":"html-keyboard-response","trial_index":26,"time_elapsed":77046,"internal_node_id":"0.0-8.0-3.4","subject":"scuzpw2uwu6olql","sona":"8779"},{"rt":578,"stimulus":"<p>Bereit?</p>","key_press":32,"trial_type":"html-keyboard-response","trial_index":27,"time_elapsed":77627,"internal_node_id":"0.0-8.0-0.5","subject":"scuzpw2uwu6olql","sona":"8779"},{"rt":null,"stimulus":"<div style=\"font-size:60px;\">+</div>","key_press":null,"trial_type":"html-keyboard-response","trial_index":28,"time_elapsed":79640,"internal_node_id":"0.0-8.0-1.5","subject":"scuzpw2uwu6olql","sona":"8779"},{"trial_type":"turing-test","trial_index":29,"time_elapsed":83407,"internal_node_id":"0.0-8.0-2.5","subject":"scuzpw2uwu6olql","sona":"8779"},{"rt":289,"stimulus":"<p>Welche Sequenz haben Sie als natürlicher empfunden?</p>","key_press":74,"test_part":"response","test_stimulus":{"position":1,"left":"bvh/vr_prediction_models/model(vcgpdm)-dataset(pass-bottle-hold)-mode(ELBO)-parts(3)-dyn(25)-lvm(30)-hold(4)/final-lines.txt","right":"bvh/pass-bottle-hold-training4-lines.txt","att_check":false},"trial_type":"html-keyboard-response","trial_index":30,"time_elapsed":83702,"internal_node_id":"0.0-8.0-3.5","subject":"scuzpw2uwu6olql","sona":"8779"},{"rt":499,"stimulus":"<p>Bereit?</p>","key_press":32,"trial_type":"html-keyboard-response","trial_index":31,"time_elapsed":84206,"internal_node_id":"0.0-8.0-0.6","subject":"scuzpw2uwu6olql","sona":"8779"},{"rt":null,"stimulus":"<div style=\"font-size:60px;\">+</div>","key_press":null,"trial_type":"html-keyboard-response","trial_index":32,"time_elapsed":86231,"internal_node_id":"0.0-8.0-1.6","subject":"scuzpw2uwu6olql","sona":"8779"},{"trial_type":"turing-test","trial_index":33,"time_elapsed":92182,"internal_node_id":"0.0-8.0-2.6","subject":"scuzpw2uwu6olql","sona":"8779"},{"rt":318,"stimulus":"<p>Welche Sequenz haben Sie als natürlicher empfunden?</p>","key_press":70,"test_part":"response","test_stimulus":{"position":0,"left":"bvh/pass-bottle-training3-lines.txt","right":"bvh/vr_prediction_models/model(tmp)-dataset(pass-bottle)-numprim(14)-hold(3)/final-lines.txt","att_check":false},"trial_type":"html-keyboard-response","trial_index":34,"time_elapsed":92505,"internal_node_id":"0.0-8.0-3.6","subject":"scuzpw2uwu6olql","sona":"8779"},{"rt":367,"stimulus":"<p>Bereit?</p>","key_press":32,"trial_type":"html-keyboard-response","trial_index":35,"time_elapsed":92877,"internal_node_id":"0.0-8.0-0.7","subject":"scuzpw2uwu6olql","sona":"8779"},{"rt":null,"stimulus":"<div style=\"font-size:60px;\">+</div>","key_press":null,"trial_type":"html-keyboard-response","trial_index":36,"time_elapsed":94902,"internal_node_id":"0.0-8.0-1.7","subject":"scuzpw2uwu6olql","sona":"8779"},{"trial_type":"turing-test","trial_index":37,"time_elapsed":98763,"internal_node_id":"0.0-8.0-2.7","subject":"scuzpw2uwu6olql","sona":"8779"},{"rt":499,"stimulus":"<p>Welche Sequenz haben Sie als natürlicher empfunden?</p>","key_press":74,"test_part":"response","test_stimulus":{"position":1,"left":"bvh/vr_prediction_models/model(dmp)-dataset(return-bottle-hold)-npsi(10)-hold(3)/final-lines.txt","right":"bvh/return-bottle-hold-training3-lines.txt","att_check":false},"trial_type":"html-keyboard-response","trial_index":38,"time_elapsed":99265,"internal_node_id":"0.0-8.0-3.7","subject":"scuzpw2uwu6olql","sona":"8779"},{"rt":418,"stimulus":"<p>Bereit?</p>","key_press":32,"trial_type":"html-keyboard-response","trial_index":39,"time_elapsed":99686,"internal_node_id":"0.0-8.0-0.8","subject":"scuzpw2uwu6olql","sona":"8779"},{"rt":null,"stimulus":"<div style=\"font-size:60px;\">+</div>","key_press":null,"trial_type":"html-keyboard-response","trial_index":40,"time_elapsed":101723,"internal_node_id":"0.0-8.0-1.8","subject":"scuzpw2uwu6olql","sona":"8779"},{"trial_type":"turing-test","trial_index":41,"time_elapsed":111369,"internal_node_id":"0.0-8.0-2.8","subject":"scuzpw2uwu6olql","sona":"8779"},{"rt":460,"stimulus":"<p>Welche Sequenz haben Sie als natürlicher empfunden?</p>","key_press":74,"test_part":"response","test_stimulus":{"position":1,"left":"bvh/vr_prediction_models/model(vcgpdm)-dataset(return-bottle)-mode(ELBO)-parts(1)-dyn(20)-lvm(30)-hold(3)/final-lines.txt","right":"bvh/return-bottle-training3-lines.txt","att_check":false},"trial_type":"html-keyboard-response","trial_index":42,"time_elapsed":111832,"internal_node_id":"0.0-8.0-3.8","subject":"scuzpw2uwu6olql","sona":"8779"},{"rt":436,"stimulus":"<p>Bereit?</p>","key_press":32,"trial_type":"html-keyboard-response","trial_index":43,"time_elapsed":112271,"internal_node_id":"0.0-8.0-0.9","subject":"scuzpw2uwu6olql","sona":"8779"},{"rt":null,"stimulus":"<div style=\"font-size:60px;\">+</div>","key_press":null,"trial_type":"html-keyboard-response","trial_index":44,"time_elapsed":114309,"internal_node_id":"0.0-8.0-1.9","subject":"scuzpw2uwu6olql","sona":"8779"},{"trial_type":"turing-test","trial_index":45,"time_elapsed":117802,"internal_node_id":"0.0-8.0-2.9","subject":"scuzpw2uwu6olql","sona":"8779"},{"rt":54214,"stimulus":"<p>Welche Sequenz haben Sie als natürlicher empfunden?</p>","key_press":74,"test_part":"response","test_stimulus":{"position":1,"left":"bvh/vr_prediction_models/model(dmp)-dataset(pass-bottle-hold)-npsi(100)-hold(1)/final-lines.txt","right":"bvh/pass-bottle-hold-training1-lines.txt","att_check":false},"trial_type":"html-keyboard-response","trial_index":46,"time_elapsed":172021,"internal_node_id":"0.0-8.0-3.9","subject":"scuzpw2uwu6olql","sona":"8779"},{"rt":1079,"stimulus":"<p>Bereit?</p>","key_press":32,"trial_type":"html-keyboard-response","trial_index":47,"time_elapsed":173105,"internal_node_id":"0.0-8.0-0.10","subject":"scuzpw2uwu6olql","sona":"8779"},{"rt":null,"stimulus":"<div style=\"font-size:60px;\">+</div>","key_press":null,"trial_type":"html-keyboard-response","trial_index":48,"time_elapsed":175132,"internal_node_id":"0.0-8.0-1.10","subject":"scuzpw2uwu6olql","sona":"8779"},{"trial_type":"turing-test","trial_index":49,"time_elapsed":180869,"internal_node_id":"0.0-8.0-2.10","subject":"scuzpw2uwu6olql","sona":"8779"},{"rt":1894,"stimulus":"<p>Welche Sequenz haben Sie als natürlicher empfunden?</p>","key_press":74,"test_part":"response","test_stimulus":{"position":1,"left":"bvh/vr_prediction_models/model(vcgpdm)-dataset(pass-bottle)-mode(ELBO)-parts(1)-dyn(10)-lvm(5)-hold(1)/final-lines.txt","right":"bvh/pass-bottle-training1-lines.txt","att_check":false},"trial_type":"html-keyboard-response","trial_index":50,"time_elapsed":182768,"internal_node_id":"0.0-8.0-3.10","subject":"scuzpw2uwu6olql","sona":"8779"},{"rt":78527,"stimulus":"<p>Bereit?</p>","key_press":32,"trial_type":"html-keyboard-response","trial_index":51,"time_elapsed":261300,"internal_node_id":"0.0-8.0-0.11","subject":"scuzpw2uwu6olql","sona":"8779"},{"rt":null,"stimulus":"<div style=\"font-size:60px;\">+</div>","key_press":null,"trial_type":"html-keyboard-response","trial_index":52,"time_elapsed":263339,"internal_node_id":"0.0-8.0-1.11","subject":"scuzpw2uwu6olql","sona":"8779"},{"trial_type":"turing-test","trial_index":53,"time_elapsed":266738,"internal_node_id":"0.0-8.0-2.11","subject":"scuzpw2uwu6olql","sona":"8779"},{"rt":387,"stimulus":"<p>Welche Sequenz haben Sie als natürlicher empfunden?</p>","key_press":74,"test_part":"response","test_stimulus":{"position":1,"left":"bvh/vr_prediction_models/model(tmp)-dataset(pass-bottle-hold)-numprim(7)-hold(2)/final-lines.txt","right":"bvh/pass-bottle-hold-training2-lines.txt","att_check":false},"trial_type":"html-keyboard-response","trial_index":54,"time_elapsed":267132,"internal_node_id":"0.0-8.0-3.11","subject":"scuzpw2uwu6olql","sona":"8779"},{"rt":364,"stimulus":"<p>Bereit?</p>","key_press":32,"trial_type":"html-keyboard-response","trial_index":55,"time_elapsed":267500,"internal_node_id":"0.0-8.0-0.12","subject":"scuzpw2uwu6olql","sona":"8779"},{"rt":null,"stimulus":"<div style=\"font-size:60px;\">+</div>","key_press":null,"trial_type":"html-keyboard-response","trial_index":56,"time_elapsed":269519,"internal_node_id":"0.0-8.0-1.12","subject":"scuzpw2uwu6olql","sona":"8779"},{"trial_type":"turing-test","trial_index":57,"time_elapsed":273201,"internal_node_id":"0.0-8.0-2.12","subject":"scuzpw2uwu6olql","sona":"8779"},{"rt":313,"stimulus":"<p>Welche Sequenz haben Sie als natürlicher empfunden?</p>","key_press":74,"test_part":"response","test_stimulus":{"position":1,"left":"bvh/vr_prediction_models/model(tmp)-dataset(return-bottle-hold)-numprim(11)-hold(3)/final-lines.txt","right":"bvh/return-bottle-hold-training3-lines.txt","att_check":false},"trial_type":"html-keyboard-response","trial_index":58,"time_elapsed":273523,"internal_node_id":"0.0-8.0-3.12","subject":"scuzpw2uwu6olql","sona":"8779"},{"rt":243,"stimulus":"<p>Bereit?</p>","key_press":32,"trial_type":"html-keyboard-response","trial_index":59,"time_elapsed":273773,"internal_node_id":"0.0-8.0-0.13","subject":"scuzpw2uwu6olql","sona":"8779"},{"rt":null,"stimulus":"<div style=\"font-size:60px;\">+</div>","key_press":null,"trial_type":"html-keyboard-response","trial_index":60,"time_elapsed":275790,"internal_node_id":"0.0-8.0-1.13","subject":"scuzpw2uwu6olql","sona":"8779"},{"trial_type":"turing-test","trial_index":61,"time_elapsed":281299,"internal_node_id":"0.0-8.0-2.13","subject":"scuzpw2uwu6olql","sona":"8779"},{"rt":26054,"stimulus":"<p>Welche Sequenz haben Sie als natürlicher empfunden?</p>","key_press":74,"test_part":"response","test_stimulus":{"position":1,"left":"bvh/vr_prediction_models/model(vcgpdm)-dataset(pass-bottle)-mode(ELBO)-parts(1)-dyn(10)-lvm(5)-hold(1)/final-lines.txt","right":"bvh/pass-bottle-training1-lines.txt","att_check":false},"trial_type":"html-keyboard-response","trial_index":62,"time_elapsed":307357,"internal_node_id":"0.0-8.0-3.13","subject":"scuzpw2uwu6olql","sona":"8779"},{"rt":247,"stimulus":"<p>Bereit?</p>","key_press":32,"trial_type":"html-keyboard-response","trial_index":63,"time_elapsed":307607,"internal_node_id":"0.0-8.0-0.14","subject":"scuzpw2uwu6olql","sona":"8779"},{"rt":null,"stimulus":"<div style=\"font-size:60px;\">+</div>","key_press":null,"trial_type":"html-keyboard-response","trial_index":64,"time_elapsed":309644,"internal_node_id":"0.0-8.0-1.14","subject":"scuzpw2uwu6olql","sona":"8779"},{"trial_type":"turing-test","trial_index":65,"time_elapsed":315170,"internal_node_id":"0.0-8.0-2.14","subject":"scuzpw2uwu6olql","sona":"8779"},{"rt":324,"stimulus":"<p>Welche Sequenz haben Sie als natürlicher empfunden?</p>","key_press":74,"test_part":"response","test_stimulus":{"position":0,"left":"bvh/pass-bottle-training1-lines.txt","right":"bvh/vr_prediction_models/model(tmp)-dataset(pass-bottle)-numprim(5)-hold(1)/final-lines.txt","att_check":false},"trial_type":"html-keyboard-response","trial_index":66,"time_elapsed":315497,"internal_node_id":"0.0-8.0-3.14","subject":"scuzpw2uwu6olql","sona":"8779"},{"rt":214,"stimulus":"<p>Bereit?</p>","key_press":32,"trial_type":"html-keyboard-response","trial_index":67,"time_elapsed":315718,"internal_node_id":"0.0-8.0-0.15","subject":"scuzpw2uwu6olql","sona":"8779"},{"rt":null,"stimulus":"<div style=\"font-size:60px;\">+</div>","key_press":null,"trial_type":"html-keyboard-response","trial_index":68,"time_elapsed":317720,"internal_node_id":"0.0-8.0-1.15","subject":"scuzpw2uwu6olql","sona":"8779"},{"trial_type":"turing-test","trial_index":69,"time_elapsed":324700,"internal_node_id":"0.0-8.0-2.15","subject":"scuzpw2uwu6olql","sona":"8779"},{"rt":50559,"stimulus":"<p>Welche Sequenz haben Sie als natürlicher empfunden?</p>","key_press":70,"test_part":"response","test_stimulus":{"position":1,"left":"bvh/vr_prediction_models/model(vcgpdm)-dataset(pass-bottle)-mode(ELBO)-parts(1)-dyn(35)-lvm(10)-hold(0)/final-lines.txt","right":"bvh/pass-bottle-training0-lines.txt","att_check":false},"trial_type":"html-keyboard-response","trial_index":70,"time_elapsed":375262,"internal_node_id":"0.0-8.0-3.15","subject":"scuzpw2uwu6olql","sona":"8779"},{"rt":154,"stimulus":"<p>Bereit?</p>","key_press":32,"trial_type":"html-keyboard-response","trial_index":71,"time_elapsed":375420,"internal_node_id":"0.0-8.0-0.16","subject":"scuzpw2uwu6olql","sona":"8779"},{"rt":null,"stimulus":"<div style=\"font-size:60px;\">+</div>","key_press":null,"trial_type":"html-keyboard-response","trial_index":72,"time_elapsed":377437,"internal_node_id":"0.0-8.0-1.16","subject":"scuzpw2uwu6olql","sona":"8779"},{"trial_type":"turing-test","trial_index":73,"time_elapsed":380960,"internal_node_id":"0.0-8.0-2.16","subject":"scuzpw2uwu6olql","sona":"8779"},{"rt":798,"stimulus":"<p>Welche Sequenz haben Sie als natürlicher empfunden?</p>","key_press":74,"test_part":"response","test_stimulus":{"position":1,"left":"bvh/vr_prediction_models/model(tmp)-dataset(return-bottle-hold)-numprim(5)-hold(2)/final-lines.txt","right":"bvh/return-bottle-hold-training2-lines.txt","att_check":false},"trial_type":"html-keyboard-response","trial_index":74,"time_elapsed":381762,"internal_node_id":"0.0-8.0-3.16","subject":"scuzpw2uwu6olql","sona":"8779"},{"rt":172,"stimulus":"<p>Bereit?</p>","key_press":32,"trial_type":"html-keyboard-response","trial_index":75,"time_elapsed":381939,"internal_node_id":"0.0-8.0-0.17","subject":"scuzpw2uwu6olql","sona":"8779"},{"rt":null,"stimulus":"<div style=\"font-size:60px;\">+</div>","key_press":null,"trial_type":"html-keyboard-response","trial_index":76,"time_elapsed":383943,"internal_node_id":"0.0-8.0-1.17","subject":"scuzpw2uwu6olql","sona":"8779"},{"trial_type":"turing-test","trial_index":77,"time_elapsed":389182,"internal_node_id":"0.0-8.0-2.17","subject":"scuzpw2uwu6olql","sona":"8779"},{"rt":777,"stimulus":"<p>Welche Sequenz haben Sie als natürlicher empfunden?</p>","key_press":70,"test_part":"response","test_stimulus":{"position":0,"left":"bvh/return-bottle-hold-training0-lines.txt","right":"bvh/vr_prediction_models/model(tmp)-dataset(return-bottle-hold)-numprim(14)-hold(0)/final-lines.txt","att_check":false},"trial_type":"html-keyboard-response","trial_index":78,"time_elapsed":389964,"internal_node_id":"0.0-8.0-3.17","subject":"scuzpw2uwu6olql","sona":"8779"},{"rt":164,"stimulus":"<p>Bereit?</p>","key_press":32,"trial_type":"html-keyboard-response","trial_index":79,"time_elapsed":390132,"internal_node_id":"0.0-8.0-0.18","subject":"scuzpw2uwu6olql","sona":"8779"},{"rt":null,"stimulus":"<div style=\"font-size:60px;\">+</div>","key_press":null,"trial_type":"html-keyboard-response","trial_index":80,"time_elapsed":392163,"internal_node_id":"0.0-8.0-1.18","subject":"scuzpw2uwu6olql","sona":"8779"},{"trial_type":"turing-test","trial_index":81,"time_elapsed":398052,"internal_node_id":"0.0-8.0-2.18","subject":"scuzpw2uwu6olql","sona":"8779"},{"rt":423,"stimulus":"<p>Welche Sequenz haben Sie als natürlicher empfunden?</p>","key_press":74,"test_part":"response","test_stimulus":{"position":0,"left":"bvh/return-bottle-training3-lines.txt","right":"bvh/vr_prediction_models/model(tmp)-dataset(return-bottle)-numprim(15)-hold(3)/final-lines.txt","att_check":false},"trial_type":"html-keyboard-response","trial_index":82,"time_elapsed":398481,"internal_node_id":"0.0-8.0-3.18","subject":"scuzpw2uwu6olql","sona":"8779"},{"rt":285,"stimulus":"<p>Bereit?</p>","key_press":32,"trial_type":"html-keyboard-response","trial_index":83,"time_elapsed":398772,"internal_node_id":"0.0-8.0-0.19","subject":"scuzpw2uwu6olql","sona":"8779"},{"rt":null,"stimulus":"<div style=\"font-size:60px;\">+</div>","key_press":null,"trial_type":"html-keyboard-response","trial_index":84,"time_elapsed":400792,"internal_node_id":"0.0-8.0-1.19","subject":"scuzpw2uwu6olql","sona":"8779"},{"trial_type":"turing-test","trial_index":85,"time_elapsed":404204,"internal_node_id":"0.0-8.0-2.19","subject":"scuzpw2uwu6olql","sona":"8779"},{"rt":134368,"stimulus":"<p>Welche Sequenz haben Sie als natürlicher empfunden?</p>","key_press":74,"test_part":"response","test_stimulus":{"position":0,"left":"bvh/pass-bottle-hold-training1-lines.txt","right":"bvh/vr_prediction_models/model(vcgpdm)-dataset(pass-bottle-hold)-mode(ELBO)-parts(3)-dyn(10)-lvm(25)-hold(1)/final-lines.txt","att_check":false},"trial_type":"html-keyboard-response","trial_index":86,"time_elapsed":538575,"internal_node_id":"0.0-8.0-3.19","subject":"scuzpw2uwu6olql","sona":"8779"},{"rt":245,"stimulus":"<p>Bereit?</p>","key_press":32,"trial_type":"html-keyboard-response","trial_index":87,"time_elapsed":538823,"internal_node_id":"0.0-8.0-0.20","subject":"scuzpw2uwu6olql","sona":"8779"},{"rt":null,"stimulus":"<div style=\"font-size:60px;\">+</div>","key_press":null,"trial_type":"html-keyboard-response","trial_index":88,"time_elapsed":540852,"internal_node_id":"0.0-8.0-1.20","subject":"scuzpw2uwu6olql","sona":"8779"},{"trial_type":"turing-test","trial_index":89,"time_elapsed":544580,"internal_node_id":"0.0-8.0-2.20","subject":"scuzpw2uwu6olql","sona":"8779"},{"rt":1416,"stimulus":"<p>Welche Sequenz haben Sie als natürlicher empfunden?</p>","key_press":70,"test_part":"response","test_stimulus":{"position":1,"left":"bvh/vr_prediction_models/model(vcgpdm)-dataset(return-bottle-hold)-mode(ELBO)-parts(3)-dyn(30)-lvm(15)-hold(1)/final-lines.txt","right":"bvh/return-bottle-hold-training1-lines.txt","att_check":false},"trial_type":"html-keyboard-response","trial_index":90,"time_elapsed":546001,"internal_node_id":"0.0-8.0-3.20","subject":"scuzpw2uwu6olql","sona":"8779"},{"rt":101,"stimulus":"<p>Bereit?</p>","key_press":32,"trial_type":"html-keyboard-response","trial_index":91,"time_elapsed":546106,"internal_node_id":"0.0-8.0-0.21","subject":"scuzpw2uwu6olql","sona":"8779"},{"rt":null,"stimulus":"<div style=\"font-size:60px;\">+</div>","key_press":null,"trial_type":"html-keyboard-response","trial_index":92,"time_elapsed":548121,"internal_node_id":"0.0-8.0-1.21","subject":"scuzpw2uwu6olql","sona":"8779"},{"trial_type":"turing-test","trial_index":93,"time_elapsed":551826,"internal_node_id":"0.0-8.0-2.21","subject":"scuzpw2uwu6olql","sona":"8779"},{"rt":2737,"stimulus":"<p>Welche Sequenz haben Sie als natürlicher empfunden?</p>","key_press":70,"test_part":"response","test_stimulus":{"position":1,"left":"bvh/vr_prediction_models/model(tmp)-dataset(return-bottle-hold)-numprim(12)-hold(3)/final-lines.txt","right":"bvh/return-bottle-hold-training3-lines.txt","att_check":false},"trial_type":"html-keyboard-response","trial_index":94,"time_elapsed":554568,"internal_node_id":"0.0-8.0-3.21","subject":"scuzpw2uwu6olql","sona":"8779"},{"rt":201,"stimulus":"<p>Bereit?</p>","key_press":32,"trial_type":"html-keyboard-response","trial_index":95,"time_elapsed":554772,"internal_node_id":"0.0-8.0-0.22","subject":"scuzpw2uwu6olql","sona":"8779"},{"rt":null,"stimulus":"<div style=\"font-size:60px;\">+</div>","key_press":null,"trial_type":"html-keyboard-response","trial_index":96,"time_elapsed":556807,"internal_node_id":"0.0-8.0-1.22","subject":"scuzpw2uwu6olql","sona":"8779"},{"trial_type":"turing-test","trial_index":97,"time_elapsed":563281,"internal_node_id":"0.0-8.0-2.22","subject":"scuzpw2uwu6olql","sona":"8779"},{"rt":13222,"stimulus":"<p>Welche Sequenz haben Sie als natürlicher empfunden?</p>","key_press":70,"test_part":"response","test_stimulus":{"position":0,"left":"bvh/pass-bottle-training2-lines.txt","right":"bvh/vr_prediction_models/model(vcgpdm)-dataset(pass-bottle)-mode(MAP)-parts(3)-hold(2)/final-lines.txt","att_check":false},"trial_type":"html-keyboard-response","trial_index":98,"time_elapsed":576517,"internal_node_id":"0.0-8.0-3.22","subject":"scuzpw2uwu6olql","sona":"8779"},{"rt":112,"stimulus":"<p>Bereit?</p>","key_press":32,"trial_type":"html-keyboard-response","trial_index":99,"time_elapsed":576637,"internal_node_id":"0.0-8.0-0.23","subject":"scuzpw2uwu6olql","sona":"8779"},{"rt":null,"stimulus":"<div style=\"font-size:60px;\">+</div>","key_press":null,"trial_type":"html-keyboard-response","trial_index":100,"time_elapsed":578661,"internal_node_id":"0.0-8.0-1.23","subject":"scuzpw2uwu6olql","sona":"8779"},{"trial_type":"turing-test","trial_index":101,"time_elapsed":585570,"internal_node_id":"0.0-8.0-2.23","subject":"scuzpw2uwu6olql","sona":"8779"},{"rt":9746,"stimulus":"<p>Welche Sequenz haben Sie als natürlicher empfunden?</p>","key_press":74,"test_part":"response","test_stimulus":{"position":0,"left":"bvh/return-bottle-training2-lines.txt","right":"bvh/vr_prediction_models/model(vcgpdm)-dataset(return-bottle)-mode(ELBO)-parts(1)-dyn(30)-lvm(35)-hold(2)/final-lines.txt","att_check":false},"trial_type":"html-keyboard-response","trial_index":102,"time_elapsed":595323,"internal_node_id":"0.0-8.0-3.23","subject":"scuzpw2uwu6olql","sona":"8779"},{"rt":419,"stimulus":"<p>Bereit?</p>","key_press":32,"trial_type":"html-keyboard-response","trial_index":103,"time_elapsed":595751,"internal_node_id":"0.0-8.0-0.24","subject":"scuzpw2uwu6olql","sona":"8779"},{"rt":null,"stimulus":"<div style=\"font-size:60px;\">+</div>","key_press":null,"trial_type":"html-keyboard-response","trial_index":104,"time_elapsed":597767,"internal_node_id":"0.0-8.0-1.24","subject":"scuzpw2uwu6olql","sona":"8779"},{"trial_type":"turing-test","trial_index":105,"time_elapsed":601227,"internal_node_id":"0.0-8.0-2.24","subject":"scuzpw2uwu6olql","sona":"8779"},{"rt":1167,"stimulus":"<p>Welche Sequenz haben Sie als natürlicher empfunden?</p>","key_press":74,"test_part":"response","test_stimulus":{"position":1,"left":"bvh/vr_prediction_models/model(tmp)-dataset(return-bottle-hold)-numprim(7)-hold(1)/final-lines.txt","right":"bvh/return-bottle-hold-training1-lines.txt","att_check":false},"trial_type":"html-keyboard-response","trial_index":106,"time_elapsed":602399,"internal_node_id":"0.0-8.0-3.24","subject":"scuzpw2uwu6olql","sona":"8779"},{"rt":163,"stimulus":"<p>Bereit?</p>","key_press":32,"trial_type":"html-keyboard-response","trial_index":107,"time_elapsed":602564,"internal_node_id":"0.0-8.0-0.25","subject":"scuzpw2uwu6olql","sona":"8779"},{"rt":null,"stimulus":"<div style=\"font-size:60px;\">+</div>","key_press":null,"trial_type":"html-keyboard-response","trial_index":108,"time_elapsed":604587,"internal_node_id":"0.0-8.0-1.25","subject":"scuzpw2uwu6olql","sona":"8779"},{"trial_type":"turing-test","trial_index":109,"time_elapsed":608077,"internal_node_id":"0.0-8.0-2.25","subject":"scuzpw2uwu6olql","sona":"8779"},{"rt":227,"stimulus":"<p>Welche Sequenz haben Sie als natürlicher empfunden?</p>","key_press":70,"test_part":"response","test_stimulus":{"position":0,"left":"bvh/pass-bottle-hold-training1-lines.txt","right":"bvh/vr_prediction_models/model(vcgpdm)-dataset(pass-bottle-hold)-mode(ELBO)-parts(3)-dyn(25)-lvm(15)-hold(1)/final-lines.txt","att_check":false},"trial_type":"html-keyboard-response","trial_index":110,"time_elapsed":608309,"internal_node_id":"0.0-8.0-3.25","subject":"scuzpw2uwu6olql","sona":"8779"},{"rt":373,"stimulus":"<p>Bereit?</p>","key_press":32,"trial_type":"html-keyboard-response","trial_index":111,"time_elapsed":608686,"internal_node_id":"0.0-8.0-0.26","subject":"scuzpw2uwu6olql","sona":"8779"},{"rt":null,"stimulus":"<div style=\"font-size:60px;\">+</div>","key_press":null,"trial_type":"html-keyboard-response","trial_index":112,"time_elapsed":610717,"internal_node_id":"0.0-8.0-1.26","subject":"scuzpw2uwu6olql","sona":"8779"},{"trial_type":"turing-test","trial_index":113,"time_elapsed":616578,"internal_node_id":"0.0-8.0-2.26","subject":"scuzpw2uwu6olql","sona":"8779"},{"rt":1110,"stimulus":"<p>Welche Sequenz haben Sie als natürlicher empfunden?</p>","key_press":70,"test_part":"response","test_stimulus":{"position":1,"left":"bvh/vr_prediction_models/model(tmp)-dataset(return-bottle)-numprim(6)-hold(4)/final-lines.txt","right":"bvh/return-bottle-training4-lines.txt","att_check":false},"trial_type":"html-keyboard-response","trial_index":114,"time_elapsed":617694,"internal_node_id":"0.0-8.0-3.26","subject":"scuzpw2uwu6olql","sona":"8779"},{"rt":8308,"stimulus":"<p>Bereit?</p>","key_press":32,"trial_type":"html-keyboard-response","trial_index":115,"time_elapsed":626006,"internal_node_id":"0.0-8.0-0.27","subject":"scuzpw2uwu6olql","sona":"8779"},{"rt":null,"stimulus":"<div style=\"font-size:60px;\">+</div>","key_press":null,"trial_type":"html-keyboard-response","trial_index":116,"time_elapsed":628032,"internal_node_id":"0.0-8.0-1.27","subject":"scuzpw2uwu6olql","sona":"8779"},{"trial_type":"turing-test","trial_index":117,"time_elapsed":631998,"internal_node_id":"0.0-8.0-2.27","subject":"scuzpw2uwu6olql","sona":"8779"},{"rt":383,"stimulus":"<p>Welche Sequenz haben Sie als natürlicher empfunden?</p>","key_press":70,"test_part":"response","test_stimulus":{"position":1,"left":"bvh/vr_prediction_models/model(vcgpdm)-dataset(return-bottle-hold)-mode(MAP)-parts(3)-hold(4)/final-lines.txt","right":"bvh/return-bottle-hold-training4-lines.txt","att_check":false},"trial_type":"html-keyboard-response","trial_index":118,"time_elapsed":632388,"internal_node_id":"0.0-8.0-3.27","subject":"scuzpw2uwu6olql","sona":"8779"},{"rt":357,"stimulus":"<p>Bereit?</p>","key_press":32,"trial_type":"html-keyboard-response","trial_index":119,"time_elapsed":632754,"internal_node_id":"0.0-8.0-0.28","subject":"scuzpw2uwu6olql","sona":"8779"},{"rt":null,"stimulus":"<div style=\"font-size:60px;\">+</div>","key_press":null,"trial_type":"html-keyboard-response","trial_index":120,"time_elapsed":634780,"internal_node_id":"0.0-8.0-1.28","subject":"scuzpw2uwu6olql","sona":"8779"},{"trial_type":"turing-test","trial_index":121,"time_elapsed":638274,"internal_node_id":"0.0-8.0-2.28","subject":"scuzpw2uwu6olql","sona":"8779"},{"rt":160863,"stimulus":"<p>Welche Sequenz haben Sie als natürlicher empfunden?</p>","key_press":74,"test_part":"response","test_stimulus":{"position":1,"left":"bvh/vr_prediction_models/model(vcgpdm)-dataset(pass-bottle-hold)-mode(ELBO)-parts(3)-dyn(10)-lvm(10)-hold(1)/final-lines.txt","right":"bvh/pass-bottle-hold-training1-lines.txt","att_check":false},"trial_type":"html-keyboard-response","trial_index":122,"time_elapsed":799147,"internal_node_id":"0.0-8.0-3.28","subject":"scuzpw2uwu6olql","sona":"8779"},{"rt":321,"stimulus":"<p>Bereit?</p>","key_press":32,"trial_type":"html-keyboard-response","trial_index":123,"time_elapsed":799474,"internal_node_id":"0.0-8.0-0.29","subject":"scuzpw2uwu6olql","sona":"8779"},{"rt":null,"stimulus":"<div style=\"font-size:60px;\">+</div>","key_press":null,"trial_type":"html-keyboard-response","trial_index":124,"time_elapsed":801504,"internal_node_id":"0.0-8.0-1.29","subject":"scuzpw2uwu6olql","sona":"8779"},{"trial_type":"turing-test","trial_index":125,"time_elapsed":807539,"internal_node_id":"0.0-8.0-2.29","subject":"scuzpw2uwu6olql","sona":"8779"},{"rt":136127,"stimulus":"<p>Welche Sequenz haben Sie als natürlicher empfunden?</p>","key_press":70,"test_part":"response","test_stimulus":{"position":0,"left":"bvh/pass-bottle-training4-lines.txt","right":"bvh/vr_prediction_models/model(vcgpdm)-dataset(pass-bottle)-mode(ELBO)-parts(1)-dyn(30)-lvm(30)-hold(4)/final-lines.txt","att_check":false},"trial_type":"html-keyboard-response","trial_index":126,"time_elapsed":943671,"internal_node_id":"0.0-8.0-3.29","subject":"scuzpw2uwu6olql","sona":"8779"},{"rt":230,"stimulus":"<p>Bereit?</p>","key_press":32,"trial_type":"html-keyboard-response","trial_index":127,"time_elapsed":943906,"internal_node_id":"0.0-8.0-0.30","subject":"scuzpw2uwu6olql","sona":"8779"},{"rt":null,"stimulus":"<div style=\"font-size:60px;\">+</div>","key_press":null,"trial_type":"html-keyboard-response","trial_index":128,"time_elapsed":945939,"internal_node_id":"0.0-8.0-1.30","subject":"scuzpw2uwu6olql","sona":"8779"},{"trial_type":"turing-test","trial_index":129,"time_elapsed":951756,"internal_node_id":"0.0-8.0-2.30","subject":"scuzpw2uwu6olql","sona":"8779"},{"rt":20098,"stimulus":"<p>Welche Sequenz haben Sie als natürlicher empfunden?</p>","key_press":74,"test_part":"response","test_stimulus":{"position":1,"left":"bvh/vr_prediction_models/model(dmp)-dataset(return-bottle)-npsi(20)-hold(3)/final-lines.txt","right":"bvh/return-bottle-training3-lines.txt","att_check":false},"trial_type":"html-keyboard-response","trial_index":130,"time_elapsed":971858,"internal_node_id":"0.0-8.0-3.30","subject":"scuzpw2uwu6olql","sona":"8779"},{"rt":555,"stimulus":"<p>Bereit?</p>","key_press":32,"trial_type":"html-keyboard-response","trial_index":131,"time_elapsed":972417,"internal_node_id":"0.0-8.0-0.31","subject":"scuzpw2uwu6olql","sona":"8779"},{"rt":null,"stimulus":"<div style=\"font-size:60px;\">+</div>","key_press":null,"trial_type":"html-keyboard-response","trial_index":132,"time_elapsed":974435,"internal_node_id":"0.0-8.0-1.31","subject":"scuzpw2uwu6olql","sona":"8779"},{"trial_type":"turing-test","trial_index":133,"time_elapsed":980599,"internal_node_id":"0.0-8.0-2.31","subject":"scuzpw2uwu6olql","sona":"8779"},{"rt":343987,"stimulus":"<p>Welche Sequenz haben Sie als natürlicher empfunden?</p>","key_press":70,"test_part":"response","test_stimulus":{"position":0,"left":"bvh/pass-bottle-training2-lines.txt","right":"bvh/vr_prediction_models/model(tmp)-dataset(pass-bottle)-numprim(12)-hold(2)/final-lines.txt","att_check":false},"trial_type":"html-keyboard-response","trial_index":134,"time_elapsed":1324593,"internal_node_id":"0.0-8.0-3.31","subject":"scuzpw2uwu6olql","sona":"8779"},{"rt":195,"stimulus":"<p>Bereit?</p>","key_press":32,"trial_type":"html-keyboard-response","trial_index":135,"time_elapsed":1324804,"internal_node_id":"0.0-8.0-0.32","subject":"scuzpw2uwu6olql","sona":"8779"},{"rt":null,"stimulus":"<div style=\"font-size:60px;\">+</div>","key_press":null,"trial_type":"html-keyboard-response","trial_index":136,"time_elapsed":1326829,"internal_node_id":"0.0-8.0-1.32","subject":"scuzpw2uwu6olql","sona":"8779"},{"trial_type":"turing-test","trial_index":137,"time_elapsed":1333061,"internal_node_id":"0.0-8.0-2.32","subject":"scuzpw2uwu6olql","sona":"8779"},{"rt":1790,"stimulus":"<p>Welche Sequenz haben Sie als natürlicher empfunden?</p>","key_press":70,"test_part":"response","test_stimulus":{"position":0,"left":"bvh/pass-bottle-training2-lines.txt","right":"bvh/vr_prediction_models/model(dmp)-dataset(pass-bottle)-npsi(30)-hold(2)/final-lines.txt","att_check":false},"trial_type":"html-keyboard-response","trial_index":138,"time_elapsed":1334859,"internal_node_id":"0.0-8.0-3.32","subject":"scuzpw2uwu6olql","sona":"8779"},{"rt":188,"stimulus":"<p>Bereit?</p>","key_press":32,"trial_type":"html-keyboard-response","trial_index":139,"time_elapsed":1335052,"internal_node_id":"0.0-8.0-0.33","subject":"scuzpw2uwu6olql","sona":"8779"},{"rt":null,"stimulus":"<div style=\"font-size:60px;\">+</div>","key_press":null,"trial_type":"html-keyboard-response","trial_index":140,"time_elapsed":1337071,"internal_node_id":"0.0-8.0-1.33","subject":"scuzpw2uwu6olql","sona":"8779"},{"trial_type":"turing-test","trial_index":141,"time_elapsed":1340723,"internal_node_id":"0.0-8.0-2.33","subject":"scuzpw2uwu6olql","sona":"8779"},{"rt":899,"stimulus":"<p>Welche Sequenz haben Sie als natürlicher empfunden?</p>","key_press":74,"test_part":"response","test_stimulus":{"position":1,"left":"bvh/vr_prediction_models/model(tmp)-dataset(pass-bottle-hold)-numprim(12)-hold(4)/final-lines.txt","right":"bvh/pass-bottle-hold-training4-lines.txt","att_check":false},"trial_type":"html-keyboard-response","trial_index":142,"time_elapsed":1341629,"internal_node_id":"0.0-8.0-3.33","subject":"scuzpw2uwu6olql","sona":"8779"},{"rt":201,"stimulus":"<p>Bereit?</p>","key_press":32,"trial_type":"html-keyboard-response","trial_index":143,"time_elapsed":1341835,"internal_node_id":"0.0-8.0-0.34","subject":"scuzpw2uwu6olql","sona":"8779"},{"rt":null,"stimulus":"<div style=\"font-size:60px;\">+</div>","key_press":null,"trial_type":"html-keyboard-response","trial_index":144,"time_elapsed":1343859,"internal_node_id":"0.0-8.0-1.34","subject":"scuzpw2uwu6olql","sona":"8779"},{"trial_type":"turing-test","trial_index":145,"time_elapsed":1347788,"internal_node_id":"0.0-8.0-2.34","subject":"scuzpw2uwu6olql","sona":"8779"},{"rt":15737,"stimulus":"<p>Welche Sequenz haben Sie als natürlicher empfunden?</p>","key_press":74,"test_part":"response","test_stimulus":{"position":0,"left":"bvh/return-bottle-hold-training4-lines.txt","right":"bvh/vr_prediction_models/model(vcgpdm)-dataset(return-bottle-hold)-mode(ELBO)-parts(3)-dyn(20)-lvm(15)-hold(4)/final-lines.txt","att_check":false},"trial_type":"html-keyboard-response","trial_index":146,"time_elapsed":1363534,"internal_node_id":"0.0-8.0-3.34","subject":"scuzpw2uwu6olql","sona":"8779"},{"rt":228,"stimulus":"<p>Bereit?</p>","key_press":32,"trial_type":"html-keyboard-response","trial_index":147,"time_elapsed":1363773,"internal_node_id":"0.0-8.0-0.35","subject":"scuzpw2uwu6olql","sona":"8779"},{"rt":null,"stimulus":"<div style=\"font-size:60px;\">+</div>","key_press":null,"trial_type":"html-keyboard-response","trial_index":148,"time_elapsed":1365798,"internal_node_id":"0.0-8.0-1.35","subject":"scuzpw2uwu6olql","sona":"8779"},{"trial_type":"turing-test","trial_index":149,"time_elapsed":1369463,"internal_node_id":"0.0-8.0-2.35","subject":"scuzpw2uwu6olql","sona":"8779"},{"rt":21165,"stimulus":"<p>Welche Sequenz haben Sie als natürlicher empfunden?</p>","key_press":70,"test_part":"response","test_stimulus":{"position":1,"left":"bvh/vr_prediction_models/model(vcgpdm)-dataset(pass-bottle-hold)-mode(MAP)-parts(3)-hold(1)/final-lines.txt","right":"bvh/pass-bottle-hold-training1-lines.txt","att_check":false},"trial_type":"html-keyboard-response","trial_index":150,"time_elapsed":1390635,"internal_node_id":"0.0-8.0-3.35","subject":"scuzpw2uwu6olql","sona":"8779"},{"rt":128,"stimulus":"<p>Bereit?</p>","key_press":32,"trial_type":"html-keyboard-response","trial_index":151,"time_elapsed":1390771,"internal_node_id":"0.0-8.0-0.36","subject":"scuzpw2uwu6olql","sona":"8779"},{"rt":null,"stimulus":"<div style=\"font-size:60px;\">+</div>","key_press":null,"trial_type":"html-keyboard-response","trial_index":152,"time_elapsed":1392805,"internal_node_id":"0.0-8.0-1.36","subject":"scuzpw2uwu6olql","sona":"8779"},{"trial_type":"turing-test","trial_index":153,"time_elapsed":1396618,"internal_node_id":"0.0-8.0-2.36","subject":"scuzpw2uwu6olql","sona":"8779"},{"rt":556051,"stimulus":"<p>Welche Sequenz haben Sie als natürlicher empfunden?</p>","key_press":74,"test_part":"response","test_stimulus":{"position":1,"left":"bvh/vr_prediction_models/model(vcgpdm)-dataset(return-bottle-hold)-mode(ELBO)-parts(1)-dyn(10)-lvm(30)-hold(2)/final-lines.txt","right":"bvh/return-bottle-hold-training2-lines.txt","att_check":false},"trial_type":"html-keyboard-response","trial_index":154,"time_elapsed":1952681,"internal_node_id":"0.0-8.0-3.36","subject":"scuzpw2uwu6olql","sona":"8779"},{"rt":166,"stimulus":"<p>Bereit?</p>","key_press":32,"trial_type":"html-keyboard-response","trial_index":155,"time_elapsed":1952856,"internal_node_id":"0.0-8.0-0.37","subject":"scuzpw2uwu6olql","sona":"8779"},{"rt":null,"stimulus":"<div style=\"font-size:60px;\">+</div>","key_press":null,"trial_type":"html-keyboard-response","trial_index":156,"time_elapsed":1954898,"internal_node_id":"0.0-8.0-1.37","subject":"scuzpw2uwu6olql","sona":"8779"},{"trial_type":"turing-test","trial_index":157,"time_elapsed":1961088,"internal_node_id":"0.0-8.0-2.37","subject":"scuzpw2uwu6olql","sona":"8779"},{"rt":129138,"stimulus":"<p>Welche Sequenz haben Sie als natürlicher empfunden?</p>","key_press":70,"test_part":"response","test_stimulus":{"position":0,"left":"bvh/pass-bottle-training2-lines.txt","right":"bvh/vr_prediction_models/model(tmp)-dataset(pass-bottle)-numprim(6)-hold(2)/final-lines.txt","att_check":false},"trial_type":"html-keyboard-response","trial_index":158,"time_elapsed":2090234,"internal_node_id":"0.0-8.0-3.37","subject":"scuzpw2uwu6olql","sona":"8779"},{"rt":290,"stimulus":"<p>Bereit?</p>","key_press":32,"trial_type":"html-keyboard-response","trial_index":159,"time_elapsed":2090530,"internal_node_id":"0.0-8.0-0.38","subject":"scuzpw2uwu6olql","sona":"8779"},{"rt":null,"stimulus":"<div style=\"font-size:60px;\">+</div>","key_press":null,"trial_type":"html-keyboard-response","trial_index":160,"time_elapsed":2092537,"internal_node_id":"0.0-8.0-1.38","subject":"scuzpw2uwu6olql","sona":"8779"},{"trial_type":"turing-test","trial_index":161,"time_elapsed":2097726,"internal_node_id":"0.0-8.0-2.38","subject":"scuzpw2uwu6olql","sona":"8779"},{"rt":124717,"stimulus":"<p>Welche Sequenz haben Sie als natürlicher empfunden?</p>","key_press":74,"test_part":"response","test_stimulus":{"position":0,"left":"bvh/return-bottle-hold-training0-lines.txt","right":"bvh/vr_prediction_models/model(tmp)-dataset(return-bottle-hold)-numprim(12)-hold(0)/final-lines.txt","att_check":false},"trial_type":"html-keyboard-response","trial_index":162,"time_elapsed":2222452,"internal_node_id":"0.0-8.0-3.38","subject":"scuzpw2uwu6olql","sona":"8779"},{"rt":144,"stimulus":"<p>Bereit?</p>","key_press":32,"trial_type":"html-keyboard-response","trial_index":163,"time_elapsed":2222604,"internal_node_id":"0.0-8.0-0.39","subject":"scuzpw2uwu6olql","sona":"8779"},{"rt":null,"stimulus":"<div style=\"font-size:60px;\">+</div>","key_press":null,"trial_type":"html-keyboard-response","trial_index":164,"time_elapsed":2224617,"internal_node_id":"0.0-8.0-1.39","subject":"scuzpw2uwu6olql","sona":"8779"},{"trial_type":"turing-test","trial_index":165,"time_elapsed":2228270,"internal_node_id":"0.0-8.0-2.39","subject":"scuzpw2uwu6olql","sona":"8779"},{"rt":4278,"stimulus":"<p>Welche Sequenz haben Sie als natürlicher empfunden?</p>","key_press":70,"test_part":"response","test_stimulus":{"position":0,"left":"bvh/pass-bottle-hold-training4-lines.txt","right":"bvh/vr_prediction_models/model(dmp)-dataset(pass-bottle-hold)-npsi(70)-hold(4)/final-lines.txt","att_check":false},"trial_type":"html-keyboard-response","trial_index":166,"time_elapsed":2232553,"internal_node_id":"0.0-8.0-3.39","subject":"scuzpw2uwu6olql","sona":"8779"},{"rt":162,"stimulus":"<p>Bereit?</p>","key_press":32,"trial_type":"html-keyboard-response","trial_index":167,"time_elapsed":2232720,"internal_node_id":"0.0-8.0-0.40","subject":"scuzpw2uwu6olql","sona":"8779"},{"rt":null,"stimulus":"<div style=\"font-size:60px;\">+</div>","key_press":null,"trial_type":"html-keyboard-response","trial_index":168,"time_elapsed":2234750,"internal_node_id":"0.0-8.0-1.40","subject":"scuzpw2uwu6olql","sona":"8779"},{"trial_type":"turing-test","trial_index":169,"time_elapsed":2238123,"internal_node_id":"0.0-8.0-2.40","subject":"scuzpw2uwu6olql","sona":"8779"},{"rt":11969,"stimulus":"<p>Welche Sequenz haben Sie als natürlicher empfunden?</p>","key_press":74,"test_part":"response","test_stimulus":{"position":0,"left":"bvh/return-bottle-hold-training1-lines.txt","right":"bvh/vr_prediction_models/model(tmp)-dataset(return-bottle-hold)-numprim(7)-hold(1)/final-lines.txt","att_check":false},"trial_type":"html-keyboard-response","trial_index":170,"time_elapsed":2250101,"internal_node_id":"0.0-8.0-3.40","subject":"scuzpw2uwu6olql","sona":"8779"},{"rt":170,"stimulus":"<p>Bereit?</p>","key_press":32,"trial_type":"html-keyboard-response","trial_index":171,"time_elapsed":2250277,"internal_node_id":"0.0-8.0-0.41","subject":"scuzpw2uwu6olql","sona":"8779"},{"rt":null,"stimulus":"<div style=\"font-size:60px;\">+</div>","key_press":null,"trial_type":"html-keyboard-response","trial_index":172,"time_elapsed":2252298,"internal_node_id":"0.0-8.0-1.41","subject":"scuzpw2uwu6olql","sona":"8779"},{"trial_type":"turing-test","trial_index":173,"time_elapsed":2256137,"internal_node_id":"0.0-8.0-2.41","subject":"scuzpw2uwu6olql","sona":"8779"},{"rt":285,"stimulus":"<p>Welche Sequenz haben Sie als natürlicher empfunden?</p>","key_press":70,"test_part":"response","test_stimulus":{"position":0,"left":"bvh/return-bottle-hold-training4-lines.txt","right":"bvh/vr_prediction_models/model(tmp)-dataset(return-bottle-hold)-numprim(3)-hold(4)/final-lines.txt","att_check":false},"trial_type":"html-keyboard-response","trial_index":174,"time_elapsed":2256429,"internal_node_id":"0.0-8.0-3.41","subject":"scuzpw2uwu6olql","sona":"8779"},{"rt":162,"stimulus":"<p>Bereit?</p>","key_press":32,"trial_type":"html-keyboard-response","trial_index":175,"time_elapsed":2256595,"internal_node_id":"0.0-8.0-0.42","subject":"scuzpw2uwu6olql","sona":"8779"},{"rt":null,"stimulus":"<div style=\"font-size:60px;\">+</div>","key_press":null,"trial_type":"html-keyboard-response","trial_index":176,"time_elapsed":2258616,"internal_node_id":"0.0-8.0-1.42","subject":"scuzpw2uwu6olql","sona":"8779"},{"trial_type":"turing-test","trial_index":177,"time_elapsed":2264389,"internal_node_id":"0.0-8.0-2.42","subject":"scuzpw2uwu6olql","sona":"8779"},{"rt":299,"stimulus":"<p>Welche Sequenz haben Sie als natürlicher empfunden?</p>","key_press":70,"test_part":"response","test_stimulus":{"position":0,"left":"bvh/return-bottle-training3-lines.txt","right":"bvh/vr_prediction_models/model(tmp)-dataset(return-bottle)-numprim(12)-hold(3)/final-lines.txt","att_check":false},"trial_type":"html-keyboard-response","trial_index":178,"time_elapsed":2264695,"internal_node_id":"0.0-8.0-3.42","subject":"scuzpw2uwu6olql","sona":"8779"},{"rt":263,"stimulus":"<p>Bereit?</p>","key_press":32,"trial_type":"html-keyboard-response","trial_index":179,"time_elapsed":2264963,"internal_node_id":"0.0-8.0-0.43","subject":"scuzpw2uwu6olql","sona":"8779"},{"rt":null,"stimulus":"<div style=\"font-size:60px;\">+</div>","key_press":null,"trial_type":"html-keyboard-response","trial_index":180,"time_elapsed":2266989,"internal_node_id":"0.0-8.0-1.43","subject":"scuzpw2uwu6olql","sona":"8779"},{"trial_type":"turing-test","trial_index":181,"time_elapsed":2270247,"internal_node_id":"0.0-8.0-2.43","subject":"scuzpw2uwu6olql","sona":"8779"},{"rt":8743,"stimulus":"<p>Welche Sequenz haben Sie als natürlicher empfunden?</p>","key_press":70,"test_part":"response","test_stimulus":{"position":1,"left":"bvh/vr_prediction_models/model(tmp)-dataset(pass-bottle-hold)-numprim(7)-hold(1)/final-lines.txt","right":"bvh/pass-bottle-hold-training1-lines.txt","att_check":false},"trial_type":"html-keyboard-response","trial_index":182,"time_elapsed":2278995,"internal_node_id":"0.0-8.0-3.43","subject":"scuzpw2uwu6olql","sona":"8779"},{"rt":393,"stimulus":"<p>Bereit?</p>","key_press":32,"trial_type":"html-keyboard-response","trial_index":183,"time_elapsed":2279392,"internal_node_id":"0.0-8.0-0.44","subject":"scuzpw2uwu6olql","sona":"8779"},{"rt":null,"stimulus":"<div style=\"font-size:60px;\">+</div>","key_press":null,"trial_type":"html-keyboard-response","trial_index":184,"time_elapsed":2281406,"internal_node_id":"0.0-8.0-1.44","subject":"scuzpw2uwu6olql","sona":"8779"},{"trial_type":"turing-test","trial_index":185,"time_elapsed":2285020,"internal_node_id":"0.0-8.0-2.44","subject":"scuzpw2uwu6olql","sona":"8779"},{"rt":1250,"stimulus":"<p>Welche Sequenz haben Sie als natürlicher empfunden?</p>","key_press":70,"test_part":"response","test_stimulus":{"position":0,"left":"bvh/return-bottle-hold-training1-lines.txt","right":"bvh/vr_prediction_models/model(vcgpdm)-dataset(return-bottle-hold)-mode(MAP)-parts(1)-hold(1)/final-lines.txt","att_check":false},"trial_type":"html-keyboard-response","trial_index":186,"time_elapsed":2286279,"internal_node_id":"0.0-8.0-3.44","subject":"scuzpw2uwu6olql","sona":"8779"},{"rt":401,"stimulus":"<p>Bereit?</p>","key_press":32,"trial_type":"html-keyboard-response","trial_index":187,"time_elapsed":2286684,"internal_node_id":"0.0-8.0-0.45","subject":"scuzpw2uwu6olql","sona":"8779"},{"rt":null,"stimulus":"<div style=\"font-size:60px;\">+</div>","key_press":null,"trial_type":"html-keyboard-response","trial_index":188,"time_elapsed":2288700,"internal_node_id":"0.0-8.0-1.45","subject":"scuzpw2uwu6olql","sona":"8779"},{"trial_type":"turing-test","trial_index":189,"time_elapsed":2294504,"internal_node_id":"0.0-8.0-2.45","subject":"scuzpw2uwu6olql","sona":"8779"},{"rt":2458,"stimulus":"<p>Welche Sequenz haben Sie als natürlicher empfunden?</p>","key_press":70,"test_part":"response","test_stimulus":{"position":1,"left":"bvh/vr_prediction_models/model(vcgpdm)-dataset(return-bottle)-mode(ELBO)-parts(1)-dyn(30)-lvm(30)-hold(0)/final-lines.txt","right":"bvh/return-bottle-training0-lines.txt","att_check":false},"trial_type":"html-keyboard-response","trial_index":190,"time_elapsed":2296967,"internal_node_id":"0.0-8.0-3.45","subject":"scuzpw2uwu6olql","sona":"8779"},{"rt":10905,"stimulus":"<p>Bereit?</p>","key_press":32,"trial_type":"html-keyboard-response","trial_index":191,"time_elapsed":2307877,"internal_node_id":"0.0-8.0-0.46","subject":"scuzpw2uwu6olql","sona":"8779"},{"rt":null,"stimulus":"<div style=\"font-size:60px;\">+</div>","key_press":null,"trial_type":"html-keyboard-response","trial_index":192,"time_elapsed":2309903,"internal_node_id":"0.0-8.0-1.46","subject":"scuzpw2uwu6olql","sona":"8779"},{"trial_type":"turing-test","trial_index":193,"time_elapsed":2315908,"internal_node_id":"0.0-8.0-2.46","subject":"scuzpw2uwu6olql","sona":"8779"},{"rt":8847,"stimulus":"<p>Welche Sequenz haben Sie als natürlicher empfunden?</p>","key_press":74,"test_part":"response","test_stimulus":{"position":1,"left":"bvh/vr_prediction_models/model(vcgpdm)-dataset(pass-bottle)-mode(ELBO)-parts(3)-dyn(20)-lvm(15)-hold(3)/final-lines.txt","right":"bvh/pass-bottle-training3-lines.txt","att_check":false},"trial_type":"html-keyboard-response","trial_index":194,"time_elapsed":2324760,"internal_node_id":"0.0-8.0-3.46","subject":"scuzpw2uwu6olql","sona":"8779"},{"rt":205,"stimulus":"<p>Bereit?</p>","key_press":32,"trial_type":"html-keyboard-response","trial_index":195,"time_elapsed":2324967,"internal_node_id":"0.0-8.0-0.47","subject":"scuzpw2uwu6olql","sona":"8779"},{"rt":null,"stimulus":"<div style=\"font-size:60px;\">+</div>","key_press":null,"trial_type":"html-keyboard-response","trial_index":196,"time_elapsed":2327008,"internal_node_id":"0.0-8.0-1.47","subject":"scuzpw2uwu6olql","sona":"8779"},{"trial_type":"turing-test","trial_index":197,"time_elapsed":2330488,"internal_node_id":"0.0-8.0-2.47","subject":"scuzpw2uwu6olql","sona":"8779"},{"rt":1270,"stimulus":"<p>Welche Sequenz haben Sie als natürlicher empfunden?</p>","key_press":70,"test_part":"response","test_stimulus":{"position":1,"left":"bvh/vr_prediction_models/model(vcgpdm)-dataset(pass-bottle-hold)-mode(ELBO)-parts(1)-dyn(20)-lvm(30)-hold(1)/final-lines.txt","right":"bvh/pass-bottle-hold-training1-lines.txt","att_check":false},"trial_type":"html-keyboard-response","trial_index":198,"time_elapsed":2331765,"internal_node_id":"0.0-8.0-3.47","subject":"scuzpw2uwu6olql","sona":"8779"},{"rt":789,"stimulus":"<p>Bereit?</p>","key_press":32,"trial_type":"html-keyboard-response","trial_index":199,"time_elapsed":2332562,"internal_node_id":"0.0-8.0-0.48","subject":"scuzpw2uwu6olql","sona":"8779"},{"rt":null,"stimulus":"<div style=\"font-size:60px;\">+</div>","key_press":null,"trial_type":"html-keyboard-response","trial_index":200,"time_elapsed":2334597,"internal_node_id":"0.0-8.0-1.48","subject":"scuzpw2uwu6olql","sona":"8779"},{"trial_type":"turing-test","trial_index":201,"time_elapsed":2338259,"internal_node_id":"0.0-8.0-2.48","subject":"scuzpw2uwu6olql","sona":"8779"},{"rt":1419,"stimulus":"<p>Welche Sequenz haben Sie als natürlicher empfunden?</p>","key_press":70,"test_part":"response","test_stimulus":{"position":1,"left":"bvh/vr_prediction_models/model(vcgpdm)-dataset(pass-bottle-hold)-mode(ELBO)-parts(1)-dyn(20)-lvm(30)-hold(2)/final-lines.txt","right":"bvh/pass-bottle-hold-training2-lines.txt","att_check":false},"trial_type":"html-keyboard-response","trial_index":202,"time_elapsed":2339683,"internal_node_id":"0.0-8.0-3.48","subject":"scuzpw2uwu6olql","sona":"8779"},{"rt":208,"stimulus":"<p>Bereit?</p>","key_press":32,"trial_type":"html-keyboard-response","trial_index":203,"time_elapsed":2339895,"internal_node_id":"0.0-8.0-0.49","subject":"scuzpw2uwu6olql","sona":"8779"},{"rt":null,"stimulus":"<div style=\"font-size:60px;\">+</div>","key_press":null,"trial_type":"html-keyboard-response","trial_index":204,"time_elapsed":2341919,"internal_node_id":"0.0-8.0-1.49","subject":"scuzpw2uwu6olql","sona":"8779"},{"trial_type":"turing-test","trial_index":205,"time_elapsed":2345624,"internal_node_id":"0.0-8.0-2.49","subject":"scuzpw2uwu6olql","sona":"8779"},{"rt":488,"stimulus":"<p>Welche Sequenz haben Sie als natürlicher empfunden?</p>","key_press":74,"test_part":"response","test_stimulus":{"position":1,"left":"bvh/vr_prediction_models/model(vcgpdm)-dataset(pass-bottle-hold)-mode(ELBO)-parts(1)-dyn(10)-lvm(25)-hold(1)/final-lines.txt","right":"bvh/pass-bottle-hold-training1-lines.txt","att_check":false},"trial_type":"html-keyboard-response","trial_index":206,"time_elapsed":2346116,"internal_node_id":"0.0-8.0-3.49","subject":"scuzpw2uwu6olql","sona":"8779"},{"rt":261,"stimulus":"<p>Bereit?</p>","key_press":32,"trial_type":"html-keyboard-response","trial_index":207,"time_elapsed":2346384,"internal_node_id":"0.0-8.0-0.50","subject":"scuzpw2uwu6olql","sona":"8779"},{"rt":null,"stimulus":"<div style=\"font-size:60px;\">+</div>","key_press":null,"trial_type":"html-keyboard-response","trial_index":208,"time_elapsed":2348404,"internal_node_id":"0.0-8.0-1.50","subject":"scuzpw2uwu6olql","sona":"8779"},{"trial_type":"turing-test","trial_index":209,"time_elapsed":2354270,"internal_node_id":"0.0-8.0-2.50","subject":"scuzpw2uwu6olql","sona":"8779"},{"rt":333,"stimulus":"<p>Welche Sequenz haben Sie als natürlicher empfunden?</p>","key_press":74,"test_part":"response","test_stimulus":{"position":0,"left":"bvh/return-bottle-training4-lines.txt","right":"bvh/vr_prediction_models/model(tmp)-dataset(return-bottle)-numprim(7)-hold(4)/final-lines.txt","att_check":false},"trial_type":"html-keyboard-response","trial_index":210,"time_elapsed":2354607,"internal_node_id":"0.0-8.0-3.50","subject":"scuzpw2uwu6olql","sona":"8779"},{"rt":908,"stimulus":"<p>Bereit?</p>","key_press":32,"trial_type":"html-keyboard-response","trial_index":211,"time_elapsed":2355523,"internal_node_id":"0.0-8.0-0.51","subject":"scuzpw2uwu6olql","sona":"8779"},{"rt":null,"stimulus":"<div style=\"font-size:60px;\">+</div>","key_press":null,"trial_type":"html-keyboard-response","trial_index":212,"time_elapsed":2357551,"internal_node_id":"0.0-8.0-1.51","subject":"scuzpw2uwu6olql","sona":"8779"},{"trial_type":"turing-test","trial_index":213,"time_elapsed":2363379,"internal_node_id":"0.0-8.0-2.51","subject":"scuzpw2uwu6olql","sona":"8779"},{"rt":1877,"stimulus":"<p>Welche Sequenz haben Sie als natürlicher empfunden?</p>","key_press":74,"test_part":"response","test_stimulus":{"position":1,"left":"bvh/vr_prediction_models/model(vcgpdm)-dataset(pass-bottle)-mode(ELBO)-parts(3)-dyn(20)-lvm(20)-hold(1)/final-lines.txt","right":"bvh/pass-bottle-training1-lines.txt","att_check":false},"trial_type":"html-keyboard-response","trial_index":214,"time_elapsed":2365266,"internal_node_id":"0.0-8.0-3.51","subject":"scuzpw2uwu6olql","sona":"8779"},{"rt":223,"stimulus":"<p>Bereit?</p>","key_press":32,"trial_type":"html-keyboard-response","trial_index":215,"time_elapsed":2365494,"internal_node_id":"0.0-8.0-0.52","subject":"scuzpw2uwu6olql","sona":"8779"},{"rt":null,"stimulus":"<div style=\"font-size:60px;\">+</div>","key_press":null,"trial_type":"html-keyboard-response","trial_index":216,"time_elapsed":2367506,"internal_node_id":"0.0-8.0-1.52","subject":"scuzpw2uwu6olql","sona":"8779"},{"trial_type":"turing-test","trial_index":217,"time_elapsed":2372991,"internal_node_id":"0.0-8.0-2.52","subject":"scuzpw2uwu6olql","sona":"8779"},{"rt":2569,"stimulus":"<p>Welche Sequenz haben Sie als natürlicher empfunden?</p>","key_press":70,"test_part":"response","test_stimulus":{"position":1,"left":"bvh/vr_prediction_models/model(vcgpdm)-dataset(return-bottle-hold)-mode(ELBO)-parts(1)-dyn(35)-lvm(10)-hold(0)/final-lines.txt","right":"bvh/return-bottle-hold-training0-lines.txt","att_check":false},"trial_type":"html-keyboard-response","trial_index":218,"time_elapsed":2375567,"internal_node_id":"0.0-8.0-3.52","subject":"scuzpw2uwu6olql","sona":"8779"},{"rt":201,"stimulus":"<p>Bereit?</p>","key_press":32,"trial_type":"html-keyboard-response","trial_index":219,"time_elapsed":2375777,"internal_node_id":"0.0-8.0-0.53","subject":"scuzpw2uwu6olql","sona":"8779"},{"rt":null,"stimulus":"<div style=\"font-size:60px;\">+</div>","key_press":null,"trial_type":"html-keyboard-response","trial_index":220,"time_elapsed":2377792,"internal_node_id":"0.0-8.0-1.53","subject":"scuzpw2uwu6olql","sona":"8779"},{"trial_type":"turing-test","trial_index":221,"time_elapsed":2381594,"internal_node_id":"0.0-8.0-2.53","subject":"scuzpw2uwu6olql","sona":"8779"},{"rt":8565,"stimulus":"<p>Welche Sequenz haben Sie als natürlicher empfunden?</p>","key_press":70,"test_part":"response","test_stimulus":{"position":0,"left":"bvh/return-bottle-hold-training4-lines.txt","right":"bvh/vr_prediction_models/model(dmp)-dataset(return-bottle-hold)-npsi(80)-hold(4)/final-lines.txt","att_check":true},"trial_type":"html-keyboard-response","trial_index":222,"time_elapsed":2390164,"internal_node_id":"0.0-8.0-3.53","subject":"scuzpw2uwu6olql","sona":"8779"},{"rt":232,"stimulus":"<p>Bereit?</p>","key_press":32,"trial_type":"html-keyboard-response","trial_index":223,"time_elapsed":2390403,"internal_node_id":"0.0-8.0-0.54","subject":"scuzpw2uwu6olql","sona":"8779"},{"rt":null,"stimulus":"<div style=\"font-size:60px;\">+</div>","key_press":null,"trial_type":"html-keyboard-response","trial_index":224,"time_elapsed":2392435,"internal_node_id":"0.0-8.0-1.54","subject":"scuzpw2uwu6olql","sona":"8779"},{"trial_type":"turing-test","trial_index":225,"time_elapsed":2397923,"internal_node_id":"0.0-8.0-2.54","subject":"scuzpw2uwu6olql","sona":"8779"},{"rt":309,"stimulus":"<p>Welche Sequenz haben Sie als natürlicher empfunden?</p>","key_press":74,"test_part":"response","test_stimulus":{"position":1,"left":"bvh/vr_prediction_models/model(tmp)-dataset(pass-bottle)-numprim(10)-hold(1)/final-lines.txt","right":"bvh/pass-bottle-training1-lines.txt","att_check":false},"trial_type":"html-keyboard-response","trial_index":226,"time_elapsed":2398239,"internal_node_id":"0.0-8.0-3.54","subject":"scuzpw2uwu6olql","sona":"8779"},{"rt":171,"stimulus":"<p>Bereit?</p>","key_press":32,"trial_type":"html-keyboard-response","trial_index":227,"time_elapsed":2398416,"internal_node_id":"0.0-8.0-0.55","subject":"scuzpw2uwu6olql","sona":"8779"},{"rt":null,"stimulus":"<div style=\"font-size:60px;\">+</div>","key_press":null,"trial_type":"html-keyboard-response","trial_index":228,"time_elapsed":2400455,"internal_node_id":"0.0-8.0-1.55","subject":"scuzpw2uwu6olql","sona":"8779"},{"trial_type":"turing-test","trial_index":229,"time_elapsed":2406432,"internal_node_id":"0.0-8.0-2.55","subject":"scuzpw2uwu6olql","sona":"8779"},{"rt":134,"stimulus":"<p>Welche Sequenz haben Sie als natürlicher empfunden?</p>","key_press":70,"test_part":"response","test_stimulus":{"position":1,"left":"bvh/vr_prediction_models/model(dmp)-dataset(return-bottle)-npsi(50)-hold(4)/final-lines.txt","right":"bvh/return-bottle-training4-lines.txt","att_check":false},"trial_type":"html-keyboard-response","trial_index":230,"time_elapsed":2406569,"internal_node_id":"0.0-8.0-3.55","subject":"scuzpw2uwu6olql","sona":"8779"},{"rt":215,"stimulus":"<p>Bereit?</p>","key_press":32,"trial_type":"html-keyboard-response","trial_index":231,"time_elapsed":2406789,"internal_node_id":"0.0-8.0-0.56","subject":"scuzpw2uwu6olql","sona":"8779"},{"rt":null,"stimulus":"<div style=\"font-size:60px;\">+</div>","key_press":null,"trial_type":"html-keyboard-response","trial_index":232,"time_elapsed":2408822,"internal_node_id":"0.0-8.0-1.56","subject":"scuzpw2uwu6olql","sona":"8779"},{"trial_type":"turing-test","trial_index":233,"time_elapsed":2412203,"internal_node_id":"0.0-8.0-2.56","subject":"scuzpw2uwu6olql","sona":"8779"},{"rt":15907,"stimulus":"<p>Welche Sequenz haben Sie als natürlicher empfunden?</p>","key_press":74,"test_part":"response","test_stimulus":{"position":1,"left":"bvh/vr_prediction_models/model(dmp)-dataset(return-bottle-hold)-npsi(60)-hold(1)/final-lines.txt","right":"bvh/return-bottle-hold-training1-lines.txt","att_check":false},"trial_type":"html-keyboard-response","trial_index":234,"time_elapsed":2428117,"internal_node_id":"0.0-8.0-3.56","subject":"scuzpw2uwu6olql","sona":"8779"},{"rt":206,"stimulus":"<p>Bereit?</p>","key_press":32,"trial_type":"html-keyboard-response","trial_index":235,"time_elapsed":2428330,"internal_node_id":"0.0-8.0-0.57","subject":"scuzpw2uwu6olql","sona":"8779"},{"rt":null,"stimulus":"<div style=\"font-size:60px;\">+</div>","key_press":null,"trial_type":"html-keyboard-response","trial_index":236,"time_elapsed":2430343,"internal_node_id":"0.0-8.0-1.57","subject":"scuzpw2uwu6olql","sona":"8779"},{"trial_type":"turing-test","trial_index":237,"time_elapsed":2436447,"internal_node_id":"0.0-8.0-2.57","subject":"scuzpw2uwu6olql","sona":"8779"},{"rt":458,"stimulus":"<p>Welche Sequenz haben Sie als natürlicher empfunden?</p>","key_press":70,"test_part":"response","test_stimulus":{"position":0,"left":"bvh/return-bottle-training3-lines.txt","right":"bvh/vr_prediction_models/model(vcgpdm)-dataset(return-bottle)-mode(ELBO)-parts(1)-dyn(35)-lvm(10)-hold(3)/final-lines.txt","att_check":false},"trial_type":"html-keyboard-response","trial_index":238,"time_elapsed":2436910,"internal_node_id":"0.0-8.0-3.57","subject":"scuzpw2uwu6olql","sona":"8779"},{"rt":529,"stimulus":"<p>Bereit?</p>","key_press":32,"trial_type":"html-keyboard-response","trial_index":239,"time_elapsed":2437444,"internal_node_id":"0.0-8.0-0.58","subject":"scuzpw2uwu6olql","sona":"8779"},{"rt":null,"stimulus":"<div style=\"font-size:60px;\">+</div>","key_press":null,"trial_type":"html-keyboard-response","trial_index":240,"time_elapsed":2439458,"internal_node_id":"0.0-8.0-1.58","subject":"scuzpw2uwu6olql","sona":"8779"},{"trial_type":"turing-test","trial_index":241,"time_elapsed":2443487,"internal_node_id":"0.0-8.0-2.58","subject":"scuzpw2uwu6olql","sona":"8779"},{"rt":4077,"stimulus":"<p>Welche Sequenz haben Sie als natürlicher empfunden?</p>","key_press":70,"test_part":"response","test_stimulus":{"position":0,"left":"bvh/return-bottle-hold-training3-lines.txt","right":"bvh/vr_prediction_models/model(vcgpdm)-dataset(return-bottle-hold)-mode(ELBO)-parts(3)-dyn(20)-lvm(15)-hold(3)/final-lines.txt","att_check":false},"trial_type":"html-keyboard-response","trial_index":242,"time_elapsed":2447573,"internal_node_id":"0.0-8.0-3.58","subject":"scuzpw2uwu6olql","sona":"8779"},{"rt":175,"stimulus":"<p>Bereit?</p>","key_press":32,"trial_type":"html-keyboard-response","trial_index":243,"time_elapsed":2447754,"internal_node_id":"0.0-8.0-0.59","subject":"scuzpw2uwu6olql","sona":"8779"},{"rt":null,"stimulus":"<div style=\"font-size:60px;\">+</div>","key_press":null,"trial_type":"html-keyboard-response","trial_index":244,"time_elapsed":2449778,"internal_node_id":"0.0-8.0-1.59","subject":"scuzpw2uwu6olql","sona":"8779"},{"trial_type":"turing-test","trial_index":245,"time_elapsed":2453022,"internal_node_id":"0.0-8.0-2.59","subject":"scuzpw2uwu6olql","sona":"8779"},{"rt":670,"stimulus":"<p>Welche Sequenz haben Sie als natürlicher empfunden?</p>","key_press":74,"test_part":"response","test_stimulus":{"position":1,"left":"bvh/vr_prediction_models/model(tmp)-dataset(pass-bottle-hold)-numprim(10)-hold(1)/final-lines.txt","right":"bvh/pass-bottle-hold-training1-lines.txt","att_check":false},"trial_type":"html-keyboard-response","trial_index":246,"time_elapsed":2453696,"internal_node_id":"0.0-8.0-3.59","subject":"scuzpw2uwu6olql","sona":"8779"},{"rt":375,"stimulus":"<p>Bereit?</p>","key_press":32,"trial_type":"html-keyboard-response","trial_index":247,"time_elapsed":2454076,"internal_node_id":"0.0-8.0-0.60","subject":"scuzpw2uwu6olql","sona":"8779"},{"rt":null,"stimulus":"<div style=\"font-size:60px;\">+</div>","key_press":null,"trial_type":"html-keyboard-response","trial_index":248,"time_elapsed":2456113,"internal_node_id":"0.0-8.0-1.60","subject":"scuzpw2uwu6olql","sona":"8779"},{"trial_type":"turing-test","trial_index":249,"time_elapsed":2462109,"internal_node_id":"0.0-8.0-2.60","subject":"scuzpw2uwu6olql","sona":"8779"},{"rt":1374,"stimulus":"<p>Welche Sequenz haben Sie als natürlicher empfunden?</p>","key_press":70,"test_part":"response","test_stimulus":{"position":0,"left":"bvh/return-bottle-training4-lines.txt","right":"bvh/vr_prediction_models/model(vcgpdm)-dataset(return-bottle)-mode(ELBO)-parts(3)-dyn(20)-lvm(35)-hold(4)/final-lines.txt","att_check":false},"trial_type":"html-keyboard-response","trial_index":250,"time_elapsed":2463488,"internal_node_id":"0.0-8.0-3.60","subject":"scuzpw2uwu6olql","sona":"8779"},{"rt":511,"stimulus":"<p>Bereit?</p>","key_press":32,"trial_type":"html-keyboard-response","trial_index":251,"time_elapsed":2464023,"internal_node_id":"0.0-8.0-0.61","subject":"scuzpw2uwu6olql","sona":"8779"},{"rt":null,"stimulus":"<div style=\"font-size:60px;\">+</div>","key_press":null,"trial_type":"html-keyboard-response","trial_index":252,"time_elapsed":2466039,"internal_node_id":"0.0-8.0-1.61","subject":"scuzpw2uwu6olql","sona":"8779"},{"trial_type":"turing-test","trial_index":253,"time_elapsed":2469910,"internal_node_id":"0.0-8.0-2.61","subject":"scuzpw2uwu6olql","sona":"8779"},{"rt":845,"stimulus":"<p>Welche Sequenz haben Sie als natürlicher empfunden?</p>","key_press":70,"test_part":"response","test_stimulus":{"position":1,"left":"bvh/vr_prediction_models/model(vcgpdm)-dataset(pass-bottle-hold)-mode(ELBO)-parts(3)-dyn(30)-lvm(15)-hold(4)/final-lines.txt","right":"bvh/pass-bottle-hold-training4-lines.txt","att_check":false},"trial_type":"html-keyboard-response","trial_index":254,"time_elapsed":2470767,"internal_node_id":"0.0-8.0-3.61","subject":"scuzpw2uwu6olql","sona":"8779"},{"rt":509,"stimulus":"<p>Bereit?</p>","key_press":32,"trial_type":"html-keyboard-response","trial_index":255,"time_elapsed":2471285,"internal_node_id":"0.0-8.0-0.62","subject":"scuzpw2uwu6olql","sona":"8779"},{"rt":null,"stimulus":"<div style=\"font-size:60px;\">+</div>","key_press":null,"trial_type":"html-keyboard-response","trial_index":256,"time_elapsed":2473293,"internal_node_id":"0.0-8.0-1.62","subject":"scuzpw2uwu6olql","sona":"8779"},{"trial_type":"turing-test","trial_index":257,"time_elapsed":2476689,"internal_node_id":"0.0-8.0-2.62","subject":"scuzpw2uwu6olql","sona":"8779"},{"rt":282,"stimulus":"<p>Welche Sequenz haben Sie als natürlicher empfunden?</p>","key_press":74,"test_part":"response","test_stimulus":{"position":1,"left":"bvh/vr_prediction_models/model(dmp)-dataset(pass-bottle-hold)-npsi(70)-hold(2)/final-lines.txt","right":"bvh/pass-bottle-hold-training2-lines.txt","att_check":false},"trial_type":"html-keyboard-response","trial_index":258,"time_elapsed":2476980,"internal_node_id":"0.0-8.0-3.62","subject":"scuzpw2uwu6olql","sona":"8779"},{"rt":331,"stimulus":"<p>Bereit?</p>","key_press":32,"trial_type":"html-keyboard-response","trial_index":259,"time_elapsed":2477315,"internal_node_id":"0.0-8.0-0.63","subject":"scuzpw2uwu6olql","sona":"8779"},{"rt":null,"stimulus":"<div style=\"font-size:60px;\">+</div>","key_press":null,"trial_type":"html-keyboard-response","trial_index":260,"time_elapsed":2479329,"internal_node_id":"0.0-8.0-1.63","subject":"scuzpw2uwu6olql","sona":"8779"},{"trial_type":"turing-test","trial_index":261,"time_elapsed":2483062,"internal_node_id":"0.0-8.0-2.63","subject":"scuzpw2uwu6olql","sona":"8779"},{"rt":536,"stimulus":"<p>Welche Sequenz haben Sie als natürlicher empfunden?</p>","key_press":70,"test_part":"response","test_stimulus":{"position":0,"left":"bvh/pass-bottle-hold-training0-lines.txt","right":"bvh/vr_prediction_models/model(vcgpdm)-dataset(pass-bottle-hold)-mode(ELBO)-parts(1)-dyn(10)-lvm(5)-hold(0)/final-lines.txt","att_check":false},"trial_type":"html-keyboard-response","trial_index":262,"time_elapsed":2483623,"internal_node_id":"0.0-8.0-3.63","subject":"scuzpw2uwu6olql","sona":"8779"},{"rt":1601,"stimulus":"<p>Bereit?</p>","key_press":32,"trial_type":"html-keyboard-response","trial_index":263,"time_elapsed":2485232,"internal_node_id":"0.0-8.0-0.64","subject":"scuzpw2uwu6olql","sona":"8779"},{"rt":null,"stimulus":"<div style=\"font-size:60px;\">+</div>","key_press":null,"trial_type":"html-keyboard-response","trial_index":264,"time_elapsed":2487262,"internal_node_id":"0.0-8.0-1.64","subject":"scuzpw2uwu6olql","sona":"8779"},{"trial_type":"turing-test","trial_index":265,"time_elapsed":2493019,"internal_node_id":"0.0-8.0-2.64","subject":"scuzpw2uwu6olql","sona":"8779"},{"rt":515,"stimulus":"<p>Welche Sequenz haben Sie als natürlicher empfunden?</p>","key_press":70,"test_part":"response","test_stimulus":{"position":1,"left":"bvh/vr_prediction_models/model(vcgpdm)-dataset(return-bottle)-mode(ELBO)-parts(1)-dyn(10)-lvm(25)-hold(0)/final-lines.txt","right":"bvh/return-bottle-training0-lines.txt","att_check":false},"trial_type":"html-keyboard-response","trial_index":266,"time_elapsed":2493545,"internal_node_id":"0.0-8.0-3.64","subject":"scuzpw2uwu6olql","sona":"8779"},{"rt":274,"stimulus":"<p>Bereit?</p>","key_press":32,"trial_type":"html-keyboard-response","trial_index":267,"time_elapsed":2493829,"internal_node_id":"0.0-8.0-0.65","subject":"scuzpw2uwu6olql","sona":"8779"},{"rt":null,"stimulus":"<div style=\"font-size:60px;\">+</div>","key_press":null,"trial_type":"html-keyboard-response","trial_index":268,"time_elapsed":2495870,"internal_node_id":"0.0-8.0-1.65","subject":"scuzpw2uwu6olql","sona":"8779"},{"trial_type":"turing-test","trial_index":269,"time_elapsed":2501702,"internal_node_id":"0.0-8.0-2.65","subject":"scuzpw2uwu6olql","sona":"8779"},{"rt":409,"stimulus":"<p>Welche Sequenz haben Sie als natürlicher empfunden?</p>","key_press":74,"test_part":"response","test_stimulus":{"position":1,"left":"bvh/vr_prediction_models/model(tmp)-dataset(pass-bottle)-numprim(6)-hold(4)/final-lines.txt","right":"bvh/pass-bottle-training4-lines.txt","att_check":false},"trial_type":"html-keyboard-response","trial_index":270,"time_elapsed":2502116,"internal_node_id":"0.0-8.0-3.65","subject":"scuzpw2uwu6olql","sona":"8779"},{"rt":352,"stimulus":"<p>Bereit?</p>","key_press":32,"trial_type":"html-keyboard-response","trial_index":271,"time_elapsed":2502473,"internal_node_id":"0.0-8.0-0.66","subject":"scuzpw2uwu6olql","sona":"8779"},{"rt":null,"stimulus":"<div style=\"font-size:60px;\">+</div>","key_press":null,"trial_type":"html-keyboard-response","trial_index":272,"time_elapsed":2504497,"internal_node_id":"0.0-8.0-1.66","subject":"scuzpw2uwu6olql","sona":"8779"},{"trial_type":"turing-test","trial_index":273,"time_elapsed":2508470,"internal_node_id":"0.0-8.0-2.66","subject":"scuzpw2uwu6olql","sona":"8779"},{"rt":296,"stimulus":"<p>Welche Sequenz haben Sie als natürlicher empfunden?</p>","key_press":74,"test_part":"response","test_stimulus":{"position":1,"left":"bvh/vr_prediction_models/model(vcgpdm)-dataset(pass-bottle-hold)-mode(ELBO)-parts(1)-dyn(30)-lvm(30)-hold(3)/final-lines.txt","right":"bvh/pass-bottle-hold-training3-lines.txt","att_check":false},"trial_type":"html-keyboard-response","trial_index":274,"time_elapsed":2508775,"internal_node_id":"0.0-8.0-3.66","subject":"scuzpw2uwu6olql","sona":"8779"},{"rt":396,"stimulus":"<p>Bereit?</p>","key_press":32,"trial_type":"html-keyboard-response","trial_index":275,"time_elapsed":2509179,"internal_node_id":"0.0-8.0-0.67","subject":"scuzpw2uwu6olql","sona":"8779"},{"rt":null,"stimulus":"<div style=\"font-size:60px;\">+</div>","key_press":null,"trial_type":"html-keyboard-response","trial_index":276,"time_elapsed":2511200,"internal_node_id":"0.0-8.0-1.67","subject":"scuzpw2uwu6olql","sona":"8779"},{"trial_type":"turing-test","trial_index":277,"time_elapsed":2514982,"internal_node_id":"0.0-8.0-2.67","subject":"scuzpw2uwu6olql","sona":"8779"},{"rt":376,"stimulus":"<p>Welche Sequenz haben Sie als natürlicher empfunden?</p>","key_press":74,"test_part":"response","test_stimulus":{"position":1,"left":"bvh/vr_prediction_models/model(vcgpdm)-dataset(return-bottle-hold)-mode(ELBO)-parts(3)-dyn(20)-lvm(35)-hold(2)/final-lines.txt","right":"bvh/return-bottle-hold-training2-lines.txt","att_check":false},"trial_type":"html-keyboard-response","trial_index":278,"time_elapsed":2515362,"internal_node_id":"0.0-8.0-3.67","subject":"scuzpw2uwu6olql","sona":"8779"},{"rt":310,"stimulus":"<p>Bereit?</p>","key_press":32,"trial_type":"html-keyboard-response","trial_index":279,"time_elapsed":2515678,"internal_node_id":"0.0-8.0-0.68","subject":"scuzpw2uwu6olql","sona":"8779"},{"rt":null,"stimulus":"<div style=\"font-size:60px;\">+</div>","key_press":null,"trial_type":"html-keyboard-response","trial_index":280,"time_elapsed":2517697,"internal_node_id":"0.0-8.0-1.68","subject":"scuzpw2uwu6olql","sona":"8779"},{"trial_type":"turing-test","trial_index":281,"time_elapsed":2521532,"internal_node_id":"0.0-8.0-2.68","subject":"scuzpw2uwu6olql","sona":"8779"},{"rt":363,"stimulus":"<p>Welche Sequenz haben Sie als natürlicher empfunden?</p>","key_press":70,"test_part":"response","test_stimulus":{"position":0,"left":"bvh/return-bottle-hold-training2-lines.txt","right":"bvh/vr_prediction_models/model(vcgpdm)-dataset(return-bottle-hold)-mode(ELBO)-parts(1)-dyn(10)-lvm(5)-hold(2)/final-lines.txt","att_check":false},"trial_type":"html-keyboard-response","trial_index":282,"time_elapsed":2521899,"internal_node_id":"0.0-8.0-3.68","subject":"scuzpw2uwu6olql","sona":"8779"},{"rt":373,"stimulus":"<p>Bereit?</p>","key_press":32,"trial_type":"html-keyboard-response","trial_index":283,"time_elapsed":2522275,"internal_node_id":"0.0-8.0-0.69","subject":"scuzpw2uwu6olql","sona":"8779"},{"rt":null,"stimulus":"<div style=\"font-size:60px;\">+</div>","key_press":null,"trial_type":"html-keyboard-response","trial_index":284,"time_elapsed":2524299,"internal_node_id":"0.0-8.0-1.69","subject":"scuzpw2uwu6olql","sona":"8779"},{"trial_type":"turing-test","trial_index":285,"time_elapsed":2527801,"internal_node_id":"0.0-8.0-2.69","subject":"scuzpw2uwu6olql","sona":"8779"},{"rt":728,"stimulus":"<p>Welche Sequenz haben Sie als natürlicher empfunden?</p>","key_press":70,"test_part":"response","test_stimulus":{"position":1,"left":"bvh/vr_prediction_models/model(dmp)-dataset(return-bottle-hold)-npsi(60)-hold(2)/final-lines.txt","right":"bvh/return-bottle-hold-training2-lines.txt","att_check":false},"trial_type":"html-keyboard-response","trial_index":286,"time_elapsed":2528536,"internal_node_id":"0.0-8.0-3.69","subject":"scuzpw2uwu6olql","sona":"8779"},{"rt":433,"stimulus":"<p>Bereit?</p>","key_press":32,"trial_type":"html-keyboard-response","trial_index":287,"time_elapsed":2528978,"internal_node_id":"0.0-8.0-0.70","subject":"scuzpw2uwu6olql","sona":"8779"},{"rt":null,"stimulus":"<div style=\"font-size:60px;\">+</div>","key_press":null,"trial_type":"html-keyboard-response","trial_index":288,"time_elapsed":2531011,"internal_node_id":"0.0-8.0-1.70","subject":"scuzpw2uwu6olql","sona":"8779"},{"trial_type":"turing-test","trial_index":289,"time_elapsed":2534427,"internal_node_id":"0.0-8.0-2.70","subject":"scuzpw2uwu6olql","sona":"8779"},{"rt":110,"stimulus":"<p>Welche Sequenz haben Sie als natürlicher empfunden?</p>","key_press":70,"test_part":"response","test_stimulus":{"position":0,"left":"bvh/pass-bottle-hold-training0-lines.txt","right":"bvh/vr_prediction_models/model(tmp)-dataset(pass-bottle-hold)-numprim(14)-hold(0)/final-lines.txt","att_check":false},"trial_type":"html-keyboard-response","trial_index":290,"time_elapsed":2534543,"internal_node_id":"0.0-8.0-3.70","subject":"scuzpw2uwu6olql","sona":"8779"},{"rt":447,"stimulus":"<p>Bereit?</p>","key_press":32,"trial_type":"html-keyboard-response","trial_index":291,"time_elapsed":2534993,"internal_node_id":"0.0-8.0-0.71","subject":"scuzpw2uwu6olql","sona":"8779"},{"rt":null,"stimulus":"<div style=\"font-size:60px;\">+</div>","key_press":null,"trial_type":"html-keyboard-response","trial_index":292,"time_elapsed":2537005,"internal_node_id":"0.0-8.0-1.71","subject":"scuzpw2uwu6olql","sona":"8779"},{"trial_type":"turing-test","trial_index":293,"time_elapsed":2543205,"internal_node_id":"0.0-8.0-2.71","subject":"scuzpw2uwu6olql","sona":"8779"},{"rt":484,"stimulus":"<p>Welche Sequenz haben Sie als natürlicher empfunden?</p>","key_press":70,"test_part":"response","test_stimulus":{"position":0,"left":"bvh/pass-bottle-training4-lines.txt","right":"bvh/vr_prediction_models/model(vcgpdm)-dataset(pass-bottle)-mode(ELBO)-parts(1)-dyn(10)-lvm(5)-hold(4)/final-lines.txt","att_check":false},"trial_type":"html-keyboard-response","trial_index":294,"time_elapsed":2543696,"internal_node_id":"0.0-8.0-3.71","subject":"scuzpw2uwu6olql","sona":"8779"},{"rt":1354,"stimulus":"<p>Bereit?</p>","key_press":32,"trial_type":"html-keyboard-response","trial_index":295,"time_elapsed":2545054,"internal_node_id":"0.0-8.0-0.72","subject":"scuzpw2uwu6olql","sona":"8779"},{"rt":null,"stimulus":"<div style=\"font-size:60px;\">+</div>","key_press":null,"trial_type":"html-keyboard-response","trial_index":296,"time_elapsed":2547079,"internal_node_id":"0.0-8.0-1.72","subject":"scuzpw2uwu6olql","sona":"8779"},{"trial_type":"turing-test","trial_index":297,"time_elapsed":2550544,"internal_node_id":"0.0-8.0-2.72","subject":"scuzpw2uwu6olql","sona":"8779"},{"rt":411,"stimulus":"<p>Welche Sequenz haben Sie als natürlicher empfunden?</p>","key_press":70,"test_part":"response","test_stimulus":{"position":0,"left":"bvh/return-bottle-hold-training2-lines.txt","right":"bvh/vr_prediction_models/model(tmp)-dataset(return-bottle-hold)-numprim(7)-hold(2)/final-lines.txt","att_check":false},"trial_type":"html-keyboard-response","trial_index":298,"time_elapsed":2550962,"internal_node_id":"0.0-8.0-3.72","subject":"scuzpw2uwu6olql","sona":"8779"},{"rt":460,"stimulus":"<p>Bereit?</p>","key_press":32,"trial_type":"html-keyboard-response","trial_index":299,"time_elapsed":2551433,"internal_node_id":"0.0-8.0-0.73","subject":"scuzpw2uwu6olql","sona":"8779"},{"rt":null,"stimulus":"<div style=\"font-size:60px;\">+</div>","key_press":null,"trial_type":"html-keyboard-response","trial_index":300,"time_elapsed":2553464,"internal_node_id":"0.0-8.0-1.73","subject":"scuzpw2uwu6olql","sona":"8779"},{"trial_type":"turing-test","trial_index":301,"time_elapsed":2557554,"internal_node_id":"0.0-8.0-2.73","subject":"scuzpw2uwu6olql","sona":"8779"},{"rt":295,"stimulus":"<p>Welche Sequenz haben Sie als natürlicher empfunden?</p>","key_press":74,"test_part":"response","test_stimulus":{"position":1,"left":"bvh/vr_prediction_models/model(vcgpdm)-dataset(return-bottle-hold)-mode(ELBO)-parts(1)-dyn(10)-lvm(25)-hold(4)/final-lines.txt","right":"bvh/return-bottle-hold-training4-lines.txt","att_check":false},"trial_type":"html-keyboard-response","trial_index":302,"time_elapsed":2557858,"internal_node_id":"0.0-8.0-3.73","subject":"scuzpw2uwu6olql","sona":"8779"},{"rt":503,"stimulus":"<p>Bereit?</p>","key_press":32,"trial_type":"html-keyboard-response","trial_index":303,"time_elapsed":2558369,"internal_node_id":"0.0-8.0-0.74","subject":"scuzpw2uwu6olql","sona":"8779"},{"rt":null,"stimulus":"<div style=\"font-size:60px;\">+</div>","key_press":null,"trial_type":"html-keyboard-response","trial_index":304,"time_elapsed":2560393,"internal_node_id":"0.0-8.0-1.74","subject":"scuzpw2uwu6olql","sona":"8779"},{"trial_type":"turing-test","trial_index":305,"time_elapsed":2564114,"internal_node_id":"0.0-8.0-2.74","subject":"scuzpw2uwu6olql","sona":"8779"},{"rt":414,"stimulus":"<p>Welche Sequenz haben Sie als natürlicher empfunden?</p>","key_press":74,"test_part":"response","test_stimulus":{"position":1,"left":"bvh/vr_prediction_models/model(vcgpdm)-dataset(pass-bottle-hold)-mode(ELBO)-parts(1)-dyn(15)-lvm(35)-hold(1)/final-lines.txt","right":"bvh/pass-bottle-hold-training1-lines.txt","att_check":false},"trial_type":"html-keyboard-response","trial_index":306,"time_elapsed":2564535,"internal_node_id":"0.0-8.0-3.74","subject":"scuzpw2uwu6olql","sona":"8779"},{"rt":437,"stimulus":"<p>Bereit?</p>","key_press":32,"trial_type":"html-keyboard-response","trial_index":307,"time_elapsed":2564977,"internal_node_id":"0.0-8.0-0.75","subject":"scuzpw2uwu6olql","sona":"8779"},{"rt":null,"stimulus":"<div style=\"font-size:60px;\">+</div>","key_press":null,"trial_type":"html-keyboard-response","trial_index":308,"time_elapsed":2567002,"internal_node_id":"0.0-8.0-1.75","subject":"scuzpw2uwu6olql","sona":"8779"},{"trial_type":"turing-test","trial_index":309,"time_elapsed":2573552,"internal_node_id":"0.0-8.0-2.75","subject":"scuzpw2uwu6olql","sona":"8779"},{"rt":487,"stimulus":"<p>Welche Sequenz haben Sie als natürlicher empfunden?</p>","key_press":70,"test_part":"response","test_stimulus":{"position":1,"left":"bvh/vr_prediction_models/model(vcgpdm)-dataset(pass-bottle)-mode(ELBO)-parts(1)-dyn(35)-lvm(30)-hold(2)/final-lines.txt","right":"bvh/pass-bottle-training2-lines.txt","att_check":false},"trial_type":"html-keyboard-response","trial_index":310,"time_elapsed":2574050,"internal_node_id":"0.0-8.0-3.75","subject":"scuzpw2uwu6olql","sona":"8779"},{"rt":331,"stimulus":"<p>Bereit?</p>","key_press":32,"trial_type":"html-keyboard-response","trial_index":311,"time_elapsed":2574388,"internal_node_id":"0.0-8.0-0.76","subject":"scuzpw2uwu6olql","sona":"8779"},{"rt":null,"stimulus":"<div style=\"font-size:60px;\">+</div>","key_press":null,"trial_type":"html-keyboard-response","trial_index":312,"time_elapsed":2576422,"internal_node_id":"0.0-8.0-1.76","subject":"scuzpw2uwu6olql","sona":"8779"},{"trial_type":"turing-test","trial_index":313,"time_elapsed":2583548,"internal_node_id":"0.0-8.0-2.76","subject":"scuzpw2uwu6olql","sona":"8779"},{"rt":3529,"stimulus":"<p>Welche Sequenz haben Sie als natürlicher empfunden?</p>","key_press":70,"test_part":"response","test_stimulus":{"position":0,"left":"bvh/return-bottle-training2-lines.txt","right":"bvh/vr_prediction_models/model(vcgpdm)-dataset(return-bottle)-mode(ELBO)-parts(1)-dyn(10)-lvm(25)-hold(2)/final-lines.txt","att_check":false},"trial_type":"html-keyboard-response","trial_index":314,"time_elapsed":2587086,"internal_node_id":"0.0-8.0-3.76","subject":"scuzpw2uwu6olql","sona":"8779"},{"rt":1274,"stimulus":"<p>Bereit?</p>","key_press":32,"trial_type":"html-keyboard-response","trial_index":315,"time_elapsed":2588365,"internal_node_id":"0.0-8.0-0.77","subject":"scuzpw2uwu6olql","sona":"8779"},{"rt":null,"stimulus":"<div style=\"font-size:60px;\">+</div>","key_press":null,"trial_type":"html-keyboard-response","trial_index":316,"time_elapsed":2590389,"internal_node_id":"0.0-8.0-1.77","subject":"scuzpw2uwu6olql","sona":"8779"},{"trial_type":"turing-test","trial_index":317,"time_elapsed":2595948,"internal_node_id":"0.0-8.0-2.77","subject":"scuzpw2uwu6olql","sona":"8779"},{"rt":887,"stimulus":"<p>Welche Sequenz haben Sie als natürlicher empfunden?</p>","key_press":74,"test_part":"response","test_stimulus":{"position":0,"left":"bvh/pass-bottle-training1-lines.txt","right":"bvh/vr_prediction_models/model(dmp)-dataset(pass-bottle)-npsi(50)-hold(1)/final-lines.txt","att_check":true},"trial_type":"html-keyboard-response","trial_index":318,"time_elapsed":2596845,"internal_node_id":"0.0-8.0-3.77","subject":"scuzpw2uwu6olql","sona":"8779"},{"rt":362,"stimulus":"<p>Bereit?</p>","key_press":32,"trial_type":"html-keyboard-response","trial_index":319,"time_elapsed":2597216,"internal_node_id":"0.0-8.0-0.78","subject":"scuzpw2uwu6olql","sona":"8779"},{"rt":null,"stimulus":"<div style=\"font-size:60px;\">+</div>","key_press":null,"trial_type":"html-keyboard-response","trial_index":320,"time_elapsed":2599239,"internal_node_id":"0.0-8.0-1.78","subject":"scuzpw2uwu6olql","sona":"8779"},{"trial_type":"turing-test","trial_index":321,"time_elapsed":2602694,"internal_node_id":"0.0-8.0-2.78","subject":"scuzpw2uwu6olql","sona":"8779"},{"rt":1405,"stimulus":"<p>Welche Sequenz haben Sie als natürlicher empfunden?</p>","key_press":74,"test_part":"response","test_stimulus":{"position":1,"left":"bvh/vr_prediction_models/model(dmp)-dataset(return-bottle-hold)-npsi(40)-hold(1)/final-lines.txt","right":"bvh/return-bottle-hold-training1-lines.txt","att_check":false},"trial_type":"html-keyboard-response","trial_index":322,"time_elapsed":2604108,"internal_node_id":"0.0-8.0-3.78","subject":"scuzpw2uwu6olql","sona":"8779"},{"rt":156,"stimulus":"<p>Bereit?</p>","key_press":32,"trial_type":"html-keyboard-response","trial_index":323,"time_elapsed":2604272,"internal_node_id":"0.0-8.0-0.79","subject":"scuzpw2uwu6olql","sona":"8779"},{"rt":null,"stimulus":"<div style=\"font-size:60px;\">+</div>","key_press":null,"trial_type":"html-keyboard-response","trial_index":324,"time_elapsed":2606304,"internal_node_id":"0.0-8.0-1.79","subject":"scuzpw2uwu6olql","sona":"8779"},{"trial_type":"turing-test","trial_index":325,"time_elapsed":2609814,"internal_node_id":"0.0-8.0-2.79","subject":"scuzpw2uwu6olql","sona":"8779"},{"rt":777,"stimulus":"<p>Welche Sequenz haben Sie als natürlicher empfunden?</p>","key_press":70,"test_part":"response","test_stimulus":{"position":1,"left":"bvh/vr_prediction_models/model(vcgpdm)-dataset(pass-bottle-hold)-mode(ELBO)-parts(1)-dyn(20)-lvm(5)-hold(1)/final-lines.txt","right":"bvh/pass-bottle-hold-training1-lines.txt","att_check":false},"trial_type":"html-keyboard-response","trial_index":326,"time_elapsed":2610598,"internal_node_id":"0.0-8.0-3.79","subject":"scuzpw2uwu6olql","sona":"8779"},{"rt":9882,"responses":"{\"age\":\" 23\",\"gender\":\"weiblich\"}","trial_type":"survey-text","trial_index":327,"time_elapsed":2620513,"internal_node_id":"0.0-10.0-0.0","subject":"scuzpw2uwu6olql","sona":"8779"},{"rt":31797,"responses":"{\"area\":\"Arme und Mitte\",\"Q1\":\"ruckartige Bewegungen oder zu langsame\",\"Q2\":\"\"}","trial_type":"survey-text","trial_index":328,"time_elapsed":2652336,"internal_node_id":"0.0-10.0-1.0","subject":"scuzpw2uwu6olql","sona":"8779"}]