[{"rt":3891,"stimulus":"<p>Welcome!<br> Please choose your language to start the experiment in the chosen language.</p><p>Willkommen!<br> Bitte wählen Sie eine Sprache, um das Experiment in der ausgewählten Sprache zu starten</p>","button_pressed":"1","trial_type":"html-button-response","trial_index":0,"time_elapsed":3896,"internal_node_id":"0.0-0.0","subject":"dvo8xacfk24l5e2","sona":"7276"},{"view_history":"[{\"page_index\":0,\"viewing_time\":5489},{\"page_index\":1,\"viewing_time\":2883},{\"page_index\":2,\"viewing_time\":4660},{\"page_index\":3,\"viewing_time\":3160},{\"page_index\":4,\"viewing_time\":2439}]","rt":18631,"trial_type":"instructions","trial_index":1,"time_elapsed":22529,"internal_node_id":"0.0-1.0-0.0","subject":"dvo8xacfk24l5e2","sona":"7276"},{"rt":2595,"stimulus":"<p>Bereit?</p>","key_press":32,"trial_type":"html-keyboard-response","trial_index":2,"time_elapsed":25127,"internal_node_id":"0.0-3.0","subject":"dvo8xacfk24l5e2","sona":"7276"},{"rt":null,"stimulus":"<div style=\"font-size:60px;\">+</div>","key_press":null,"trial_type":"html-keyboard-response","trial_index":3,"time_elapsed":27147,"internal_node_id":"0.0-4.0","subject":"dvo8xacfk24l5e2","sona":"7276"},{"trial_type":"training","trial_index":4,"time_elapsed":30440,"internal_node_id":"0.0-5.0","subject":"dvo8xacfk24l5e2","sona":"7276"},{"rt":428,"stimulus":"<p>Welche Sequenz haben Sie als natürlicher empfunden?</p>","key_press":70,"trial_type":"html-keyboard-response","trial_index":5,"time_elapsed":30871,"internal_node_id":"0.0-6.0","subject":"dvo8xacfk24l5e2","sona":"7276"},{"rt":3312,"stimulus":"<p>Das Experiment startet nun.</p><p><small>Bitte drücken Sie den Knopf, wenn Sie bereit sind.</small></p>","button_pressed":"0","trial_type":"html-button-response","trial_index":6,"time_elapsed":34183,"internal_node_id":"0.0-7.0","subject":"dvo8xacfk24l5e2","sona":"7276"},{"rt":1248,"stimulus":"<p>Bereit?</p>","key_press":32,"trial_type":"html-keyboard-response","trial_index":7,"time_elapsed":35433,"internal_node_id":"0.0-8.0-0.0","subject":"dvo8xacfk24l5e2","sona":"7276"},{"rt":null,"stimulus":"<div style=\"font-size:60px;\">+</div>","key_press":null,"trial_type":"html-keyboard-response","trial_index":8,"time_elapsed":37462,"internal_node_id":"0.0-8.0-1.0","subject":"dvo8xacfk24l5e2","sona":"7276"},{"trial_type":"turing-test","trial_index":9,"time_elapsed":42814,"internal_node_id":"0.0-8.0-2.0","subject":"dvo8xacfk24l5e2","sona":"7276"},{"rt":385,"stimulus":"<p>Welche Sequenz haben Sie als natürlicher empfunden?</p>","key_press":70,"test_part":"response","test_stimulus":{"position":0,"left":"bvh/return-bottle-training0-lines.txt","right":"bvh/vr_prediction_models/model(vcgpdm)-dataset(return-bottle)-mode(ELBO)-parts(3)-dyn(20)-lvm(35)-hold(0)/final-lines.txt","att_check":false},"trial_type":"html-keyboard-response","trial_index":10,"time_elapsed":43201,"internal_node_id":"0.0-8.0-3.0","subject":"dvo8xacfk24l5e2","sona":"7276"},{"rt":951,"stimulus":"<p>Bereit?</p>","key_press":32,"trial_type":"html-keyboard-response","trial_index":11,"time_elapsed":44153,"internal_node_id":"0.0-8.0-0.1","subject":"dvo8xacfk24l5e2","sona":"7276"},{"rt":null,"stimulus":"<div style=\"font-size:60px;\">+</div>","key_press":null,"trial_type":"html-keyboard-response","trial_index":12,"time_elapsed":46174,"internal_node_id":"0.0-8.0-1.1","subject":"dvo8xacfk24l5e2","sona":"7276"},{"trial_type":"turing-test","trial_index":13,"time_elapsed":52005,"internal_node_id":"0.0-8.0-2.1","subject":"dvo8xacfk24l5e2","sona":"7276"},{"rt":562,"stimulus":"<p>Welche Sequenz haben Sie als natürlicher empfunden?</p>","key_press":74,"test_part":"response","test_stimulus":{"position":0,"left":"bvh/pass-bottle-training4-lines.txt","right":"bvh/vr_prediction_models/model(vcgpdm)-dataset(pass-bottle)-mode(ELBO)-parts(3)-dyn(30)-lvm(15)-hold(4)/final-lines.txt","att_check":false},"trial_type":"html-keyboard-response","trial_index":14,"time_elapsed":52569,"internal_node_id":"0.0-8.0-3.1","subject":"dvo8xacfk24l5e2","sona":"7276"},{"rt":195,"stimulus":"<p>Bereit?</p>","key_press":32,"trial_type":"html-keyboard-response","trial_index":15,"time_elapsed":52765,"internal_node_id":"0.0-8.0-0.2","subject":"dvo8xacfk24l5e2","sona":"7276"},{"rt":null,"stimulus":"<div style=\"font-size:60px;\">+</div>","key_press":null,"trial_type":"html-keyboard-response","trial_index":16,"time_elapsed":54805,"internal_node_id":"0.0-8.0-1.2","subject":"dvo8xacfk24l5e2","sona":"7276"},{"trial_type":"turing-test","trial_index":17,"time_elapsed":59821,"internal_node_id":"0.0-8.0-2.2","subject":"dvo8xacfk24l5e2","sona":"7276"},{"rt":514,"stimulus":"<p>Welche Sequenz haben Sie als natürlicher empfunden?</p>","key_press":70,"test_part":"response","test_stimulus":{"position":1,"left":"bvh/vr_prediction_models/model(tmp)-dataset(return-bottle-hold)-numprim(8)-hold(0)/final-lines.txt","right":"bvh/return-bottle-hold-training0-lines.txt","att_check":false},"trial_type":"html-keyboard-response","trial_index":18,"time_elapsed":60338,"internal_node_id":"0.0-8.0-3.2","subject":"dvo8xacfk24l5e2","sona":"7276"},{"rt":266,"stimulus":"<p>Bereit?</p>","key_press":32,"trial_type":"html-keyboard-response","trial_index":19,"time_elapsed":60604,"internal_node_id":"0.0-8.0-0.3","subject":"dvo8xacfk24l5e2","sona":"7276"},{"rt":null,"stimulus":"<div style=\"font-size:60px;\">+</div>","key_press":null,"trial_type":"html-keyboard-response","trial_index":20,"time_elapsed":62642,"internal_node_id":"0.0-8.0-1.3","subject":"dvo8xacfk24l5e2","sona":"7276"},{"trial_type":"turing-test","trial_index":21,"time_elapsed":68042,"internal_node_id":"0.0-8.0-2.3","subject":"dvo8xacfk24l5e2","sona":"7276"},{"rt":1259,"stimulus":"<p>Welche Sequenz haben Sie als natürlicher empfunden?</p>","key_press":70,"test_part":"response","test_stimulus":{"position":0,"left":"bvh/pass-bottle-training1-lines.txt","right":"bvh/vr_prediction_models/model(vcgpdm)-dataset(pass-bottle)-mode(ELBO)-parts(1)-dyn(30)-lvm(30)-hold(1)/final-lines.txt","att_check":false},"trial_type":"html-keyboard-response","trial_index":22,"time_elapsed":69303,"internal_node_id":"0.0-8.0-3.3","subject":"dvo8xacfk24l5e2","sona":"7276"},{"rt":314,"stimulus":"<p>Bereit?</p>","key_press":32,"trial_type":"html-keyboard-response","trial_index":23,"time_elapsed":69619,"internal_node_id":"0.0-8.0-0.4","subject":"dvo8xacfk24l5e2","sona":"7276"},{"rt":null,"stimulus":"<div style=\"font-size:60px;\">+</div>","key_press":null,"trial_type":"html-keyboard-response","trial_index":24,"time_elapsed":71642,"internal_node_id":"0.0-8.0-1.4","subject":"dvo8xacfk24l5e2","sona":"7276"},{"trial_type":"turing-test","trial_index":25,"time_elapsed":77390,"internal_node_id":"0.0-8.0-2.4","subject":"dvo8xacfk24l5e2","sona":"7276"},{"rt":393,"stimulus":"<p>Welche Sequenz haben Sie als natürlicher empfunden?</p>","key_press":70,"test_part":"response","test_stimulus":{"position":0,"left":"bvh/return-bottle-training4-lines.txt","right":"bvh/vr_prediction_models/model(dmp)-dataset(return-bottle)-npsi(80)-hold(4)/final-lines.txt","att_check":true},"trial_type":"html-keyboard-response","trial_index":26,"time_elapsed":77783,"internal_node_id":"0.0-8.0-3.4","subject":"dvo8xacfk24l5e2","sona":"7276"},{"rt":227,"stimulus":"<p>Bereit?</p>","key_press":32,"trial_type":"html-keyboard-response","trial_index":27,"time_elapsed":78011,"internal_node_id":"0.0-8.0-0.5","subject":"dvo8xacfk24l5e2","sona":"7276"},{"rt":null,"stimulus":"<div style=\"font-size:60px;\">+</div>","key_press":null,"trial_type":"html-keyboard-response","trial_index":28,"time_elapsed":80050,"internal_node_id":"0.0-8.0-1.5","subject":"dvo8xacfk24l5e2","sona":"7276"},{"trial_type":"turing-test","trial_index":29,"time_elapsed":85775,"internal_node_id":"0.0-8.0-2.5","subject":"dvo8xacfk24l5e2","sona":"7276"},{"rt":314,"stimulus":"<p>Welche Sequenz haben Sie als natürlicher empfunden?</p>","key_press":74,"test_part":"response","test_stimulus":{"position":1,"left":"bvh/vr_prediction_models/model(vcgpdm)-dataset(pass-bottle)-mode(ELBO)-parts(1)-dyn(25)-lvm(35)-hold(3)/final-lines.txt","right":"bvh/pass-bottle-training3-lines.txt","att_check":false},"trial_type":"html-keyboard-response","trial_index":30,"time_elapsed":86091,"internal_node_id":"0.0-8.0-3.5","subject":"dvo8xacfk24l5e2","sona":"7276"},{"rt":169,"stimulus":"<p>Bereit?</p>","key_press":32,"trial_type":"html-keyboard-response","trial_index":31,"time_elapsed":86261,"internal_node_id":"0.0-8.0-0.6","subject":"dvo8xacfk24l5e2","sona":"7276"},{"rt":null,"stimulus":"<div style=\"font-size:60px;\">+</div>","key_press":null,"trial_type":"html-keyboard-response","trial_index":32,"time_elapsed":88296,"internal_node_id":"0.0-8.0-1.6","subject":"dvo8xacfk24l5e2","sona":"7276"},{"trial_type":"turing-test","trial_index":33,"time_elapsed":94031,"internal_node_id":"0.0-8.0-2.6","subject":"dvo8xacfk24l5e2","sona":"7276"},{"rt":645,"stimulus":"<p>Welche Sequenz haben Sie als natürlicher empfunden?</p>","key_press":70,"test_part":"response","test_stimulus":{"position":1,"left":"bvh/vr_prediction_models/model(vcgpdm)-dataset(return-bottle)-mode(ELBO)-parts(1)-dyn(20)-lvm(20)-hold(3)/final-lines.txt","right":"bvh/return-bottle-training3-lines.txt","att_check":false},"trial_type":"html-keyboard-response","trial_index":34,"time_elapsed":94678,"internal_node_id":"0.0-8.0-3.6","subject":"dvo8xacfk24l5e2","sona":"7276"},{"rt":243,"stimulus":"<p>Bereit?</p>","key_press":32,"trial_type":"html-keyboard-response","trial_index":35,"time_elapsed":94922,"internal_node_id":"0.0-8.0-0.7","subject":"dvo8xacfk24l5e2","sona":"7276"},{"rt":null,"stimulus":"<div style=\"font-size:60px;\">+</div>","key_press":null,"trial_type":"html-keyboard-response","trial_index":36,"time_elapsed":96953,"internal_node_id":"0.0-8.0-1.7","subject":"dvo8xacfk24l5e2","sona":"7276"},{"trial_type":"turing-test","trial_index":37,"time_elapsed":102622,"internal_node_id":"0.0-8.0-2.7","subject":"dvo8xacfk24l5e2","sona":"7276"},{"rt":370,"stimulus":"<p>Welche Sequenz haben Sie als natürlicher empfunden?</p>","key_press":74,"test_part":"response","test_stimulus":{"position":1,"left":"bvh/vr_prediction_models/model(vcgpdm)-dataset(pass-bottle)-mode(ELBO)-parts(3)-dyn(10)-lvm(25)-hold(4)/final-lines.txt","right":"bvh/pass-bottle-training4-lines.txt","att_check":false},"trial_type":"html-keyboard-response","trial_index":38,"time_elapsed":102994,"internal_node_id":"0.0-8.0-3.7","subject":"dvo8xacfk24l5e2","sona":"7276"},{"rt":181,"stimulus":"<p>Bereit?</p>","key_press":32,"trial_type":"html-keyboard-response","trial_index":39,"time_elapsed":103176,"internal_node_id":"0.0-8.0-0.8","subject":"dvo8xacfk24l5e2","sona":"7276"},{"rt":null,"stimulus":"<div style=\"font-size:60px;\">+</div>","key_press":null,"trial_type":"html-keyboard-response","trial_index":40,"time_elapsed":105202,"internal_node_id":"0.0-8.0-1.8","subject":"dvo8xacfk24l5e2","sona":"7276"},{"trial_type":"turing-test","trial_index":41,"time_elapsed":108833,"internal_node_id":"0.0-8.0-2.8","subject":"dvo8xacfk24l5e2","sona":"7276"},{"rt":432,"stimulus":"<p>Welche Sequenz haben Sie als natürlicher empfunden?</p>","key_press":74,"test_part":"response","test_stimulus":{"position":0,"left":"bvh/return-bottle-hold-training3-lines.txt","right":"bvh/vr_prediction_models/model(tmp)-dataset(return-bottle-hold)-numprim(13)-hold(3)/final-lines.txt","att_check":false},"trial_type":"html-keyboard-response","trial_index":42,"time_elapsed":109266,"internal_node_id":"0.0-8.0-3.8","subject":"dvo8xacfk24l5e2","sona":"7276"},{"rt":182,"stimulus":"<p>Bereit?</p>","key_press":32,"trial_type":"html-keyboard-response","trial_index":43,"time_elapsed":109449,"internal_node_id":"0.0-8.0-0.9","subject":"dvo8xacfk24l5e2","sona":"7276"},{"rt":null,"stimulus":"<div style=\"font-size:60px;\">+</div>","key_press":null,"trial_type":"html-keyboard-response","trial_index":44,"time_elapsed":111453,"internal_node_id":"0.0-8.0-1.9","subject":"dvo8xacfk24l5e2","sona":"7276"},{"trial_type":"turing-test","trial_index":45,"time_elapsed":117155,"internal_node_id":"0.0-8.0-2.9","subject":"dvo8xacfk24l5e2","sona":"7276"},{"rt":400,"stimulus":"<p>Welche Sequenz haben Sie als natürlicher empfunden?</p>","key_press":70,"test_part":"response","test_stimulus":{"position":0,"left":"bvh/return-bottle-training3-lines.txt","right":"bvh/vr_prediction_models/model(vcgpdm)-dataset(return-bottle)-mode(ELBO)-parts(1)-dyn(10)-lvm(30)-hold(3)/final-lines.txt","att_check":false},"trial_type":"html-keyboard-response","trial_index":46,"time_elapsed":117557,"internal_node_id":"0.0-8.0-3.9","subject":"dvo8xacfk24l5e2","sona":"7276"},{"rt":296,"stimulus":"<p>Bereit?</p>","key_press":32,"trial_type":"html-keyboard-response","trial_index":47,"time_elapsed":117854,"internal_node_id":"0.0-8.0-0.10","subject":"dvo8xacfk24l5e2","sona":"7276"},{"rt":null,"stimulus":"<div style=\"font-size:60px;\">+</div>","key_press":null,"trial_type":"html-keyboard-response","trial_index":48,"time_elapsed":119874,"internal_node_id":"0.0-8.0-1.10","subject":"dvo8xacfk24l5e2","sona":"7276"},{"trial_type":"turing-test","trial_index":49,"time_elapsed":125971,"internal_node_id":"0.0-8.0-2.10","subject":"dvo8xacfk24l5e2","sona":"7276"},{"rt":433,"stimulus":"<p>Welche Sequenz haben Sie als natürlicher empfunden?</p>","key_press":70,"test_part":"response","test_stimulus":{"position":0,"left":"bvh/pass-bottle-training2-lines.txt","right":"bvh/vr_prediction_models/model(vcgpdm)-dataset(pass-bottle)-mode(ELBO)-parts(1)-dyn(30)-lvm(30)-hold(2)/final-lines.txt","att_check":false},"trial_type":"html-keyboard-response","trial_index":50,"time_elapsed":126405,"internal_node_id":"0.0-8.0-3.10","subject":"dvo8xacfk24l5e2","sona":"7276"},{"rt":270,"stimulus":"<p>Bereit?</p>","key_press":32,"trial_type":"html-keyboard-response","trial_index":51,"time_elapsed":126676,"internal_node_id":"0.0-8.0-0.11","subject":"dvo8xacfk24l5e2","sona":"7276"},{"rt":null,"stimulus":"<div style=\"font-size:60px;\">+</div>","key_press":null,"trial_type":"html-keyboard-response","trial_index":52,"time_elapsed":128711,"internal_node_id":"0.0-8.0-1.11","subject":"dvo8xacfk24l5e2","sona":"7276"},{"trial_type":"turing-test","trial_index":53,"time_elapsed":132023,"internal_node_id":"0.0-8.0-2.11","subject":"dvo8xacfk24l5e2","sona":"7276"},{"rt":1170,"stimulus":"<p>Welche Sequenz haben Sie als natürlicher empfunden?</p>","key_press":70,"test_part":"response","test_stimulus":{"position":1,"left":"bvh/vr_prediction_models/model(vcgpdm)-dataset(pass-bottle-hold)-mode(ELBO)-parts(1)-dyn(20)-lvm(5)-hold(2)/final-lines.txt","right":"bvh/pass-bottle-hold-training2-lines.txt","att_check":false},"trial_type":"html-keyboard-response","trial_index":54,"time_elapsed":133195,"internal_node_id":"0.0-8.0-3.11","subject":"dvo8xacfk24l5e2","sona":"7276"},{"rt":299,"stimulus":"<p>Bereit?</p>","key_press":32,"trial_type":"html-keyboard-response","trial_index":55,"time_elapsed":133496,"internal_node_id":"0.0-8.0-0.12","subject":"dvo8xacfk24l5e2","sona":"7276"},{"rt":null,"stimulus":"<div style=\"font-size:60px;\">+</div>","key_press":null,"trial_type":"html-keyboard-response","trial_index":56,"time_elapsed":135524,"internal_node_id":"0.0-8.0-1.12","subject":"dvo8xacfk24l5e2","sona":"7276"},{"trial_type":"turing-test","trial_index":57,"time_elapsed":138859,"internal_node_id":"0.0-8.0-2.12","subject":"dvo8xacfk24l5e2","sona":"7276"},{"rt":244,"stimulus":"<p>Welche Sequenz haben Sie als natürlicher empfunden?</p>","key_press":70,"test_part":"response","test_stimulus":{"position":1,"left":"bvh/vr_prediction_models/model(vcgpdm)-dataset(pass-bottle-hold)-mode(ELBO)-parts(3)-dyn(20)-lvm(15)-hold(1)/final-lines.txt","right":"bvh/pass-bottle-hold-training1-lines.txt","att_check":false},"trial_type":"html-keyboard-response","trial_index":58,"time_elapsed":139105,"internal_node_id":"0.0-8.0-3.12","subject":"dvo8xacfk24l5e2","sona":"7276"},{"rt":190,"stimulus":"<p>Bereit?</p>","key_press":32,"trial_type":"html-keyboard-response","trial_index":59,"time_elapsed":139297,"internal_node_id":"0.0-8.0-0.13","subject":"dvo8xacfk24l5e2","sona":"7276"},{"rt":null,"stimulus":"<div style=\"font-size:60px;\">+</div>","key_press":null,"trial_type":"html-keyboard-response","trial_index":60,"time_elapsed":141320,"internal_node_id":"0.0-8.0-1.13","subject":"dvo8xacfk24l5e2","sona":"7276"},{"trial_type":"turing-test","trial_index":61,"time_elapsed":146739,"internal_node_id":"0.0-8.0-2.13","subject":"dvo8xacfk24l5e2","sona":"7276"},{"rt":1002,"stimulus":"<p>Welche Sequenz haben Sie als natürlicher empfunden?</p>","key_press":70,"test_part":"response","test_stimulus":{"position":0,"left":"bvh/return-bottle-training0-lines.txt","right":"bvh/vr_prediction_models/model(vcgpdm)-dataset(return-bottle)-mode(MAP)-parts(1)-hold(0)/final-lines.txt","att_check":false},"trial_type":"html-keyboard-response","trial_index":62,"time_elapsed":147743,"internal_node_id":"0.0-8.0-3.13","subject":"dvo8xacfk24l5e2","sona":"7276"},{"rt":244,"stimulus":"<p>Bereit?</p>","key_press":32,"trial_type":"html-keyboard-response","trial_index":63,"time_elapsed":147989,"internal_node_id":"0.0-8.0-0.14","subject":"dvo8xacfk24l5e2","sona":"7276"},{"rt":null,"stimulus":"<div style=\"font-size:60px;\">+</div>","key_press":null,"trial_type":"html-keyboard-response","trial_index":64,"time_elapsed":150020,"internal_node_id":"0.0-8.0-1.14","subject":"dvo8xacfk24l5e2","sona":"7276"},{"trial_type":"turing-test","trial_index":65,"time_elapsed":155351,"internal_node_id":"0.0-8.0-2.14","subject":"dvo8xacfk24l5e2","sona":"7276"},{"rt":575,"stimulus":"<p>Welche Sequenz haben Sie als natürlicher empfunden?</p>","key_press":70,"test_part":"response","test_stimulus":{"position":0,"left":"bvh/pass-bottle-training1-lines.txt","right":"bvh/vr_prediction_models/model(dmp)-dataset(pass-bottle)-npsi(30)-hold(1)/final-lines.txt","att_check":true},"trial_type":"html-keyboard-response","trial_index":66,"time_elapsed":155929,"internal_node_id":"0.0-8.0-3.14","subject":"dvo8xacfk24l5e2","sona":"7276"},{"rt":261,"stimulus":"<p>Bereit?</p>","key_press":32,"trial_type":"html-keyboard-response","trial_index":67,"time_elapsed":156191,"internal_node_id":"0.0-8.0-0.15","subject":"dvo8xacfk24l5e2","sona":"7276"},{"rt":null,"stimulus":"<div style=\"font-size:60px;\">+</div>","key_press":null,"trial_type":"html-keyboard-response","trial_index":68,"time_elapsed":158211,"internal_node_id":"0.0-8.0-1.15","subject":"dvo8xacfk24l5e2","sona":"7276"},{"trial_type":"turing-test","trial_index":69,"time_elapsed":164906,"internal_node_id":"0.0-8.0-2.15","subject":"dvo8xacfk24l5e2","sona":"7276"},{"rt":635,"stimulus":"<p>Welche Sequenz haben Sie als natürlicher empfunden?</p>","key_press":74,"test_part":"response","test_stimulus":{"position":0,"left":"bvh/pass-bottle-training0-lines.txt","right":"bvh/vr_prediction_models/model(vcgpdm)-dataset(pass-bottle)-mode(ELBO)-parts(1)-dyn(10)-lvm(5)-hold(0)/final-lines.txt","att_check":false},"trial_type":"html-keyboard-response","trial_index":70,"time_elapsed":165542,"internal_node_id":"0.0-8.0-3.15","subject":"dvo8xacfk24l5e2","sona":"7276"},{"rt":432,"stimulus":"<p>Bereit?</p>","key_press":32,"trial_type":"html-keyboard-response","trial_index":71,"time_elapsed":165975,"internal_node_id":"0.0-8.0-0.16","subject":"dvo8xacfk24l5e2","sona":"7276"},{"rt":null,"stimulus":"<div style=\"font-size:60px;\">+</div>","key_press":null,"trial_type":"html-keyboard-response","trial_index":72,"time_elapsed":168005,"internal_node_id":"0.0-8.0-1.16","subject":"dvo8xacfk24l5e2","sona":"7276"},{"trial_type":"turing-test","trial_index":73,"time_elapsed":174476,"internal_node_id":"0.0-8.0-2.16","subject":"dvo8xacfk24l5e2","sona":"7276"},{"rt":2383,"stimulus":"<p>Welche Sequenz haben Sie als natürlicher empfunden?</p>","key_press":70,"test_part":"response","test_stimulus":{"position":0,"left":"bvh/return-bottle-training2-lines.txt","right":"bvh/vr_prediction_models/model(tmp)-dataset(return-bottle)-numprim(3)-hold(2)/final-lines.txt","att_check":false},"trial_type":"html-keyboard-response","trial_index":74,"time_elapsed":176861,"internal_node_id":"0.0-8.0-3.16","subject":"dvo8xacfk24l5e2","sona":"7276"},{"rt":702,"stimulus":"<p>Bereit?</p>","key_press":32,"trial_type":"html-keyboard-response","trial_index":75,"time_elapsed":177564,"internal_node_id":"0.0-8.0-0.17","subject":"dvo8xacfk24l5e2","sona":"7276"},{"rt":null,"stimulus":"<div style=\"font-size:60px;\">+</div>","key_press":null,"trial_type":"html-keyboard-response","trial_index":76,"time_elapsed":179598,"internal_node_id":"0.0-8.0-1.17","subject":"dvo8xacfk24l5e2","sona":"7276"},{"trial_type":"turing-test","trial_index":77,"time_elapsed":183294,"internal_node_id":"0.0-8.0-2.17","subject":"dvo8xacfk24l5e2","sona":"7276"},{"rt":326,"stimulus":"<p>Welche Sequenz haben Sie als natürlicher empfunden?</p>","key_press":74,"test_part":"response","test_stimulus":{"position":1,"left":"bvh/vr_prediction_models/model(tmp)-dataset(return-bottle-hold)-numprim(12)-hold(4)/final-lines.txt","right":"bvh/return-bottle-hold-training4-lines.txt","att_check":false},"trial_type":"html-keyboard-response","trial_index":78,"time_elapsed":183621,"internal_node_id":"0.0-8.0-3.17","subject":"dvo8xacfk24l5e2","sona":"7276"},{"rt":230,"stimulus":"<p>Bereit?</p>","key_press":32,"trial_type":"html-keyboard-response","trial_index":79,"time_elapsed":183853,"internal_node_id":"0.0-8.0-0.18","subject":"dvo8xacfk24l5e2","sona":"7276"},{"rt":null,"stimulus":"<div style=\"font-size:60px;\">+</div>","key_press":null,"trial_type":"html-keyboard-response","trial_index":80,"time_elapsed":185874,"internal_node_id":"0.0-8.0-1.18","subject":"dvo8xacfk24l5e2","sona":"7276"},{"trial_type":"turing-test","trial_index":81,"time_elapsed":189407,"internal_node_id":"0.0-8.0-2.18","subject":"dvo8xacfk24l5e2","sona":"7276"},{"rt":935,"stimulus":"<p>Welche Sequenz haben Sie als natürlicher empfunden?</p>","key_press":70,"test_part":"response","test_stimulus":{"position":0,"left":"bvh/return-bottle-hold-training3-lines.txt","right":"bvh/vr_prediction_models/model(dmp)-dataset(return-bottle-hold)-npsi(40)-hold(3)/final-lines.txt","att_check":false},"trial_type":"html-keyboard-response","trial_index":82,"time_elapsed":190343,"internal_node_id":"0.0-8.0-3.18","subject":"dvo8xacfk24l5e2","sona":"7276"},{"rt":274,"stimulus":"<p>Bereit?</p>","key_press":32,"trial_type":"html-keyboard-response","trial_index":83,"time_elapsed":190618,"internal_node_id":"0.0-8.0-0.19","subject":"dvo8xacfk24l5e2","sona":"7276"},{"rt":null,"stimulus":"<div style=\"font-size:60px;\">+</div>","key_press":null,"trial_type":"html-keyboard-response","trial_index":84,"time_elapsed":192627,"internal_node_id":"0.0-8.0-1.19","subject":"dvo8xacfk24l5e2","sona":"7276"},{"trial_type":"turing-test","trial_index":85,"time_elapsed":199252,"internal_node_id":"0.0-8.0-2.19","subject":"dvo8xacfk24l5e2","sona":"7276"},{"rt":392,"stimulus":"<p>Welche Sequenz haben Sie als natürlicher empfunden?</p>","key_press":74,"test_part":"response","test_stimulus":{"position":1,"left":"bvh/vr_prediction_models/model(dmp)-dataset(pass-bottle)-npsi(50)-hold(0)/final-lines.txt","right":"bvh/pass-bottle-training0-lines.txt","att_check":true},"trial_type":"html-keyboard-response","trial_index":86,"time_elapsed":199646,"internal_node_id":"0.0-8.0-3.19","subject":"dvo8xacfk24l5e2","sona":"7276"},{"rt":133,"stimulus":"<p>Bereit?</p>","key_press":32,"trial_type":"html-keyboard-response","trial_index":87,"time_elapsed":199780,"internal_node_id":"0.0-8.0-0.20","subject":"dvo8xacfk24l5e2","sona":"7276"},{"rt":null,"stimulus":"<div style=\"font-size:60px;\">+</div>","key_press":null,"trial_type":"html-keyboard-response","trial_index":88,"time_elapsed":201793,"internal_node_id":"0.0-8.0-1.20","subject":"dvo8xacfk24l5e2","sona":"7276"},{"trial_type":"turing-test","trial_index":89,"time_elapsed":205191,"internal_node_id":"0.0-8.0-2.20","subject":"dvo8xacfk24l5e2","sona":"7276"},{"rt":234,"stimulus":"<p>Welche Sequenz haben Sie als natürlicher empfunden?</p>","key_press":74,"test_part":"response","test_stimulus":{"position":1,"left":"bvh/vr_prediction_models/model(vcgpdm)-dataset(pass-bottle-hold)-mode(ELBO)-parts(1)-dyn(30)-lvm(20)-hold(2)/final-lines.txt","right":"bvh/pass-bottle-hold-training2-lines.txt","att_check":false},"trial_type":"html-keyboard-response","trial_index":90,"time_elapsed":205426,"internal_node_id":"0.0-8.0-3.20","subject":"dvo8xacfk24l5e2","sona":"7276"},{"rt":108,"stimulus":"<p>Bereit?</p>","key_press":32,"trial_type":"html-keyboard-response","trial_index":91,"time_elapsed":205536,"internal_node_id":"0.0-8.0-0.21","subject":"dvo8xacfk24l5e2","sona":"7276"},{"rt":null,"stimulus":"<div style=\"font-size:60px;\">+</div>","key_press":null,"trial_type":"html-keyboard-response","trial_index":92,"time_elapsed":207552,"internal_node_id":"0.0-8.0-1.21","subject":"dvo8xacfk24l5e2","sona":"7276"},{"trial_type":"turing-test","trial_index":93,"time_elapsed":211154,"internal_node_id":"0.0-8.0-2.21","subject":"dvo8xacfk24l5e2","sona":"7276"},{"rt":490,"stimulus":"<p>Welche Sequenz haben Sie als natürlicher empfunden?</p>","key_press":74,"test_part":"response","test_stimulus":{"position":0,"left":"bvh/pass-bottle-hold-training4-lines.txt","right":"bvh/vr_prediction_models/model(tmp)-dataset(pass-bottle-hold)-numprim(4)-hold(4)/final-lines.txt","att_check":false},"trial_type":"html-keyboard-response","trial_index":94,"time_elapsed":211646,"internal_node_id":"0.0-8.0-3.21","subject":"dvo8xacfk24l5e2","sona":"7276"},{"rt":252,"stimulus":"<p>Bereit?</p>","key_press":32,"trial_type":"html-keyboard-response","trial_index":95,"time_elapsed":211900,"internal_node_id":"0.0-8.0-0.22","subject":"dvo8xacfk24l5e2","sona":"7276"},{"rt":null,"stimulus":"<div style=\"font-size:60px;\">+</div>","key_press":null,"trial_type":"html-keyboard-response","trial_index":96,"time_elapsed":213917,"internal_node_id":"0.0-8.0-1.22","subject":"dvo8xacfk24l5e2","sona":"7276"},{"trial_type":"turing-test","trial_index":97,"time_elapsed":217450,"internal_node_id":"0.0-8.0-2.22","subject":"dvo8xacfk24l5e2","sona":"7276"},{"rt":351,"stimulus":"<p>Welche Sequenz haben Sie als natürlicher empfunden?</p>","key_press":74,"test_part":"response","test_stimulus":{"position":1,"left":"bvh/vr_prediction_models/model(tmp)-dataset(return-bottle-hold)-numprim(6)-hold(3)/final-lines.txt","right":"bvh/return-bottle-hold-training3-lines.txt","att_check":false},"trial_type":"html-keyboard-response","trial_index":98,"time_elapsed":217803,"internal_node_id":"0.0-8.0-3.22","subject":"dvo8xacfk24l5e2","sona":"7276"},{"rt":133,"stimulus":"<p>Bereit?</p>","key_press":32,"trial_type":"html-keyboard-response","trial_index":99,"time_elapsed":217938,"internal_node_id":"0.0-8.0-0.23","subject":"dvo8xacfk24l5e2","sona":"7276"},{"rt":null,"stimulus":"<div style=\"font-size:60px;\">+</div>","key_press":null,"trial_type":"html-keyboard-response","trial_index":100,"time_elapsed":219968,"internal_node_id":"0.0-8.0-1.23","subject":"dvo8xacfk24l5e2","sona":"7276"},{"trial_type":"turing-test","trial_index":101,"time_elapsed":225045,"internal_node_id":"0.0-8.0-2.23","subject":"dvo8xacfk24l5e2","sona":"7276"},{"rt":769,"stimulus":"<p>Welche Sequenz haben Sie als natürlicher empfunden?</p>","key_press":74,"test_part":"response","test_stimulus":{"position":1,"left":"bvh/vr_prediction_models/model(vcgpdm)-dataset(return-bottle-hold)-mode(ELBO)-parts(3)-dyn(30)-lvm(15)-hold(0)/final-lines.txt","right":"bvh/return-bottle-hold-training0-lines.txt","att_check":false},"trial_type":"html-keyboard-response","trial_index":102,"time_elapsed":225815,"internal_node_id":"0.0-8.0-3.23","subject":"dvo8xacfk24l5e2","sona":"7276"},{"rt":546,"stimulus":"<p>Bereit?</p>","key_press":32,"trial_type":"html-keyboard-response","trial_index":103,"time_elapsed":226363,"internal_node_id":"0.0-8.0-0.24","subject":"dvo8xacfk24l5e2","sona":"7276"},{"rt":null,"stimulus":"<div style=\"font-size:60px;\">+</div>","key_press":null,"trial_type":"html-keyboard-response","trial_index":104,"time_elapsed":228386,"internal_node_id":"0.0-8.0-1.24","subject":"dvo8xacfk24l5e2","sona":"7276"},{"trial_type":"turing-test","trial_index":105,"time_elapsed":234054,"internal_node_id":"0.0-8.0-2.24","subject":"dvo8xacfk24l5e2","sona":"7276"},{"rt":325,"stimulus":"<p>Welche Sequenz haben Sie als natürlicher empfunden?</p>","key_press":74,"test_part":"response","test_stimulus":{"position":1,"left":"bvh/vr_prediction_models/model(dmp)-dataset(return-bottle)-npsi(20)-hold(4)/final-lines.txt","right":"bvh/return-bottle-training4-lines.txt","att_check":false},"trial_type":"html-keyboard-response","trial_index":106,"time_elapsed":234381,"internal_node_id":"0.0-8.0-3.24","subject":"dvo8xacfk24l5e2","sona":"7276"},{"rt":312,"stimulus":"<p>Bereit?</p>","key_press":32,"trial_type":"html-keyboard-response","trial_index":107,"time_elapsed":234693,"internal_node_id":"0.0-8.0-0.25","subject":"dvo8xacfk24l5e2","sona":"7276"},{"rt":null,"stimulus":"<div style=\"font-size:60px;\">+</div>","key_press":null,"trial_type":"html-keyboard-response","trial_index":108,"time_elapsed":236713,"internal_node_id":"0.0-8.0-1.25","subject":"dvo8xacfk24l5e2","sona":"7276"},{"trial_type":"turing-test","trial_index":109,"time_elapsed":242450,"internal_node_id":"0.0-8.0-2.25","subject":"dvo8xacfk24l5e2","sona":"7276"},{"rt":324,"stimulus":"<p>Welche Sequenz haben Sie als natürlicher empfunden?</p>","key_press":74,"test_part":"response","test_stimulus":{"position":1,"left":"bvh/vr_prediction_models/model(dmp)-dataset(return-bottle)-npsi(60)-hold(4)/final-lines.txt","right":"bvh/return-bottle-training4-lines.txt","att_check":false},"trial_type":"html-keyboard-response","trial_index":110,"time_elapsed":242775,"internal_node_id":"0.0-8.0-3.25","subject":"dvo8xacfk24l5e2","sona":"7276"},{"rt":208,"stimulus":"<p>Bereit?</p>","key_press":32,"trial_type":"html-keyboard-response","trial_index":111,"time_elapsed":242985,"internal_node_id":"0.0-8.0-0.26","subject":"dvo8xacfk24l5e2","sona":"7276"},{"rt":null,"stimulus":"<div style=\"font-size:60px;\">+</div>","key_press":null,"trial_type":"html-keyboard-response","trial_index":112,"time_elapsed":244989,"internal_node_id":"0.0-8.0-1.26","subject":"dvo8xacfk24l5e2","sona":"7276"},{"trial_type":"turing-test","trial_index":113,"time_elapsed":250689,"internal_node_id":"0.0-8.0-2.26","subject":"dvo8xacfk24l5e2","sona":"7276"},{"rt":369,"stimulus":"<p>Welche Sequenz haben Sie als natürlicher empfunden?</p>","key_press":74,"test_part":"response","test_stimulus":{"position":1,"left":"bvh/vr_prediction_models/model(dmp)-dataset(pass-bottle)-npsi(10)-hold(3)/final-lines.txt","right":"bvh/pass-bottle-training3-lines.txt","att_check":false},"trial_type":"html-keyboard-response","trial_index":114,"time_elapsed":251060,"internal_node_id":"0.0-8.0-3.26","subject":"dvo8xacfk24l5e2","sona":"7276"},{"rt":256,"stimulus":"<p>Bereit?</p>","key_press":32,"trial_type":"html-keyboard-response","trial_index":115,"time_elapsed":251317,"internal_node_id":"0.0-8.0-0.27","subject":"dvo8xacfk24l5e2","sona":"7276"},{"rt":null,"stimulus":"<div style=\"font-size:60px;\">+</div>","key_press":null,"trial_type":"html-keyboard-response","trial_index":116,"time_elapsed":253348,"internal_node_id":"0.0-8.0-1.27","subject":"dvo8xacfk24l5e2","sona":"7276"},{"trial_type":"turing-test","trial_index":117,"time_elapsed":256725,"internal_node_id":"0.0-8.0-2.27","subject":"dvo8xacfk24l5e2","sona":"7276"},{"rt":1645,"stimulus":"<p>Welche Sequenz haben Sie als natürlicher empfunden?</p>","key_press":70,"test_part":"response","test_stimulus":{"position":0,"left":"bvh/pass-bottle-hold-training0-lines.txt","right":"bvh/vr_prediction_models/model(vcgpdm)-dataset(pass-bottle-hold)-mode(ELBO)-parts(1)-dyn(20)-lvm(30)-hold(0)/final-lines.txt","att_check":false},"trial_type":"html-keyboard-response","trial_index":118,"time_elapsed":258371,"internal_node_id":"0.0-8.0-3.27","subject":"dvo8xacfk24l5e2","sona":"7276"},{"rt":222,"stimulus":"<p>Bereit?</p>","key_press":32,"trial_type":"html-keyboard-response","trial_index":119,"time_elapsed":258595,"internal_node_id":"0.0-8.0-0.28","subject":"dvo8xacfk24l5e2","sona":"7276"},{"rt":null,"stimulus":"<div style=\"font-size:60px;\">+</div>","key_press":null,"trial_type":"html-keyboard-response","trial_index":120,"time_elapsed":260625,"internal_node_id":"0.0-8.0-1.28","subject":"dvo8xacfk24l5e2","sona":"7276"},{"trial_type":"turing-test","trial_index":121,"time_elapsed":267116,"internal_node_id":"0.0-8.0-2.28","subject":"dvo8xacfk24l5e2","sona":"7276"},{"rt":378,"stimulus":"<p>Welche Sequenz haben Sie als natürlicher empfunden?</p>","key_press":70,"test_part":"response","test_stimulus":{"position":0,"left":"bvh/return-bottle-training2-lines.txt","right":"bvh/vr_prediction_models/model(tmp)-dataset(return-bottle)-numprim(13)-hold(2)/final-lines.txt","att_check":false},"trial_type":"html-keyboard-response","trial_index":122,"time_elapsed":267494,"internal_node_id":"0.0-8.0-3.28","subject":"dvo8xacfk24l5e2","sona":"7276"},{"rt":155,"stimulus":"<p>Bereit?</p>","key_press":32,"trial_type":"html-keyboard-response","trial_index":123,"time_elapsed":267650,"internal_node_id":"0.0-8.0-0.29","subject":"dvo8xacfk24l5e2","sona":"7276"},{"rt":null,"stimulus":"<div style=\"font-size:60px;\">+</div>","key_press":null,"trial_type":"html-keyboard-response","trial_index":124,"time_elapsed":269675,"internal_node_id":"0.0-8.0-1.29","subject":"dvo8xacfk24l5e2","sona":"7276"},{"trial_type":"turing-test","trial_index":125,"time_elapsed":273240,"internal_node_id":"0.0-8.0-2.29","subject":"dvo8xacfk24l5e2","sona":"7276"},{"rt":912,"stimulus":"<p>Welche Sequenz haben Sie als natürlicher empfunden?</p>","key_press":74,"test_part":"response","test_stimulus":{"position":0,"left":"bvh/return-bottle-hold-training3-lines.txt","right":"bvh/vr_prediction_models/model(vcgpdm)-dataset(return-bottle-hold)-mode(ELBO)-parts(1)-dyn(10)-lvm(25)-hold(3)/final-lines.txt","att_check":false},"trial_type":"html-keyboard-response","trial_index":126,"time_elapsed":274154,"internal_node_id":"0.0-8.0-3.29","subject":"dvo8xacfk24l5e2","sona":"7276"},{"rt":241,"stimulus":"<p>Bereit?</p>","key_press":32,"trial_type":"html-keyboard-response","trial_index":127,"time_elapsed":274398,"internal_node_id":"0.0-8.0-0.30","subject":"dvo8xacfk24l5e2","sona":"7276"},{"rt":null,"stimulus":"<div style=\"font-size:60px;\">+</div>","key_press":null,"trial_type":"html-keyboard-response","trial_index":128,"time_elapsed":276401,"internal_node_id":"0.0-8.0-1.30","subject":"dvo8xacfk24l5e2","sona":"7276"},{"trial_type":"turing-test","trial_index":129,"time_elapsed":281533,"internal_node_id":"0.0-8.0-2.30","subject":"dvo8xacfk24l5e2","sona":"7276"},{"rt":312,"stimulus":"<p>Welche Sequenz haben Sie als natürlicher empfunden?</p>","key_press":74,"test_part":"response","test_stimulus":{"position":1,"left":"bvh/vr_prediction_models/model(vcgpdm)-dataset(return-bottle-hold)-mode(ELBO)-parts(1)-dyn(20)-lvm(30)-hold(0)/final-lines.txt","right":"bvh/return-bottle-hold-training0-lines.txt","att_check":false},"trial_type":"html-keyboard-response","trial_index":130,"time_elapsed":281846,"internal_node_id":"0.0-8.0-3.30","subject":"dvo8xacfk24l5e2","sona":"7276"},{"rt":377,"stimulus":"<p>Bereit?</p>","key_press":32,"trial_type":"html-keyboard-response","trial_index":131,"time_elapsed":282224,"internal_node_id":"0.0-8.0-0.31","subject":"dvo8xacfk24l5e2","sona":"7276"},{"rt":null,"stimulus":"<div style=\"font-size:60px;\">+</div>","key_press":null,"trial_type":"html-keyboard-response","trial_index":132,"time_elapsed":284232,"internal_node_id":"0.0-8.0-1.31","subject":"dvo8xacfk24l5e2","sona":"7276"},{"trial_type":"turing-test","trial_index":133,"time_elapsed":290855,"internal_node_id":"0.0-8.0-2.31","subject":"dvo8xacfk24l5e2","sona":"7276"},{"rt":345,"stimulus":"<p>Welche Sequenz haben Sie als natürlicher empfunden?</p>","key_press":74,"test_part":"response","test_stimulus":{"position":1,"left":"bvh/vr_prediction_models/model(dmp)-dataset(pass-bottle)-npsi(20)-hold(0)/final-lines.txt","right":"bvh/pass-bottle-training0-lines.txt","att_check":false},"trial_type":"html-keyboard-response","trial_index":134,"time_elapsed":291202,"internal_node_id":"0.0-8.0-3.31","subject":"dvo8xacfk24l5e2","sona":"7276"},{"rt":275,"stimulus":"<p>Bereit?</p>","key_press":32,"trial_type":"html-keyboard-response","trial_index":135,"time_elapsed":291479,"internal_node_id":"0.0-8.0-0.32","subject":"dvo8xacfk24l5e2","sona":"7276"},{"rt":null,"stimulus":"<div style=\"font-size:60px;\">+</div>","key_press":null,"trial_type":"html-keyboard-response","trial_index":136,"time_elapsed":293516,"internal_node_id":"0.0-8.0-1.32","subject":"dvo8xacfk24l5e2","sona":"7276"},{"trial_type":"turing-test","trial_index":137,"time_elapsed":300004,"internal_node_id":"0.0-8.0-2.32","subject":"dvo8xacfk24l5e2","sona":"7276"},{"rt":369,"stimulus":"<p>Welche Sequenz haben Sie als natürlicher empfunden?</p>","key_press":74,"test_part":"response","test_stimulus":{"position":0,"left":"bvh/return-bottle-training2-lines.txt","right":"bvh/vr_prediction_models/model(vcgpdm)-dataset(return-bottle)-mode(MAP)-parts(3)-hold(2)/final-lines.txt","att_check":false},"trial_type":"html-keyboard-response","trial_index":138,"time_elapsed":300374,"internal_node_id":"0.0-8.0-3.32","subject":"dvo8xacfk24l5e2","sona":"7276"},{"rt":291,"stimulus":"<p>Bereit?</p>","key_press":32,"trial_type":"html-keyboard-response","trial_index":139,"time_elapsed":300667,"internal_node_id":"0.0-8.0-0.33","subject":"dvo8xacfk24l5e2","sona":"7276"},{"rt":null,"stimulus":"<div style=\"font-size:60px;\">+</div>","key_press":null,"trial_type":"html-keyboard-response","trial_index":140,"time_elapsed":302704,"internal_node_id":"0.0-8.0-1.33","subject":"dvo8xacfk24l5e2","sona":"7276"},{"trial_type":"turing-test","trial_index":141,"time_elapsed":306222,"internal_node_id":"0.0-8.0-2.33","subject":"dvo8xacfk24l5e2","sona":"7276"},{"rt":610,"stimulus":"<p>Welche Sequenz haben Sie als natürlicher empfunden?</p>","key_press":74,"test_part":"response","test_stimulus":{"position":0,"left":"bvh/return-bottle-hold-training3-lines.txt","right":"bvh/vr_prediction_models/model(tmp)-dataset(return-bottle-hold)-numprim(13)-hold(3)/final-lines.txt","att_check":false},"trial_type":"html-keyboard-response","trial_index":142,"time_elapsed":306834,"internal_node_id":"0.0-8.0-3.33","subject":"dvo8xacfk24l5e2","sona":"7276"},{"rt":292,"stimulus":"<p>Bereit?</p>","key_press":32,"trial_type":"html-keyboard-response","trial_index":143,"time_elapsed":307129,"internal_node_id":"0.0-8.0-0.34","subject":"dvo8xacfk24l5e2","sona":"7276"},{"rt":null,"stimulus":"<div style=\"font-size:60px;\">+</div>","key_press":null,"trial_type":"html-keyboard-response","trial_index":144,"time_elapsed":309153,"internal_node_id":"0.0-8.0-1.34","subject":"dvo8xacfk24l5e2","sona":"7276"},{"trial_type":"turing-test","trial_index":145,"time_elapsed":314807,"internal_node_id":"0.0-8.0-2.34","subject":"dvo8xacfk24l5e2","sona":"7276"},{"rt":317,"stimulus":"<p>Welche Sequenz haben Sie als natürlicher empfunden?</p>","key_press":70,"test_part":"response","test_stimulus":{"position":0,"left":"bvh/pass-bottle-training4-lines.txt","right":"bvh/vr_prediction_models/model(vcgpdm)-dataset(pass-bottle)-mode(ELBO)-parts(1)-dyn(30)-lvm(30)-hold(4)/final-lines.txt","att_check":false},"trial_type":"html-keyboard-response","trial_index":146,"time_elapsed":315126,"internal_node_id":"0.0-8.0-3.34","subject":"dvo8xacfk24l5e2","sona":"7276"},{"rt":184,"stimulus":"<p>Bereit?</p>","key_press":32,"trial_type":"html-keyboard-response","trial_index":147,"time_elapsed":315311,"internal_node_id":"0.0-8.0-0.35","subject":"dvo8xacfk24l5e2","sona":"7276"},{"rt":null,"stimulus":"<div style=\"font-size:60px;\">+</div>","key_press":null,"trial_type":"html-keyboard-response","trial_index":148,"time_elapsed":317347,"internal_node_id":"0.0-8.0-1.35","subject":"dvo8xacfk24l5e2","sona":"7276"},{"trial_type":"turing-test","trial_index":149,"time_elapsed":323524,"internal_node_id":"0.0-8.0-2.35","subject":"dvo8xacfk24l5e2","sona":"7276"},{"rt":276,"stimulus":"<p>Welche Sequenz haben Sie als natürlicher empfunden?</p>","key_press":70,"test_part":"response","test_stimulus":{"position":0,"left":"bvh/pass-bottle-training2-lines.txt","right":"bvh/vr_prediction_models/model(vcgpdm)-dataset(pass-bottle)-mode(ELBO)-parts(3)-dyn(20)-lvm(20)-hold(2)/final-lines.txt","att_check":false},"trial_type":"html-keyboard-response","trial_index":150,"time_elapsed":323803,"internal_node_id":"0.0-8.0-3.35","subject":"dvo8xacfk24l5e2","sona":"7276"},{"rt":217,"stimulus":"<p>Bereit?</p>","key_press":32,"trial_type":"html-keyboard-response","trial_index":151,"time_elapsed":324023,"internal_node_id":"0.0-8.0-0.36","subject":"dvo8xacfk24l5e2","sona":"7276"},{"rt":null,"stimulus":"<div style=\"font-size:60px;\">+</div>","key_press":null,"trial_type":"html-keyboard-response","trial_index":152,"time_elapsed":326045,"internal_node_id":"0.0-8.0-1.36","subject":"dvo8xacfk24l5e2","sona":"7276"},{"trial_type":"turing-test","trial_index":153,"time_elapsed":331721,"internal_node_id":"0.0-8.0-2.36","subject":"dvo8xacfk24l5e2","sona":"7276"},{"rt":398,"stimulus":"<p>Welche Sequenz haben Sie als natürlicher empfunden?</p>","key_press":74,"test_part":"response","test_stimulus":{"position":1,"left":"bvh/vr_prediction_models/model(vcgpdm)-dataset(return-bottle)-mode(ELBO)-parts(3)-dyn(10)-lvm(25)-hold(3)/final-lines.txt","right":"bvh/return-bottle-training3-lines.txt","att_check":false},"trial_type":"html-keyboard-response","trial_index":154,"time_elapsed":332121,"internal_node_id":"0.0-8.0-3.36","subject":"dvo8xacfk24l5e2","sona":"7276"},{"rt":240,"stimulus":"<p>Bereit?</p>","key_press":32,"trial_type":"html-keyboard-response","trial_index":155,"time_elapsed":332363,"internal_node_id":"0.0-8.0-0.37","subject":"dvo8xacfk24l5e2","sona":"7276"},{"rt":null,"stimulus":"<div style=\"font-size:60px;\">+</div>","key_press":null,"trial_type":"html-keyboard-response","trial_index":156,"time_elapsed":334401,"internal_node_id":"0.0-8.0-1.37","subject":"dvo8xacfk24l5e2","sona":"7276"},{"trial_type":"turing-test","trial_index":157,"time_elapsed":339717,"internal_node_id":"0.0-8.0-2.37","subject":"dvo8xacfk24l5e2","sona":"7276"},{"rt":336,"stimulus":"<p>Welche Sequenz haben Sie als natürlicher empfunden?</p>","key_press":74,"test_part":"response","test_stimulus":{"position":1,"left":"bvh/vr_prediction_models/model(vcgpdm)-dataset(return-bottle)-mode(ELBO)-parts(3)-dyn(10)-lvm(10)-hold(0)/final-lines.txt","right":"bvh/return-bottle-training0-lines.txt","att_check":false},"trial_type":"html-keyboard-response","trial_index":158,"time_elapsed":340054,"internal_node_id":"0.0-8.0-3.37","subject":"dvo8xacfk24l5e2","sona":"7276"},{"rt":208,"stimulus":"<p>Bereit?</p>","key_press":32,"trial_type":"html-keyboard-response","trial_index":159,"time_elapsed":340263,"internal_node_id":"0.0-8.0-0.38","subject":"dvo8xacfk24l5e2","sona":"7276"},{"rt":null,"stimulus":"<div style=\"font-size:60px;\">+</div>","key_press":null,"trial_type":"html-keyboard-response","trial_index":160,"time_elapsed":342296,"internal_node_id":"0.0-8.0-1.38","subject":"dvo8xacfk24l5e2","sona":"7276"},{"trial_type":"turing-test","trial_index":161,"time_elapsed":345755,"internal_node_id":"0.0-8.0-2.38","subject":"dvo8xacfk24l5e2","sona":"7276"},{"rt":769,"stimulus":"<p>Welche Sequenz haben Sie als natürlicher empfunden?</p>","key_press":74,"test_part":"response","test_stimulus":{"position":0,"left":"bvh/pass-bottle-hold-training3-lines.txt","right":"bvh/vr_prediction_models/model(tmp)-dataset(pass-bottle-hold)-numprim(13)-hold(3)/final-lines.txt","att_check":false},"trial_type":"html-keyboard-response","trial_index":162,"time_elapsed":346525,"internal_node_id":"0.0-8.0-3.38","subject":"dvo8xacfk24l5e2","sona":"7276"},{"rt":215,"stimulus":"<p>Bereit?</p>","key_press":32,"trial_type":"html-keyboard-response","trial_index":163,"time_elapsed":346741,"internal_node_id":"0.0-8.0-0.39","subject":"dvo8xacfk24l5e2","sona":"7276"},{"rt":null,"stimulus":"<div style=\"font-size:60px;\">+</div>","key_press":null,"trial_type":"html-keyboard-response","trial_index":164,"time_elapsed":348776,"internal_node_id":"0.0-8.0-1.39","subject":"dvo8xacfk24l5e2","sona":"7276"},{"trial_type":"turing-test","trial_index":165,"time_elapsed":352402,"internal_node_id":"0.0-8.0-2.39","subject":"dvo8xacfk24l5e2","sona":"7276"},{"rt":414,"stimulus":"<p>Welche Sequenz haben Sie als natürlicher empfunden?</p>","key_press":70,"test_part":"response","test_stimulus":{"position":0,"left":"bvh/pass-bottle-hold-training4-lines.txt","right":"bvh/vr_prediction_models/model(vcgpdm)-dataset(pass-bottle-hold)-mode(ELBO)-parts(3)-dyn(15)-lvm(30)-hold(4)/final-lines.txt","att_check":false},"trial_type":"html-keyboard-response","trial_index":166,"time_elapsed":352817,"internal_node_id":"0.0-8.0-3.39","subject":"dvo8xacfk24l5e2","sona":"7276"},{"rt":366,"stimulus":"<p>Bereit?</p>","key_press":32,"trial_type":"html-keyboard-response","trial_index":167,"time_elapsed":353186,"internal_node_id":"0.0-8.0-0.40","subject":"dvo8xacfk24l5e2","sona":"7276"},{"rt":null,"stimulus":"<div style=\"font-size:60px;\">+</div>","key_press":null,"trial_type":"html-keyboard-response","trial_index":168,"time_elapsed":355222,"internal_node_id":"0.0-8.0-1.40","subject":"dvo8xacfk24l5e2","sona":"7276"},{"trial_type":"turing-test","trial_index":169,"time_elapsed":358468,"internal_node_id":"0.0-8.0-2.40","subject":"dvo8xacfk24l5e2","sona":"7276"},{"rt":411,"stimulus":"<p>Welche Sequenz haben Sie als natürlicher empfunden?</p>","key_press":70,"test_part":"response","test_stimulus":{"position":0,"left":"bvh/return-bottle-hold-training1-lines.txt","right":"bvh/vr_prediction_models/model(dmp)-dataset(return-bottle-hold)-npsi(20)-hold(1)/final-lines.txt","att_check":false},"trial_type":"html-keyboard-response","trial_index":170,"time_elapsed":358882,"internal_node_id":"0.0-8.0-3.40","subject":"dvo8xacfk24l5e2","sona":"7276"},{"rt":216,"stimulus":"<p>Bereit?</p>","key_press":32,"trial_type":"html-keyboard-response","trial_index":171,"time_elapsed":359099,"internal_node_id":"0.0-8.0-0.41","subject":"dvo8xacfk24l5e2","sona":"7276"},{"rt":null,"stimulus":"<div style=\"font-size:60px;\">+</div>","key_press":null,"trial_type":"html-keyboard-response","trial_index":172,"time_elapsed":361130,"internal_node_id":"0.0-8.0-1.41","subject":"dvo8xacfk24l5e2","sona":"7276"},{"trial_type":"turing-test","trial_index":173,"time_elapsed":366535,"internal_node_id":"0.0-8.0-2.41","subject":"dvo8xacfk24l5e2","sona":"7276"},{"rt":307,"stimulus":"<p>Welche Sequenz haben Sie als natürlicher empfunden?</p>","key_press":70,"test_part":"response","test_stimulus":{"position":0,"left":"bvh/return-bottle-hold-training0-lines.txt","right":"bvh/vr_prediction_models/model(vcgpdm)-dataset(return-bottle-hold)-mode(MAP)-parts(3)-hold(0)/final-lines.txt","att_check":false},"trial_type":"html-keyboard-response","trial_index":174,"time_elapsed":366844,"internal_node_id":"0.0-8.0-3.41","subject":"dvo8xacfk24l5e2","sona":"7276"},{"rt":281,"stimulus":"<p>Bereit?</p>","key_press":32,"trial_type":"html-keyboard-response","trial_index":175,"time_elapsed":367125,"internal_node_id":"0.0-8.0-0.42","subject":"dvo8xacfk24l5e2","sona":"7276"},{"rt":null,"stimulus":"<div style=\"font-size:60px;\">+</div>","key_press":null,"trial_type":"html-keyboard-response","trial_index":176,"time_elapsed":369135,"internal_node_id":"0.0-8.0-1.42","subject":"dvo8xacfk24l5e2","sona":"7276"},{"trial_type":"turing-test","trial_index":177,"time_elapsed":375690,"internal_node_id":"0.0-8.0-2.42","subject":"dvo8xacfk24l5e2","sona":"7276"},{"rt":313,"stimulus":"<p>Welche Sequenz haben Sie als natürlicher empfunden?</p>","key_press":74,"test_part":"response","test_stimulus":{"position":1,"left":"bvh/vr_prediction_models/model(vcgpdm)-dataset(return-bottle)-mode(ELBO)-parts(1)-dyn(25)-lvm(35)-hold(2)/final-lines.txt","right":"bvh/return-bottle-training2-lines.txt","att_check":false},"trial_type":"html-keyboard-response","trial_index":178,"time_elapsed":376006,"internal_node_id":"0.0-8.0-3.42","subject":"dvo8xacfk24l5e2","sona":"7276"},{"rt":188,"stimulus":"<p>Bereit?</p>","key_press":32,"trial_type":"html-keyboard-response","trial_index":179,"time_elapsed":376194,"internal_node_id":"0.0-8.0-0.43","subject":"dvo8xacfk24l5e2","sona":"7276"},{"rt":null,"stimulus":"<div style=\"font-size:60px;\">+</div>","key_press":null,"trial_type":"html-keyboard-response","trial_index":180,"time_elapsed":378230,"internal_node_id":"0.0-8.0-1.43","subject":"dvo8xacfk24l5e2","sona":"7276"},{"trial_type":"turing-test","trial_index":181,"time_elapsed":384226,"internal_node_id":"0.0-8.0-2.43","subject":"dvo8xacfk24l5e2","sona":"7276"},{"rt":266,"stimulus":"<p>Welche Sequenz haben Sie als natürlicher empfunden?</p>","key_press":74,"test_part":"response","test_stimulus":{"position":1,"left":"bvh/vr_prediction_models/model(vcgpdm)-dataset(return-bottle)-mode(ELBO)-parts(3)-dyn(10)-lvm(25)-hold(1)/final-lines.txt","right":"bvh/return-bottle-training1-lines.txt","att_check":false},"trial_type":"html-keyboard-response","trial_index":182,"time_elapsed":384495,"internal_node_id":"0.0-8.0-3.43","subject":"dvo8xacfk24l5e2","sona":"7276"},{"rt":231,"stimulus":"<p>Bereit?</p>","key_press":32,"trial_type":"html-keyboard-response","trial_index":183,"time_elapsed":384727,"internal_node_id":"0.0-8.0-0.44","subject":"dvo8xacfk24l5e2","sona":"7276"},{"rt":null,"stimulus":"<div style=\"font-size:60px;\">+</div>","key_press":null,"trial_type":"html-keyboard-response","trial_index":184,"time_elapsed":386757,"internal_node_id":"0.0-8.0-1.44","subject":"dvo8xacfk24l5e2","sona":"7276"},{"trial_type":"turing-test","trial_index":185,"time_elapsed":390410,"internal_node_id":"0.0-8.0-2.44","subject":"dvo8xacfk24l5e2","sona":"7276"},{"rt":1192,"stimulus":"<p>Welche Sequenz haben Sie als natürlicher empfunden?</p>","key_press":70,"test_part":"response","test_stimulus":{"position":0,"left":"bvh/return-bottle-hold-training4-lines.txt","right":"bvh/vr_prediction_models/model(vcgpdm)-dataset(return-bottle-hold)-mode(ELBO)-parts(1)-dyn(30)-lvm(35)-hold(4)/final-lines.txt","att_check":false},"trial_type":"html-keyboard-response","trial_index":186,"time_elapsed":391605,"internal_node_id":"0.0-8.0-3.44","subject":"dvo8xacfk24l5e2","sona":"7276"},{"rt":530,"stimulus":"<p>Bereit?</p>","key_press":32,"trial_type":"html-keyboard-response","trial_index":187,"time_elapsed":392137,"internal_node_id":"0.0-8.0-0.45","subject":"dvo8xacfk24l5e2","sona":"7276"},{"rt":null,"stimulus":"<div style=\"font-size:60px;\">+</div>","key_press":null,"trial_type":"html-keyboard-response","trial_index":188,"time_elapsed":394170,"internal_node_id":"0.0-8.0-1.45","subject":"dvo8xacfk24l5e2","sona":"7276"},{"trial_type":"turing-test","trial_index":189,"time_elapsed":397837,"internal_node_id":"0.0-8.0-2.45","subject":"dvo8xacfk24l5e2","sona":"7276"},{"rt":475,"stimulus":"<p>Welche Sequenz haben Sie als natürlicher empfunden?</p>","key_press":70,"test_part":"response","test_stimulus":{"position":1,"left":"bvh/vr_prediction_models/model(vcgpdm)-dataset(return-bottle-hold)-mode(ELBO)-parts(1)-dyn(20)-lvm(30)-hold(4)/final-lines.txt","right":"bvh/return-bottle-hold-training4-lines.txt","att_check":false},"trial_type":"html-keyboard-response","trial_index":190,"time_elapsed":398315,"internal_node_id":"0.0-8.0-3.45","subject":"dvo8xacfk24l5e2","sona":"7276"},{"rt":163,"stimulus":"<p>Bereit?</p>","key_press":32,"trial_type":"html-keyboard-response","trial_index":191,"time_elapsed":398479,"internal_node_id":"0.0-8.0-0.46","subject":"dvo8xacfk24l5e2","sona":"7276"},{"rt":null,"stimulus":"<div style=\"font-size:60px;\">+</div>","key_press":null,"trial_type":"html-keyboard-response","trial_index":192,"time_elapsed":400508,"internal_node_id":"0.0-8.0-1.46","subject":"dvo8xacfk24l5e2","sona":"7276"},{"trial_type":"turing-test","trial_index":193,"time_elapsed":403799,"internal_node_id":"0.0-8.0-2.46","subject":"dvo8xacfk24l5e2","sona":"7276"},{"rt":466,"stimulus":"<p>Welche Sequenz haben Sie als natürlicher empfunden?</p>","key_press":74,"test_part":"response","test_stimulus":{"position":1,"left":"bvh/vr_prediction_models/model(vcgpdm)-dataset(pass-bottle-hold)-mode(ELBO)-parts(1)-dyn(10)-lvm(5)-hold(0)/final-lines.txt","right":"bvh/pass-bottle-hold-training0-lines.txt","att_check":false},"trial_type":"html-keyboard-response","trial_index":194,"time_elapsed":404267,"internal_node_id":"0.0-8.0-3.46","subject":"dvo8xacfk24l5e2","sona":"7276"},{"rt":273,"stimulus":"<p>Bereit?</p>","key_press":32,"trial_type":"html-keyboard-response","trial_index":195,"time_elapsed":404542,"internal_node_id":"0.0-8.0-0.47","subject":"dvo8xacfk24l5e2","sona":"7276"},{"rt":null,"stimulus":"<div style=\"font-size:60px;\">+</div>","key_press":null,"trial_type":"html-keyboard-response","trial_index":196,"time_elapsed":406578,"internal_node_id":"0.0-8.0-1.47","subject":"dvo8xacfk24l5e2","sona":"7276"},{"trial_type":"turing-test","trial_index":197,"time_elapsed":412601,"internal_node_id":"0.0-8.0-2.47","subject":"dvo8xacfk24l5e2","sona":"7276"},{"rt":360,"stimulus":"<p>Welche Sequenz haben Sie als natürlicher empfunden?</p>","key_press":70,"test_part":"response","test_stimulus":{"position":0,"left":"bvh/pass-bottle-training2-lines.txt","right":"bvh/vr_prediction_models/model(vcgpdm)-dataset(pass-bottle)-mode(ELBO)-parts(1)-dyn(20)-lvm(30)-hold(2)/final-lines.txt","att_check":false},"trial_type":"html-keyboard-response","trial_index":198,"time_elapsed":412964,"internal_node_id":"0.0-8.0-3.47","subject":"dvo8xacfk24l5e2","sona":"7276"},{"rt":202,"stimulus":"<p>Bereit?</p>","key_press":32,"trial_type":"html-keyboard-response","trial_index":199,"time_elapsed":413168,"internal_node_id":"0.0-8.0-0.48","subject":"dvo8xacfk24l5e2","sona":"7276"},{"rt":null,"stimulus":"<div style=\"font-size:60px;\">+</div>","key_press":null,"trial_type":"html-keyboard-response","trial_index":200,"time_elapsed":415202,"internal_node_id":"0.0-8.0-1.48","subject":"dvo8xacfk24l5e2","sona":"7276"},{"trial_type":"turing-test","trial_index":201,"time_elapsed":418856,"internal_node_id":"0.0-8.0-2.48","subject":"dvo8xacfk24l5e2","sona":"7276"},{"rt":320,"stimulus":"<p>Welche Sequenz haben Sie als natürlicher empfunden?</p>","key_press":70,"test_part":"response","test_stimulus":{"position":0,"left":"bvh/return-bottle-hold-training4-lines.txt","right":"bvh/vr_prediction_models/model(vcgpdm)-dataset(return-bottle-hold)-mode(ELBO)-parts(3)-dyn(35)-lvm(20)-hold(4)/final-lines.txt","att_check":false},"trial_type":"html-keyboard-response","trial_index":202,"time_elapsed":419179,"internal_node_id":"0.0-8.0-3.48","subject":"dvo8xacfk24l5e2","sona":"7276"},{"rt":237,"stimulus":"<p>Bereit?</p>","key_press":32,"trial_type":"html-keyboard-response","trial_index":203,"time_elapsed":419417,"internal_node_id":"0.0-8.0-0.49","subject":"dvo8xacfk24l5e2","sona":"7276"},{"rt":null,"stimulus":"<div style=\"font-size:60px;\">+</div>","key_press":null,"trial_type":"html-keyboard-response","trial_index":204,"time_elapsed":421456,"internal_node_id":"0.0-8.0-1.49","subject":"dvo8xacfk24l5e2","sona":"7276"},{"trial_type":"turing-test","trial_index":205,"time_elapsed":427405,"internal_node_id":"0.0-8.0-2.49","subject":"dvo8xacfk24l5e2","sona":"7276"},{"rt":344,"stimulus":"<p>Welche Sequenz haben Sie als natürlicher empfunden?</p>","key_press":74,"test_part":"response","test_stimulus":{"position":1,"left":"bvh/vr_prediction_models/model(dmp)-dataset(return-bottle)-npsi(20)-hold(1)/final-lines.txt","right":"bvh/return-bottle-training1-lines.txt","att_check":false},"trial_type":"html-keyboard-response","trial_index":206,"time_elapsed":427751,"internal_node_id":"0.0-8.0-3.49","subject":"dvo8xacfk24l5e2","sona":"7276"},{"rt":270,"stimulus":"<p>Bereit?</p>","key_press":32,"trial_type":"html-keyboard-response","trial_index":207,"time_elapsed":428022,"internal_node_id":"0.0-8.0-0.50","subject":"dvo8xacfk24l5e2","sona":"7276"},{"rt":null,"stimulus":"<div style=\"font-size:60px;\">+</div>","key_press":null,"trial_type":"html-keyboard-response","trial_index":208,"time_elapsed":430047,"internal_node_id":"0.0-8.0-1.50","subject":"dvo8xacfk24l5e2","sona":"7276"},{"trial_type":"turing-test","trial_index":209,"time_elapsed":433660,"internal_node_id":"0.0-8.0-2.50","subject":"dvo8xacfk24l5e2","sona":"7276"},{"rt":575,"stimulus":"<p>Welche Sequenz haben Sie als natürlicher empfunden?</p>","key_press":74,"test_part":"response","test_stimulus":{"position":0,"left":"bvh/return-bottle-hold-training4-lines.txt","right":"bvh/vr_prediction_models/model(tmp)-dataset(return-bottle-hold)-numprim(13)-hold(4)/final-lines.txt","att_check":false},"trial_type":"html-keyboard-response","trial_index":210,"time_elapsed":434237,"internal_node_id":"0.0-8.0-3.50","subject":"dvo8xacfk24l5e2","sona":"7276"},{"rt":405,"stimulus":"<p>Bereit?</p>","key_press":32,"trial_type":"html-keyboard-response","trial_index":211,"time_elapsed":434644,"internal_node_id":"0.0-8.0-0.51","subject":"dvo8xacfk24l5e2","sona":"7276"},{"rt":null,"stimulus":"<div style=\"font-size:60px;\">+</div>","key_press":null,"trial_type":"html-keyboard-response","trial_index":212,"time_elapsed":436681,"internal_node_id":"0.0-8.0-1.51","subject":"dvo8xacfk24l5e2","sona":"7276"},{"trial_type":"turing-test","trial_index":213,"time_elapsed":439913,"internal_node_id":"0.0-8.0-2.51","subject":"dvo8xacfk24l5e2","sona":"7276"},{"rt":520,"stimulus":"<p>Welche Sequenz haben Sie als natürlicher empfunden?</p>","key_press":74,"test_part":"response","test_stimulus":{"position":1,"left":"bvh/vr_prediction_models/model(dmp)-dataset(return-bottle-hold)-npsi(60)-hold(1)/final-lines.txt","right":"bvh/return-bottle-hold-training1-lines.txt","att_check":false},"trial_type":"html-keyboard-response","trial_index":214,"time_elapsed":440435,"internal_node_id":"0.0-8.0-3.51","subject":"dvo8xacfk24l5e2","sona":"7276"},{"rt":208,"stimulus":"<p>Bereit?</p>","key_press":32,"trial_type":"html-keyboard-response","trial_index":215,"time_elapsed":440644,"internal_node_id":"0.0-8.0-0.52","subject":"dvo8xacfk24l5e2","sona":"7276"},{"rt":null,"stimulus":"<div style=\"font-size:60px;\">+</div>","key_press":null,"trial_type":"html-keyboard-response","trial_index":216,"time_elapsed":442653,"internal_node_id":"0.0-8.0-1.52","subject":"dvo8xacfk24l5e2","sona":"7276"},{"trial_type":"turing-test","trial_index":217,"time_elapsed":448041,"internal_node_id":"0.0-8.0-2.52","subject":"dvo8xacfk24l5e2","sona":"7276"},{"rt":304,"stimulus":"<p>Welche Sequenz haben Sie als natürlicher empfunden?</p>","key_press":70,"test_part":"response","test_stimulus":{"position":0,"left":"bvh/return-bottle-training0-lines.txt","right":"bvh/vr_prediction_models/model(vcgpdm)-dataset(return-bottle)-mode(ELBO)-parts(3)-dyn(25)-lvm(15)-hold(0)/final-lines.txt","att_check":false},"trial_type":"html-keyboard-response","trial_index":218,"time_elapsed":448348,"internal_node_id":"0.0-8.0-3.52","subject":"dvo8xacfk24l5e2","sona":"7276"},{"rt":217,"stimulus":"<p>Bereit?</p>","key_press":32,"trial_type":"html-keyboard-response","trial_index":219,"time_elapsed":448568,"internal_node_id":"0.0-8.0-0.53","subject":"dvo8xacfk24l5e2","sona":"7276"},{"rt":null,"stimulus":"<div style=\"font-size:60px;\">+</div>","key_press":null,"trial_type":"html-keyboard-response","trial_index":220,"time_elapsed":450591,"internal_node_id":"0.0-8.0-1.53","subject":"dvo8xacfk24l5e2","sona":"7276"},{"trial_type":"turing-test","trial_index":221,"time_elapsed":455910,"internal_node_id":"0.0-8.0-2.53","subject":"dvo8xacfk24l5e2","sona":"7276"},{"rt":434,"stimulus":"<p>Welche Sequenz haben Sie als natürlicher empfunden?</p>","key_press":74,"test_part":"response","test_stimulus":{"position":1,"left":"bvh/vr_prediction_models/model(vcgpdm)-dataset(pass-bottle)-mode(ELBO)-parts(1)-dyn(30)-lvm(30)-hold(1)/final-lines.txt","right":"bvh/pass-bottle-training1-lines.txt","att_check":false},"trial_type":"html-keyboard-response","trial_index":222,"time_elapsed":456348,"internal_node_id":"0.0-8.0-3.53","subject":"dvo8xacfk24l5e2","sona":"7276"},{"rt":295,"stimulus":"<p>Bereit?</p>","key_press":32,"trial_type":"html-keyboard-response","trial_index":223,"time_elapsed":456645,"internal_node_id":"0.0-8.0-0.54","subject":"dvo8xacfk24l5e2","sona":"7276"},{"rt":null,"stimulus":"<div style=\"font-size:60px;\">+</div>","key_press":null,"trial_type":"html-keyboard-response","trial_index":224,"time_elapsed":458671,"internal_node_id":"0.0-8.0-1.54","subject":"dvo8xacfk24l5e2","sona":"7276"},{"trial_type":"turing-test","trial_index":225,"time_elapsed":462164,"internal_node_id":"0.0-8.0-2.54","subject":"dvo8xacfk24l5e2","sona":"7276"},{"rt":321,"stimulus":"<p>Welche Sequenz haben Sie als natürlicher empfunden?</p>","key_press":74,"test_part":"response","test_stimulus":{"position":1,"left":"bvh/vr_prediction_models/model(vcgpdm)-dataset(pass-bottle-hold)-mode(ELBO)-parts(3)-dyn(10)-lvm(30)-hold(3)/final-lines.txt","right":"bvh/pass-bottle-hold-training3-lines.txt","att_check":false},"trial_type":"html-keyboard-response","trial_index":226,"time_elapsed":462487,"internal_node_id":"0.0-8.0-3.54","subject":"dvo8xacfk24l5e2","sona":"7276"},{"rt":249,"stimulus":"<p>Bereit?</p>","key_press":32,"trial_type":"html-keyboard-response","trial_index":227,"time_elapsed":462737,"internal_node_id":"0.0-8.0-0.55","subject":"dvo8xacfk24l5e2","sona":"7276"},{"rt":null,"stimulus":"<div style=\"font-size:60px;\">+</div>","key_press":null,"trial_type":"html-keyboard-response","trial_index":228,"time_elapsed":464745,"internal_node_id":"0.0-8.0-1.55","subject":"dvo8xacfk24l5e2","sona":"7276"},{"trial_type":"turing-test","trial_index":229,"time_elapsed":470734,"internal_node_id":"0.0-8.0-2.55","subject":"dvo8xacfk24l5e2","sona":"7276"},{"rt":315,"stimulus":"<p>Welche Sequenz haben Sie als natürlicher empfunden?</p>","key_press":74,"test_part":"response","test_stimulus":{"position":0,"left":"bvh/pass-bottle-training2-lines.txt","right":"bvh/vr_prediction_models/model(tmp)-dataset(pass-bottle)-numprim(9)-hold(2)/final-lines.txt","att_check":false},"trial_type":"html-keyboard-response","trial_index":230,"time_elapsed":471051,"internal_node_id":"0.0-8.0-3.55","subject":"dvo8xacfk24l5e2","sona":"7276"},{"rt":309,"stimulus":"<p>Bereit?</p>","key_press":32,"trial_type":"html-keyboard-response","trial_index":231,"time_elapsed":471361,"internal_node_id":"0.0-8.0-0.56","subject":"dvo8xacfk24l5e2","sona":"7276"},{"rt":null,"stimulus":"<div style=\"font-size:60px;\">+</div>","key_press":null,"trial_type":"html-keyboard-response","trial_index":232,"time_elapsed":473394,"internal_node_id":"0.0-8.0-1.56","subject":"dvo8xacfk24l5e2","sona":"7276"},{"trial_type":"turing-test","trial_index":233,"time_elapsed":476544,"internal_node_id":"0.0-8.0-2.56","subject":"dvo8xacfk24l5e2","sona":"7276"},{"rt":267,"stimulus":"<p>Welche Sequenz haben Sie als natürlicher empfunden?</p>","key_press":70,"test_part":"response","test_stimulus":{"position":0,"left":"bvh/pass-bottle-hold-training1-lines.txt","right":"bvh/vr_prediction_models/model(vcgpdm)-dataset(pass-bottle-hold)-mode(ELBO)-parts(3)-dyn(10)-lvm(30)-hold(1)/final-lines.txt","att_check":false},"trial_type":"html-keyboard-response","trial_index":234,"time_elapsed":476814,"internal_node_id":"0.0-8.0-3.56","subject":"dvo8xacfk24l5e2","sona":"7276"},{"rt":293,"stimulus":"<p>Bereit?</p>","key_press":32,"trial_type":"html-keyboard-response","trial_index":235,"time_elapsed":477108,"internal_node_id":"0.0-8.0-0.57","subject":"dvo8xacfk24l5e2","sona":"7276"},{"rt":null,"stimulus":"<div style=\"font-size:60px;\">+</div>","key_press":null,"trial_type":"html-keyboard-response","trial_index":236,"time_elapsed":479144,"internal_node_id":"0.0-8.0-1.57","subject":"dvo8xacfk24l5e2","sona":"7276"},{"trial_type":"turing-test","trial_index":237,"time_elapsed":484756,"internal_node_id":"0.0-8.0-2.57","subject":"dvo8xacfk24l5e2","sona":"7276"},{"rt":423,"stimulus":"<p>Welche Sequenz haben Sie als natürlicher empfunden?</p>","key_press":74,"test_part":"response","test_stimulus":{"position":1,"left":"bvh/vr_prediction_models/model(dmp)-dataset(pass-bottle)-npsi(30)-hold(4)/final-lines.txt","right":"bvh/pass-bottle-training4-lines.txt","att_check":false},"trial_type":"html-keyboard-response","trial_index":238,"time_elapsed":485181,"internal_node_id":"0.0-8.0-3.57","subject":"dvo8xacfk24l5e2","sona":"7276"},{"rt":301,"stimulus":"<p>Bereit?</p>","key_press":32,"trial_type":"html-keyboard-response","trial_index":239,"time_elapsed":485484,"internal_node_id":"0.0-8.0-0.58","subject":"dvo8xacfk24l5e2","sona":"7276"},{"rt":null,"stimulus":"<div style=\"font-size:60px;\">+</div>","key_press":null,"trial_type":"html-keyboard-response","trial_index":240,"time_elapsed":487495,"internal_node_id":"0.0-8.0-1.58","subject":"dvo8xacfk24l5e2","sona":"7276"},{"trial_type":"turing-test","trial_index":241,"time_elapsed":493141,"internal_node_id":"0.0-8.0-2.58","subject":"dvo8xacfk24l5e2","sona":"7276"},{"rt":484,"stimulus":"<p>Welche Sequenz haben Sie als natürlicher empfunden?</p>","key_press":74,"test_part":"response","test_stimulus":{"position":1,"left":"bvh/vr_prediction_models/model(tmp)-dataset(pass-bottle)-numprim(6)-hold(4)/final-lines.txt","right":"bvh/pass-bottle-training4-lines.txt","att_check":false},"trial_type":"html-keyboard-response","trial_index":242,"time_elapsed":493627,"internal_node_id":"0.0-8.0-3.58","subject":"dvo8xacfk24l5e2","sona":"7276"},{"rt":277,"stimulus":"<p>Bereit?</p>","key_press":32,"trial_type":"html-keyboard-response","trial_index":243,"time_elapsed":493907,"internal_node_id":"0.0-8.0-0.59","subject":"dvo8xacfk24l5e2","sona":"7276"},{"rt":null,"stimulus":"<div style=\"font-size:60px;\">+</div>","key_press":null,"trial_type":"html-keyboard-response","trial_index":244,"time_elapsed":495941,"internal_node_id":"0.0-8.0-1.59","subject":"dvo8xacfk24l5e2","sona":"7276"},{"trial_type":"turing-test","trial_index":245,"time_elapsed":500977,"internal_node_id":"0.0-8.0-2.59","subject":"dvo8xacfk24l5e2","sona":"7276"},{"rt":251,"stimulus":"<p>Welche Sequenz haben Sie als natürlicher empfunden?</p>","key_press":74,"test_part":"response","test_stimulus":{"position":1,"left":"bvh/vr_prediction_models/model(vcgpdm)-dataset(return-bottle-hold)-mode(MAP)-parts(1)-hold(0)/final-lines.txt","right":"bvh/return-bottle-hold-training0-lines.txt","att_check":false},"trial_type":"html-keyboard-response","trial_index":246,"time_elapsed":501231,"internal_node_id":"0.0-8.0-3.59","subject":"dvo8xacfk24l5e2","sona":"7276"},{"rt":292,"stimulus":"<p>Bereit?</p>","key_press":32,"trial_type":"html-keyboard-response","trial_index":247,"time_elapsed":501524,"internal_node_id":"0.0-8.0-0.60","subject":"dvo8xacfk24l5e2","sona":"7276"},{"rt":null,"stimulus":"<div style=\"font-size:60px;\">+</div>","key_press":null,"trial_type":"html-keyboard-response","trial_index":248,"time_elapsed":503552,"internal_node_id":"0.0-8.0-1.60","subject":"dvo8xacfk24l5e2","sona":"7276"},{"trial_type":"turing-test","trial_index":249,"time_elapsed":507063,"internal_node_id":"0.0-8.0-2.60","subject":"dvo8xacfk24l5e2","sona":"7276"},{"rt":520,"stimulus":"<p>Welche Sequenz haben Sie als natürlicher empfunden?</p>","key_press":74,"test_part":"response","test_stimulus":{"position":0,"left":"bvh/return-bottle-hold-training3-lines.txt","right":"bvh/vr_prediction_models/model(tmp)-dataset(return-bottle-hold)-numprim(8)-hold(3)/final-lines.txt","att_check":false},"trial_type":"html-keyboard-response","trial_index":250,"time_elapsed":507584,"internal_node_id":"0.0-8.0-3.60","subject":"dvo8xacfk24l5e2","sona":"7276"},{"rt":279,"stimulus":"<p>Bereit?</p>","key_press":32,"trial_type":"html-keyboard-response","trial_index":251,"time_elapsed":507866,"internal_node_id":"0.0-8.0-0.61","subject":"dvo8xacfk24l5e2","sona":"7276"},{"rt":null,"stimulus":"<div style=\"font-size:60px;\">+</div>","key_press":null,"trial_type":"html-keyboard-response","trial_index":252,"time_elapsed":509883,"internal_node_id":"0.0-8.0-1.61","subject":"dvo8xacfk24l5e2","sona":"7276"},{"trial_type":"turing-test","trial_index":253,"time_elapsed":515476,"internal_node_id":"0.0-8.0-2.61","subject":"dvo8xacfk24l5e2","sona":"7276"},{"rt":349,"stimulus":"<p>Welche Sequenz haben Sie als natürlicher empfunden?</p>","key_press":70,"test_part":"response","test_stimulus":{"position":0,"left":"bvh/pass-bottle-training4-lines.txt","right":"bvh/vr_prediction_models/model(dmp)-dataset(pass-bottle)-npsi(30)-hold(4)/final-lines.txt","att_check":false},"trial_type":"html-keyboard-response","trial_index":254,"time_elapsed":515828,"internal_node_id":"0.0-8.0-3.61","subject":"dvo8xacfk24l5e2","sona":"7276"},{"rt":291,"stimulus":"<p>Bereit?</p>","key_press":32,"trial_type":"html-keyboard-response","trial_index":255,"time_elapsed":516120,"internal_node_id":"0.0-8.0-0.62","subject":"dvo8xacfk24l5e2","sona":"7276"},{"rt":null,"stimulus":"<div style=\"font-size:60px;\">+</div>","key_press":null,"trial_type":"html-keyboard-response","trial_index":256,"time_elapsed":518137,"internal_node_id":"0.0-8.0-1.62","subject":"dvo8xacfk24l5e2","sona":"7276"},{"trial_type":"turing-test","trial_index":257,"time_elapsed":523457,"internal_node_id":"0.0-8.0-2.62","subject":"dvo8xacfk24l5e2","sona":"7276"},{"rt":336,"stimulus":"<p>Welche Sequenz haben Sie als natürlicher empfunden?</p>","key_press":74,"test_part":"response","test_stimulus":{"position":1,"left":"bvh/vr_prediction_models/model(tmp)-dataset(pass-bottle)-numprim(12)-hold(1)/final-lines.txt","right":"bvh/pass-bottle-training1-lines.txt","att_check":false},"trial_type":"html-keyboard-response","trial_index":258,"time_elapsed":523794,"internal_node_id":"0.0-8.0-3.62","subject":"dvo8xacfk24l5e2","sona":"7276"},{"rt":323,"stimulus":"<p>Bereit?</p>","key_press":32,"trial_type":"html-keyboard-response","trial_index":259,"time_elapsed":524119,"internal_node_id":"0.0-8.0-0.63","subject":"dvo8xacfk24l5e2","sona":"7276"},{"rt":null,"stimulus":"<div style=\"font-size:60px;\">+</div>","key_press":null,"trial_type":"html-keyboard-response","trial_index":260,"time_elapsed":526157,"internal_node_id":"0.0-8.0-1.63","subject":"dvo8xacfk24l5e2","sona":"7276"},{"trial_type":"turing-test","trial_index":261,"time_elapsed":529744,"internal_node_id":"0.0-8.0-2.63","subject":"dvo8xacfk24l5e2","sona":"7276"},{"rt":403,"stimulus":"<p>Welche Sequenz haben Sie als natürlicher empfunden?</p>","key_press":74,"test_part":"response","test_stimulus":{"position":0,"left":"bvh/return-bottle-hold-training4-lines.txt","right":"bvh/vr_prediction_models/model(tmp)-dataset(return-bottle-hold)-numprim(12)-hold(4)/final-lines.txt","att_check":false},"trial_type":"html-keyboard-response","trial_index":262,"time_elapsed":530150,"internal_node_id":"0.0-8.0-3.63","subject":"dvo8xacfk24l5e2","sona":"7276"},{"rt":263,"stimulus":"<p>Bereit?</p>","key_press":32,"trial_type":"html-keyboard-response","trial_index":263,"time_elapsed":530415,"internal_node_id":"0.0-8.0-0.64","subject":"dvo8xacfk24l5e2","sona":"7276"},{"rt":null,"stimulus":"<div style=\"font-size:60px;\">+</div>","key_press":null,"trial_type":"html-keyboard-response","trial_index":264,"time_elapsed":532444,"internal_node_id":"0.0-8.0-1.64","subject":"dvo8xacfk24l5e2","sona":"7276"},{"trial_type":"turing-test","trial_index":265,"time_elapsed":535684,"internal_node_id":"0.0-8.0-2.64","subject":"dvo8xacfk24l5e2","sona":"7276"},{"rt":411,"stimulus":"<p>Welche Sequenz haben Sie als natürlicher empfunden?</p>","key_press":70,"test_part":"response","test_stimulus":{"position":0,"left":"bvh/pass-bottle-hold-training1-lines.txt","right":"bvh/vr_prediction_models/model(vcgpdm)-dataset(pass-bottle-hold)-mode(ELBO)-parts(1)-dyn(20)-lvm(20)-hold(1)/final-lines.txt","att_check":false},"trial_type":"html-keyboard-response","trial_index":266,"time_elapsed":536097,"internal_node_id":"0.0-8.0-3.64","subject":"dvo8xacfk24l5e2","sona":"7276"},{"rt":258,"stimulus":"<p>Bereit?</p>","key_press":32,"trial_type":"html-keyboard-response","trial_index":267,"time_elapsed":536357,"internal_node_id":"0.0-8.0-0.65","subject":"dvo8xacfk24l5e2","sona":"7276"},{"rt":null,"stimulus":"<div style=\"font-size:60px;\">+</div>","key_press":null,"trial_type":"html-keyboard-response","trial_index":268,"time_elapsed":538384,"internal_node_id":"0.0-8.0-1.65","subject":"dvo8xacfk24l5e2","sona":"7276"},{"trial_type":"turing-test","trial_index":269,"time_elapsed":544195,"internal_node_id":"0.0-8.0-2.65","subject":"dvo8xacfk24l5e2","sona":"7276"},{"rt":265,"stimulus":"<p>Welche Sequenz haben Sie als natürlicher empfunden?</p>","key_press":74,"test_part":"response","test_stimulus":{"position":1,"left":"bvh/vr_prediction_models/model(vcgpdm)-dataset(return-bottle)-mode(ELBO)-parts(1)-dyn(35)-lvm(30)-hold(4)/final-lines.txt","right":"bvh/return-bottle-training4-lines.txt","att_check":false},"trial_type":"html-keyboard-response","trial_index":270,"time_elapsed":544462,"internal_node_id":"0.0-8.0-3.65","subject":"dvo8xacfk24l5e2","sona":"7276"},{"rt":279,"stimulus":"<p>Bereit?</p>","key_press":32,"trial_type":"html-keyboard-response","trial_index":271,"time_elapsed":544744,"internal_node_id":"0.0-8.0-0.66","subject":"dvo8xacfk24l5e2","sona":"7276"},{"rt":null,"stimulus":"<div style=\"font-size:60px;\">+</div>","key_press":null,"trial_type":"html-keyboard-response","trial_index":272,"time_elapsed":546775,"internal_node_id":"0.0-8.0-1.66","subject":"dvo8xacfk24l5e2","sona":"7276"},{"trial_type":"turing-test","trial_index":273,"time_elapsed":552119,"internal_node_id":"0.0-8.0-2.66","subject":"dvo8xacfk24l5e2","sona":"7276"},{"rt":288,"stimulus":"<p>Welche Sequenz haben Sie als natürlicher empfunden?</p>","key_press":74,"test_part":"response","test_stimulus":{"position":0,"left":"bvh/pass-bottle-training1-lines.txt","right":"bvh/vr_prediction_models/model(tmp)-dataset(pass-bottle)-numprim(15)-hold(1)/final-lines.txt","att_check":false},"trial_type":"html-keyboard-response","trial_index":274,"time_elapsed":552411,"internal_node_id":"0.0-8.0-3.66","subject":"dvo8xacfk24l5e2","sona":"7276"},{"rt":235,"stimulus":"<p>Bereit?</p>","key_press":32,"trial_type":"html-keyboard-response","trial_index":275,"time_elapsed":552647,"internal_node_id":"0.0-8.0-0.67","subject":"dvo8xacfk24l5e2","sona":"7276"},{"rt":null,"stimulus":"<div style=\"font-size:60px;\">+</div>","key_press":null,"trial_type":"html-keyboard-response","trial_index":276,"time_elapsed":554680,"internal_node_id":"0.0-8.0-1.67","subject":"dvo8xacfk24l5e2","sona":"7276"},{"trial_type":"turing-test","trial_index":277,"time_elapsed":557977,"internal_node_id":"0.0-8.0-2.67","subject":"dvo8xacfk24l5e2","sona":"7276"},{"rt":288,"stimulus":"<p>Welche Sequenz haben Sie als natürlicher empfunden?</p>","key_press":74,"test_part":"response","test_stimulus":{"position":0,"left":"bvh/return-bottle-hold-training1-lines.txt","right":"bvh/vr_prediction_models/model(tmp)-dataset(return-bottle-hold)-numprim(10)-hold(1)/final-lines.txt","att_check":false},"trial_type":"html-keyboard-response","trial_index":278,"time_elapsed":558268,"internal_node_id":"0.0-8.0-3.67","subject":"dvo8xacfk24l5e2","sona":"7276"},{"rt":279,"stimulus":"<p>Bereit?</p>","key_press":32,"trial_type":"html-keyboard-response","trial_index":279,"time_elapsed":558548,"internal_node_id":"0.0-8.0-0.68","subject":"dvo8xacfk24l5e2","sona":"7276"},{"rt":null,"stimulus":"<div style=\"font-size:60px;\">+</div>","key_press":null,"trial_type":"html-keyboard-response","trial_index":280,"time_elapsed":560558,"internal_node_id":"0.0-8.0-1.68","subject":"dvo8xacfk24l5e2","sona":"7276"},{"trial_type":"turing-test","trial_index":281,"time_elapsed":563688,"internal_node_id":"0.0-8.0-2.68","subject":"dvo8xacfk24l5e2","sona":"7276"},{"rt":336,"stimulus":"<p>Welche Sequenz haben Sie als natürlicher empfunden?</p>","key_press":70,"test_part":"response","test_stimulus":{"position":1,"left":"bvh/vr_prediction_models/model(dmp)-dataset(pass-bottle-hold)-npsi(20)-hold(1)/final-lines.txt","right":"bvh/pass-bottle-hold-training1-lines.txt","att_check":false},"trial_type":"html-keyboard-response","trial_index":282,"time_elapsed":564027,"internal_node_id":"0.0-8.0-3.68","subject":"dvo8xacfk24l5e2","sona":"7276"},{"rt":153,"stimulus":"<p>Bereit?</p>","key_press":32,"trial_type":"html-keyboard-response","trial_index":283,"time_elapsed":564181,"internal_node_id":"0.0-8.0-0.69","subject":"dvo8xacfk24l5e2","sona":"7276"},{"rt":null,"stimulus":"<div style=\"font-size:60px;\">+</div>","key_press":null,"trial_type":"html-keyboard-response","trial_index":284,"time_elapsed":566208,"internal_node_id":"0.0-8.0-1.69","subject":"dvo8xacfk24l5e2","sona":"7276"},{"trial_type":"turing-test","trial_index":285,"time_elapsed":569642,"internal_node_id":"0.0-8.0-2.69","subject":"dvo8xacfk24l5e2","sona":"7276"},{"rt":248,"stimulus":"<p>Welche Sequenz haben Sie als natürlicher empfunden?</p>","key_press":74,"test_part":"response","test_stimulus":{"position":0,"left":"bvh/pass-bottle-hold-training3-lines.txt","right":"bvh/vr_prediction_models/model(tmp)-dataset(pass-bottle-hold)-numprim(4)-hold(3)/final-lines.txt","att_check":false},"trial_type":"html-keyboard-response","trial_index":286,"time_elapsed":569891,"internal_node_id":"0.0-8.0-3.69","subject":"dvo8xacfk24l5e2","sona":"7276"},{"rt":253,"stimulus":"<p>Bereit?</p>","key_press":32,"trial_type":"html-keyboard-response","trial_index":287,"time_elapsed":570146,"internal_node_id":"0.0-8.0-0.70","subject":"dvo8xacfk24l5e2","sona":"7276"},{"rt":null,"stimulus":"<div style=\"font-size:60px;\">+</div>","key_press":null,"trial_type":"html-keyboard-response","trial_index":288,"time_elapsed":572182,"internal_node_id":"0.0-8.0-1.70","subject":"dvo8xacfk24l5e2","sona":"7276"},{"trial_type":"turing-test","trial_index":289,"time_elapsed":575415,"internal_node_id":"0.0-8.0-2.70","subject":"dvo8xacfk24l5e2","sona":"7276"},{"rt":397,"stimulus":"<p>Welche Sequenz haben Sie als natürlicher empfunden?</p>","key_press":70,"test_part":"response","test_stimulus":{"position":0,"left":"bvh/pass-bottle-hold-training0-lines.txt","right":"bvh/vr_prediction_models/model(dmp)-dataset(pass-bottle-hold)-npsi(90)-hold(0)/final-lines.txt","att_check":false},"trial_type":"html-keyboard-response","trial_index":290,"time_elapsed":575813,"internal_node_id":"0.0-8.0-3.70","subject":"dvo8xacfk24l5e2","sona":"7276"},{"rt":242,"stimulus":"<p>Bereit?</p>","key_press":32,"trial_type":"html-keyboard-response","trial_index":291,"time_elapsed":576056,"internal_node_id":"0.0-8.0-0.71","subject":"dvo8xacfk24l5e2","sona":"7276"},{"rt":null,"stimulus":"<div style=\"font-size:60px;\">+</div>","key_press":null,"trial_type":"html-keyboard-response","trial_index":292,"time_elapsed":578094,"internal_node_id":"0.0-8.0-1.71","subject":"dvo8xacfk24l5e2","sona":"7276"},{"trial_type":"turing-test","trial_index":293,"time_elapsed":581392,"internal_node_id":"0.0-8.0-2.71","subject":"dvo8xacfk24l5e2","sona":"7276"},{"rt":267,"stimulus":"<p>Welche Sequenz haben Sie als natürlicher empfunden?</p>","key_press":70,"test_part":"response","test_stimulus":{"position":1,"left":"bvh/vr_prediction_models/model(vcgpdm)-dataset(pass-bottle-hold)-mode(ELBO)-parts(1)-dyn(30)-lvm(30)-hold(2)/final-lines.txt","right":"bvh/pass-bottle-hold-training2-lines.txt","att_check":false},"trial_type":"html-keyboard-response","trial_index":294,"time_elapsed":581662,"internal_node_id":"0.0-8.0-3.71","subject":"dvo8xacfk24l5e2","sona":"7276"},{"rt":165,"stimulus":"<p>Bereit?</p>","key_press":32,"trial_type":"html-keyboard-response","trial_index":295,"time_elapsed":581829,"internal_node_id":"0.0-8.0-0.72","subject":"dvo8xacfk24l5e2","sona":"7276"},{"rt":null,"stimulus":"<div style=\"font-size:60px;\">+</div>","key_press":null,"trial_type":"html-keyboard-response","trial_index":296,"time_elapsed":583854,"internal_node_id":"0.0-8.0-1.72","subject":"dvo8xacfk24l5e2","sona":"7276"},{"trial_type":"turing-test","trial_index":297,"time_elapsed":587438,"internal_node_id":"0.0-8.0-2.72","subject":"dvo8xacfk24l5e2","sona":"7276"},{"rt":229,"stimulus":"<p>Welche Sequenz haben Sie als natürlicher empfunden?</p>","key_press":74,"test_part":"response","test_stimulus":{"position":1,"left":"bvh/vr_prediction_models/model(vcgpdm)-dataset(pass-bottle-hold)-mode(ELBO)-parts(1)-dyn(15)-lvm(35)-hold(4)/final-lines.txt","right":"bvh/pass-bottle-hold-training4-lines.txt","att_check":false},"trial_type":"html-keyboard-response","trial_index":298,"time_elapsed":587670,"internal_node_id":"0.0-8.0-3.72","subject":"dvo8xacfk24l5e2","sona":"7276"},{"rt":275,"stimulus":"<p>Bereit?</p>","key_press":32,"trial_type":"html-keyboard-response","trial_index":299,"time_elapsed":587946,"internal_node_id":"0.0-8.0-0.73","subject":"dvo8xacfk24l5e2","sona":"7276"},{"rt":null,"stimulus":"<div style=\"font-size:60px;\">+</div>","key_press":null,"trial_type":"html-keyboard-response","trial_index":300,"time_elapsed":589979,"internal_node_id":"0.0-8.0-1.73","subject":"dvo8xacfk24l5e2","sona":"7276"},{"trial_type":"turing-test","trial_index":301,"time_elapsed":593413,"internal_node_id":"0.0-8.0-2.73","subject":"dvo8xacfk24l5e2","sona":"7276"},{"rt":187,"stimulus":"<p>Welche Sequenz haben Sie als natürlicher empfunden?</p>","key_press":74,"test_part":"response","test_stimulus":{"position":1,"left":"bvh/vr_prediction_models/model(vcgpdm)-dataset(return-bottle-hold)-mode(ELBO)-parts(1)-dyn(30)-lvm(20)-hold(2)/final-lines.txt","right":"bvh/return-bottle-hold-training2-lines.txt","att_check":false},"trial_type":"html-keyboard-response","trial_index":302,"time_elapsed":593601,"internal_node_id":"0.0-8.0-3.73","subject":"dvo8xacfk24l5e2","sona":"7276"},{"rt":285,"stimulus":"<p>Bereit?</p>","key_press":32,"trial_type":"html-keyboard-response","trial_index":303,"time_elapsed":593887,"internal_node_id":"0.0-8.0-0.74","subject":"dvo8xacfk24l5e2","sona":"7276"},{"rt":null,"stimulus":"<div style=\"font-size:60px;\">+</div>","key_press":null,"trial_type":"html-keyboard-response","trial_index":304,"time_elapsed":595904,"internal_node_id":"0.0-8.0-1.74","subject":"dvo8xacfk24l5e2","sona":"7276"},{"trial_type":"turing-test","trial_index":305,"time_elapsed":602544,"internal_node_id":"0.0-8.0-2.74","subject":"dvo8xacfk24l5e2","sona":"7276"},{"rt":336,"stimulus":"<p>Welche Sequenz haben Sie als natürlicher empfunden?</p>","key_press":74,"test_part":"response","test_stimulus":{"position":0,"left":"bvh/pass-bottle-training0-lines.txt","right":"bvh/vr_prediction_models/model(tmp)-dataset(pass-bottle)-numprim(14)-hold(0)/final-lines.txt","att_check":false},"trial_type":"html-keyboard-response","trial_index":306,"time_elapsed":602882,"internal_node_id":"0.0-8.0-3.74","subject":"dvo8xacfk24l5e2","sona":"7276"},{"rt":293,"stimulus":"<p>Bereit?</p>","key_press":32,"trial_type":"html-keyboard-response","trial_index":307,"time_elapsed":603177,"internal_node_id":"0.0-8.0-0.75","subject":"dvo8xacfk24l5e2","sona":"7276"},{"rt":null,"stimulus":"<div style=\"font-size:60px;\">+</div>","key_press":null,"trial_type":"html-keyboard-response","trial_index":308,"time_elapsed":605205,"internal_node_id":"0.0-8.0-1.75","subject":"dvo8xacfk24l5e2","sona":"7276"},{"trial_type":"turing-test","trial_index":309,"time_elapsed":608503,"internal_node_id":"0.0-8.0-2.75","subject":"dvo8xacfk24l5e2","sona":"7276"},{"rt":294,"stimulus":"<p>Welche Sequenz haben Sie als natürlicher empfunden?</p>","key_press":74,"test_part":"response","test_stimulus":{"position":1,"left":"bvh/vr_prediction_models/model(vcgpdm)-dataset(pass-bottle-hold)-mode(ELBO)-parts(3)-dyn(20)-lvm(20)-hold(2)/final-lines.txt","right":"bvh/pass-bottle-hold-training2-lines.txt","att_check":false},"trial_type":"html-keyboard-response","trial_index":310,"time_elapsed":608799,"internal_node_id":"0.0-8.0-3.75","subject":"dvo8xacfk24l5e2","sona":"7276"},{"rt":225,"stimulus":"<p>Bereit?</p>","key_press":32,"trial_type":"html-keyboard-response","trial_index":311,"time_elapsed":609026,"internal_node_id":"0.0-8.0-0.76","subject":"dvo8xacfk24l5e2","sona":"7276"},{"rt":null,"stimulus":"<div style=\"font-size:60px;\">+</div>","key_press":null,"trial_type":"html-keyboard-response","trial_index":312,"time_elapsed":611053,"internal_node_id":"0.0-8.0-1.76","subject":"dvo8xacfk24l5e2","sona":"7276"},{"trial_type":"turing-test","trial_index":313,"time_elapsed":614420,"internal_node_id":"0.0-8.0-2.76","subject":"dvo8xacfk24l5e2","sona":"7276"},{"rt":160,"stimulus":"<p>Welche Sequenz haben Sie als natürlicher empfunden?</p>","key_press":74,"test_part":"response","test_stimulus":{"position":1,"left":"bvh/vr_prediction_models/model(tmp)-dataset(pass-bottle-hold)-numprim(3)-hold(0)/final-lines.txt","right":"bvh/pass-bottle-hold-training0-lines.txt","att_check":false},"trial_type":"html-keyboard-response","trial_index":314,"time_elapsed":614581,"internal_node_id":"0.0-8.0-3.76","subject":"dvo8xacfk24l5e2","sona":"7276"},{"rt":224,"stimulus":"<p>Bereit?</p>","key_press":32,"trial_type":"html-keyboard-response","trial_index":315,"time_elapsed":614807,"internal_node_id":"0.0-8.0-0.77","subject":"dvo8xacfk24l5e2","sona":"7276"},{"rt":null,"stimulus":"<div style=\"font-size:60px;\">+</div>","key_press":null,"trial_type":"html-keyboard-response","trial_index":316,"time_elapsed":616840,"internal_node_id":"0.0-8.0-1.77","subject":"dvo8xacfk24l5e2","sona":"7276"},{"trial_type":"turing-test","trial_index":317,"time_elapsed":622118,"internal_node_id":"0.0-8.0-2.77","subject":"dvo8xacfk24l5e2","sona":"7276"},{"rt":271,"stimulus":"<p>Welche Sequenz haben Sie als natürlicher empfunden?</p>","key_press":70,"test_part":"response","test_stimulus":{"position":0,"left":"bvh/return-bottle-training0-lines.txt","right":"bvh/vr_prediction_models/model(dmp)-dataset(return-bottle)-npsi(10)-hold(0)/final-lines.txt","att_check":false},"trial_type":"html-keyboard-response","trial_index":318,"time_elapsed":622392,"internal_node_id":"0.0-8.0-3.77","subject":"dvo8xacfk24l5e2","sona":"7276"},{"rt":175,"stimulus":"<p>Bereit?</p>","key_press":32,"trial_type":"html-keyboard-response","trial_index":319,"time_elapsed":622569,"internal_node_id":"0.0-8.0-0.78","subject":"dvo8xacfk24l5e2","sona":"7276"},{"rt":null,"stimulus":"<div style=\"font-size:60px;\">+</div>","key_press":null,"trial_type":"html-keyboard-response","trial_index":320,"time_elapsed":624598,"internal_node_id":"0.0-8.0-1.78","subject":"dvo8xacfk24l5e2","sona":"7276"},{"trial_type":"turing-test","trial_index":321,"time_elapsed":628175,"internal_node_id":"0.0-8.0-2.78","subject":"dvo8xacfk24l5e2","sona":"7276"},{"rt":262,"stimulus":"<p>Welche Sequenz haben Sie als natürlicher empfunden?</p>","key_press":74,"test_part":"response","test_stimulus":{"position":1,"left":"bvh/vr_prediction_models/model(vcgpdm)-dataset(pass-bottle-hold)-mode(ELBO)-parts(1)-dyn(30)-lvm(20)-hold(3)/final-lines.txt","right":"bvh/pass-bottle-hold-training3-lines.txt","att_check":false},"trial_type":"html-keyboard-response","trial_index":322,"time_elapsed":628441,"internal_node_id":"0.0-8.0-3.78","subject":"dvo8xacfk24l5e2","sona":"7276"},{"rt":201,"stimulus":"<p>Bereit?</p>","key_press":32,"trial_type":"html-keyboard-response","trial_index":323,"time_elapsed":628644,"internal_node_id":"0.0-8.0-0.79","subject":"dvo8xacfk24l5e2","sona":"7276"},{"rt":null,"stimulus":"<div style=\"font-size:60px;\">+</div>","key_press":null,"trial_type":"html-keyboard-response","trial_index":324,"time_elapsed":630672,"internal_node_id":"0.0-8.0-1.79","subject":"dvo8xacfk24l5e2","sona":"7276"},{"trial_type":"turing-test","trial_index":325,"time_elapsed":636280,"internal_node_id":"0.0-8.0-2.79","subject":"dvo8xacfk24l5e2","sona":"7276"},{"rt":334,"stimulus":"<p>Welche Sequenz haben Sie als natürlicher empfunden?</p>","key_press":74,"test_part":"response","test_stimulus":{"position":1,"left":"bvh/vr_prediction_models/model(dmp)-dataset(return-bottle)-npsi(10)-hold(3)/final-lines.txt","right":"bvh/return-bottle-training3-lines.txt","att_check":false},"trial_type":"html-keyboard-response","trial_index":326,"time_elapsed":636615,"internal_node_id":"0.0-8.0-3.79","subject":"dvo8xacfk24l5e2","sona":"7276"},{"rt":11752,"responses":"{\"age\":\"21\",\"gender\":\"weiblich\"}","trial_type":"survey-text","trial_index":327,"time_elapsed":648373,"internal_node_id":"0.0-10.0-0.0","subject":"dvo8xacfk24l5e2","sona":"7276"},{"rt":72209,"responses":"{\"area\":\"Armbewegung; \\\"Kopf\\\"\",\"Q1\":\"\",\"Q2\":\"Oft offensichtliche Fehler, wie das drehen der Figur\"}","trial_type":"survey-text","trial_index":328,"time_elapsed":720589,"internal_node_id":"0.0-10.0-1.0","subject":"dvo8xacfk24l5e2","sona":"7276"}]