[{"rt":9179,"stimulus":"<p>Welcome!<br> Please choose your language to start the experiment in the chosen language.</p><p>Willkommen!<br> Bitte wählen Sie eine Sprache, um das Experiment in der ausgewählten Sprache zu starten</p>","button_pressed":"1","trial_type":"html-button-response","trial_index":0,"time_elapsed":9182,"internal_node_id":"0.0-0.0","subject":"081sgnxl481tt0w","sona":"7330"},{"view_history":"[{\"page_index\":0,\"viewing_time\":4146},{\"page_index\":1,\"viewing_time\":3182},{\"page_index\":2,\"viewing_time\":5560},{\"page_index\":3,\"viewing_time\":9226},{\"page_index\":4,\"viewing_time\":1882}]","rt":23996,"trial_type":"instructions","trial_index":1,"time_elapsed":33180,"internal_node_id":"0.0-1.0-0.0","subject":"081sgnxl481tt0w","sona":"7330"},{"rt":1854,"stimulus":"<p>Bereit?</p>","key_press":32,"trial_type":"html-keyboard-response","trial_index":2,"time_elapsed":35038,"internal_node_id":"0.0-3.0","subject":"081sgnxl481tt0w","sona":"7330"},{"rt":null,"stimulus":"<div style=\"font-size:60px;\">+</div>","key_press":null,"trial_type":"html-keyboard-response","trial_index":3,"time_elapsed":37057,"internal_node_id":"0.0-4.0","subject":"081sgnxl481tt0w","sona":"7330"},{"trial_type":"training","trial_index":4,"time_elapsed":40623,"internal_node_id":"0.0-5.0","subject":"081sgnxl481tt0w","sona":"7330"},{"rt":1148,"stimulus":"<p>Welche Sequenz haben Sie als natürlicher empfunden?</p>","key_press":70,"trial_type":"html-keyboard-response","trial_index":5,"time_elapsed":41771,"internal_node_id":"0.0-6.0","subject":"081sgnxl481tt0w","sona":"7330"},{"rt":3120,"stimulus":"<p>Das Experiment startet nun.</p><p><small>Bitte drücken Sie den Knopf, wenn Sie bereit sind.</small></p>","button_pressed":"0","trial_type":"html-button-response","trial_index":6,"time_elapsed":44894,"internal_node_id":"0.0-7.0","subject":"081sgnxl481tt0w","sona":"7330"},{"rt":1067,"stimulus":"<p>Bereit?</p>","key_press":32,"trial_type":"html-keyboard-response","trial_index":7,"time_elapsed":45963,"internal_node_id":"0.0-8.0-0.0","subject":"081sgnxl481tt0w","sona":"7330"},{"rt":null,"stimulus":"<div style=\"font-size:60px;\">+</div>","key_press":null,"trial_type":"html-keyboard-response","trial_index":8,"time_elapsed":47983,"internal_node_id":"0.0-8.0-1.0","subject":"081sgnxl481tt0w","sona":"7330"},{"trial_type":"turing-test","trial_index":9,"time_elapsed":51628,"internal_node_id":"0.0-8.0-2.0","subject":"081sgnxl481tt0w","sona":"7330"},{"rt":1326,"stimulus":"<p>Welche Sequenz haben Sie als natürlicher empfunden?</p>","key_press":74,"test_part":"response","test_stimulus":{"position":1,"left":"bvh/vr_prediction_models/model(vcgpdm)-dataset(pass-bottle-hold)-mode(ELBO)-parts(1)-dyn(35)-lvm(30)-hold(2)/final-lines.txt","right":"bvh/pass-bottle-hold-training2-lines.txt","att_check":false},"trial_type":"html-keyboard-response","trial_index":10,"time_elapsed":52956,"internal_node_id":"0.0-8.0-3.0","subject":"081sgnxl481tt0w","sona":"7330"},{"rt":699,"stimulus":"<p>Bereit?</p>","key_press":32,"trial_type":"html-keyboard-response","trial_index":11,"time_elapsed":53659,"internal_node_id":"0.0-8.0-0.1","subject":"081sgnxl481tt0w","sona":"7330"},{"rt":null,"stimulus":"<div style=\"font-size:60px;\">+</div>","key_press":null,"trial_type":"html-keyboard-response","trial_index":12,"time_elapsed":55676,"internal_node_id":"0.0-8.0-1.1","subject":"081sgnxl481tt0w","sona":"7330"},{"trial_type":"turing-test","trial_index":13,"time_elapsed":61292,"internal_node_id":"0.0-8.0-2.1","subject":"081sgnxl481tt0w","sona":"7330"},{"rt":540,"stimulus":"<p>Welche Sequenz haben Sie als natürlicher empfunden?</p>","key_press":70,"test_part":"response","test_stimulus":{"position":0,"left":"bvh/return-bottle-training0-lines.txt","right":"bvh/vr_prediction_models/model(vcgpdm)-dataset(return-bottle)-mode(ELBO)-parts(1)-dyn(20)-lvm(20)-hold(0)/final-lines.txt","att_check":false},"trial_type":"html-keyboard-response","trial_index":14,"time_elapsed":61835,"internal_node_id":"0.0-8.0-3.1","subject":"081sgnxl481tt0w","sona":"7330"},{"rt":588,"stimulus":"<p>Bereit?</p>","key_press":32,"trial_type":"html-keyboard-response","trial_index":15,"time_elapsed":62426,"internal_node_id":"0.0-8.0-0.2","subject":"081sgnxl481tt0w","sona":"7330"},{"rt":null,"stimulus":"<div style=\"font-size:60px;\">+</div>","key_press":null,"trial_type":"html-keyboard-response","trial_index":16,"time_elapsed":64449,"internal_node_id":"0.0-8.0-1.2","subject":"081sgnxl481tt0w","sona":"7330"},{"trial_type":"turing-test","trial_index":17,"time_elapsed":71652,"internal_node_id":"0.0-8.0-2.2","subject":"081sgnxl481tt0w","sona":"7330"},{"rt":356,"stimulus":"<p>Welche Sequenz haben Sie als natürlicher empfunden?</p>","key_press":70,"test_part":"response","test_stimulus":{"position":0,"left":"bvh/return-bottle-training2-lines.txt","right":"bvh/vr_prediction_models/model(tmp)-dataset(return-bottle)-numprim(5)-hold(2)/final-lines.txt","att_check":false},"trial_type":"html-keyboard-response","trial_index":18,"time_elapsed":72011,"internal_node_id":"0.0-8.0-3.2","subject":"081sgnxl481tt0w","sona":"7330"},{"rt":436,"stimulus":"<p>Bereit?</p>","key_press":32,"trial_type":"html-keyboard-response","trial_index":19,"time_elapsed":72450,"internal_node_id":"0.0-8.0-0.3","subject":"081sgnxl481tt0w","sona":"7330"},{"rt":null,"stimulus":"<div style=\"font-size:60px;\">+</div>","key_press":null,"trial_type":"html-keyboard-response","trial_index":20,"time_elapsed":74465,"internal_node_id":"0.0-8.0-1.3","subject":"081sgnxl481tt0w","sona":"7330"},{"trial_type":"turing-test","trial_index":21,"time_elapsed":78851,"internal_node_id":"0.0-8.0-2.3","subject":"081sgnxl481tt0w","sona":"7330"},{"rt":723,"stimulus":"<p>Welche Sequenz haben Sie als natürlicher empfunden?</p>","key_press":74,"test_part":"response","test_stimulus":{"position":1,"left":"bvh/vr_prediction_models/model(vcgpdm)-dataset(return-bottle-hold)-mode(ELBO)-parts(1)-dyn(35)-lvm(10)-hold(1)/final-lines.txt","right":"bvh/return-bottle-hold-training1-lines.txt","att_check":false},"trial_type":"html-keyboard-response","trial_index":22,"time_elapsed":79578,"internal_node_id":"0.0-8.0-3.3","subject":"081sgnxl481tt0w","sona":"7330"},{"rt":455,"stimulus":"<p>Bereit?</p>","key_press":32,"trial_type":"html-keyboard-response","trial_index":23,"time_elapsed":80035,"internal_node_id":"0.0-8.0-0.4","subject":"081sgnxl481tt0w","sona":"7330"},{"rt":null,"stimulus":"<div style=\"font-size:60px;\">+</div>","key_press":null,"trial_type":"html-keyboard-response","trial_index":24,"time_elapsed":82041,"internal_node_id":"0.0-8.0-1.4","subject":"081sgnxl481tt0w","sona":"7330"},{"trial_type":"turing-test","trial_index":25,"time_elapsed":88264,"internal_node_id":"0.0-8.0-2.4","subject":"081sgnxl481tt0w","sona":"7330"},{"rt":1177,"stimulus":"<p>Welche Sequenz haben Sie als natürlicher empfunden?</p>","key_press":70,"test_part":"response","test_stimulus":{"position":0,"left":"bvh/return-bottle-training3-lines.txt","right":"bvh/vr_prediction_models/model(tmp)-dataset(return-bottle)-numprim(14)-hold(3)/final-lines.txt","att_check":false},"trial_type":"html-keyboard-response","trial_index":26,"time_elapsed":89443,"internal_node_id":"0.0-8.0-3.4","subject":"081sgnxl481tt0w","sona":"7330"},{"rt":276,"stimulus":"<p>Bereit?</p>","key_press":32,"trial_type":"html-keyboard-response","trial_index":27,"time_elapsed":89722,"internal_node_id":"0.0-8.0-0.5","subject":"081sgnxl481tt0w","sona":"7330"},{"rt":null,"stimulus":"<div style=\"font-size:60px;\">+</div>","key_press":null,"trial_type":"html-keyboard-response","trial_index":28,"time_elapsed":91730,"internal_node_id":"0.0-8.0-1.5","subject":"081sgnxl481tt0w","sona":"7330"},{"trial_type":"turing-test","trial_index":29,"time_elapsed":95591,"internal_node_id":"0.0-8.0-2.5","subject":"081sgnxl481tt0w","sona":"7330"},{"rt":1112,"stimulus":"<p>Welche Sequenz haben Sie als natürlicher empfunden?</p>","key_press":70,"test_part":"response","test_stimulus":{"position":0,"left":"bvh/return-bottle-hold-training4-lines.txt","right":"bvh/vr_prediction_models/model(vcgpdm)-dataset(return-bottle-hold)-mode(ELBO)-parts(1)-dyn(20)-lvm(5)-hold(4)/final-lines.txt","att_check":false},"trial_type":"html-keyboard-response","trial_index":30,"time_elapsed":96707,"internal_node_id":"0.0-8.0-3.5","subject":"081sgnxl481tt0w","sona":"7330"},{"rt":285,"stimulus":"<p>Bereit?</p>","key_press":32,"trial_type":"html-keyboard-response","trial_index":31,"time_elapsed":96994,"internal_node_id":"0.0-8.0-0.6","subject":"081sgnxl481tt0w","sona":"7330"},{"rt":null,"stimulus":"<div style=\"font-size:60px;\">+</div>","key_press":null,"trial_type":"html-keyboard-response","trial_index":32,"time_elapsed":99011,"internal_node_id":"0.0-8.0-1.6","subject":"081sgnxl481tt0w","sona":"7330"},{"trial_type":"turing-test","trial_index":33,"time_elapsed":105986,"internal_node_id":"0.0-8.0-2.6","subject":"081sgnxl481tt0w","sona":"7330"},{"rt":359,"stimulus":"<p>Welche Sequenz haben Sie als natürlicher empfunden?</p>","key_press":70,"test_part":"response","test_stimulus":{"position":0,"left":"bvh/pass-bottle-training0-lines.txt","right":"bvh/vr_prediction_models/model(vcgpdm)-dataset(pass-bottle)-mode(ELBO)-parts(3)-dyn(10)-lvm(30)-hold(0)/final-lines.txt","att_check":false},"trial_type":"html-keyboard-response","trial_index":34,"time_elapsed":106347,"internal_node_id":"0.0-8.0-3.6","subject":"081sgnxl481tt0w","sona":"7330"},{"rt":564,"stimulus":"<p>Bereit?</p>","key_press":32,"trial_type":"html-keyboard-response","trial_index":35,"time_elapsed":106915,"internal_node_id":"0.0-8.0-0.7","subject":"081sgnxl481tt0w","sona":"7330"},{"rt":null,"stimulus":"<div style=\"font-size:60px;\">+</div>","key_press":null,"trial_type":"html-keyboard-response","trial_index":36,"time_elapsed":108939,"internal_node_id":"0.0-8.0-1.7","subject":"081sgnxl481tt0w","sona":"7330"},{"trial_type":"turing-test","trial_index":37,"time_elapsed":114900,"internal_node_id":"0.0-8.0-2.7","subject":"081sgnxl481tt0w","sona":"7330"},{"rt":507,"stimulus":"<p>Welche Sequenz haben Sie als natürlicher empfunden?</p>","key_press":74,"test_part":"response","test_stimulus":{"position":1,"left":"bvh/vr_prediction_models/model(vcgpdm)-dataset(return-bottle)-mode(ELBO)-parts(3)-dyn(30)-lvm(15)-hold(4)/final-lines.txt","right":"bvh/return-bottle-training4-lines.txt","att_check":false},"trial_type":"html-keyboard-response","trial_index":38,"time_elapsed":115411,"internal_node_id":"0.0-8.0-3.7","subject":"081sgnxl481tt0w","sona":"7330"},{"rt":341,"stimulus":"<p>Bereit?</p>","key_press":32,"trial_type":"html-keyboard-response","trial_index":39,"time_elapsed":115755,"internal_node_id":"0.0-8.0-0.8","subject":"081sgnxl481tt0w","sona":"7330"},{"rt":null,"stimulus":"<div style=\"font-size:60px;\">+</div>","key_press":null,"trial_type":"html-keyboard-response","trial_index":40,"time_elapsed":117773,"internal_node_id":"0.0-8.0-1.8","subject":"081sgnxl481tt0w","sona":"7330"},{"trial_type":"turing-test","trial_index":41,"time_elapsed":123266,"internal_node_id":"0.0-8.0-2.8","subject":"081sgnxl481tt0w","sona":"7330"},{"rt":373,"stimulus":"<p>Welche Sequenz haben Sie als natürlicher empfunden?</p>","key_press":74,"test_part":"response","test_stimulus":{"position":1,"left":"bvh/vr_prediction_models/model(tmp)-dataset(pass-bottle)-numprim(8)-hold(1)/final-lines.txt","right":"bvh/pass-bottle-training1-lines.txt","att_check":false},"trial_type":"html-keyboard-response","trial_index":42,"time_elapsed":123643,"internal_node_id":"0.0-8.0-3.8","subject":"081sgnxl481tt0w","sona":"7330"},{"rt":341,"stimulus":"<p>Bereit?</p>","key_press":32,"trial_type":"html-keyboard-response","trial_index":43,"time_elapsed":123987,"internal_node_id":"0.0-8.0-0.9","subject":"081sgnxl481tt0w","sona":"7330"},{"rt":null,"stimulus":"<div style=\"font-size:60px;\">+</div>","key_press":null,"trial_type":"html-keyboard-response","trial_index":44,"time_elapsed":125999,"internal_node_id":"0.0-8.0-1.9","subject":"081sgnxl481tt0w","sona":"7330"},{"trial_type":"turing-test","trial_index":45,"time_elapsed":129517,"internal_node_id":"0.0-8.0-2.9","subject":"081sgnxl481tt0w","sona":"7330"},{"rt":643,"stimulus":"<p>Welche Sequenz haben Sie als natürlicher empfunden?</p>","key_press":74,"test_part":"response","test_stimulus":{"position":1,"left":"bvh/vr_prediction_models/model(vcgpdm)-dataset(pass-bottle-hold)-mode(ELBO)-parts(1)-dyn(20)-lvm(20)-hold(2)/final-lines.txt","right":"bvh/pass-bottle-hold-training2-lines.txt","att_check":false},"trial_type":"html-keyboard-response","trial_index":46,"time_elapsed":130163,"internal_node_id":"0.0-8.0-3.9","subject":"081sgnxl481tt0w","sona":"7330"},{"rt":268,"stimulus":"<p>Bereit?</p>","key_press":32,"trial_type":"html-keyboard-response","trial_index":47,"time_elapsed":130434,"internal_node_id":"0.0-8.0-0.10","subject":"081sgnxl481tt0w","sona":"7330"},{"rt":null,"stimulus":"<div style=\"font-size:60px;\">+</div>","key_press":null,"trial_type":"html-keyboard-response","trial_index":48,"time_elapsed":132451,"internal_node_id":"0.0-8.0-1.10","subject":"081sgnxl481tt0w","sona":"7330"},{"trial_type":"turing-test","trial_index":49,"time_elapsed":135888,"internal_node_id":"0.0-8.0-2.10","subject":"081sgnxl481tt0w","sona":"7330"},{"rt":495,"stimulus":"<p>Welche Sequenz haben Sie als natürlicher empfunden?</p>","key_press":70,"test_part":"response","test_stimulus":{"position":0,"left":"bvh/pass-bottle-hold-training0-lines.txt","right":"bvh/vr_prediction_models/model(vcgpdm)-dataset(pass-bottle-hold)-mode(ELBO)-parts(1)-dyn(25)-lvm(35)-hold(0)/final-lines.txt","att_check":false},"trial_type":"html-keyboard-response","trial_index":50,"time_elapsed":136387,"internal_node_id":"0.0-8.0-3.10","subject":"081sgnxl481tt0w","sona":"7330"},{"rt":349,"stimulus":"<p>Bereit?</p>","key_press":32,"trial_type":"html-keyboard-response","trial_index":51,"time_elapsed":136739,"internal_node_id":"0.0-8.0-0.11","subject":"081sgnxl481tt0w","sona":"7330"},{"rt":null,"stimulus":"<div style=\"font-size:60px;\">+</div>","key_press":null,"trial_type":"html-keyboard-response","trial_index":52,"time_elapsed":138764,"internal_node_id":"0.0-8.0-1.11","subject":"081sgnxl481tt0w","sona":"7330"},{"trial_type":"turing-test","trial_index":53,"time_elapsed":144592,"internal_node_id":"0.0-8.0-2.11","subject":"081sgnxl481tt0w","sona":"7330"},{"rt":456,"stimulus":"<p>Welche Sequenz haben Sie als natürlicher empfunden?</p>","key_press":74,"test_part":"response","test_stimulus":{"position":1,"left":"bvh/vr_prediction_models/model(tmp)-dataset(return-bottle)-numprim(6)-hold(4)/final-lines.txt","right":"bvh/return-bottle-training4-lines.txt","att_check":false},"trial_type":"html-keyboard-response","trial_index":54,"time_elapsed":145052,"internal_node_id":"0.0-8.0-3.11","subject":"081sgnxl481tt0w","sona":"7330"},{"rt":261,"stimulus":"<p>Bereit?</p>","key_press":32,"trial_type":"html-keyboard-response","trial_index":55,"time_elapsed":145314,"internal_node_id":"0.0-8.0-0.12","subject":"081sgnxl481tt0w","sona":"7330"},{"rt":null,"stimulus":"<div style=\"font-size:60px;\">+</div>","key_press":null,"trial_type":"html-keyboard-response","trial_index":56,"time_elapsed":147343,"internal_node_id":"0.0-8.0-1.12","subject":"081sgnxl481tt0w","sona":"7330"},{"trial_type":"turing-test","trial_index":57,"time_elapsed":152813,"internal_node_id":"0.0-8.0-2.12","subject":"081sgnxl481tt0w","sona":"7330"},{"rt":2228,"stimulus":"<p>Welche Sequenz haben Sie als natürlicher empfunden?</p>","key_press":70,"test_part":"response","test_stimulus":{"position":0,"left":"bvh/return-bottle-training0-lines.txt","right":"bvh/vr_prediction_models/model(vcgpdm)-dataset(return-bottle)-mode(ELBO)-parts(3)-dyn(10)-lvm(10)-hold(0)/final-lines.txt","att_check":false},"trial_type":"html-keyboard-response","trial_index":58,"time_elapsed":155043,"internal_node_id":"0.0-8.0-3.12","subject":"081sgnxl481tt0w","sona":"7330"},{"rt":245,"stimulus":"<p>Bereit?</p>","key_press":32,"trial_type":"html-keyboard-response","trial_index":59,"time_elapsed":155291,"internal_node_id":"0.0-8.0-0.13","subject":"081sgnxl481tt0w","sona":"7330"},{"rt":null,"stimulus":"<div style=\"font-size:60px;\">+</div>","key_press":null,"trial_type":"html-keyboard-response","trial_index":60,"time_elapsed":157313,"internal_node_id":"0.0-8.0-1.13","subject":"081sgnxl481tt0w","sona":"7330"},{"trial_type":"turing-test","trial_index":61,"time_elapsed":160581,"internal_node_id":"0.0-8.0-2.13","subject":"081sgnxl481tt0w","sona":"7330"},{"rt":723,"stimulus":"<p>Welche Sequenz haben Sie als natürlicher empfunden?</p>","key_press":70,"test_part":"response","test_stimulus":{"position":0,"left":"bvh/pass-bottle-hold-training1-lines.txt","right":"bvh/vr_prediction_models/model(tmp)-dataset(pass-bottle-hold)-numprim(6)-hold(1)/final-lines.txt","att_check":false},"trial_type":"html-keyboard-response","trial_index":62,"time_elapsed":161308,"internal_node_id":"0.0-8.0-3.13","subject":"081sgnxl481tt0w","sona":"7330"},{"rt":268,"stimulus":"<p>Bereit?</p>","key_press":32,"trial_type":"html-keyboard-response","trial_index":63,"time_elapsed":161578,"internal_node_id":"0.0-8.0-0.14","subject":"081sgnxl481tt0w","sona":"7330"},{"rt":null,"stimulus":"<div style=\"font-size:60px;\">+</div>","key_press":null,"trial_type":"html-keyboard-response","trial_index":64,"time_elapsed":163594,"internal_node_id":"0.0-8.0-1.14","subject":"081sgnxl481tt0w","sona":"7330"},{"trial_type":"turing-test","trial_index":65,"time_elapsed":167109,"internal_node_id":"0.0-8.0-2.14","subject":"081sgnxl481tt0w","sona":"7330"},{"rt":18,"stimulus":"<p>Welche Sequenz haben Sie als natürlicher empfunden?</p>","key_press":74,"test_part":"response","test_stimulus":{"position":1,"left":"bvh/vr_prediction_models/model(vcgpdm)-dataset(return-bottle-hold)-mode(ELBO)-parts(3)-dyn(35)-lvm(20)-hold(1)/final-lines.txt","right":"bvh/return-bottle-hold-training1-lines.txt","att_check":false},"trial_type":"html-keyboard-response","trial_index":66,"time_elapsed":167131,"internal_node_id":"0.0-8.0-3.14","subject":"081sgnxl481tt0w","sona":"7330"},{"rt":453,"stimulus":"<p>Bereit?</p>","key_press":32,"trial_type":"html-keyboard-response","trial_index":67,"time_elapsed":167588,"internal_node_id":"0.0-8.0-0.15","subject":"081sgnxl481tt0w","sona":"7330"},{"rt":null,"stimulus":"<div style=\"font-size:60px;\">+</div>","key_press":null,"trial_type":"html-keyboard-response","trial_index":68,"time_elapsed":169602,"internal_node_id":"0.0-8.0-1.15","subject":"081sgnxl481tt0w","sona":"7330"},{"trial_type":"turing-test","trial_index":69,"time_elapsed":174854,"internal_node_id":"0.0-8.0-2.15","subject":"081sgnxl481tt0w","sona":"7330"},{"rt":1211,"stimulus":"<p>Welche Sequenz haben Sie als natürlicher empfunden?</p>","key_press":74,"test_part":"response","test_stimulus":{"position":1,"left":"bvh/vr_prediction_models/model(dmp)-dataset(return-bottle-hold)-npsi(70)-hold(0)/final-lines.txt","right":"bvh/return-bottle-hold-training0-lines.txt","att_check":true},"trial_type":"html-keyboard-response","trial_index":70,"time_elapsed":176067,"internal_node_id":"0.0-8.0-3.15","subject":"081sgnxl481tt0w","sona":"7330"},{"rt":317,"stimulus":"<p>Bereit?</p>","key_press":32,"trial_type":"html-keyboard-response","trial_index":71,"time_elapsed":176387,"internal_node_id":"0.0-8.0-0.16","subject":"081sgnxl481tt0w","sona":"7330"},{"rt":null,"stimulus":"<div style=\"font-size:60px;\">+</div>","key_press":null,"trial_type":"html-keyboard-response","trial_index":72,"time_elapsed":178416,"internal_node_id":"0.0-8.0-1.16","subject":"081sgnxl481tt0w","sona":"7330"},{"trial_type":"turing-test","trial_index":73,"time_elapsed":184636,"internal_node_id":"0.0-8.0-2.16","subject":"081sgnxl481tt0w","sona":"7330"},{"rt":700,"stimulus":"<p>Welche Sequenz haben Sie als natürlicher empfunden?</p>","key_press":74,"test_part":"response","test_stimulus":{"position":1,"left":"bvh/vr_prediction_models/model(dmp)-dataset(pass-bottle)-npsi(90)-hold(2)/final-lines.txt","right":"bvh/pass-bottle-training2-lines.txt","att_check":true},"trial_type":"html-keyboard-response","trial_index":74,"time_elapsed":185339,"internal_node_id":"0.0-8.0-3.16","subject":"081sgnxl481tt0w","sona":"7330"},{"rt":284,"stimulus":"<p>Bereit?</p>","key_press":32,"trial_type":"html-keyboard-response","trial_index":75,"time_elapsed":185627,"internal_node_id":"0.0-8.0-0.17","subject":"081sgnxl481tt0w","sona":"7330"},{"rt":null,"stimulus":"<div style=\"font-size:60px;\">+</div>","key_press":null,"trial_type":"html-keyboard-response","trial_index":76,"time_elapsed":187633,"internal_node_id":"0.0-8.0-1.17","subject":"081sgnxl481tt0w","sona":"7330"},{"trial_type":"turing-test","trial_index":77,"time_elapsed":194390,"internal_node_id":"0.0-8.0-2.17","subject":"081sgnxl481tt0w","sona":"7330"},{"rt":347,"stimulus":"<p>Welche Sequenz haben Sie als natürlicher empfunden?</p>","key_press":74,"test_part":"response","test_stimulus":{"position":1,"left":"bvh/vr_prediction_models/model(dmp)-dataset(pass-bottle)-npsi(50)-hold(0)/final-lines.txt","right":"bvh/pass-bottle-training0-lines.txt","att_check":false},"trial_type":"html-keyboard-response","trial_index":78,"time_elapsed":194739,"internal_node_id":"0.0-8.0-3.17","subject":"081sgnxl481tt0w","sona":"7330"},{"rt":239,"stimulus":"<p>Bereit?</p>","key_press":32,"trial_type":"html-keyboard-response","trial_index":79,"time_elapsed":194979,"internal_node_id":"0.0-8.0-0.18","subject":"081sgnxl481tt0w","sona":"7330"},{"rt":null,"stimulus":"<div style=\"font-size:60px;\">+</div>","key_press":null,"trial_type":"html-keyboard-response","trial_index":80,"time_elapsed":197000,"internal_node_id":"0.0-8.0-1.18","subject":"081sgnxl481tt0w","sona":"7330"},{"trial_type":"turing-test","trial_index":81,"time_elapsed":203140,"internal_node_id":"0.0-8.0-2.18","subject":"081sgnxl481tt0w","sona":"7330"},{"rt":682,"stimulus":"<p>Welche Sequenz haben Sie als natürlicher empfunden?</p>","key_press":74,"test_part":"response","test_stimulus":{"position":1,"left":"bvh/vr_prediction_models/model(tmp)-dataset(return-bottle)-numprim(7)-hold(1)/final-lines.txt","right":"bvh/return-bottle-training1-lines.txt","att_check":false},"trial_type":"html-keyboard-response","trial_index":82,"time_elapsed":203827,"internal_node_id":"0.0-8.0-3.18","subject":"081sgnxl481tt0w","sona":"7330"},{"rt":221,"stimulus":"<p>Bereit?</p>","key_press":32,"trial_type":"html-keyboard-response","trial_index":83,"time_elapsed":204051,"internal_node_id":"0.0-8.0-0.19","subject":"081sgnxl481tt0w","sona":"7330"},{"rt":null,"stimulus":"<div style=\"font-size:60px;\">+</div>","key_press":null,"trial_type":"html-keyboard-response","trial_index":84,"time_elapsed":206060,"internal_node_id":"0.0-8.0-1.19","subject":"081sgnxl481tt0w","sona":"7330"},{"trial_type":"turing-test","trial_index":85,"time_elapsed":212646,"internal_node_id":"0.0-8.0-2.19","subject":"081sgnxl481tt0w","sona":"7330"},{"rt":1273,"stimulus":"<p>Welche Sequenz haben Sie als natürlicher empfunden?</p>","key_press":74,"test_part":"response","test_stimulus":{"position":1,"left":"bvh/vr_prediction_models/model(tmp)-dataset(return-bottle)-numprim(10)-hold(2)/final-lines.txt","right":"bvh/return-bottle-training2-lines.txt","att_check":false},"trial_type":"html-keyboard-response","trial_index":86,"time_elapsed":213923,"internal_node_id":"0.0-8.0-3.19","subject":"081sgnxl481tt0w","sona":"7330"},{"rt":158,"stimulus":"<p>Bereit?</p>","key_press":32,"trial_type":"html-keyboard-response","trial_index":87,"time_elapsed":214083,"internal_node_id":"0.0-8.0-0.20","subject":"081sgnxl481tt0w","sona":"7330"},{"rt":null,"stimulus":"<div style=\"font-size:60px;\">+</div>","key_press":null,"trial_type":"html-keyboard-response","trial_index":88,"time_elapsed":216096,"internal_node_id":"0.0-8.0-1.20","subject":"081sgnxl481tt0w","sona":"7330"},{"trial_type":"turing-test","trial_index":89,"time_elapsed":219786,"internal_node_id":"0.0-8.0-2.20","subject":"081sgnxl481tt0w","sona":"7330"},{"rt":606,"stimulus":"<p>Welche Sequenz haben Sie als natürlicher empfunden?</p>","key_press":74,"test_part":"response","test_stimulus":{"position":1,"left":"bvh/vr_prediction_models/model(tmp)-dataset(return-bottle-hold)-numprim(9)-hold(3)/final-lines.txt","right":"bvh/return-bottle-hold-training3-lines.txt","att_check":false},"trial_type":"html-keyboard-response","trial_index":90,"time_elapsed":220395,"internal_node_id":"0.0-8.0-3.20","subject":"081sgnxl481tt0w","sona":"7330"},{"rt":165,"stimulus":"<p>Bereit?</p>","key_press":32,"trial_type":"html-keyboard-response","trial_index":91,"time_elapsed":220563,"internal_node_id":"0.0-8.0-0.21","subject":"081sgnxl481tt0w","sona":"7330"},{"rt":null,"stimulus":"<div style=\"font-size:60px;\">+</div>","key_press":null,"trial_type":"html-keyboard-response","trial_index":92,"time_elapsed":222584,"internal_node_id":"0.0-8.0-1.21","subject":"081sgnxl481tt0w","sona":"7330"},{"trial_type":"turing-test","trial_index":93,"time_elapsed":225942,"internal_node_id":"0.0-8.0-2.21","subject":"081sgnxl481tt0w","sona":"7330"},{"rt":665,"stimulus":"<p>Welche Sequenz haben Sie als natürlicher empfunden?</p>","key_press":70,"test_part":"response","test_stimulus":{"position":0,"left":"bvh/pass-bottle-hold-training1-lines.txt","right":"bvh/vr_prediction_models/model(vcgpdm)-dataset(pass-bottle-hold)-mode(ELBO)-parts(1)-dyn(20)-lvm(5)-hold(1)/final-lines.txt","att_check":false},"trial_type":"html-keyboard-response","trial_index":94,"time_elapsed":226610,"internal_node_id":"0.0-8.0-3.21","subject":"081sgnxl481tt0w","sona":"7330"},{"rt":150,"stimulus":"<p>Bereit?</p>","key_press":32,"trial_type":"html-keyboard-response","trial_index":95,"time_elapsed":226763,"internal_node_id":"0.0-8.0-0.22","subject":"081sgnxl481tt0w","sona":"7330"},{"rt":null,"stimulus":"<div style=\"font-size:60px;\">+</div>","key_press":null,"trial_type":"html-keyboard-response","trial_index":96,"time_elapsed":228771,"internal_node_id":"0.0-8.0-1.22","subject":"081sgnxl481tt0w","sona":"7330"},{"trial_type":"turing-test","trial_index":97,"time_elapsed":234833,"internal_node_id":"0.0-8.0-2.22","subject":"081sgnxl481tt0w","sona":"7330"},{"rt":152,"stimulus":"<p>Welche Sequenz haben Sie als natürlicher empfunden?</p>","key_press":70,"test_part":"response","test_stimulus":{"position":0,"left":"bvh/pass-bottle-training4-lines.txt","right":"bvh/vr_prediction_models/model(vcgpdm)-dataset(pass-bottle)-mode(ELBO)-parts(1)-dyn(15)-lvm(35)-hold(4)/final-lines.txt","att_check":false},"trial_type":"html-keyboard-response","trial_index":98,"time_elapsed":234987,"internal_node_id":"0.0-8.0-3.22","subject":"081sgnxl481tt0w","sona":"7330"},{"rt":298,"stimulus":"<p>Bereit?</p>","key_press":32,"trial_type":"html-keyboard-response","trial_index":99,"time_elapsed":235290,"internal_node_id":"0.0-8.0-0.23","subject":"081sgnxl481tt0w","sona":"7330"},{"rt":null,"stimulus":"<div style=\"font-size:60px;\">+</div>","key_press":null,"trial_type":"html-keyboard-response","trial_index":100,"time_elapsed":237319,"internal_node_id":"0.0-8.0-1.23","subject":"081sgnxl481tt0w","sona":"7330"},{"trial_type":"turing-test","trial_index":101,"time_elapsed":244341,"internal_node_id":"0.0-8.0-2.23","subject":"081sgnxl481tt0w","sona":"7330"},{"rt":219,"stimulus":"<p>Welche Sequenz haben Sie als natürlicher empfunden?</p>","key_press":74,"test_part":"response","test_stimulus":{"position":0,"left":"bvh/pass-bottle-training0-lines.txt","right":"bvh/vr_prediction_models/model(vcgpdm)-dataset(pass-bottle)-mode(ELBO)-parts(1)-dyn(20)-lvm(20)-hold(0)/final-lines.txt","att_check":false},"trial_type":"html-keyboard-response","trial_index":102,"time_elapsed":244564,"internal_node_id":"0.0-8.0-3.23","subject":"081sgnxl481tt0w","sona":"7330"},{"rt":196,"stimulus":"<p>Bereit?</p>","key_press":32,"trial_type":"html-keyboard-response","trial_index":103,"time_elapsed":244763,"internal_node_id":"0.0-8.0-0.24","subject":"081sgnxl481tt0w","sona":"7330"},{"rt":null,"stimulus":"<div style=\"font-size:60px;\">+</div>","key_press":null,"trial_type":"html-keyboard-response","trial_index":104,"time_elapsed":246794,"internal_node_id":"0.0-8.0-1.24","subject":"081sgnxl481tt0w","sona":"7330"},{"trial_type":"turing-test","trial_index":105,"time_elapsed":250143,"internal_node_id":"0.0-8.0-2.24","subject":"081sgnxl481tt0w","sona":"7330"},{"rt":705,"stimulus":"<p>Welche Sequenz haben Sie als natürlicher empfunden?</p>","key_press":74,"test_part":"response","test_stimulus":{"position":0,"left":"bvh/pass-bottle-hold-training2-lines.txt","right":"bvh/vr_prediction_models/model(tmp)-dataset(pass-bottle-hold)-numprim(13)-hold(2)/final-lines.txt","att_check":false},"trial_type":"html-keyboard-response","trial_index":106,"time_elapsed":250851,"internal_node_id":"0.0-8.0-3.24","subject":"081sgnxl481tt0w","sona":"7330"},{"rt":139,"stimulus":"<p>Bereit?</p>","key_press":32,"trial_type":"html-keyboard-response","trial_index":107,"time_elapsed":250995,"internal_node_id":"0.0-8.0-0.25","subject":"081sgnxl481tt0w","sona":"7330"},{"rt":null,"stimulus":"<div style=\"font-size:60px;\">+</div>","key_press":null,"trial_type":"html-keyboard-response","trial_index":108,"time_elapsed":253019,"internal_node_id":"0.0-8.0-1.25","subject":"081sgnxl481tt0w","sona":"7330"},{"trial_type":"turing-test","trial_index":109,"time_elapsed":259036,"internal_node_id":"0.0-8.0-2.25","subject":"081sgnxl481tt0w","sona":"7330"},{"rt":237,"stimulus":"<p>Welche Sequenz haben Sie als natürlicher empfunden?</p>","key_press":70,"test_part":"response","test_stimulus":{"position":0,"left":"bvh/pass-bottle-training3-lines.txt","right":"bvh/vr_prediction_models/model(vcgpdm)-dataset(pass-bottle)-mode(ELBO)-parts(3)-dyn(25)-lvm(30)-hold(3)/final-lines.txt","att_check":false},"trial_type":"html-keyboard-response","trial_index":110,"time_elapsed":259275,"internal_node_id":"0.0-8.0-3.25","subject":"081sgnxl481tt0w","sona":"7330"},{"rt":292,"stimulus":"<p>Bereit?</p>","key_press":32,"trial_type":"html-keyboard-response","trial_index":111,"time_elapsed":259571,"internal_node_id":"0.0-8.0-0.26","subject":"081sgnxl481tt0w","sona":"7330"},{"rt":null,"stimulus":"<div style=\"font-size:60px;\">+</div>","key_press":null,"trial_type":"html-keyboard-response","trial_index":112,"time_elapsed":261598,"internal_node_id":"0.0-8.0-1.26","subject":"081sgnxl481tt0w","sona":"7330"},{"trial_type":"turing-test","trial_index":113,"time_elapsed":264962,"internal_node_id":"0.0-8.0-2.26","subject":"081sgnxl481tt0w","sona":"7330"},{"rt":656,"stimulus":"<p>Welche Sequenz haben Sie als natürlicher empfunden?</p>","key_press":70,"test_part":"response","test_stimulus":{"position":0,"left":"bvh/pass-bottle-hold-training0-lines.txt","right":"bvh/vr_prediction_models/model(dmp)-dataset(pass-bottle-hold)-npsi(10)-hold(0)/final-lines.txt","att_check":false},"trial_type":"html-keyboard-response","trial_index":114,"time_elapsed":265619,"internal_node_id":"0.0-8.0-3.26","subject":"081sgnxl481tt0w","sona":"7330"},{"rt":173,"stimulus":"<p>Bereit?</p>","key_press":32,"trial_type":"html-keyboard-response","trial_index":115,"time_elapsed":265795,"internal_node_id":"0.0-8.0-0.27","subject":"081sgnxl481tt0w","sona":"7330"},{"rt":null,"stimulus":"<div style=\"font-size:60px;\">+</div>","key_press":null,"trial_type":"html-keyboard-response","trial_index":116,"time_elapsed":267804,"internal_node_id":"0.0-8.0-1.27","subject":"081sgnxl481tt0w","sona":"7330"},{"trial_type":"turing-test","trial_index":117,"time_elapsed":273586,"internal_node_id":"0.0-8.0-2.27","subject":"081sgnxl481tt0w","sona":"7330"},{"rt":44591,"stimulus":"<p>Welche Sequenz haben Sie als natürlicher empfunden?</p>","key_press":74,"test_part":"response","test_stimulus":{"position":0,"left":"bvh/pass-bottle-training4-lines.txt","right":"bvh/vr_prediction_models/model(tmp)-dataset(pass-bottle)-numprim(3)-hold(4)/final-lines.txt","att_check":false},"trial_type":"html-keyboard-response","trial_index":118,"time_elapsed":318179,"internal_node_id":"0.0-8.0-3.27","subject":"081sgnxl481tt0w","sona":"7330"},{"rt":6045,"stimulus":"<p>Bereit?</p>","key_press":32,"trial_type":"html-keyboard-response","trial_index":119,"time_elapsed":324227,"internal_node_id":"0.0-8.0-0.28","subject":"081sgnxl481tt0w","sona":"7330"},{"rt":null,"stimulus":"<div style=\"font-size:60px;\">+</div>","key_press":null,"trial_type":"html-keyboard-response","trial_index":120,"time_elapsed":326258,"internal_node_id":"0.0-8.0-1.28","subject":"081sgnxl481tt0w","sona":"7330"},{"trial_type":"turing-test","trial_index":121,"time_elapsed":330025,"internal_node_id":"0.0-8.0-2.28","subject":"081sgnxl481tt0w","sona":"7330"}]