[{"rt":1544.0249999810476,"stimulus":"<p>Welcome!<br> Please choose your language to start the experiment in the chosen language.</p><p>Willkommen!<br> Bitte wählen Sie eine Sprache, um das Experiment in der ausgewählten Sprache zu starten</p>","button_pressed":"1","trial_type":"html-button-response","trial_index":0,"time_elapsed":1597,"internal_node_id":"0.0-0.0","subject":"usvwz4ysnyw55eu","sona":"9031"},{"view_history":"[{\"page_index\":0,\"viewing_time\":714.7750000003725},{\"page_index\":1,\"viewing_time\":1362.6600000134204},{\"page_index\":2,\"viewing_time\":5198.165000008885},{\"page_index\":3,\"viewing_time\":3358.349999994971},{\"page_index\":4,\"viewing_time\":1828.0199999862816}]","rt":12464.059999998426,"trial_type":"instructions","trial_index":1,"time_elapsed":14063,"internal_node_id":"0.0-1.0-0.0","subject":"usvwz4ysnyw55eu","sona":"9031"},{"rt":1239.1500000085216,"stimulus":"<p>Bereit?</p>","key_press":32,"trial_type":"html-keyboard-response","trial_index":2,"time_elapsed":15306,"internal_node_id":"0.0-3.0","subject":"usvwz4ysnyw55eu","sona":"9031"},{"rt":null,"stimulus":"<div style=\"font-size:60px;\">+</div>","key_press":null,"trial_type":"html-keyboard-response","trial_index":3,"time_elapsed":17318,"internal_node_id":"0.0-4.0","subject":"usvwz4ysnyw55eu","sona":"9031"},{"trial_type":"training","trial_index":4,"time_elapsed":21545,"internal_node_id":"0.0-5.0","subject":"usvwz4ysnyw55eu","sona":"9031"},{"rt":17.084999999497086,"stimulus":"<p>Welche Sequenz haben Sie als natürlicher empfunden?</p>","key_press":74,"trial_type":"html-keyboard-response","trial_index":5,"time_elapsed":21564,"internal_node_id":"0.0-6.0","subject":"usvwz4ysnyw55eu","sona":"9031"},{"rt":2058.950000006007,"stimulus":"<p>Das Experiment startet nun.</p><p><small>Bitte drücken Sie den Knopf, wenn Sie bereit sind.</small></p>","button_pressed":"0","trial_type":"html-button-response","trial_index":6,"time_elapsed":23625,"internal_node_id":"0.0-7.0","subject":"usvwz4ysnyw55eu","sona":"9031"},{"rt":1234.8100000235718,"stimulus":"<p>Bereit?</p>","key_press":32,"trial_type":"html-keyboard-response","trial_index":7,"time_elapsed":24862,"internal_node_id":"0.0-8.0-0.0","subject":"usvwz4ysnyw55eu","sona":"9031"},{"rt":null,"stimulus":"<div style=\"font-size:60px;\">+</div>","key_press":null,"trial_type":"html-keyboard-response","trial_index":8,"time_elapsed":26881,"internal_node_id":"0.0-8.0-1.0","subject":"usvwz4ysnyw55eu","sona":"9031"},{"trial_type":"turing-test","trial_index":9,"time_elapsed":33905,"internal_node_id":"0.0-8.0-2.0","subject":"usvwz4ysnyw55eu","sona":"9031"},{"rt":1342.0749999932013,"stimulus":"<p>Welche Sequenz haben Sie als natürlicher empfunden?</p>","key_press":70,"test_part":"response","test_stimulus":{"position":1,"left":"bvh/vr_prediction_models/model(vcgpdm)-dataset(return-bottle)-mode(MAP)-parts(3)-hold(2)/final-lines.txt","right":"bvh/return-bottle-training2-lines.txt","att_check":false},"trial_type":"html-keyboard-response","trial_index":10,"time_elapsed":35251,"internal_node_id":"0.0-8.0-3.0","subject":"usvwz4ysnyw55eu","sona":"9031"},{"rt":613.8700000010431,"stimulus":"<p>Bereit?</p>","key_press":32,"trial_type":"html-keyboard-response","trial_index":11,"time_elapsed":35868,"internal_node_id":"0.0-8.0-0.1","subject":"usvwz4ysnyw55eu","sona":"9031"},{"rt":null,"stimulus":"<div style=\"font-size:60px;\">+</div>","key_press":null,"trial_type":"html-keyboard-response","trial_index":12,"time_elapsed":37897,"internal_node_id":"0.0-8.0-1.1","subject":"usvwz4ysnyw55eu","sona":"9031"},{"trial_type":"turing-test","trial_index":13,"time_elapsed":41816,"internal_node_id":"0.0-8.0-2.1","subject":"usvwz4ysnyw55eu","sona":"9031"},{"rt":930.7149999949615,"stimulus":"<p>Welche Sequenz haben Sie als natürlicher empfunden?</p>","key_press":74,"test_part":"response","test_stimulus":{"position":0,"left":"bvh/return-bottle-hold-training3-lines.txt","right":"bvh/vr_prediction_models/model(tmp)-dataset(return-bottle-hold)-numprim(3)-hold(3)/final-lines.txt","att_check":false},"trial_type":"html-keyboard-response","trial_index":14,"time_elapsed":42750,"internal_node_id":"0.0-8.0-3.1","subject":"usvwz4ysnyw55eu","sona":"9031"},{"rt":567.6049999892712,"stimulus":"<p>Bereit?</p>","key_press":32,"trial_type":"html-keyboard-response","trial_index":15,"time_elapsed":43321,"internal_node_id":"0.0-8.0-0.2","subject":"usvwz4ysnyw55eu","sona":"9031"},{"rt":null,"stimulus":"<div style=\"font-size:60px;\">+</div>","key_press":null,"trial_type":"html-keyboard-response","trial_index":16,"time_elapsed":45347,"internal_node_id":"0.0-8.0-1.2","subject":"usvwz4ysnyw55eu","sona":"9031"},{"trial_type":"turing-test","trial_index":17,"time_elapsed":49388,"internal_node_id":"0.0-8.0-2.2","subject":"usvwz4ysnyw55eu","sona":"9031"},{"rt":49.445000011473894,"stimulus":"<p>Welche Sequenz haben Sie als natürlicher empfunden?</p>","key_press":70,"test_part":"response","test_stimulus":{"position":0,"left":"bvh/pass-bottle-hold-training4-lines.txt","right":"bvh/vr_prediction_models/model(vcgpdm)-dataset(pass-bottle-hold)-mode(ELBO)-parts(3)-dyn(20)-lvm(35)-hold(4)/final-lines.txt","att_check":false},"trial_type":"html-keyboard-response","trial_index":18,"time_elapsed":49441,"internal_node_id":"0.0-8.0-3.2","subject":"usvwz4ysnyw55eu","sona":"9031"},{"rt":549.3149999820162,"stimulus":"<p>Bereit?</p>","key_press":32,"trial_type":"html-keyboard-response","trial_index":19,"time_elapsed":49994,"internal_node_id":"0.0-8.0-0.3","subject":"usvwz4ysnyw55eu","sona":"9031"},{"rt":null,"stimulus":"<div style=\"font-size:60px;\">+</div>","key_press":null,"trial_type":"html-keyboard-response","trial_index":20,"time_elapsed":52013,"internal_node_id":"0.0-8.0-1.3","subject":"usvwz4ysnyw55eu","sona":"9031"},{"trial_type":"turing-test","trial_index":21,"time_elapsed":58491,"internal_node_id":"0.0-8.0-2.3","subject":"usvwz4ysnyw55eu","sona":"9031"},{"rt":423.6350000137463,"stimulus":"<p>Welche Sequenz haben Sie als natürlicher empfunden?</p>","key_press":74,"test_part":"response","test_stimulus":{"position":1,"left":"bvh/vr_prediction_models/model(vcgpdm)-dataset(return-bottle)-mode(ELBO)-parts(1)-dyn(30)-lvm(35)-hold(1)/final-lines.txt","right":"bvh/return-bottle-training1-lines.txt","att_check":false},"trial_type":"html-keyboard-response","trial_index":22,"time_elapsed":58918,"internal_node_id":"0.0-8.0-3.3","subject":"usvwz4ysnyw55eu","sona":"9031"},{"rt":468.7649999978021,"stimulus":"<p>Bereit?</p>","key_press":32,"trial_type":"html-keyboard-response","trial_index":23,"time_elapsed":59389,"internal_node_id":"0.0-8.0-0.4","subject":"usvwz4ysnyw55eu","sona":"9031"},{"rt":null,"stimulus":"<div style=\"font-size:60px;\">+</div>","key_press":null,"trial_type":"html-keyboard-response","trial_index":24,"time_elapsed":61397,"internal_node_id":"0.0-8.0-1.4","subject":"usvwz4ysnyw55eu","sona":"9031"},{"trial_type":"turing-test","trial_index":25,"time_elapsed":67700,"internal_node_id":"0.0-8.0-2.4","subject":"usvwz4ysnyw55eu","sona":"9031"},{"rt":593.6499999952503,"stimulus":"<p>Welche Sequenz haben Sie als natürlicher empfunden?</p>","key_press":74,"test_part":"response","test_stimulus":{"position":0,"left":"bvh/return-bottle-training1-lines.txt","right":"bvh/vr_prediction_models/model(vcgpdm)-dataset(return-bottle)-mode(ELBO)-parts(3)-dyn(25)-lvm(25)-hold(1)/final-lines.txt","att_check":false},"trial_type":"html-keyboard-response","trial_index":26,"time_elapsed":68297,"internal_node_id":"0.0-8.0-3.4","subject":"usvwz4ysnyw55eu","sona":"9031"},{"rt":353.7450000003446,"stimulus":"<p>Bereit?</p>","key_press":32,"trial_type":"html-keyboard-response","trial_index":27,"time_elapsed":68653,"internal_node_id":"0.0-8.0-0.5","subject":"usvwz4ysnyw55eu","sona":"9031"},{"rt":null,"stimulus":"<div style=\"font-size:60px;\">+</div>","key_press":null,"trial_type":"html-keyboard-response","trial_index":28,"time_elapsed":70663,"internal_node_id":"0.0-8.0-1.5","subject":"usvwz4ysnyw55eu","sona":"9031"},{"trial_type":"turing-test","trial_index":29,"time_elapsed":74251,"internal_node_id":"0.0-8.0-2.5","subject":"usvwz4ysnyw55eu","sona":"9031"},{"rt":1055.8149999997113,"stimulus":"<p>Welche Sequenz haben Sie als natürlicher empfunden?</p>","key_press":74,"test_part":"response","test_stimulus":{"position":0,"left":"bvh/pass-bottle-hold-training0-lines.txt","right":"bvh/vr_prediction_models/model(vcgpdm)-dataset(pass-bottle-hold)-mode(ELBO)-parts(1)-dyn(5)-lvm(5)-hold(0)/final-lines.txt","att_check":false},"trial_type":"html-keyboard-response","trial_index":30,"time_elapsed":75309,"internal_node_id":"0.0-8.0-3.5","subject":"usvwz4ysnyw55eu","sona":"9031"},{"rt":347.1150000113994,"stimulus":"<p>Bereit?</p>","key_press":32,"trial_type":"html-keyboard-response","trial_index":31,"time_elapsed":75659,"internal_node_id":"0.0-8.0-0.6","subject":"usvwz4ysnyw55eu","sona":"9031"},{"rt":null,"stimulus":"<div style=\"font-size:60px;\">+</div>","key_press":null,"trial_type":"html-keyboard-response","trial_index":32,"time_elapsed":77679,"internal_node_id":"0.0-8.0-1.6","subject":"usvwz4ysnyw55eu","sona":"9031"},{"trial_type":"turing-test","trial_index":33,"time_elapsed":81299,"internal_node_id":"0.0-8.0-2.6","subject":"usvwz4ysnyw55eu","sona":"9031"},{"rt":557.9499999876134,"stimulus":"<p>Welche Sequenz haben Sie als natürlicher empfunden?</p>","key_press":74,"test_part":"response","test_stimulus":{"position":1,"left":"bvh/vr_prediction_models/model(vcgpdm)-dataset(return-bottle-hold)-mode(ELBO)-parts(3)-dyn(35)-lvm(20)-hold(1)/final-lines.txt","right":"bvh/return-bottle-hold-training1-lines.txt","att_check":false},"trial_type":"html-keyboard-response","trial_index":34,"time_elapsed":81861,"internal_node_id":"0.0-8.0-3.6","subject":"usvwz4ysnyw55eu","sona":"9031"},{"rt":497.52500001341105,"stimulus":"<p>Bereit?</p>","key_press":32,"trial_type":"html-keyboard-response","trial_index":35,"time_elapsed":82361,"internal_node_id":"0.0-8.0-0.7","subject":"usvwz4ysnyw55eu","sona":"9031"},{"rt":null,"stimulus":"<div style=\"font-size:60px;\">+</div>","key_press":null,"trial_type":"html-keyboard-response","trial_index":36,"time_elapsed":84394,"internal_node_id":"0.0-8.0-1.7","subject":"usvwz4ysnyw55eu","sona":"9031"},{"trial_type":"turing-test","trial_index":37,"time_elapsed":90936,"internal_node_id":"0.0-8.0-2.7","subject":"usvwz4ysnyw55eu","sona":"9031"},{"rt":592.9349999933038,"stimulus":"<p>Welche Sequenz haben Sie als natürlicher empfunden?</p>","key_press":74,"test_part":"response","test_stimulus":{"position":0,"left":"bvh/return-bottle-hold-training0-lines.txt","right":"bvh/vr_prediction_models/model(dmp)-dataset(return-bottle-hold)-npsi(10)-hold(0)/final-lines.txt","att_check":false},"trial_type":"html-keyboard-response","trial_index":38,"time_elapsed":91532,"internal_node_id":"0.0-8.0-3.7","subject":"usvwz4ysnyw55eu","sona":"9031"},{"rt":403.0800000182353,"stimulus":"<p>Bereit?</p>","key_press":32,"trial_type":"html-keyboard-response","trial_index":39,"time_elapsed":91938,"internal_node_id":"0.0-8.0-0.8","subject":"usvwz4ysnyw55eu","sona":"9031"},{"rt":null,"stimulus":"<div style=\"font-size:60px;\">+</div>","key_press":null,"trial_type":"html-keyboard-response","trial_index":40,"time_elapsed":93960,"internal_node_id":"0.0-8.0-1.8","subject":"usvwz4ysnyw55eu","sona":"9031"},{"trial_type":"turing-test","trial_index":41,"time_elapsed":100327,"internal_node_id":"0.0-8.0-2.8","subject":"usvwz4ysnyw55eu","sona":"9031"},{"rt":342.2100000025239,"stimulus":"<p>Welche Sequenz haben Sie als natürlicher empfunden?</p>","key_press":70,"test_part":"response","test_stimulus":{"position":1,"left":"bvh/vr_prediction_models/model(vcgpdm)-dataset(return-bottle)-mode(ELBO)-parts(3)-dyn(10)-lvm(10)-hold(1)/final-lines.txt","right":"bvh/return-bottle-training1-lines.txt","att_check":false},"trial_type":"html-keyboard-response","trial_index":42,"time_elapsed":100673,"internal_node_id":"0.0-8.0-3.8","subject":"usvwz4ysnyw55eu","sona":"9031"},{"rt":493.1450000149198,"stimulus":"<p>Bereit?</p>","key_press":32,"trial_type":"html-keyboard-response","trial_index":43,"time_elapsed":101169,"internal_node_id":"0.0-8.0-0.9","subject":"usvwz4ysnyw55eu","sona":"9031"},{"rt":null,"stimulus":"<div style=\"font-size:60px;\">+</div>","key_press":null,"trial_type":"html-keyboard-response","trial_index":44,"time_elapsed":103178,"internal_node_id":"0.0-8.0-1.9","subject":"usvwz4ysnyw55eu","sona":"9031"},{"trial_type":"turing-test","trial_index":45,"time_elapsed":106563,"internal_node_id":"0.0-8.0-2.9","subject":"usvwz4ysnyw55eu","sona":"9031"},{"rt":575.8149999892339,"stimulus":"<p>Welche Sequenz haben Sie als natürlicher empfunden?</p>","key_press":70,"test_part":"response","test_stimulus":{"position":1,"left":"bvh/vr_prediction_models/model(tmp)-dataset(return-bottle-hold)-numprim(11)-hold(1)/final-lines.txt","right":"bvh/return-bottle-hold-training1-lines.txt","att_check":false},"trial_type":"html-keyboard-response","trial_index":46,"time_elapsed":107142,"internal_node_id":"0.0-8.0-3.9","subject":"usvwz4ysnyw55eu","sona":"9031"},{"rt":565.3649999876507,"stimulus":"<p>Bereit?</p>","key_press":32,"trial_type":"html-keyboard-response","trial_index":47,"time_elapsed":107710,"internal_node_id":"0.0-8.0-0.10","subject":"usvwz4ysnyw55eu","sona":"9031"},{"rt":null,"stimulus":"<div style=\"font-size:60px;\">+</div>","key_press":null,"trial_type":"html-keyboard-response","trial_index":48,"time_elapsed":109727,"internal_node_id":"0.0-8.0-1.10","subject":"usvwz4ysnyw55eu","sona":"9031"},{"trial_type":"turing-test","trial_index":49,"time_elapsed":116284,"internal_node_id":"0.0-8.0-2.10","subject":"usvwz4ysnyw55eu","sona":"9031"},{"rt":412.2700000007171,"stimulus":"<p>Welche Sequenz haben Sie als natürlicher empfunden?</p>","key_press":70,"test_part":"response","test_stimulus":{"position":1,"left":"bvh/vr_prediction_models/model(dmp)-dataset(pass-bottle)-npsi(70)-hold(2)/final-lines.txt","right":"bvh/pass-bottle-training2-lines.txt","att_check":false},"trial_type":"html-keyboard-response","trial_index":50,"time_elapsed":116699,"internal_node_id":"0.0-8.0-3.10","subject":"usvwz4ysnyw55eu","sona":"9031"},{"rt":518.0950000067241,"stimulus":"<p>Bereit?</p>","key_press":32,"trial_type":"html-keyboard-response","trial_index":51,"time_elapsed":117220,"internal_node_id":"0.0-8.0-0.11","subject":"usvwz4ysnyw55eu","sona":"9031"},{"rt":null,"stimulus":"<div style=\"font-size:60px;\">+</div>","key_press":null,"trial_type":"html-keyboard-response","trial_index":52,"time_elapsed":119242,"internal_node_id":"0.0-8.0-1.11","subject":"usvwz4ysnyw55eu","sona":"9031"},{"trial_type":"turing-test","trial_index":53,"time_elapsed":124801,"internal_node_id":"0.0-8.0-2.11","subject":"usvwz4ysnyw55eu","sona":"9031"},{"rt":795.2099999820348,"stimulus":"<p>Welche Sequenz haben Sie als natürlicher empfunden?</p>","key_press":74,"test_part":"response","test_stimulus":{"position":0,"left":"bvh/return-bottle-training0-lines.txt","right":"bvh/vr_prediction_models/model(dmp)-dataset(return-bottle)-npsi(70)-hold(0)/final-lines.txt","att_check":false},"trial_type":"html-keyboard-response","trial_index":54,"time_elapsed":125605,"internal_node_id":"0.0-8.0-3.11","subject":"usvwz4ysnyw55eu","sona":"9031"},{"rt":435.8699999866076,"stimulus":"<p>Bereit?</p>","key_press":32,"trial_type":"html-keyboard-response","trial_index":55,"time_elapsed":126044,"internal_node_id":"0.0-8.0-0.12","subject":"usvwz4ysnyw55eu","sona":"9031"},{"rt":null,"stimulus":"<div style=\"font-size:60px;\">+</div>","key_press":null,"trial_type":"html-keyboard-response","trial_index":56,"time_elapsed":128075,"internal_node_id":"0.0-8.0-1.12","subject":"usvwz4ysnyw55eu","sona":"9031"},{"trial_type":"turing-test","trial_index":57,"time_elapsed":134002,"internal_node_id":"0.0-8.0-2.12","subject":"usvwz4ysnyw55eu","sona":"9031"},{"rt":271.1450000060722,"stimulus":"<p>Welche Sequenz haben Sie als natürlicher empfunden?</p>","key_press":74,"test_part":"response","test_stimulus":{"position":0,"left":"bvh/pass-bottle-training4-lines.txt","right":"bvh/vr_prediction_models/model(dmp)-dataset(pass-bottle)-npsi(100)-hold(4)/final-lines.txt","att_check":true},"trial_type":"html-keyboard-response","trial_index":58,"time_elapsed":134276,"internal_node_id":"0.0-8.0-3.12","subject":"usvwz4ysnyw55eu","sona":"9031"},{"rt":346.46499998052604,"stimulus":"<p>Bereit?</p>","key_press":32,"trial_type":"html-keyboard-response","trial_index":59,"time_elapsed":134626,"internal_node_id":"0.0-8.0-0.13","subject":"usvwz4ysnyw55eu","sona":"9031"},{"rt":null,"stimulus":"<div style=\"font-size:60px;\">+</div>","key_press":null,"trial_type":"html-keyboard-response","trial_index":60,"time_elapsed":136658,"internal_node_id":"0.0-8.0-1.13","subject":"usvwz4ysnyw55eu","sona":"9031"},{"trial_type":"turing-test","trial_index":61,"time_elapsed":140535,"internal_node_id":"0.0-8.0-2.13","subject":"usvwz4ysnyw55eu","sona":"9031"},{"rt":544.9449999723583,"stimulus":"<p>Welche Sequenz haben Sie als natürlicher empfunden?</p>","key_press":70,"test_part":"response","test_stimulus":{"position":1,"left":"bvh/vr_prediction_models/model(tmp)-dataset(pass-bottle-hold)-numprim(15)-hold(1)/final-lines.txt","right":"bvh/pass-bottle-hold-training1-lines.txt","att_check":false},"trial_type":"html-keyboard-response","trial_index":62,"time_elapsed":141083,"internal_node_id":"0.0-8.0-3.13","subject":"usvwz4ysnyw55eu","sona":"9031"},{"rt":301.12499999813735,"stimulus":"<p>Bereit?</p>","key_press":32,"trial_type":"html-keyboard-response","trial_index":63,"time_elapsed":141387,"internal_node_id":"0.0-8.0-0.14","subject":"usvwz4ysnyw55eu","sona":"9031"},{"rt":null,"stimulus":"<div style=\"font-size:60px;\">+</div>","key_press":null,"trial_type":"html-keyboard-response","trial_index":64,"time_elapsed":143407,"internal_node_id":"0.0-8.0-1.14","subject":"usvwz4ysnyw55eu","sona":"9031"},{"trial_type":"turing-test","trial_index":65,"time_elapsed":148108,"internal_node_id":"0.0-8.0-2.14","subject":"usvwz4ysnyw55eu","sona":"9031"},{"rt":954.1350000072271,"stimulus":"<p>Welche Sequenz haben Sie als natürlicher empfunden?</p>","key_press":74,"test_part":"response","test_stimulus":{"position":0,"left":"bvh/return-bottle-hold-training3-lines.txt","right":"bvh/vr_prediction_models/model(vcgpdm)-dataset(return-bottle-hold)-mode(ELBO)-parts(1)-dyn(10)-lvm(5)-hold(3)/final-lines.txt","att_check":false},"trial_type":"html-keyboard-response","trial_index":66,"time_elapsed":149066,"internal_node_id":"0.0-8.0-3.14","subject":"usvwz4ysnyw55eu","sona":"9031"},{"rt":885.5049999838229,"stimulus":"<p>Bereit?</p>","key_press":32,"trial_type":"html-keyboard-response","trial_index":67,"time_elapsed":149955,"internal_node_id":"0.0-8.0-0.15","subject":"usvwz4ysnyw55eu","sona":"9031"},{"rt":null,"stimulus":"<div style=\"font-size:60px;\">+</div>","key_press":null,"trial_type":"html-keyboard-response","trial_index":68,"time_elapsed":151973,"internal_node_id":"0.0-8.0-1.15","subject":"usvwz4ysnyw55eu","sona":"9031"},{"trial_type":"turing-test","trial_index":69,"time_elapsed":155399,"internal_node_id":"0.0-8.0-2.15","subject":"usvwz4ysnyw55eu","sona":"9031"},{"rt":478.57499998644926,"stimulus":"<p>Welche Sequenz haben Sie als natürlicher empfunden?</p>","key_press":70,"test_part":"response","test_stimulus":{"position":0,"left":"bvh/pass-bottle-hold-training1-lines.txt","right":"bvh/vr_prediction_models/model(dmp)-dataset(pass-bottle-hold)-npsi(20)-hold(1)/final-lines.txt","att_check":false},"trial_type":"html-keyboard-response","trial_index":70,"time_elapsed":155882,"internal_node_id":"0.0-8.0-3.15","subject":"usvwz4ysnyw55eu","sona":"9031"},{"rt":472.11000000243075,"stimulus":"<p>Bereit?</p>","key_press":32,"trial_type":"html-keyboard-response","trial_index":71,"time_elapsed":156357,"internal_node_id":"0.0-8.0-0.16","subject":"usvwz4ysnyw55eu","sona":"9031"},{"rt":null,"stimulus":"<div style=\"font-size:60px;\">+</div>","key_press":null,"trial_type":"html-keyboard-response","trial_index":72,"time_elapsed":158374,"internal_node_id":"0.0-8.0-1.16","subject":"usvwz4ysnyw55eu","sona":"9031"},{"trial_type":"turing-test","trial_index":73,"time_elapsed":164402,"internal_node_id":"0.0-8.0-2.16","subject":"usvwz4ysnyw55eu","sona":"9031"},{"rt":331.1049999902025,"stimulus":"<p>Welche Sequenz haben Sie als natürlicher empfunden?</p>","key_press":74,"test_part":"response","test_stimulus":{"position":1,"left":"bvh/vr_prediction_models/model(tmp)-dataset(return-bottle)-numprim(10)-hold(0)/final-lines.txt","right":"bvh/return-bottle-training0-lines.txt","att_check":false},"trial_type":"html-keyboard-response","trial_index":74,"time_elapsed":164737,"internal_node_id":"0.0-8.0-3.16","subject":"usvwz4ysnyw55eu","sona":"9031"},{"rt":4323.614999972051,"stimulus":"<p>Bereit?</p>","key_press":32,"trial_type":"html-keyboard-response","trial_index":75,"time_elapsed":169064,"internal_node_id":"0.0-8.0-0.17","subject":"usvwz4ysnyw55eu","sona":"9031"},{"rt":null,"stimulus":"<div style=\"font-size:60px;\">+</div>","key_press":null,"trial_type":"html-keyboard-response","trial_index":76,"time_elapsed":171090,"internal_node_id":"0.0-8.0-1.17","subject":"usvwz4ysnyw55eu","sona":"9031"},{"trial_type":"turing-test","trial_index":77,"time_elapsed":174835,"internal_node_id":"0.0-8.0-2.17","subject":"usvwz4ysnyw55eu","sona":"9031"},{"rt":1571.750000002794,"stimulus":"<p>Welche Sequenz haben Sie als natürlicher empfunden?</p>","key_press":74,"test_part":"response","test_stimulus":{"position":1,"left":"bvh/vr_prediction_models/model(dmp)-dataset(pass-bottle-hold)-npsi(50)-hold(4)/final-lines.txt","right":"bvh/pass-bottle-hold-training4-lines.txt","att_check":false},"trial_type":"html-keyboard-response","trial_index":78,"time_elapsed":176413,"internal_node_id":"0.0-8.0-3.17","subject":"usvwz4ysnyw55eu","sona":"9031"},{"rt":3982.3649999743793,"stimulus":"<p>Bereit?</p>","key_press":32,"trial_type":"html-keyboard-response","trial_index":79,"time_elapsed":180392,"internal_node_id":"0.0-8.0-0.18","subject":"usvwz4ysnyw55eu","sona":"9031"},{"rt":null,"stimulus":"<div style=\"font-size:60px;\">+</div>","key_press":null,"trial_type":"html-keyboard-response","trial_index":80,"time_elapsed":182413,"internal_node_id":"0.0-8.0-1.18","subject":"usvwz4ysnyw55eu","sona":"9031"},{"trial_type":"turing-test","trial_index":81,"time_elapsed":189353,"internal_node_id":"0.0-8.0-2.18","subject":"usvwz4ysnyw55eu","sona":"9031"},{"rt":429.3750000069849,"stimulus":"<p>Welche Sequenz haben Sie als natürlicher empfunden?</p>","key_press":74,"test_part":"response","test_stimulus":{"position":0,"left":"bvh/pass-bottle-training0-lines.txt","right":"bvh/vr_prediction_models/model(dmp)-dataset(pass-bottle)-npsi(30)-hold(0)/final-lines.txt","att_check":false},"trial_type":"html-keyboard-response","trial_index":82,"time_elapsed":189787,"internal_node_id":"0.0-8.0-3.18","subject":"usvwz4ysnyw55eu","sona":"9031"},{"rt":399.11500000744127,"stimulus":"<p>Bereit?</p>","key_press":32,"trial_type":"html-keyboard-response","trial_index":83,"time_elapsed":190189,"internal_node_id":"0.0-8.0-0.19","subject":"usvwz4ysnyw55eu","sona":"9031"},{"rt":null,"stimulus":"<div style=\"font-size:60px;\">+</div>","key_press":null,"trial_type":"html-keyboard-response","trial_index":84,"time_elapsed":192213,"internal_node_id":"0.0-8.0-1.19","subject":"usvwz4ysnyw55eu","sona":"9031"},{"trial_type":"turing-test","trial_index":85,"time_elapsed":198304,"internal_node_id":"0.0-8.0-2.19","subject":"usvwz4ysnyw55eu","sona":"9031"},{"rt":514.4999999902211,"stimulus":"<p>Welche Sequenz haben Sie als natürlicher empfunden?</p>","key_press":70,"test_part":"response","test_stimulus":{"position":0,"left":"bvh/return-bottle-hold-training3-lines.txt","right":"bvh/vr_prediction_models/model(vcgpdm)-dataset(return-bottle-hold)-mode(ELBO)-parts(3)-dyn(20)-lvm(15)-hold(3)/final-lines.txt","att_check":false},"trial_type":"html-keyboard-response","trial_index":86,"time_elapsed":198823,"internal_node_id":"0.0-8.0-3.19","subject":"usvwz4ysnyw55eu","sona":"9031"},{"rt":445.8900000026915,"stimulus":"<p>Bereit?</p>","key_press":32,"trial_type":"html-keyboard-response","trial_index":87,"time_elapsed":199273,"internal_node_id":"0.0-8.0-0.20","subject":"usvwz4ysnyw55eu","sona":"9031"},{"rt":null,"stimulus":"<div style=\"font-size:60px;\">+</div>","key_press":null,"trial_type":"html-keyboard-response","trial_index":88,"time_elapsed":201296,"internal_node_id":"0.0-8.0-1.20","subject":"usvwz4ysnyw55eu","sona":"9031"},{"trial_type":"turing-test","trial_index":89,"time_elapsed":204959,"internal_node_id":"0.0-8.0-2.20","subject":"usvwz4ysnyw55eu","sona":"9031"},{"rt":403.90999999362975,"stimulus":"<p>Welche Sequenz haben Sie als natürlicher empfunden?</p>","key_press":74,"test_part":"response","test_stimulus":{"position":1,"left":"bvh/vr_prediction_models/model(tmp)-dataset(pass-bottle-hold)-numprim(15)-hold(3)/final-lines.txt","right":"bvh/pass-bottle-hold-training3-lines.txt","att_check":false},"trial_type":"html-keyboard-response","trial_index":90,"time_elapsed":205367,"internal_node_id":"0.0-8.0-3.20","subject":"usvwz4ysnyw55eu","sona":"9031"},{"rt":588.9250000182074,"stimulus":"<p>Bereit?</p>","key_press":32,"trial_type":"html-keyboard-response","trial_index":91,"time_elapsed":205960,"internal_node_id":"0.0-8.0-0.21","subject":"usvwz4ysnyw55eu","sona":"9031"},{"rt":null,"stimulus":"<div style=\"font-size:60px;\">+</div>","key_press":null,"trial_type":"html-keyboard-response","trial_index":92,"time_elapsed":207978,"internal_node_id":"0.0-8.0-1.21","subject":"usvwz4ysnyw55eu","sona":"9031"},{"trial_type":"turing-test","trial_index":93,"time_elapsed":213795,"internal_node_id":"0.0-8.0-2.21","subject":"usvwz4ysnyw55eu","sona":"9031"},{"rt":915.4149999958463,"stimulus":"<p>Welche Sequenz haben Sie als natürlicher empfunden?</p>","key_press":70,"test_part":"response","test_stimulus":{"position":1,"left":"bvh/vr_prediction_models/model(vcgpdm)-dataset(return-bottle-hold)-mode(ELBO)-parts(1)-dyn(35)-lvm(10)-hold(2)/final-lines.txt","right":"bvh/return-bottle-hold-training2-lines.txt","att_check":false},"trial_type":"html-keyboard-response","trial_index":94,"time_elapsed":214716,"internal_node_id":"0.0-8.0-3.21","subject":"usvwz4ysnyw55eu","sona":"9031"},{"rt":390.58499998645857,"stimulus":"<p>Bereit?</p>","key_press":32,"trial_type":"html-keyboard-response","trial_index":95,"time_elapsed":215111,"internal_node_id":"0.0-8.0-0.22","subject":"usvwz4ysnyw55eu","sona":"9031"},{"rt":null,"stimulus":"<div style=\"font-size:60px;\">+</div>","key_press":null,"trial_type":"html-keyboard-response","trial_index":96,"time_elapsed":217128,"internal_node_id":"0.0-8.0-1.22","subject":"usvwz4ysnyw55eu","sona":"9031"},{"trial_type":"turing-test","trial_index":97,"time_elapsed":221388,"internal_node_id":"0.0-8.0-2.22","subject":"usvwz4ysnyw55eu","sona":"9031"},{"rt":712.3000000137836,"stimulus":"<p>Welche Sequenz haben Sie als natürlicher empfunden?</p>","key_press":74,"test_part":"response","test_stimulus":{"position":1,"left":"bvh/vr_prediction_models/model(vcgpdm)-dataset(pass-bottle-hold)-mode(ELBO)-parts(1)-dyn(20)-lvm(30)-hold(2)/final-lines.txt","right":"bvh/pass-bottle-hold-training2-lines.txt","att_check":false},"trial_type":"html-keyboard-response","trial_index":98,"time_elapsed":222104,"internal_node_id":"0.0-8.0-3.22","subject":"usvwz4ysnyw55eu","sona":"9031"},{"rt":284.8600000143051,"stimulus":"<p>Bereit?</p>","key_press":32,"trial_type":"html-keyboard-response","trial_index":99,"time_elapsed":222393,"internal_node_id":"0.0-8.0-0.23","subject":"usvwz4ysnyw55eu","sona":"9031"},{"rt":null,"stimulus":"<div style=\"font-size:60px;\">+</div>","key_press":null,"trial_type":"html-keyboard-response","trial_index":100,"time_elapsed":224411,"internal_node_id":"0.0-8.0-1.23","subject":"usvwz4ysnyw55eu","sona":"9031"},{"trial_type":"turing-test","trial_index":101,"time_elapsed":227935,"internal_node_id":"0.0-8.0-2.23","subject":"usvwz4ysnyw55eu","sona":"9031"},{"rt":552.9899999964982,"stimulus":"<p>Welche Sequenz haben Sie als natürlicher empfunden?</p>","key_press":74,"test_part":"response","test_stimulus":{"position":1,"left":"bvh/vr_prediction_models/model(tmp)-dataset(pass-bottle-hold)-numprim(4)-hold(2)/final-lines.txt","right":"bvh/pass-bottle-hold-training2-lines.txt","att_check":false},"trial_type":"html-keyboard-response","trial_index":102,"time_elapsed":228493,"internal_node_id":"0.0-8.0-3.23","subject":"usvwz4ysnyw55eu","sona":"9031"},{"rt":302.0750000141561,"stimulus":"<p>Bereit?</p>","key_press":32,"trial_type":"html-keyboard-response","trial_index":103,"time_elapsed":228798,"internal_node_id":"0.0-8.0-0.24","subject":"usvwz4ysnyw55eu","sona":"9031"},{"rt":null,"stimulus":"<div style=\"font-size:60px;\">+</div>","key_press":null,"trial_type":"html-keyboard-response","trial_index":104,"time_elapsed":230827,"internal_node_id":"0.0-8.0-1.24","subject":"usvwz4ysnyw55eu","sona":"9031"},{"trial_type":"turing-test","trial_index":105,"time_elapsed":238226,"internal_node_id":"0.0-8.0-2.24","subject":"usvwz4ysnyw55eu","sona":"9031"},{"rt":1348.1899999896996,"stimulus":"<p>Welche Sequenz haben Sie als natürlicher empfunden?</p>","key_press":70,"test_part":"response","test_stimulus":{"position":0,"left":"bvh/pass-bottle-training3-lines.txt","right":"bvh/vr_prediction_models/model(vcgpdm)-dataset(pass-bottle)-mode(ELBO)-parts(1)-dyn(25)-lvm(35)-hold(3)/final-lines.txt","att_check":false},"trial_type":"html-keyboard-response","trial_index":106,"time_elapsed":239579,"internal_node_id":"0.0-8.0-3.24","subject":"usvwz4ysnyw55eu","sona":"9031"},{"rt":2903.725000011036,"stimulus":"<p>Bereit?</p>","key_press":32,"trial_type":"html-keyboard-response","trial_index":107,"time_elapsed":242492,"internal_node_id":"0.0-8.0-0.25","subject":"usvwz4ysnyw55eu","sona":"9031"},{"rt":null,"stimulus":"<div style=\"font-size:60px;\">+</div>","key_press":null,"trial_type":"html-keyboard-response","trial_index":108,"time_elapsed":244515,"internal_node_id":"0.0-8.0-1.25","subject":"usvwz4ysnyw55eu","sona":"9031"},{"trial_type":"turing-test","trial_index":109,"time_elapsed":252099,"internal_node_id":"0.0-8.0-2.25","subject":"usvwz4ysnyw55eu","sona":"9031"},{"rt":478.7249999935739,"stimulus":"<p>Welche Sequenz haben Sie als natürlicher empfunden?</p>","key_press":74,"test_part":"response","test_stimulus":{"position":0,"left":"bvh/return-bottle-training4-lines.txt","right":"bvh/vr_prediction_models/model(dmp)-dataset(return-bottle)-npsi(40)-hold(4)/final-lines.txt","att_check":false},"trial_type":"html-keyboard-response","trial_index":110,"time_elapsed":252581,"internal_node_id":"0.0-8.0-3.25","subject":"usvwz4ysnyw55eu","sona":"9031"},{"rt":327.9900000197813,"stimulus":"<p>Bereit?</p>","key_press":32,"trial_type":"html-keyboard-response","trial_index":111,"time_elapsed":252913,"internal_node_id":"0.0-8.0-0.26","subject":"usvwz4ysnyw55eu","sona":"9031"},{"rt":null,"stimulus":"<div style=\"font-size:60px;\">+</div>","key_press":null,"trial_type":"html-keyboard-response","trial_index":112,"time_elapsed":254931,"internal_node_id":"0.0-8.0-1.26","subject":"usvwz4ysnyw55eu","sona":"9031"},{"trial_type":"turing-test","trial_index":113,"time_elapsed":259122,"internal_node_id":"0.0-8.0-2.26","subject":"usvwz4ysnyw55eu","sona":"9031"},{"rt":1138.7700000195764,"stimulus":"<p>Welche Sequenz haben Sie als natürlicher empfunden?</p>","key_press":74,"test_part":"response","test_stimulus":{"position":1,"left":"bvh/vr_prediction_models/model(tmp)-dataset(return-bottle-hold)-numprim(7)-hold(4)/final-lines.txt","right":"bvh/return-bottle-hold-training4-lines.txt","att_check":false},"trial_type":"html-keyboard-response","trial_index":114,"time_elapsed":260265,"internal_node_id":"0.0-8.0-3.26","subject":"usvwz4ysnyw55eu","sona":"9031"},{"rt":572.6450000074692,"stimulus":"<p>Bereit?</p>","key_press":32,"trial_type":"html-keyboard-response","trial_index":115,"time_elapsed":260841,"internal_node_id":"0.0-8.0-0.27","subject":"usvwz4ysnyw55eu","sona":"9031"},{"rt":null,"stimulus":"<div style=\"font-size:60px;\">+</div>","key_press":null,"trial_type":"html-keyboard-response","trial_index":116,"time_elapsed":262863,"internal_node_id":"0.0-8.0-1.27","subject":"usvwz4ysnyw55eu","sona":"9031"},{"trial_type":"turing-test","trial_index":117,"time_elapsed":268755,"internal_node_id":"0.0-8.0-2.27","subject":"usvwz4ysnyw55eu","sona":"9031"},{"rt":262.32000000891276,"stimulus":"<p>Welche Sequenz haben Sie als natürlicher empfunden?</p>","key_press":70,"test_part":"response","test_stimulus":{"position":1,"left":"bvh/vr_prediction_models/model(dmp)-dataset(pass-bottle)-npsi(60)-hold(1)/final-lines.txt","right":"bvh/pass-bottle-training1-lines.txt","att_check":false},"trial_type":"html-keyboard-response","trial_index":118,"time_elapsed":269021,"internal_node_id":"0.0-8.0-3.27","subject":"usvwz4ysnyw55eu","sona":"9031"},{"rt":379.52499999664724,"stimulus":"<p>Bereit?</p>","key_press":32,"trial_type":"html-keyboard-response","trial_index":119,"time_elapsed":269408,"internal_node_id":"0.0-8.0-0.28","subject":"usvwz4ysnyw55eu","sona":"9031"},{"rt":null,"stimulus":"<div style=\"font-size:60px;\">+</div>","key_press":null,"trial_type":"html-keyboard-response","trial_index":120,"time_elapsed":271431,"internal_node_id":"0.0-8.0-1.28","subject":"usvwz4ysnyw55eu","sona":"9031"},{"trial_type":"turing-test","trial_index":121,"time_elapsed":277644,"internal_node_id":"0.0-8.0-2.28","subject":"usvwz4ysnyw55eu","sona":"9031"},{"rt":323.4949999896344,"stimulus":"<p>Welche Sequenz haben Sie als natürlicher empfunden?</p>","key_press":70,"test_part":"response","test_stimulus":{"position":0,"left":"bvh/pass-bottle-training2-lines.txt","right":"bvh/vr_prediction_models/model(tmp)-dataset(pass-bottle)-numprim(4)-hold(2)/final-lines.txt","att_check":false},"trial_type":"html-keyboard-response","trial_index":122,"time_elapsed":277974,"internal_node_id":"0.0-8.0-3.28","subject":"usvwz4ysnyw55eu","sona":"9031"},{"rt":285.1999999838881,"stimulus":"<p>Bereit?</p>","key_press":32,"trial_type":"html-keyboard-response","trial_index":123,"time_elapsed":278263,"internal_node_id":"0.0-8.0-0.29","subject":"usvwz4ysnyw55eu","sona":"9031"},{"rt":null,"stimulus":"<div style=\"font-size:60px;\">+</div>","key_press":null,"trial_type":"html-keyboard-response","trial_index":124,"time_elapsed":280297,"internal_node_id":"0.0-8.0-1.29","subject":"usvwz4ysnyw55eu","sona":"9031"},{"trial_type":"turing-test","trial_index":125,"time_elapsed":287627,"internal_node_id":"0.0-8.0-2.29","subject":"usvwz4ysnyw55eu","sona":"9031"},{"rt":417.94499999377877,"stimulus":"<p>Welche Sequenz haben Sie als natürlicher empfunden?</p>","key_press":70,"test_part":"response","test_stimulus":{"position":0,"left":"bvh/pass-bottle-training4-lines.txt","right":"bvh/vr_prediction_models/model(vcgpdm)-dataset(pass-bottle)-mode(ELBO)-parts(3)-dyn(25)-lvm(15)-hold(4)/final-lines.txt","att_check":false},"trial_type":"html-keyboard-response","trial_index":126,"time_elapsed":288050,"internal_node_id":"0.0-8.0-3.29","subject":"usvwz4ysnyw55eu","sona":"9031"},{"rt":196.47500000428408,"stimulus":"<p>Bereit?</p>","key_press":32,"trial_type":"html-keyboard-response","trial_index":127,"time_elapsed":288250,"internal_node_id":"0.0-8.0-0.30","subject":"usvwz4ysnyw55eu","sona":"9031"},{"rt":null,"stimulus":"<div style=\"font-size:60px;\">+</div>","key_press":null,"trial_type":"html-keyboard-response","trial_index":128,"time_elapsed":290279,"internal_node_id":"0.0-8.0-1.30","subject":"usvwz4ysnyw55eu","sona":"9031"},{"trial_type":"turing-test","trial_index":129,"time_elapsed":299114,"internal_node_id":"0.0-8.0-2.30","subject":"usvwz4ysnyw55eu","sona":"9031"},{"rt":398.2350000005681,"stimulus":"<p>Welche Sequenz haben Sie als natürlicher empfunden?</p>","key_press":70,"test_part":"response","test_stimulus":{"position":0,"left":"bvh/return-bottle-training2-lines.txt","right":"bvh/vr_prediction_models/model(vcgpdm)-dataset(return-bottle)-mode(ELBO)-parts(3)-dyn(20)-lvm(35)-hold(2)/final-lines.txt","att_check":false},"trial_type":"html-keyboard-response","trial_index":130,"time_elapsed":299516,"internal_node_id":"0.0-8.0-3.30","subject":"usvwz4ysnyw55eu","sona":"9031"},{"rt":314.76500001735985,"stimulus":"<p>Bereit?</p>","key_press":32,"trial_type":"html-keyboard-response","trial_index":131,"time_elapsed":299835,"internal_node_id":"0.0-8.0-0.31","subject":"usvwz4ysnyw55eu","sona":"9031"},{"rt":null,"stimulus":"<div style=\"font-size:60px;\">+</div>","key_press":null,"trial_type":"html-keyboard-response","trial_index":132,"time_elapsed":301846,"internal_node_id":"0.0-8.0-1.31","subject":"usvwz4ysnyw55eu","sona":"9031"},{"trial_type":"turing-test","trial_index":133,"time_elapsed":308885,"internal_node_id":"0.0-8.0-2.31","subject":"usvwz4ysnyw55eu","sona":"9031"},{"rt":441.01000000955537,"stimulus":"<p>Welche Sequenz haben Sie als natürlicher empfunden?</p>","key_press":70,"test_part":"response","test_stimulus":{"position":0,"left":"bvh/return-bottle-training4-lines.txt","right":"bvh/vr_prediction_models/model(tmp)-dataset(return-bottle)-numprim(13)-hold(4)/final-lines.txt","att_check":false},"trial_type":"html-keyboard-response","trial_index":134,"time_elapsed":309331,"internal_node_id":"0.0-8.0-3.31","subject":"usvwz4ysnyw55eu","sona":"9031"},{"rt":171.95499999797903,"stimulus":"<p>Bereit?</p>","key_press":32,"trial_type":"html-keyboard-response","trial_index":135,"time_elapsed":309506,"internal_node_id":"0.0-8.0-0.32","subject":"usvwz4ysnyw55eu","sona":"9031"},{"rt":null,"stimulus":"<div style=\"font-size:60px;\">+</div>","key_press":null,"trial_type":"html-keyboard-response","trial_index":136,"time_elapsed":311515,"internal_node_id":"0.0-8.0-1.32","subject":"usvwz4ysnyw55eu","sona":"9031"},{"trial_type":"turing-test","trial_index":137,"time_elapsed":317501,"internal_node_id":"0.0-8.0-2.32","subject":"usvwz4ysnyw55eu","sona":"9031"},{"rt":562.3449999839067,"stimulus":"<p>Welche Sequenz haben Sie als natürlicher empfunden?</p>","key_press":74,"test_part":"response","test_stimulus":{"position":0,"left":"bvh/pass-bottle-training4-lines.txt","right":"bvh/vr_prediction_models/model(tmp)-dataset(pass-bottle)-numprim(9)-hold(4)/final-lines.txt","att_check":false},"trial_type":"html-keyboard-response","trial_index":138,"time_elapsed":318067,"internal_node_id":"0.0-8.0-3.32","subject":"usvwz4ysnyw55eu","sona":"9031"},{"rt":388.8699999952223,"stimulus":"<p>Bereit?</p>","key_press":32,"trial_type":"html-keyboard-response","trial_index":139,"time_elapsed":318462,"internal_node_id":"0.0-8.0-0.33","subject":"usvwz4ysnyw55eu","sona":"9031"},{"rt":null,"stimulus":"<div style=\"font-size:60px;\">+</div>","key_press":null,"trial_type":"html-keyboard-response","trial_index":140,"time_elapsed":320480,"internal_node_id":"0.0-8.0-1.33","subject":"usvwz4ysnyw55eu","sona":"9031"},{"trial_type":"turing-test","trial_index":141,"time_elapsed":324740,"internal_node_id":"0.0-8.0-2.33","subject":"usvwz4ysnyw55eu","sona":"9031"},{"rt":430.34500000067055,"stimulus":"<p>Welche Sequenz haben Sie als natürlicher empfunden?</p>","key_press":70,"test_part":"response","test_stimulus":{"position":0,"left":"bvh/pass-bottle-hold-training4-lines.txt","right":"bvh/vr_prediction_models/model(vcgpdm)-dataset(pass-bottle-hold)-mode(ELBO)-parts(1)-dyn(30)-lvm(20)-hold(4)/final-lines.txt","att_check":false},"trial_type":"html-keyboard-response","trial_index":142,"time_elapsed":325176,"internal_node_id":"0.0-8.0-3.33","subject":"usvwz4ysnyw55eu","sona":"9031"},{"rt":247.4299999885261,"stimulus":"<p>Bereit?</p>","key_press":32,"trial_type":"html-keyboard-response","trial_index":143,"time_elapsed":325427,"internal_node_id":"0.0-8.0-0.34","subject":"usvwz4ysnyw55eu","sona":"9031"},{"rt":null,"stimulus":"<div style=\"font-size:60px;\">+</div>","key_press":null,"trial_type":"html-keyboard-response","trial_index":144,"time_elapsed":327447,"internal_node_id":"0.0-8.0-1.34","subject":"usvwz4ysnyw55eu","sona":"9031"},{"trial_type":"turing-test","trial_index":145,"time_elapsed":333792,"internal_node_id":"0.0-8.0-2.34","subject":"usvwz4ysnyw55eu","sona":"9031"},{"rt":3268.130000011297,"stimulus":"<p>Welche Sequenz haben Sie als natürlicher empfunden?</p>","key_press":70,"test_part":"response","test_stimulus":{"position":0,"left":"bvh/return-bottle-training3-lines.txt","right":"bvh/vr_prediction_models/model(dmp)-dataset(return-bottle)-npsi(70)-hold(3)/final-lines.txt","att_check":false},"trial_type":"html-keyboard-response","trial_index":146,"time_elapsed":337065,"internal_node_id":"0.0-8.0-3.34","subject":"usvwz4ysnyw55eu","sona":"9031"},{"rt":369.43500000052154,"stimulus":"<p>Bereit?</p>","key_press":32,"trial_type":"html-keyboard-response","trial_index":147,"time_elapsed":337440,"internal_node_id":"0.0-8.0-0.35","subject":"usvwz4ysnyw55eu","sona":"9031"},{"rt":null,"stimulus":"<div style=\"font-size:60px;\">+</div>","key_press":null,"trial_type":"html-keyboard-response","trial_index":148,"time_elapsed":339462,"internal_node_id":"0.0-8.0-1.35","subject":"usvwz4ysnyw55eu","sona":"9031"},{"trial_type":"turing-test","trial_index":149,"time_elapsed":345559,"internal_node_id":"0.0-8.0-2.35","subject":"usvwz4ysnyw55eu","sona":"9031"},{"rt":7376.560000004247,"stimulus":"<p>Welche Sequenz haben Sie als natürlicher empfunden?</p>","key_press":74,"test_part":"response","test_stimulus":{"position":1,"left":"bvh/vr_prediction_models/model(vcgpdm)-dataset(pass-bottle)-mode(ELBO)-parts(3)-dyn(10)-lvm(25)-hold(4)/final-lines.txt","right":"bvh/pass-bottle-training4-lines.txt","att_check":false},"trial_type":"html-keyboard-response","trial_index":150,"time_elapsed":352942,"internal_node_id":"0.0-8.0-3.35","subject":"usvwz4ysnyw55eu","sona":"9031"},{"rt":513.9149999886286,"stimulus":"<p>Bereit?</p>","key_press":32,"trial_type":"html-keyboard-response","trial_index":151,"time_elapsed":353461,"internal_node_id":"0.0-8.0-0.36","subject":"usvwz4ysnyw55eu","sona":"9031"},{"rt":null,"stimulus":"<div style=\"font-size:60px;\">+</div>","key_press":null,"trial_type":"html-keyboard-response","trial_index":152,"time_elapsed":355478,"internal_node_id":"0.0-8.0-1.36","subject":"usvwz4ysnyw55eu","sona":"9031"},{"trial_type":"turing-test","trial_index":153,"time_elapsed":362080,"internal_node_id":"0.0-8.0-2.36","subject":"usvwz4ysnyw55eu","sona":"9031"},{"rt":755.5149999971036,"stimulus":"<p>Welche Sequenz haben Sie als natürlicher empfunden?</p>","key_press":70,"test_part":"response","test_stimulus":{"position":0,"left":"bvh/pass-bottle-training3-lines.txt","right":"bvh/vr_prediction_models/model(vcgpdm)-dataset(pass-bottle)-mode(ELBO)-parts(1)-dyn(30)-lvm(20)-hold(3)/final-lines.txt","att_check":false},"trial_type":"html-keyboard-response","trial_index":154,"time_elapsed":362842,"internal_node_id":"0.0-8.0-3.36","subject":"usvwz4ysnyw55eu","sona":"9031"},{"rt":296.01499999989755,"stimulus":"<p>Bereit?</p>","key_press":32,"trial_type":"html-keyboard-response","trial_index":155,"time_elapsed":363142,"internal_node_id":"0.0-8.0-0.37","subject":"usvwz4ysnyw55eu","sona":"9031"},{"rt":null,"stimulus":"<div style=\"font-size:60px;\">+</div>","key_press":null,"trial_type":"html-keyboard-response","trial_index":156,"time_elapsed":365161,"internal_node_id":"0.0-8.0-1.37","subject":"usvwz4ysnyw55eu","sona":"9031"},{"trial_type":"turing-test","trial_index":157,"time_elapsed":371688,"internal_node_id":"0.0-8.0-2.37","subject":"usvwz4ysnyw55eu","sona":"9031"},{"rt":3568.6600000190083,"stimulus":"<p>Welche Sequenz haben Sie als natürlicher empfunden?</p>","key_press":70,"test_part":"response","test_stimulus":{"position":1,"left":"bvh/vr_prediction_models/model(dmp)-dataset(pass-bottle)-npsi(60)-hold(2)/final-lines.txt","right":"bvh/pass-bottle-training2-lines.txt","att_check":false},"trial_type":"html-keyboard-response","trial_index":158,"time_elapsed":375263,"internal_node_id":"0.0-8.0-3.37","subject":"usvwz4ysnyw55eu","sona":"9031"},{"rt":443.5100000118837,"stimulus":"<p>Bereit?</p>","key_press":32,"trial_type":"html-keyboard-response","trial_index":159,"time_elapsed":375711,"internal_node_id":"0.0-8.0-0.38","subject":"usvwz4ysnyw55eu","sona":"9031"},{"rt":null,"stimulus":"<div style=\"font-size:60px;\">+</div>","key_press":null,"trial_type":"html-keyboard-response","trial_index":160,"time_elapsed":377743,"internal_node_id":"0.0-8.0-1.38","subject":"usvwz4ysnyw55eu","sona":"9031"},{"trial_type":"turing-test","trial_index":161,"time_elapsed":383511,"internal_node_id":"0.0-8.0-2.38","subject":"usvwz4ysnyw55eu","sona":"9031"},{"rt":7146.984999999404,"stimulus":"<p>Welche Sequenz haben Sie als natürlicher empfunden?</p>","key_press":70,"test_part":"response","test_stimulus":{"position":0,"left":"bvh/pass-bottle-training1-lines.txt","right":"bvh/vr_prediction_models/model(vcgpdm)-dataset(pass-bottle)-mode(ELBO)-parts(3)-dyn(30)-lvm(15)-hold(1)/final-lines.txt","att_check":false},"trial_type":"html-keyboard-response","trial_index":162,"time_elapsed":390665,"internal_node_id":"0.0-8.0-3.38","subject":"usvwz4ysnyw55eu","sona":"9031"},{"rt":342.4300000187941,"stimulus":"<p>Bereit?</p>","key_press":32,"trial_type":"html-keyboard-response","trial_index":163,"time_elapsed":391014,"internal_node_id":"0.0-8.0-0.39","subject":"usvwz4ysnyw55eu","sona":"9031"},{"rt":null,"stimulus":"<div style=\"font-size:60px;\">+</div>","key_press":null,"trial_type":"html-keyboard-response","trial_index":164,"time_elapsed":393043,"internal_node_id":"0.0-8.0-1.39","subject":"usvwz4ysnyw55eu","sona":"9031"},{"trial_type":"turing-test","trial_index":165,"time_elapsed":400066,"internal_node_id":"0.0-8.0-2.39","subject":"usvwz4ysnyw55eu","sona":"9031"},{"rt":568.169999984093,"stimulus":"<p>Welche Sequenz haben Sie als natürlicher empfunden?</p>","key_press":70,"test_part":"response","test_stimulus":{"position":1,"left":"bvh/vr_prediction_models/model(vcgpdm)-dataset(return-bottle)-mode(ELBO)-parts(1)-dyn(35)-lvm(30)-hold(2)/final-lines.txt","right":"bvh/return-bottle-training2-lines.txt","att_check":false},"trial_type":"html-keyboard-response","trial_index":166,"time_elapsed":400639,"internal_node_id":"0.0-8.0-3.39","subject":"usvwz4ysnyw55eu","sona":"9031"},{"rt":367.08500000531785,"stimulus":"<p>Bereit?</p>","key_press":32,"trial_type":"html-keyboard-response","trial_index":167,"time_elapsed":401010,"internal_node_id":"0.0-8.0-0.40","subject":"usvwz4ysnyw55eu","sona":"9031"},{"rt":null,"stimulus":"<div style=\"font-size:60px;\">+</div>","key_press":null,"trial_type":"html-keyboard-response","trial_index":168,"time_elapsed":403025,"internal_node_id":"0.0-8.0-1.40","subject":"usvwz4ysnyw55eu","sona":"9031"},{"trial_type":"turing-test","trial_index":169,"time_elapsed":406924,"internal_node_id":"0.0-8.0-2.40","subject":"usvwz4ysnyw55eu","sona":"9031"},{"rt":1732.350000005681,"stimulus":"<p>Welche Sequenz haben Sie als natürlicher empfunden?</p>","key_press":70,"test_part":"response","test_stimulus":{"position":1,"left":"bvh/vr_prediction_models/model(vcgpdm)-dataset(pass-bottle-hold)-mode(ELBO)-parts(1)-dyn(20)-lvm(20)-hold(3)/final-lines.txt","right":"bvh/pass-bottle-hold-training3-lines.txt","att_check":false},"trial_type":"html-keyboard-response","trial_index":170,"time_elapsed":408661,"internal_node_id":"0.0-8.0-3.40","subject":"usvwz4ysnyw55eu","sona":"9031"},{"rt":187.16499998117797,"stimulus":"<p>Bereit?</p>","key_press":32,"trial_type":"html-keyboard-response","trial_index":171,"time_elapsed":408853,"internal_node_id":"0.0-8.0-0.41","subject":"usvwz4ysnyw55eu","sona":"9031"},{"rt":null,"stimulus":"<div style=\"font-size:60px;\">+</div>","key_press":null,"trial_type":"html-keyboard-response","trial_index":172,"time_elapsed":410875,"internal_node_id":"0.0-8.0-1.41","subject":"usvwz4ysnyw55eu","sona":"9031"},{"trial_type":"turing-test","trial_index":173,"time_elapsed":414527,"internal_node_id":"0.0-8.0-2.41","subject":"usvwz4ysnyw55eu","sona":"9031"},{"rt":680.8349999773782,"stimulus":"<p>Welche Sequenz haben Sie als natürlicher empfunden?</p>","key_press":70,"test_part":"response","test_stimulus":{"position":0,"left":"bvh/pass-bottle-hold-training2-lines.txt","right":"bvh/vr_prediction_models/model(vcgpdm)-dataset(pass-bottle-hold)-mode(MAP)-parts(3)-hold(2)/final-lines.txt","att_check":false},"trial_type":"html-keyboard-response","trial_index":174,"time_elapsed":415214,"internal_node_id":"0.0-8.0-3.41","subject":"usvwz4ysnyw55eu","sona":"9031"},{"rt":194.70500000170432,"stimulus":"<p>Bereit?</p>","key_press":32,"trial_type":"html-keyboard-response","trial_index":175,"time_elapsed":415413,"internal_node_id":"0.0-8.0-0.42","subject":"usvwz4ysnyw55eu","sona":"9031"},{"rt":null,"stimulus":"<div style=\"font-size:60px;\">+</div>","key_press":null,"trial_type":"html-keyboard-response","trial_index":176,"time_elapsed":417441,"internal_node_id":"0.0-8.0-1.42","subject":"usvwz4ysnyw55eu","sona":"9031"},{"trial_type":"turing-test","trial_index":177,"time_elapsed":421272,"internal_node_id":"0.0-8.0-2.42","subject":"usvwz4ysnyw55eu","sona":"9031"},{"rt":450.74500000919215,"stimulus":"<p>Welche Sequenz haben Sie als natürlicher empfunden?</p>","key_press":70,"test_part":"response","test_stimulus":{"position":1,"left":"bvh/vr_prediction_models/model(dmp)-dataset(return-bottle-hold)-npsi(50)-hold(4)/final-lines.txt","right":"bvh/return-bottle-hold-training4-lines.txt","att_check":false},"trial_type":"html-keyboard-response","trial_index":178,"time_elapsed":421728,"internal_node_id":"0.0-8.0-3.42","subject":"usvwz4ysnyw55eu","sona":"9031"},{"rt":210.02999998745508,"stimulus":"<p>Bereit?</p>","key_press":32,"trial_type":"html-keyboard-response","trial_index":179,"time_elapsed":421942,"internal_node_id":"0.0-8.0-0.43","subject":"usvwz4ysnyw55eu","sona":"9031"},{"rt":null,"stimulus":"<div style=\"font-size:60px;\">+</div>","key_press":null,"trial_type":"html-keyboard-response","trial_index":180,"time_elapsed":423960,"internal_node_id":"0.0-8.0-1.43","subject":"usvwz4ysnyw55eu","sona":"9031"},{"trial_type":"turing-test","trial_index":181,"time_elapsed":427359,"internal_node_id":"0.0-8.0-2.43","subject":"usvwz4ysnyw55eu","sona":"9031"},{"rt":466.97500001755543,"stimulus":"<p>Welche Sequenz haben Sie als natürlicher empfunden?</p>","key_press":70,"test_part":"response","test_stimulus":{"position":1,"left":"bvh/vr_prediction_models/model(dmp)-dataset(return-bottle-hold)-npsi(50)-hold(1)/final-lines.txt","right":"bvh/return-bottle-hold-training1-lines.txt","att_check":false},"trial_type":"html-keyboard-response","trial_index":182,"time_elapsed":427833,"internal_node_id":"0.0-8.0-3.43","subject":"usvwz4ysnyw55eu","sona":"9031"},{"rt":186.64499997976236,"stimulus":"<p>Bereit?</p>","key_press":32,"trial_type":"html-keyboard-response","trial_index":183,"time_elapsed":428024,"internal_node_id":"0.0-8.0-0.44","subject":"usvwz4ysnyw55eu","sona":"9031"},{"rt":null,"stimulus":"<div style=\"font-size:60px;\">+</div>","key_press":null,"trial_type":"html-keyboard-response","trial_index":184,"time_elapsed":430042,"internal_node_id":"0.0-8.0-1.44","subject":"usvwz4ysnyw55eu","sona":"9031"},{"trial_type":"turing-test","trial_index":185,"time_elapsed":435908,"internal_node_id":"0.0-8.0-2.44","subject":"usvwz4ysnyw55eu","sona":"9031"},{"rt":416.90000001108274,"stimulus":"<p>Welche Sequenz haben Sie als natürlicher empfunden?</p>","key_press":74,"test_part":"response","test_stimulus":{"position":0,"left":"bvh/pass-bottle-training3-lines.txt","right":"bvh/vr_prediction_models/model(dmp)-dataset(pass-bottle)-npsi(70)-hold(3)/final-lines.txt","att_check":false},"trial_type":"html-keyboard-response","trial_index":186,"time_elapsed":436331,"internal_node_id":"0.0-8.0-3.44","subject":"usvwz4ysnyw55eu","sona":"9031"},{"rt":382.0350000169128,"stimulus":"<p>Bereit?</p>","key_press":32,"trial_type":"html-keyboard-response","trial_index":187,"time_elapsed":436718,"internal_node_id":"0.0-8.0-0.45","subject":"usvwz4ysnyw55eu","sona":"9031"},{"rt":null,"stimulus":"<div style=\"font-size:60px;\">+</div>","key_press":null,"trial_type":"html-keyboard-response","trial_index":188,"time_elapsed":438741,"internal_node_id":"0.0-8.0-1.45","subject":"usvwz4ysnyw55eu","sona":"9031"},{"trial_type":"turing-test","trial_index":189,"time_elapsed":442454,"internal_node_id":"0.0-8.0-2.45","subject":"usvwz4ysnyw55eu","sona":"9031"},{"rt":2424.445000011474,"stimulus":"<p>Welche Sequenz haben Sie als natürlicher empfunden?</p>","key_press":74,"test_part":"response","test_stimulus":{"position":1,"left":"bvh/vr_prediction_models/model(vcgpdm)-dataset(pass-bottle-hold)-mode(ELBO)-parts(1)-dyn(30)-lvm(30)-hold(2)/final-lines.txt","right":"bvh/pass-bottle-hold-training2-lines.txt","att_check":false},"trial_type":"html-keyboard-response","trial_index":190,"time_elapsed":444884,"internal_node_id":"0.0-8.0-3.45","subject":"usvwz4ysnyw55eu","sona":"9031"},{"rt":356.62999999476597,"stimulus":"<p>Bereit?</p>","key_press":32,"trial_type":"html-keyboard-response","trial_index":191,"time_elapsed":445245,"internal_node_id":"0.0-8.0-0.46","subject":"usvwz4ysnyw55eu","sona":"9031"},{"rt":null,"stimulus":"<div style=\"font-size:60px;\">+</div>","key_press":null,"trial_type":"html-keyboard-response","trial_index":192,"time_elapsed":447273,"internal_node_id":"0.0-8.0-1.46","subject":"usvwz4ysnyw55eu","sona":"9031"},{"trial_type":"turing-test","trial_index":193,"time_elapsed":450859,"internal_node_id":"0.0-8.0-2.46","subject":"usvwz4ysnyw55eu","sona":"9031"},{"rt":1532.1399999957066,"stimulus":"<p>Welche Sequenz haben Sie als natürlicher empfunden?</p>","key_press":74,"test_part":"response","test_stimulus":{"position":0,"left":"bvh/pass-bottle-hold-training3-lines.txt","right":"bvh/vr_prediction_models/model(dmp)-dataset(pass-bottle-hold)-npsi(50)-hold(3)/final-lines.txt","att_check":false},"trial_type":"html-keyboard-response","trial_index":194,"time_elapsed":452396,"internal_node_id":"0.0-8.0-3.46","subject":"usvwz4ysnyw55eu","sona":"9031"},{"rt":332.9399999929592,"stimulus":"<p>Bereit?</p>","key_press":32,"trial_type":"html-keyboard-response","trial_index":195,"time_elapsed":452734,"internal_node_id":"0.0-8.0-0.47","subject":"usvwz4ysnyw55eu","sona":"9031"},{"rt":null,"stimulus":"<div style=\"font-size:60px;\">+</div>","key_press":null,"trial_type":"html-keyboard-response","trial_index":196,"time_elapsed":454756,"internal_node_id":"0.0-8.0-1.47","subject":"usvwz4ysnyw55eu","sona":"9031"},{"trial_type":"turing-test","trial_index":197,"time_elapsed":461217,"internal_node_id":"0.0-8.0-2.47","subject":"usvwz4ysnyw55eu","sona":"9031"},{"rt":13355.925000010757,"stimulus":"<p>Welche Sequenz haben Sie als natürlicher empfunden?</p>","key_press":74,"test_part":"response","test_stimulus":{"position":0,"left":"bvh/return-bottle-training1-lines.txt","right":"bvh/vr_prediction_models/model(vcgpdm)-dataset(return-bottle)-mode(ELBO)-parts(1)-dyn(30)-lvm(20)-hold(1)/final-lines.txt","att_check":false},"trial_type":"html-keyboard-response","trial_index":198,"time_elapsed":474578,"internal_node_id":"0.0-8.0-3.47","subject":"usvwz4ysnyw55eu","sona":"9031"},{"rt":144.73999998881482,"stimulus":"<p>Bereit?</p>","key_press":32,"trial_type":"html-keyboard-response","trial_index":199,"time_elapsed":474727,"internal_node_id":"0.0-8.0-0.48","subject":"usvwz4ysnyw55eu","sona":"9031"},{"rt":null,"stimulus":"<div style=\"font-size:60px;\">+</div>","key_press":null,"trial_type":"html-keyboard-response","trial_index":200,"time_elapsed":476755,"internal_node_id":"0.0-8.0-1.48","subject":"usvwz4ysnyw55eu","sona":"9031"},{"trial_type":"turing-test","trial_index":201,"time_elapsed":482284,"internal_node_id":"0.0-8.0-2.48","subject":"usvwz4ysnyw55eu","sona":"9031"},{"rt":790.6800000055227,"stimulus":"<p>Welche Sequenz haben Sie als natürlicher empfunden?</p>","key_press":70,"test_part":"response","test_stimulus":{"position":0,"left":"bvh/return-bottle-training0-lines.txt","right":"bvh/vr_prediction_models/model(tmp)-dataset(return-bottle)-numprim(12)-hold(0)/final-lines.txt","att_check":false},"trial_type":"html-keyboard-response","trial_index":202,"time_elapsed":483085,"internal_node_id":"0.0-8.0-3.48","subject":"usvwz4ysnyw55eu","sona":"9031"},{"rt":333.3850000053644,"stimulus":"<p>Bereit?</p>","key_press":32,"trial_type":"html-keyboard-response","trial_index":203,"time_elapsed":483423,"internal_node_id":"0.0-8.0-0.49","subject":"usvwz4ysnyw55eu","sona":"9031"},{"rt":null,"stimulus":"<div style=\"font-size:60px;\">+</div>","key_press":null,"trial_type":"html-keyboard-response","trial_index":204,"time_elapsed":485456,"internal_node_id":"0.0-8.0-1.49","subject":"usvwz4ysnyw55eu","sona":"9031"},{"trial_type":"turing-test","trial_index":205,"time_elapsed":488754,"internal_node_id":"0.0-8.0-2.49","subject":"usvwz4ysnyw55eu","sona":"9031"},{"rt":1851.0500000265893,"stimulus":"<p>Welche Sequenz haben Sie als natürlicher empfunden?</p>","key_press":70,"test_part":"response","test_stimulus":{"position":0,"left":"bvh/pass-bottle-hold-training1-lines.txt","right":"bvh/vr_prediction_models/model(tmp)-dataset(pass-bottle-hold)-numprim(5)-hold(1)/final-lines.txt","att_check":false},"trial_type":"html-keyboard-response","trial_index":206,"time_elapsed":490611,"internal_node_id":"0.0-8.0-3.49","subject":"usvwz4ysnyw55eu","sona":"9031"},{"rt":245.90000000898726,"stimulus":"<p>Bereit?</p>","key_press":32,"trial_type":"html-keyboard-response","trial_index":207,"time_elapsed":490863,"internal_node_id":"0.0-8.0-0.50","subject":"usvwz4ysnyw55eu","sona":"9031"},{"rt":null,"stimulus":"<div style=\"font-size:60px;\">+</div>","key_press":null,"trial_type":"html-keyboard-response","trial_index":208,"time_elapsed":492887,"internal_node_id":"0.0-8.0-1.50","subject":"usvwz4ysnyw55eu","sona":"9031"},{"trial_type":"turing-test","trial_index":209,"time_elapsed":496678,"internal_node_id":"0.0-8.0-2.50","subject":"usvwz4ysnyw55eu","sona":"9031"},{"rt":430.38000000524335,"stimulus":"<p>Welche Sequenz haben Sie als natürlicher empfunden?</p>","key_press":70,"test_part":"response","test_stimulus":{"position":1,"left":"bvh/vr_prediction_models/model(vcgpdm)-dataset(pass-bottle-hold)-mode(ELBO)-parts(1)-dyn(5)-lvm(5)-hold(2)/final-lines.txt","right":"bvh/pass-bottle-hold-training2-lines.txt","att_check":false},"trial_type":"html-keyboard-response","trial_index":210,"time_elapsed":497115,"internal_node_id":"0.0-8.0-3.50","subject":"usvwz4ysnyw55eu","sona":"9031"},{"rt":390.8850000007078,"stimulus":"<p>Bereit?</p>","key_press":32,"trial_type":"html-keyboard-response","trial_index":211,"time_elapsed":497511,"internal_node_id":"0.0-8.0-0.51","subject":"usvwz4ysnyw55eu","sona":"9031"},{"rt":null,"stimulus":"<div style=\"font-size:60px;\">+</div>","key_press":null,"trial_type":"html-keyboard-response","trial_index":212,"time_elapsed":499537,"internal_node_id":"0.0-8.0-1.51","subject":"usvwz4ysnyw55eu","sona":"9031"},{"trial_type":"turing-test","trial_index":213,"time_elapsed":506431,"internal_node_id":"0.0-8.0-2.51","subject":"usvwz4ysnyw55eu","sona":"9031"},{"rt":677.4600000062492,"stimulus":"<p>Welche Sequenz haben Sie als natürlicher empfunden?</p>","key_press":70,"test_part":"response","test_stimulus":{"position":0,"left":"bvh/pass-bottle-training0-lines.txt","right":"bvh/vr_prediction_models/model(tmp)-dataset(pass-bottle)-numprim(14)-hold(0)/final-lines.txt","att_check":false},"trial_type":"html-keyboard-response","trial_index":214,"time_elapsed":507114,"internal_node_id":"0.0-8.0-3.51","subject":"usvwz4ysnyw55eu","sona":"9031"},{"rt":225.60500001418404,"stimulus":"<p>Bereit?</p>","key_press":32,"trial_type":"html-keyboard-response","trial_index":215,"time_elapsed":507344,"internal_node_id":"0.0-8.0-0.52","subject":"usvwz4ysnyw55eu","sona":"9031"},{"rt":null,"stimulus":"<div style=\"font-size:60px;\">+</div>","key_press":null,"trial_type":"html-keyboard-response","trial_index":216,"time_elapsed":509369,"internal_node_id":"0.0-8.0-1.52","subject":"usvwz4ysnyw55eu","sona":"9031"},{"trial_type":"turing-test","trial_index":217,"time_elapsed":515769,"internal_node_id":"0.0-8.0-2.52","subject":"usvwz4ysnyw55eu","sona":"9031"},{"rt":1421.5900000126567,"stimulus":"<p>Welche Sequenz haben Sie als natürlicher empfunden?</p>","key_press":70,"test_part":"response","test_stimulus":{"position":0,"left":"bvh/return-bottle-training1-lines.txt","right":"bvh/vr_prediction_models/model(vcgpdm)-dataset(return-bottle)-mode(ELBO)-parts(3)-dyn(35)-lvm(20)-hold(1)/final-lines.txt","att_check":false},"trial_type":"html-keyboard-response","trial_index":218,"time_elapsed":517196,"internal_node_id":"0.0-8.0-3.52","subject":"usvwz4ysnyw55eu","sona":"9031"},{"rt":164.08999997656792,"stimulus":"<p>Bereit?</p>","key_press":32,"trial_type":"html-keyboard-response","trial_index":219,"time_elapsed":517367,"internal_node_id":"0.0-8.0-0.53","subject":"usvwz4ysnyw55eu","sona":"9031"},{"rt":null,"stimulus":"<div style=\"font-size:60px;\">+</div>","key_press":null,"trial_type":"html-keyboard-response","trial_index":220,"time_elapsed":519385,"internal_node_id":"0.0-8.0-1.53","subject":"usvwz4ysnyw55eu","sona":"9031"},{"trial_type":"turing-test","trial_index":221,"time_elapsed":522771,"internal_node_id":"0.0-8.0-2.53","subject":"usvwz4ysnyw55eu","sona":"9031"},{"rt":769.815000006929,"stimulus":"<p>Welche Sequenz haben Sie als natürlicher empfunden?</p>","key_press":70,"test_part":"response","test_stimulus":{"position":1,"left":"bvh/vr_prediction_models/model(tmp)-dataset(pass-bottle-hold)-numprim(13)-hold(2)/final-lines.txt","right":"bvh/pass-bottle-hold-training2-lines.txt","att_check":false},"trial_type":"html-keyboard-response","trial_index":222,"time_elapsed":523546,"internal_node_id":"0.0-8.0-3.53","subject":"usvwz4ysnyw55eu","sona":"9031"},{"rt":286.22499998891726,"stimulus":"<p>Bereit?</p>","key_press":32,"trial_type":"html-keyboard-response","trial_index":223,"time_elapsed":523837,"internal_node_id":"0.0-8.0-0.54","subject":"usvwz4ysnyw55eu","sona":"9031"},{"rt":null,"stimulus":"<div style=\"font-size:60px;\">+</div>","key_press":null,"trial_type":"html-keyboard-response","trial_index":224,"time_elapsed":525853,"internal_node_id":"0.0-8.0-1.54","subject":"usvwz4ysnyw55eu","sona":"9031"},{"trial_type":"turing-test","trial_index":225,"time_elapsed":531632,"internal_node_id":"0.0-8.0-2.54","subject":"usvwz4ysnyw55eu","sona":"9031"},{"rt":418.66500000469387,"stimulus":"<p>Welche Sequenz haben Sie als natürlicher empfunden?</p>","key_press":70,"test_part":"response","test_stimulus":{"position":0,"left":"bvh/return-bottle-training0-lines.txt","right":"bvh/vr_prediction_models/model(vcgpdm)-dataset(return-bottle)-mode(ELBO)-parts(1)-dyn(30)-lvm(35)-hold(0)/final-lines.txt","att_check":false},"trial_type":"html-keyboard-response","trial_index":226,"time_elapsed":532056,"internal_node_id":"0.0-8.0-3.54","subject":"usvwz4ysnyw55eu","sona":"9031"},{"rt":226.57999998773448,"stimulus":"<p>Bereit?</p>","key_press":32,"trial_type":"html-keyboard-response","trial_index":227,"time_elapsed":532288,"internal_node_id":"0.0-8.0-0.55","subject":"usvwz4ysnyw55eu","sona":"9031"},{"rt":null,"stimulus":"<div style=\"font-size:60px;\">+</div>","key_press":null,"trial_type":"html-keyboard-response","trial_index":228,"time_elapsed":534302,"internal_node_id":"0.0-8.0-1.55","subject":"usvwz4ysnyw55eu","sona":"9031"},{"trial_type":"turing-test","trial_index":229,"time_elapsed":541148,"internal_node_id":"0.0-8.0-2.55","subject":"usvwz4ysnyw55eu","sona":"9031"},{"rt":285.23500001756474,"stimulus":"<p>Welche Sequenz haben Sie als natürlicher empfunden?</p>","key_press":70,"test_part":"response","test_stimulus":{"position":0,"left":"bvh/pass-bottle-training0-lines.txt","right":"bvh/vr_prediction_models/model(tmp)-dataset(pass-bottle)-numprim(11)-hold(0)/final-lines.txt","att_check":false},"trial_type":"html-keyboard-response","trial_index":230,"time_elapsed":541439,"internal_node_id":"0.0-8.0-3.55","subject":"usvwz4ysnyw55eu","sona":"9031"},{"rt":193.0199999769684,"stimulus":"<p>Bereit?</p>","key_press":32,"trial_type":"html-keyboard-response","trial_index":231,"time_elapsed":541638,"internal_node_id":"0.0-8.0-0.56","subject":"usvwz4ysnyw55eu","sona":"9031"},{"rt":null,"stimulus":"<div style=\"font-size:60px;\">+</div>","key_press":null,"trial_type":"html-keyboard-response","trial_index":232,"time_elapsed":543652,"internal_node_id":"0.0-8.0-1.56","subject":"usvwz4ysnyw55eu","sona":"9031"},{"trial_type":"turing-test","trial_index":233,"time_elapsed":549794,"internal_node_id":"0.0-8.0-2.56","subject":"usvwz4ysnyw55eu","sona":"9031"},{"rt":649.6249999909196,"stimulus":"<p>Welche Sequenz haben Sie als natürlicher empfunden?</p>","key_press":70,"test_part":"response","test_stimulus":{"position":0,"left":"bvh/return-bottle-training3-lines.txt","right":"bvh/vr_prediction_models/model(vcgpdm)-dataset(return-bottle)-mode(ELBO)-parts(1)-dyn(35)-lvm(10)-hold(3)/final-lines.txt","att_check":false},"trial_type":"html-keyboard-response","trial_index":234,"time_elapsed":550451,"internal_node_id":"0.0-8.0-3.56","subject":"usvwz4ysnyw55eu","sona":"9031"},{"rt":163.4699999995064,"stimulus":"<p>Bereit?</p>","key_press":32,"trial_type":"html-keyboard-response","trial_index":235,"time_elapsed":550619,"internal_node_id":"0.0-8.0-0.57","subject":"usvwz4ysnyw55eu","sona":"9031"},{"rt":null,"stimulus":"<div style=\"font-size:60px;\">+</div>","key_press":null,"trial_type":"html-keyboard-response","trial_index":236,"time_elapsed":552650,"internal_node_id":"0.0-8.0-1.57","subject":"usvwz4ysnyw55eu","sona":"9031"},{"trial_type":"turing-test","trial_index":237,"time_elapsed":556084,"internal_node_id":"0.0-8.0-2.57","subject":"usvwz4ysnyw55eu","sona":"9031"},{"rt":829.7299999976531,"stimulus":"<p>Welche Sequenz haben Sie als natürlicher empfunden?</p>","key_press":70,"test_part":"response","test_stimulus":{"position":0,"left":"bvh/pass-bottle-hold-training2-lines.txt","right":"bvh/vr_prediction_models/model(dmp)-dataset(pass-bottle-hold)-npsi(70)-hold(2)/final-lines.txt","att_check":false},"trial_type":"html-keyboard-response","trial_index":238,"time_elapsed":556922,"internal_node_id":"0.0-8.0-3.57","subject":"usvwz4ysnyw55eu","sona":"9031"},{"rt":191.93499998073094,"stimulus":"<p>Bereit?</p>","key_press":32,"trial_type":"html-keyboard-response","trial_index":239,"time_elapsed":557120,"internal_node_id":"0.0-8.0-0.58","subject":"usvwz4ysnyw55eu","sona":"9031"},{"rt":null,"stimulus":"<div style=\"font-size:60px;\">+</div>","key_press":null,"trial_type":"html-keyboard-response","trial_index":240,"time_elapsed":559150,"internal_node_id":"0.0-8.0-1.58","subject":"usvwz4ysnyw55eu","sona":"9031"},{"trial_type":"turing-test","trial_index":241,"time_elapsed":564632,"internal_node_id":"0.0-8.0-2.58","subject":"usvwz4ysnyw55eu","sona":"9031"},{"rt":672.9400000185706,"stimulus":"<p>Welche Sequenz haben Sie als natürlicher empfunden?</p>","key_press":74,"test_part":"response","test_stimulus":{"position":1,"left":"bvh/vr_prediction_models/model(dmp)-dataset(return-bottle)-npsi(100)-hold(0)/final-lines.txt","right":"bvh/return-bottle-training0-lines.txt","att_check":true},"trial_type":"html-keyboard-response","trial_index":242,"time_elapsed":565310,"internal_node_id":"0.0-8.0-3.58","subject":"usvwz4ysnyw55eu","sona":"9031"},{"rt":170.45999999390915,"stimulus":"<p>Bereit?</p>","key_press":32,"trial_type":"html-keyboard-response","trial_index":243,"time_elapsed":565487,"internal_node_id":"0.0-8.0-0.59","subject":"usvwz4ysnyw55eu","sona":"9031"},{"rt":null,"stimulus":"<div style=\"font-size:60px;\">+</div>","key_press":null,"trial_type":"html-keyboard-response","trial_index":244,"time_elapsed":567502,"internal_node_id":"0.0-8.0-1.59","subject":"usvwz4ysnyw55eu","sona":"9031"},{"trial_type":"turing-test","trial_index":245,"time_elapsed":571279,"internal_node_id":"0.0-8.0-2.59","subject":"usvwz4ysnyw55eu","sona":"9031"},{"rt":2792.7700000000186,"stimulus":"<p>Welche Sequenz haben Sie als natürlicher empfunden?</p>","key_press":74,"test_part":"response","test_stimulus":{"position":0,"left":"bvh/return-bottle-hold-training4-lines.txt","right":"bvh/vr_prediction_models/model(tmp)-dataset(return-bottle-hold)-numprim(12)-hold(4)/final-lines.txt","att_check":false},"trial_type":"html-keyboard-response","trial_index":246,"time_elapsed":574077,"internal_node_id":"0.0-8.0-3.59","subject":"usvwz4ysnyw55eu","sona":"9031"},{"rt":140.28500000131316,"stimulus":"<p>Bereit?</p>","key_press":32,"trial_type":"html-keyboard-response","trial_index":247,"time_elapsed":574224,"internal_node_id":"0.0-8.0-0.60","subject":"usvwz4ysnyw55eu","sona":"9031"},{"rt":null,"stimulus":"<div style=\"font-size:60px;\">+</div>","key_press":null,"trial_type":"html-keyboard-response","trial_index":248,"time_elapsed":576249,"internal_node_id":"0.0-8.0-1.60","subject":"usvwz4ysnyw55eu","sona":"9031"},{"trial_type":"turing-test","trial_index":249,"time_elapsed":580682,"internal_node_id":"0.0-8.0-2.60","subject":"usvwz4ysnyw55eu","sona":"9031"},{"rt":1133.4299999871291,"stimulus":"<p>Welche Sequenz haben Sie als natürlicher empfunden?</p>","key_press":70,"test_part":"response","test_stimulus":{"position":0,"left":"bvh/pass-bottle-hold-training4-lines.txt","right":"bvh/vr_prediction_models/model(vcgpdm)-dataset(pass-bottle-hold)-mode(ELBO)-parts(1)-dyn(30)-lvm(35)-hold(4)/final-lines.txt","att_check":false},"trial_type":"html-keyboard-response","trial_index":250,"time_elapsed":581822,"internal_node_id":"0.0-8.0-3.60","subject":"usvwz4ysnyw55eu","sona":"9031"},{"rt":209.92500000284053,"stimulus":"<p>Bereit?</p>","key_press":32,"trial_type":"html-keyboard-response","trial_index":251,"time_elapsed":582037,"internal_node_id":"0.0-8.0-0.61","subject":"usvwz4ysnyw55eu","sona":"9031"},{"rt":null,"stimulus":"<div style=\"font-size:60px;\">+</div>","key_press":null,"trial_type":"html-keyboard-response","trial_index":252,"time_elapsed":584049,"internal_node_id":"0.0-8.0-1.61","subject":"usvwz4ysnyw55eu","sona":"9031"},{"trial_type":"turing-test","trial_index":253,"time_elapsed":590140,"internal_node_id":"0.0-8.0-2.61","subject":"usvwz4ysnyw55eu","sona":"9031"},{"rt":399.36999999918044,"stimulus":"<p>Welche Sequenz haben Sie als natürlicher empfunden?</p>","key_press":70,"test_part":"response","test_stimulus":{"position":0,"left":"bvh/return-bottle-training0-lines.txt","right":"bvh/vr_prediction_models/model(vcgpdm)-dataset(return-bottle)-mode(ELBO)-parts(3)-dyn(20)-lvm(20)-hold(0)/final-lines.txt","att_check":false},"trial_type":"html-keyboard-response","trial_index":254,"time_elapsed":590550,"internal_node_id":"0.0-8.0-3.61","subject":"usvwz4ysnyw55eu","sona":"9031"},{"rt":224.4850000133738,"stimulus":"<p>Bereit?</p>","key_press":32,"trial_type":"html-keyboard-response","trial_index":255,"time_elapsed":590779,"internal_node_id":"0.0-8.0-0.62","subject":"usvwz4ysnyw55eu","sona":"9031"},{"rt":null,"stimulus":"<div style=\"font-size:60px;\">+</div>","key_press":null,"trial_type":"html-keyboard-response","trial_index":256,"time_elapsed":592798,"internal_node_id":"0.0-8.0-1.62","subject":"usvwz4ysnyw55eu","sona":"9031"},{"trial_type":"turing-test","trial_index":257,"time_elapsed":596531,"internal_node_id":"0.0-8.0-2.62","subject":"usvwz4ysnyw55eu","sona":"9031"},{"rt":1035.089999990305,"stimulus":"<p>Welche Sequenz haben Sie als natürlicher empfunden?</p>","key_press":74,"test_part":"response","test_stimulus":{"position":1,"left":"bvh/vr_prediction_models/model(tmp)-dataset(return-bottle-hold)-numprim(6)-hold(3)/final-lines.txt","right":"bvh/return-bottle-hold-training3-lines.txt","att_check":false},"trial_type":"html-keyboard-response","trial_index":258,"time_elapsed":597573,"internal_node_id":"0.0-8.0-3.62","subject":"usvwz4ysnyw55eu","sona":"9031"},{"rt":245.9450000023935,"stimulus":"<p>Bereit?</p>","key_press":32,"trial_type":"html-keyboard-response","trial_index":259,"time_elapsed":597823,"internal_node_id":"0.0-8.0-0.63","subject":"usvwz4ysnyw55eu","sona":"9031"},{"rt":null,"stimulus":"<div style=\"font-size:60px;\">+</div>","key_press":null,"trial_type":"html-keyboard-response","trial_index":260,"time_elapsed":599832,"internal_node_id":"0.0-8.0-1.63","subject":"usvwz4ysnyw55eu","sona":"9031"},{"trial_type":"turing-test","trial_index":261,"time_elapsed":603545,"internal_node_id":"0.0-8.0-2.63","subject":"usvwz4ysnyw55eu","sona":"9031"},{"rt":611.8799999821931,"stimulus":"<p>Welche Sequenz haben Sie als natürlicher empfunden?</p>","key_press":70,"test_part":"response","test_stimulus":{"position":0,"left":"bvh/pass-bottle-hold-training2-lines.txt","right":"bvh/vr_prediction_models/model(vcgpdm)-dataset(pass-bottle-hold)-mode(ELBO)-parts(3)-dyn(20)-lvm(15)-hold(2)/final-lines.txt","att_check":false},"trial_type":"html-keyboard-response","trial_index":262,"time_elapsed":604162,"internal_node_id":"0.0-8.0-3.63","subject":"usvwz4ysnyw55eu","sona":"9031"},{"rt":243.03499999223277,"stimulus":"<p>Bereit?</p>","key_press":32,"trial_type":"html-keyboard-response","trial_index":263,"time_elapsed":604411,"internal_node_id":"0.0-8.0-0.64","subject":"usvwz4ysnyw55eu","sona":"9031"},{"rt":null,"stimulus":"<div style=\"font-size:60px;\">+</div>","key_press":null,"trial_type":"html-keyboard-response","trial_index":264,"time_elapsed":606430,"internal_node_id":"0.0-8.0-1.64","subject":"usvwz4ysnyw55eu","sona":"9031"},{"trial_type":"turing-test","trial_index":265,"time_elapsed":610214,"internal_node_id":"0.0-8.0-2.64","subject":"usvwz4ysnyw55eu","sona":"9031"},{"rt":1019.5999999996275,"stimulus":"<p>Welche Sequenz haben Sie als natürlicher empfunden?</p>","key_press":74,"test_part":"response","test_stimulus":{"position":0,"left":"bvh/return-bottle-hold-training4-lines.txt","right":"bvh/vr_prediction_models/model(dmp)-dataset(return-bottle-hold)-npsi(90)-hold(4)/final-lines.txt","att_check":true},"trial_type":"html-keyboard-response","trial_index":266,"time_elapsed":611240,"internal_node_id":"0.0-8.0-3.64","subject":"usvwz4ysnyw55eu","sona":"9031"},{"rt":184.91000001085922,"stimulus":"<p>Bereit?</p>","key_press":32,"trial_type":"html-keyboard-response","trial_index":267,"time_elapsed":611431,"internal_node_id":"0.0-8.0-0.65","subject":"usvwz4ysnyw55eu","sona":"9031"},{"rt":null,"stimulus":"<div style=\"font-size:60px;\">+</div>","key_press":null,"trial_type":"html-keyboard-response","trial_index":268,"time_elapsed":613446,"internal_node_id":"0.0-8.0-1.65","subject":"usvwz4ysnyw55eu","sona":"9031"},{"trial_type":"turing-test","trial_index":269,"time_elapsed":619428,"internal_node_id":"0.0-8.0-2.65","subject":"usvwz4ysnyw55eu","sona":"9031"},{"rt":386.4949999842793,"stimulus":"<p>Welche Sequenz haben Sie als natürlicher empfunden?</p>","key_press":70,"test_part":"response","test_stimulus":{"position":1,"left":"bvh/vr_prediction_models/model(vcgpdm)-dataset(return-bottle)-mode(ELBO)-parts(1)-dyn(30)-lvm(30)-hold(0)/final-lines.txt","right":"bvh/return-bottle-training0-lines.txt","att_check":false},"trial_type":"html-keyboard-response","trial_index":270,"time_elapsed":619821,"internal_node_id":"0.0-8.0-3.65","subject":"usvwz4ysnyw55eu","sona":"9031"},{"rt":378.6950000212528,"stimulus":"<p>Bereit?</p>","key_press":32,"trial_type":"html-keyboard-response","trial_index":271,"time_elapsed":620204,"internal_node_id":"0.0-8.0-0.66","subject":"usvwz4ysnyw55eu","sona":"9031"},{"rt":null,"stimulus":"<div style=\"font-size:60px;\">+</div>","key_press":null,"trial_type":"html-keyboard-response","trial_index":272,"time_elapsed":622215,"internal_node_id":"0.0-8.0-1.66","subject":"usvwz4ysnyw55eu","sona":"9031"},{"trial_type":"turing-test","trial_index":273,"time_elapsed":625997,"internal_node_id":"0.0-8.0-2.66","subject":"usvwz4ysnyw55eu","sona":"9031"},{"rt":807.8849999874365,"stimulus":"<p>Welche Sequenz haben Sie als natürlicher empfunden?</p>","key_press":74,"test_part":"response","test_stimulus":{"position":1,"left":"bvh/vr_prediction_models/model(tmp)-dataset(return-bottle-hold)-numprim(9)-hold(4)/final-lines.txt","right":"bvh/return-bottle-hold-training4-lines.txt","att_check":false},"trial_type":"html-keyboard-response","trial_index":274,"time_elapsed":626810,"internal_node_id":"0.0-8.0-3.66","subject":"usvwz4ysnyw55eu","sona":"9031"},{"rt":206.44500001799315,"stimulus":"<p>Bereit?</p>","key_press":32,"trial_type":"html-keyboard-response","trial_index":275,"time_elapsed":627021,"internal_node_id":"0.0-8.0-0.67","subject":"usvwz4ysnyw55eu","sona":"9031"},{"rt":null,"stimulus":"<div style=\"font-size:60px;\">+</div>","key_press":null,"trial_type":"html-keyboard-response","trial_index":276,"time_elapsed":629032,"internal_node_id":"0.0-8.0-1.67","subject":"usvwz4ysnyw55eu","sona":"9031"},{"trial_type":"turing-test","trial_index":277,"time_elapsed":632431,"internal_node_id":"0.0-8.0-2.67","subject":"usvwz4ysnyw55eu","sona":"9031"},{"rt":1984.0750000148546,"stimulus":"<p>Welche Sequenz haben Sie als natürlicher empfunden?</p>","key_press":74,"test_part":"response","test_stimulus":{"position":1,"left":"bvh/vr_prediction_models/model(dmp)-dataset(return-bottle-hold)-npsi(10)-hold(1)/final-lines.txt","right":"bvh/return-bottle-hold-training1-lines.txt","att_check":false},"trial_type":"html-keyboard-response","trial_index":278,"time_elapsed":634420,"internal_node_id":"0.0-8.0-3.67","subject":"usvwz4ysnyw55eu","sona":"9031"},{"rt":176.9450000138022,"stimulus":"<p>Bereit?</p>","key_press":32,"trial_type":"html-keyboard-response","trial_index":279,"time_elapsed":634604,"internal_node_id":"0.0-8.0-0.68","subject":"usvwz4ysnyw55eu","sona":"9031"},{"rt":null,"stimulus":"<div style=\"font-size:60px;\">+</div>","key_press":null,"trial_type":"html-keyboard-response","trial_index":280,"time_elapsed":636614,"internal_node_id":"0.0-8.0-1.68","subject":"usvwz4ysnyw55eu","sona":"9031"},{"trial_type":"turing-test","trial_index":281,"time_elapsed":640380,"internal_node_id":"0.0-8.0-2.68","subject":"usvwz4ysnyw55eu","sona":"9031"},{"rt":1559.0650000085589,"stimulus":"<p>Welche Sequenz haben Sie als natürlicher empfunden?</p>","key_press":70,"test_part":"response","test_stimulus":{"position":1,"left":"bvh/vr_prediction_models/model(vcgpdm)-dataset(return-bottle-hold)-mode(ELBO)-parts(1)-dyn(30)-lvm(20)-hold(2)/final-lines.txt","right":"bvh/return-bottle-hold-training2-lines.txt","att_check":false},"trial_type":"html-keyboard-response","trial_index":282,"time_elapsed":641944,"internal_node_id":"0.0-8.0-3.68","subject":"usvwz4ysnyw55eu","sona":"9031"},{"rt":288.73500000918284,"stimulus":"<p>Bereit?</p>","key_press":32,"trial_type":"html-keyboard-response","trial_index":283,"time_elapsed":642239,"internal_node_id":"0.0-8.0-0.69","subject":"usvwz4ysnyw55eu","sona":"9031"},{"rt":null,"stimulus":"<div style=\"font-size:60px;\">+</div>","key_press":null,"trial_type":"html-keyboard-response","trial_index":284,"time_elapsed":644247,"internal_node_id":"0.0-8.0-1.69","subject":"usvwz4ysnyw55eu","sona":"9031"},{"trial_type":"turing-test","trial_index":285,"time_elapsed":647881,"internal_node_id":"0.0-8.0-2.69","subject":"usvwz4ysnyw55eu","sona":"9031"},{"rt":505.50500000827014,"stimulus":"<p>Welche Sequenz haben Sie als natürlicher empfunden?</p>","key_press":70,"test_part":"response","test_stimulus":{"position":1,"left":"bvh/vr_prediction_models/model(tmp)-dataset(return-bottle-hold)-numprim(15)-hold(1)/final-lines.txt","right":"bvh/return-bottle-hold-training1-lines.txt","att_check":false},"trial_type":"html-keyboard-response","trial_index":286,"time_elapsed":648392,"internal_node_id":"0.0-8.0-3.69","subject":"usvwz4ysnyw55eu","sona":"9031"},{"rt":185.53000001702458,"stimulus":"<p>Bereit?</p>","key_press":32,"trial_type":"html-keyboard-response","trial_index":287,"time_elapsed":648584,"internal_node_id":"0.0-8.0-0.70","subject":"usvwz4ysnyw55eu","sona":"9031"},{"rt":null,"stimulus":"<div style=\"font-size:60px;\">+</div>","key_press":null,"trial_type":"html-keyboard-response","trial_index":288,"time_elapsed":650611,"internal_node_id":"0.0-8.0-1.70","subject":"usvwz4ysnyw55eu","sona":"9031"},{"trial_type":"turing-test","trial_index":289,"time_elapsed":653952,"internal_node_id":"0.0-8.0-2.70","subject":"usvwz4ysnyw55eu","sona":"9031"},{"rt":653.7250000110362,"stimulus":"<p>Welche Sequenz haben Sie als natürlicher empfunden?</p>","key_press":70,"test_part":"response","test_stimulus":{"position":0,"left":"bvh/return-bottle-hold-training1-lines.txt","right":"bvh/vr_prediction_models/model(dmp)-dataset(return-bottle-hold)-npsi(90)-hold(1)/final-lines.txt","att_check":false},"trial_type":"html-keyboard-response","trial_index":290,"time_elapsed":654611,"internal_node_id":"0.0-8.0-3.70","subject":"usvwz4ysnyw55eu","sona":"9031"},{"rt":202.0349999947939,"stimulus":"<p>Bereit?</p>","key_press":32,"trial_type":"html-keyboard-response","trial_index":291,"time_elapsed":654820,"internal_node_id":"0.0-8.0-0.71","subject":"usvwz4ysnyw55eu","sona":"9031"},{"rt":null,"stimulus":"<div style=\"font-size:60px;\">+</div>","key_press":null,"trial_type":"html-keyboard-response","trial_index":292,"time_elapsed":656829,"internal_node_id":"0.0-8.0-1.71","subject":"usvwz4ysnyw55eu","sona":"9031"},{"trial_type":"turing-test","trial_index":293,"time_elapsed":661155,"internal_node_id":"0.0-8.0-2.71","subject":"usvwz4ysnyw55eu","sona":"9031"},{"rt":508.76500000595115,"stimulus":"<p>Welche Sequenz haben Sie als natürlicher empfunden?</p>","key_press":70,"test_part":"response","test_stimulus":{"position":0,"left":"bvh/return-bottle-hold-training3-lines.txt","right":"bvh/vr_prediction_models/model(vcgpdm)-dataset(return-bottle-hold)-mode(ELBO)-parts(1)-dyn(30)-lvm(20)-hold(3)/final-lines.txt","att_check":false},"trial_type":"html-keyboard-response","trial_index":294,"time_elapsed":661669,"internal_node_id":"0.0-8.0-3.71","subject":"usvwz4ysnyw55eu","sona":"9031"},{"rt":231.56999997445382,"stimulus":"<p>Bereit?</p>","key_press":32,"trial_type":"html-keyboard-response","trial_index":295,"time_elapsed":661905,"internal_node_id":"0.0-8.0-0.72","subject":"usvwz4ysnyw55eu","sona":"9031"},{"rt":null,"stimulus":"<div style=\"font-size:60px;\">+</div>","key_press":null,"trial_type":"html-keyboard-response","trial_index":296,"time_elapsed":663928,"internal_node_id":"0.0-8.0-1.72","subject":"usvwz4ysnyw55eu","sona":"9031"},{"trial_type":"turing-test","trial_index":297,"time_elapsed":670780,"internal_node_id":"0.0-8.0-2.72","subject":"usvwz4ysnyw55eu","sona":"9031"},{"rt":4682.645000022603,"stimulus":"<p>Welche Sequenz haben Sie als natürlicher empfunden?</p>","key_press":74,"test_part":"response","test_stimulus":{"position":1,"left":"bvh/vr_prediction_models/model(tmp)-dataset(return-bottle)-numprim(15)-hold(2)/final-lines.txt","right":"bvh/return-bottle-training2-lines.txt","att_check":false},"trial_type":"html-keyboard-response","trial_index":298,"time_elapsed":675470,"internal_node_id":"0.0-8.0-3.72","subject":"usvwz4ysnyw55eu","sona":"9031"},{"rt":205.65499999793246,"stimulus":"<p>Bereit?</p>","key_press":32,"trial_type":"html-keyboard-response","trial_index":299,"time_elapsed":675684,"internal_node_id":"0.0-8.0-0.73","subject":"usvwz4ysnyw55eu","sona":"9031"},{"rt":null,"stimulus":"<div style=\"font-size:60px;\">+</div>","key_press":null,"trial_type":"html-keyboard-response","trial_index":300,"time_elapsed":677695,"internal_node_id":"0.0-8.0-1.73","subject":"usvwz4ysnyw55eu","sona":"9031"},{"trial_type":"turing-test","trial_index":301,"time_elapsed":685155,"internal_node_id":"0.0-8.0-2.73","subject":"usvwz4ysnyw55eu","sona":"9031"},{"rt":604.8199999786448,"stimulus":"<p>Welche Sequenz haben Sie als natürlicher empfunden?</p>","key_press":70,"test_part":"response","test_stimulus":{"position":1,"left":"bvh/vr_prediction_models/model(tmp)-dataset(return-bottle)-numprim(13)-hold(2)/final-lines.txt","right":"bvh/return-bottle-training2-lines.txt","att_check":false},"trial_type":"html-keyboard-response","trial_index":302,"time_elapsed":685768,"internal_node_id":"0.0-8.0-3.73","subject":"usvwz4ysnyw55eu","sona":"9031"},{"rt":326.165000005858,"stimulus":"<p>Bereit?</p>","key_press":32,"trial_type":"html-keyboard-response","trial_index":303,"time_elapsed":686099,"internal_node_id":"0.0-8.0-0.74","subject":"usvwz4ysnyw55eu","sona":"9031"},{"rt":null,"stimulus":"<div style=\"font-size:60px;\">+</div>","key_press":null,"trial_type":"html-keyboard-response","trial_index":304,"time_elapsed":688126,"internal_node_id":"0.0-8.0-1.74","subject":"usvwz4ysnyw55eu","sona":"9031"},{"trial_type":"turing-test","trial_index":305,"time_elapsed":694291,"internal_node_id":"0.0-8.0-2.74","subject":"usvwz4ysnyw55eu","sona":"9031"},{"rt":470.66500000073574,"stimulus":"<p>Welche Sequenz haben Sie als natürlicher empfunden?</p>","key_press":74,"test_part":"response","test_stimulus":{"position":1,"left":"bvh/vr_prediction_models/model(vcgpdm)-dataset(pass-bottle)-mode(ELBO)-parts(3)-dyn(20)-lvm(35)-hold(3)/final-lines.txt","right":"bvh/pass-bottle-training3-lines.txt","att_check":false},"trial_type":"html-keyboard-response","trial_index":306,"time_elapsed":694767,"internal_node_id":"0.0-8.0-3.74","subject":"usvwz4ysnyw55eu","sona":"9031"},{"rt":253.04000001051463,"stimulus":"<p>Bereit?</p>","key_press":32,"trial_type":"html-keyboard-response","trial_index":307,"time_elapsed":695027,"internal_node_id":"0.0-8.0-0.75","subject":"usvwz4ysnyw55eu","sona":"9031"},{"rt":null,"stimulus":"<div style=\"font-size:60px;\">+</div>","key_press":null,"trial_type":"html-keyboard-response","trial_index":308,"time_elapsed":697043,"internal_node_id":"0.0-8.0-1.75","subject":"usvwz4ysnyw55eu","sona":"9031"},{"trial_type":"turing-test","trial_index":309,"time_elapsed":700644,"internal_node_id":"0.0-8.0-2.75","subject":"usvwz4ysnyw55eu","sona":"9031"},{"rt":622.55999998888,"stimulus":"<p>Welche Sequenz haben Sie als natürlicher empfunden?</p>","key_press":74,"test_part":"response","test_stimulus":{"position":0,"left":"bvh/pass-bottle-hold-training3-lines.txt","right":"bvh/vr_prediction_models/model(dmp)-dataset(pass-bottle-hold)-npsi(20)-hold(3)/final-lines.txt","att_check":false},"trial_type":"html-keyboard-response","trial_index":310,"time_elapsed":701273,"internal_node_id":"0.0-8.0-3.75","subject":"usvwz4ysnyw55eu","sona":"9031"},{"rt":164.49500000453554,"stimulus":"<p>Bereit?</p>","key_press":32,"trial_type":"html-keyboard-response","trial_index":311,"time_elapsed":701444,"internal_node_id":"0.0-8.0-0.76","subject":"usvwz4ysnyw55eu","sona":"9031"},{"rt":null,"stimulus":"<div style=\"font-size:60px;\">+</div>","key_press":null,"trial_type":"html-keyboard-response","trial_index":312,"time_elapsed":703476,"internal_node_id":"0.0-8.0-1.76","subject":"usvwz4ysnyw55eu","sona":"9031"},{"trial_type":"turing-test","trial_index":313,"time_elapsed":708993,"internal_node_id":"0.0-8.0-2.76","subject":"usvwz4ysnyw55eu","sona":"9031"},{"rt":446.80499998503365,"stimulus":"<p>Welche Sequenz haben Sie als natürlicher empfunden?</p>","key_press":74,"test_part":"response","test_stimulus":{"position":0,"left":"bvh/pass-bottle-training1-lines.txt","right":"bvh/vr_prediction_models/model(dmp)-dataset(pass-bottle)-npsi(90)-hold(1)/final-lines.txt","att_check":false},"trial_type":"html-keyboard-response","trial_index":314,"time_elapsed":709448,"internal_node_id":"0.0-8.0-3.76","subject":"usvwz4ysnyw55eu","sona":"9031"},{"rt":304.78999999468215,"stimulus":"<p>Bereit?</p>","key_press":32,"trial_type":"html-keyboard-response","trial_index":315,"time_elapsed":709758,"internal_node_id":"0.0-8.0-0.77","subject":"usvwz4ysnyw55eu","sona":"9031"},{"rt":null,"stimulus":"<div style=\"font-size:60px;\">+</div>","key_press":null,"trial_type":"html-keyboard-response","trial_index":316,"time_elapsed":711760,"internal_node_id":"0.0-8.0-1.77","subject":"usvwz4ysnyw55eu","sona":"9031"},{"trial_type":"turing-test","trial_index":317,"time_elapsed":717860,"internal_node_id":"0.0-8.0-2.77","subject":"usvwz4ysnyw55eu","sona":"9031"},{"rt":558.4700000181329,"stimulus":"<p>Welche Sequenz haben Sie als natürlicher empfunden?</p>","key_press":70,"test_part":"response","test_stimulus":{"position":0,"left":"bvh/pass-bottle-training3-lines.txt","right":"bvh/vr_prediction_models/model(vcgpdm)-dataset(pass-bottle)-mode(ELBO)-parts(1)-dyn(35)-lvm(30)-hold(3)/final-lines.txt","att_check":false},"trial_type":"html-keyboard-response","trial_index":318,"time_elapsed":718425,"internal_node_id":"0.0-8.0-3.77","subject":"usvwz4ysnyw55eu","sona":"9031"},{"rt":180.06499999319203,"stimulus":"<p>Bereit?</p>","key_press":32,"trial_type":"html-keyboard-response","trial_index":319,"time_elapsed":718610,"internal_node_id":"0.0-8.0-0.78","subject":"usvwz4ysnyw55eu","sona":"9031"},{"rt":null,"stimulus":"<div style=\"font-size:60px;\">+</div>","key_press":null,"trial_type":"html-keyboard-response","trial_index":320,"time_elapsed":720639,"internal_node_id":"0.0-8.0-1.78","subject":"usvwz4ysnyw55eu","sona":"9031"},{"trial_type":"turing-test","trial_index":321,"time_elapsed":724571,"internal_node_id":"0.0-8.0-2.78","subject":"usvwz4ysnyw55eu","sona":"9031"},{"rt":780.9050000214484,"stimulus":"<p>Welche Sequenz haben Sie als natürlicher empfunden?</p>","key_press":70,"test_part":"response","test_stimulus":{"position":1,"left":"bvh/vr_prediction_models/model(vcgpdm)-dataset(pass-bottle-hold)-mode(ELBO)-parts(1)-dyn(30)-lvm(35)-hold(3)/final-lines.txt","right":"bvh/pass-bottle-hold-training3-lines.txt","att_check":false},"trial_type":"html-keyboard-response","trial_index":322,"time_elapsed":725360,"internal_node_id":"0.0-8.0-3.78","subject":"usvwz4ysnyw55eu","sona":"9031"},{"rt":164.2850000062026,"stimulus":"<p>Bereit?</p>","key_press":32,"trial_type":"html-keyboard-response","trial_index":323,"time_elapsed":725521,"internal_node_id":"0.0-8.0-0.79","subject":"usvwz4ysnyw55eu","sona":"9031"},{"rt":null,"stimulus":"<div style=\"font-size:60px;\">+</div>","key_press":null,"trial_type":"html-keyboard-response","trial_index":324,"time_elapsed":727533,"internal_node_id":"0.0-8.0-1.79","subject":"usvwz4ysnyw55eu","sona":"9031"},{"trial_type":"turing-test","trial_index":325,"time_elapsed":733648,"internal_node_id":"0.0-8.0-2.79","subject":"usvwz4ysnyw55eu","sona":"9031"},{"rt":597.4749999877531,"stimulus":"<p>Welche Sequenz haben Sie als natürlicher empfunden?</p>","key_press":74,"test_part":"response","test_stimulus":{"position":1,"left":"bvh/vr_prediction_models/model(vcgpdm)-dataset(pass-bottle)-mode(ELBO)-parts(1)-dyn(10)-lvm(5)-hold(3)/final-lines.txt","right":"bvh/pass-bottle-training3-lines.txt","att_check":false},"trial_type":"html-keyboard-response","trial_index":326,"time_elapsed":734252,"internal_node_id":"0.0-8.0-3.79","subject":"usvwz4ysnyw55eu","sona":"9031"}]