[{"rt":1653.2299999380484,"stimulus":"<p>Welcome!<br> Please choose your language to start the experiment in the chosen language.</p><p>Willkommen!<br> Bitte wählen Sie eine Sprache, um das Experiment in der ausgewählten Sprache zu starten</p>","button_pressed":"1","trial_type":"html-button-response","trial_index":0,"time_elapsed":1822,"internal_node_id":"0.0-0.0","subject":"cfb8fzxo14equpr","sona":"7450"},{"view_history":"[{\"page_index\":0,\"viewing_time\":838.0950000137091},{\"page_index\":1,\"viewing_time\":1496.0499999579042},{\"page_index\":0,\"viewing_time\":1863.7950000120327},{\"page_index\":1,\"viewing_time\":774.900000076741},{\"page_index\":2,\"viewing_time\":1248.989999992773},{\"page_index\":3,\"viewing_time\":871.989999897778},{\"page_index\":4,\"viewing_time\":728.1150000635535}]","rt":7822.89499999024,"trial_type":"instructions","trial_index":1,"time_elapsed":9645,"internal_node_id":"0.0-1.0-0.0","subject":"cfb8fzxo14equpr","sona":"7450"},{"rt":1305.0650000805035,"stimulus":"<p>Bereit?</p>","key_press":32,"trial_type":"html-keyboard-response","trial_index":2,"time_elapsed":10953,"internal_node_id":"0.0-3.0","subject":"cfb8fzxo14equpr","sona":"7450"},{"rt":null,"stimulus":"<div style=\"font-size:60px;\">+</div>","key_press":null,"trial_type":"html-keyboard-response","trial_index":3,"time_elapsed":12968,"internal_node_id":"0.0-4.0","subject":"cfb8fzxo14equpr","sona":"7450"},{"trial_type":"training","trial_index":4,"time_elapsed":16421,"internal_node_id":"0.0-5.0","subject":"cfb8fzxo14equpr","sona":"7450"},{"rt":175.35499995574355,"stimulus":"<p>Welche Sequenz haben Sie als natürlicher empfunden?</p>","key_press":70,"trial_type":"html-keyboard-response","trial_index":5,"time_elapsed":16600,"internal_node_id":"0.0-6.0","subject":"cfb8fzxo14equpr","sona":"7450"},{"rt":3598.4199999365956,"stimulus":"<p>Das Experiment startet nun.</p><p><small>Bitte drücken Sie den Knopf, wenn Sie bereit sind.</small></p>","button_pressed":"0","trial_type":"html-button-response","trial_index":6,"time_elapsed":20201,"internal_node_id":"0.0-7.0","subject":"cfb8fzxo14equpr","sona":"7450"},{"rt":1044.6249999804422,"stimulus":"<p>Bereit?</p>","key_press":32,"trial_type":"html-keyboard-response","trial_index":7,"time_elapsed":21250,"internal_node_id":"0.0-8.0-0.0","subject":"cfb8fzxo14equpr","sona":"7450"},{"rt":null,"stimulus":"<div style=\"font-size:60px;\">+</div>","key_press":null,"trial_type":"html-keyboard-response","trial_index":8,"time_elapsed":23279,"internal_node_id":"0.0-8.0-1.0","subject":"cfb8fzxo14equpr","sona":"7450"},{"trial_type":"turing-test","trial_index":9,"time_elapsed":29519,"internal_node_id":"0.0-8.0-2.0","subject":"cfb8fzxo14equpr","sona":"7450"},{"rt":22.515000076964498,"stimulus":"<p>Welche Sequenz haben Sie als natürlicher empfunden?</p>","key_press":70,"test_part":"response","test_stimulus":{"position":1,"left":"bvh/vr_prediction_models/model(tmp)-dataset(pass-bottle)-numprim(7)-hold(2)/final-lines.txt","right":"bvh/pass-bottle-training2-lines.txt","att_check":false},"trial_type":"html-keyboard-response","trial_index":10,"time_elapsed":29549,"internal_node_id":"0.0-8.0-3.0","subject":"cfb8fzxo14equpr","sona":"7450"},{"rt":399.2149999830872,"stimulus":"<p>Bereit?</p>","key_press":32,"trial_type":"html-keyboard-response","trial_index":11,"time_elapsed":29960,"internal_node_id":"0.0-8.0-0.1","subject":"cfb8fzxo14equpr","sona":"7450"},{"rt":null,"stimulus":"<div style=\"font-size:60px;\">+</div>","key_press":null,"trial_type":"html-keyboard-response","trial_index":12,"time_elapsed":31974,"internal_node_id":"0.0-8.0-1.1","subject":"cfb8fzxo14equpr","sona":"7450"},{"trial_type":"turing-test","trial_index":13,"time_elapsed":37529,"internal_node_id":"0.0-8.0-2.1","subject":"cfb8fzxo14equpr","sona":"7450"},{"rt":43.77999994903803,"stimulus":"<p>Welche Sequenz haben Sie als natürlicher empfunden?</p>","key_press":70,"test_part":"response","test_stimulus":{"position":0,"left":"bvh/return-bottle-training0-lines.txt","right":"bvh/vr_prediction_models/model(dmp)-dataset(return-bottle)-npsi(20)-hold(0)/final-lines.txt","att_check":false},"trial_type":"html-keyboard-response","trial_index":14,"time_elapsed":37580,"internal_node_id":"0.0-8.0-3.1","subject":"cfb8fzxo14equpr","sona":"7450"},{"rt":582.9849999863654,"stimulus":"<p>Bereit?</p>","key_press":32,"trial_type":"html-keyboard-response","trial_index":15,"time_elapsed":38170,"internal_node_id":"0.0-8.0-0.2","subject":"cfb8fzxo14equpr","sona":"7450"},{"rt":null,"stimulus":"<div style=\"font-size:60px;\">+</div>","key_press":null,"trial_type":"html-keyboard-response","trial_index":16,"time_elapsed":40180,"internal_node_id":"0.0-8.0-1.2","subject":"cfb8fzxo14equpr","sona":"7450"},{"trial_type":"turing-test","trial_index":17,"time_elapsed":47332,"internal_node_id":"0.0-8.0-2.2","subject":"cfb8fzxo14equpr","sona":"7450"},{"rt":222.32000005897135,"stimulus":"<p>Welche Sequenz haben Sie als natürlicher empfunden?</p>","key_press":74,"test_part":"response","test_stimulus":{"position":1,"left":"bvh/vr_prediction_models/model(vcgpdm)-dataset(return-bottle)-mode(ELBO)-parts(1)-dyn(35)-lvm(30)-hold(4)/final-lines.txt","right":"bvh/return-bottle-training4-lines.txt","att_check":false},"trial_type":"html-keyboard-response","trial_index":18,"time_elapsed":47561,"internal_node_id":"0.0-8.0-3.2","subject":"cfb8fzxo14equpr","sona":"7450"},{"rt":504.590000025928,"stimulus":"<p>Bereit?</p>","key_press":32,"trial_type":"html-keyboard-response","trial_index":19,"time_elapsed":48071,"internal_node_id":"0.0-8.0-0.3","subject":"cfb8fzxo14equpr","sona":"7450"},{"rt":null,"stimulus":"<div style=\"font-size:60px;\">+</div>","key_press":null,"trial_type":"html-keyboard-response","trial_index":20,"time_elapsed":50101,"internal_node_id":"0.0-8.0-1.3","subject":"cfb8fzxo14equpr","sona":"7450"},{"trial_type":"turing-test","trial_index":21,"time_elapsed":55889,"internal_node_id":"0.0-8.0-2.3","subject":"cfb8fzxo14equpr","sona":"7450"},{"rt":112.32499999459833,"stimulus":"<p>Welche Sequenz haben Sie als natürlicher empfunden?</p>","key_press":74,"test_part":"response","test_stimulus":{"position":0,"left":"bvh/return-bottle-training4-lines.txt","right":"bvh/vr_prediction_models/model(tmp)-dataset(return-bottle)-numprim(15)-hold(4)/final-lines.txt","att_check":false},"trial_type":"html-keyboard-response","trial_index":22,"time_elapsed":56009,"internal_node_id":"0.0-8.0-3.3","subject":"cfb8fzxo14equpr","sona":"7450"},{"rt":453.0899999663234,"stimulus":"<p>Bereit?</p>","key_press":32,"trial_type":"html-keyboard-response","trial_index":23,"time_elapsed":56469,"internal_node_id":"0.0-8.0-0.4","subject":"cfb8fzxo14equpr","sona":"7450"},{"rt":null,"stimulus":"<div style=\"font-size:60px;\">+</div>","key_press":null,"trial_type":"html-keyboard-response","trial_index":24,"time_elapsed":58493,"internal_node_id":"0.0-8.0-1.4","subject":"cfb8fzxo14equpr","sona":"7450"},{"trial_type":"turing-test","trial_index":25,"time_elapsed":64402,"internal_node_id":"0.0-8.0-2.4","subject":"cfb8fzxo14equpr","sona":"7450"},{"rt":333.40499992482364,"stimulus":"<p>Welche Sequenz haben Sie als natürlicher empfunden?</p>","key_press":70,"test_part":"response","test_stimulus":{"position":0,"left":"bvh/pass-bottle-training3-lines.txt","right":"bvh/vr_prediction_models/model(dmp)-dataset(pass-bottle)-npsi(80)-hold(3)/final-lines.txt","att_check":false},"trial_type":"html-keyboard-response","trial_index":26,"time_elapsed":64742,"internal_node_id":"0.0-8.0-3.4","subject":"cfb8fzxo14equpr","sona":"7450"},{"rt":151.52000007219613,"stimulus":"<p>Bereit?</p>","key_press":32,"trial_type":"html-keyboard-response","trial_index":27,"time_elapsed":64901,"internal_node_id":"0.0-8.0-0.5","subject":"cfb8fzxo14equpr","sona":"7450"},{"rt":null,"stimulus":"<div style=\"font-size:60px;\">+</div>","key_press":null,"trial_type":"html-keyboard-response","trial_index":28,"time_elapsed":66912,"internal_node_id":"0.0-8.0-1.5","subject":"cfb8fzxo14equpr","sona":"7450"},{"trial_type":"turing-test","trial_index":29,"time_elapsed":70769,"internal_node_id":"0.0-8.0-2.5","subject":"cfb8fzxo14equpr","sona":"7450"},{"rt":4299.785000039265,"stimulus":"<p>Welche Sequenz haben Sie als natürlicher empfunden?</p>","key_press":74,"test_part":"response","test_stimulus":{"position":1,"left":"bvh/vr_prediction_models/model(tmp)-dataset(return-bottle-hold)-numprim(11)-hold(4)/final-lines.txt","right":"bvh/return-bottle-hold-training4-lines.txt","att_check":false},"trial_type":"html-keyboard-response","trial_index":30,"time_elapsed":75073,"internal_node_id":"0.0-8.0-3.5","subject":"cfb8fzxo14equpr","sona":"7450"},{"rt":514.0599999576807,"stimulus":"<p>Bereit?</p>","key_press":32,"trial_type":"html-keyboard-response","trial_index":31,"time_elapsed":75592,"internal_node_id":"0.0-8.0-0.6","subject":"cfb8fzxo14equpr","sona":"7450"},{"rt":null,"stimulus":"<div style=\"font-size:60px;\">+</div>","key_press":null,"trial_type":"html-keyboard-response","trial_index":32,"time_elapsed":78396,"internal_node_id":"0.0-8.0-1.6","subject":"cfb8fzxo14equpr","sona":"7450"},{"trial_type":"turing-test","trial_index":33,"time_elapsed":83700,"internal_node_id":"0.0-8.0-2.6","subject":"cfb8fzxo14equpr","sona":"7450"},{"rt":7086.585000040941,"stimulus":"<p>Welche Sequenz haben Sie als natürlicher empfunden?</p>","key_press":70,"test_part":"response","test_stimulus":{"position":1,"left":"bvh/vr_prediction_models/model(vcgpdm)-dataset(return-bottle-hold)-mode(ELBO)-parts(3)-dyn(20)-lvm(15)-hold(0)/final-lines.txt","right":"bvh/return-bottle-hold-training0-lines.txt","att_check":false},"trial_type":"html-keyboard-response","trial_index":34,"time_elapsed":90796,"internal_node_id":"0.0-8.0-3.6","subject":"cfb8fzxo14equpr","sona":"7450"},{"rt":124.08500001765788,"stimulus":"<p>Bereit?</p>","key_press":32,"trial_type":"html-keyboard-response","trial_index":35,"time_elapsed":90926,"internal_node_id":"0.0-8.0-0.7","subject":"cfb8fzxo14equpr","sona":"7450"},{"rt":null,"stimulus":"<div style=\"font-size:60px;\">+</div>","key_press":null,"trial_type":"html-keyboard-response","trial_index":36,"time_elapsed":92936,"internal_node_id":"0.0-8.0-1.7","subject":"cfb8fzxo14equpr","sona":"7450"},{"trial_type":"turing-test","trial_index":37,"time_elapsed":99700,"internal_node_id":"0.0-8.0-2.7","subject":"cfb8fzxo14equpr","sona":"7450"},{"rt":411.94999997969717,"stimulus":"<p>Welche Sequenz haben Sie als natürlicher empfunden?</p>","key_press":70,"test_part":"response","test_stimulus":{"position":0,"left":"bvh/return-bottle-training2-lines.txt","right":"bvh/vr_prediction_models/model(vcgpdm)-dataset(return-bottle)-mode(ELBO)-parts(1)-dyn(10)-lvm(25)-hold(2)/final-lines.txt","att_check":false},"trial_type":"html-keyboard-response","trial_index":38,"time_elapsed":100118,"internal_node_id":"0.0-8.0-3.7","subject":"cfb8fzxo14equpr","sona":"7450"},{"rt":276.27999999094754,"stimulus":"<p>Bereit?</p>","key_press":32,"trial_type":"html-keyboard-response","trial_index":39,"time_elapsed":100397,"internal_node_id":"0.0-8.0-0.8","subject":"cfb8fzxo14equpr","sona":"7450"},{"rt":null,"stimulus":"<div style=\"font-size:60px;\">+</div>","key_press":null,"trial_type":"html-keyboard-response","trial_index":40,"time_elapsed":102401,"internal_node_id":"0.0-8.0-1.8","subject":"cfb8fzxo14equpr","sona":"7450"},{"trial_type":"turing-test","trial_index":41,"time_elapsed":109169,"internal_node_id":"0.0-8.0-2.8","subject":"cfb8fzxo14equpr","sona":"7450"},{"rt":1216.5350000141189,"stimulus":"<p>Welche Sequenz haben Sie als natürlicher empfunden?</p>","key_press":70,"test_part":"response","test_stimulus":{"position":1,"left":"bvh/vr_prediction_models/model(vcgpdm)-dataset(return-bottle)-mode(ELBO)-parts(3)-dyn(15)-lvm(30)-hold(2)/final-lines.txt","right":"bvh/return-bottle-training2-lines.txt","att_check":false},"trial_type":"html-keyboard-response","trial_index":42,"time_elapsed":110391,"internal_node_id":"0.0-8.0-3.8","subject":"cfb8fzxo14equpr","sona":"7450"},{"rt":213.42000004369766,"stimulus":"<p>Bereit?</p>","key_press":32,"trial_type":"html-keyboard-response","trial_index":43,"time_elapsed":110607,"internal_node_id":"0.0-8.0-0.9","subject":"cfb8fzxo14equpr","sona":"7450"},{"rt":null,"stimulus":"<div style=\"font-size:60px;\">+</div>","key_press":null,"trial_type":"html-keyboard-response","trial_index":44,"time_elapsed":112619,"internal_node_id":"0.0-8.0-1.9","subject":"cfb8fzxo14equpr","sona":"7450"},{"trial_type":"turing-test","trial_index":45,"time_elapsed":116361,"internal_node_id":"0.0-8.0-2.9","subject":"cfb8fzxo14equpr","sona":"7450"},{"rt":352588.85499997996,"stimulus":"<p>Welche Sequenz haben Sie als natürlicher empfunden?</p>","key_press":70,"test_part":"response","test_stimulus":{"position":0,"left":"bvh/pass-bottle-hold-training1-lines.txt","right":"bvh/vr_prediction_models/model(tmp)-dataset(pass-bottle-hold)-numprim(4)-hold(1)/final-lines.txt","att_check":false},"trial_type":"html-keyboard-response","trial_index":46,"time_elapsed":468959,"internal_node_id":"0.0-8.0-3.9","subject":"cfb8fzxo14equpr","sona":"7450"},{"rt":457.78499997686595,"stimulus":"<p>Bereit?</p>","key_press":32,"trial_type":"html-keyboard-response","trial_index":47,"time_elapsed":469420,"internal_node_id":"0.0-8.0-0.10","subject":"cfb8fzxo14equpr","sona":"7450"},{"rt":null,"stimulus":"<div style=\"font-size:60px;\">+</div>","key_press":null,"trial_type":"html-keyboard-response","trial_index":48,"time_elapsed":471427,"internal_node_id":"0.0-8.0-1.10","subject":"cfb8fzxo14equpr","sona":"7450"},{"trial_type":"turing-test","trial_index":49,"time_elapsed":477445,"internal_node_id":"0.0-8.0-2.10","subject":"cfb8fzxo14equpr","sona":"7450"},{"rt":498.8349999766797,"stimulus":"<p>Welche Sequenz haben Sie als natürlicher empfunden?</p>","key_press":70,"test_part":"response","test_stimulus":{"position":1,"left":"bvh/vr_prediction_models/model(vcgpdm)-dataset(pass-bottle)-mode(ELBO)-parts(3)-dyn(20)-lvm(20)-hold(4)/final-lines.txt","right":"bvh/pass-bottle-training4-lines.txt","att_check":false},"trial_type":"html-keyboard-response","trial_index":50,"time_elapsed":477952,"internal_node_id":"0.0-8.0-3.10","subject":"cfb8fzxo14equpr","sona":"7450"}]