[{"rt":1933,"stimulus":"<p>Welcome!<br> Please choose your language to start the experiment in the chosen language.</p><p>Willkommen!<br> Bitte wählen Sie eine Sprache, um das Experiment in der ausgewählten Sprache zu starten</p>","button_pressed":"1","trial_type":"html-button-response","trial_index":0,"time_elapsed":1939,"internal_node_id":"0.0-0.0","subject":"5y0a9x6plykskem","sona":"9304"},{"view_history":"[{\"page_index\":0,\"viewing_time\":2735},{\"page_index\":1,\"viewing_time\":4658},{\"page_index\":2,\"viewing_time\":5222},{\"page_index\":3,\"viewing_time\":8787},{\"page_index\":2,\"viewing_time\":4383},{\"page_index\":3,\"viewing_time\":1490},{\"page_index\":4,\"viewing_time\":1620}]","rt":28895,"trial_type":"instructions","trial_index":1,"time_elapsed":30835,"internal_node_id":"0.0-1.0-0.0","subject":"5y0a9x6plykskem","sona":"9304"},{"rt":1925,"stimulus":"<p>Bereit?</p>","key_press":32,"trial_type":"html-keyboard-response","trial_index":2,"time_elapsed":32761,"internal_node_id":"0.0-3.0","subject":"5y0a9x6plykskem","sona":"9304"},{"rt":null,"stimulus":"<div style=\"font-size:60px;\">+</div>","key_press":null,"trial_type":"html-keyboard-response","trial_index":3,"time_elapsed":34774,"internal_node_id":"0.0-4.0","subject":"5y0a9x6plykskem","sona":"9304"},{"trial_type":"training","trial_index":4,"time_elapsed":38183,"internal_node_id":"0.0-5.0","subject":"5y0a9x6plykskem","sona":"9304"},{"rt":1421,"stimulus":"<p>Welche Sequenz haben Sie als natürlicher empfunden?</p>","key_press":70,"trial_type":"html-keyboard-response","trial_index":5,"time_elapsed":39606,"internal_node_id":"0.0-6.0","subject":"5y0a9x6plykskem","sona":"9304"},{"rt":3679,"stimulus":"<p>Das Experiment startet nun.</p><p><small>Bitte drücken Sie den Knopf, wenn Sie bereit sind.</small></p>","button_pressed":"0","trial_type":"html-button-response","trial_index":6,"time_elapsed":43286,"internal_node_id":"0.0-7.0","subject":"5y0a9x6plykskem","sona":"9304"},{"rt":1073,"stimulus":"<p>Bereit?</p>","key_press":32,"trial_type":"html-keyboard-response","trial_index":7,"time_elapsed":44359,"internal_node_id":"0.0-8.0-0.0","subject":"5y0a9x6plykskem","sona":"9304"},{"rt":null,"stimulus":"<div style=\"font-size:60px;\">+</div>","key_press":null,"trial_type":"html-keyboard-response","trial_index":8,"time_elapsed":46374,"internal_node_id":"0.0-8.0-1.0","subject":"5y0a9x6plykskem","sona":"9304"},{"trial_type":"turing-test","trial_index":9,"time_elapsed":52274,"internal_node_id":"0.0-8.0-2.0","subject":"5y0a9x6plykskem","sona":"9304"},{"rt":2834,"stimulus":"<p>Welche Sequenz haben Sie als natürlicher empfunden?</p>","key_press":74,"test_part":"response","test_stimulus":{"position":0,"left":"bvh/pass-bottle-training3-lines.txt","right":"bvh/vr_prediction_models/model(vcgpdm)-dataset(pass-bottle)-mode(ELBO)-parts(1)-dyn(20)-lvm(30)-hold(3)/final-lines.txt","att_check":false},"trial_type":"html-keyboard-response","trial_index":10,"time_elapsed":55110,"internal_node_id":"0.0-8.0-3.0","subject":"5y0a9x6plykskem","sona":"9304"},{"rt":933,"stimulus":"<p>Bereit?</p>","key_press":32,"trial_type":"html-keyboard-response","trial_index":11,"time_elapsed":56044,"internal_node_id":"0.0-8.0-0.1","subject":"5y0a9x6plykskem","sona":"9304"},{"rt":null,"stimulus":"<div style=\"font-size:60px;\">+</div>","key_press":null,"trial_type":"html-keyboard-response","trial_index":12,"time_elapsed":58074,"internal_node_id":"0.0-8.0-1.1","subject":"5y0a9x6plykskem","sona":"9304"},{"trial_type":"turing-test","trial_index":13,"time_elapsed":63933,"internal_node_id":"0.0-8.0-2.1","subject":"5y0a9x6plykskem","sona":"9304"},{"rt":390,"stimulus":"<p>Welche Sequenz haben Sie als natürlicher empfunden?</p>","key_press":74,"test_part":"response","test_stimulus":{"position":0,"left":"bvh/return-bottle-training4-lines.txt","right":"bvh/vr_prediction_models/model(vcgpdm)-dataset(return-bottle)-mode(ELBO)-parts(3)-dyn(30)-lvm(15)-hold(4)/final-lines.txt","att_check":false},"trial_type":"html-keyboard-response","trial_index":14,"time_elapsed":64327,"internal_node_id":"0.0-8.0-3.1","subject":"5y0a9x6plykskem","sona":"9304"},{"rt":1223,"stimulus":"<p>Bereit?</p>","key_press":32,"trial_type":"html-keyboard-response","trial_index":15,"time_elapsed":65552,"internal_node_id":"0.0-8.0-0.2","subject":"5y0a9x6plykskem","sona":"9304"},{"rt":null,"stimulus":"<div style=\"font-size:60px;\">+</div>","key_press":null,"trial_type":"html-keyboard-response","trial_index":16,"time_elapsed":67573,"internal_node_id":"0.0-8.0-1.2","subject":"5y0a9x6plykskem","sona":"9304"},{"trial_type":"turing-test","trial_index":17,"time_elapsed":74303,"internal_node_id":"0.0-8.0-2.2","subject":"5y0a9x6plykskem","sona":"9304"},{"rt":417,"stimulus":"<p>Welche Sequenz haben Sie als natürlicher empfunden?</p>","key_press":70,"test_part":"response","test_stimulus":{"position":0,"left":"bvh/pass-bottle-training0-lines.txt","right":"bvh/vr_prediction_models/model(dmp)-dataset(pass-bottle)-npsi(70)-hold(0)/final-lines.txt","att_check":false},"trial_type":"html-keyboard-response","trial_index":18,"time_elapsed":74722,"internal_node_id":"0.0-8.0-3.2","subject":"5y0a9x6plykskem","sona":"9304"},{"rt":701,"stimulus":"<p>Bereit?</p>","key_press":32,"trial_type":"html-keyboard-response","trial_index":19,"time_elapsed":75426,"internal_node_id":"0.0-8.0-0.3","subject":"5y0a9x6plykskem","sona":"9304"},{"rt":null,"stimulus":"<div style=\"font-size:60px;\">+</div>","key_press":null,"trial_type":"html-keyboard-response","trial_index":20,"time_elapsed":77463,"internal_node_id":"0.0-8.0-1.3","subject":"5y0a9x6plykskem","sona":"9304"},{"trial_type":"turing-test","trial_index":21,"time_elapsed":81163,"internal_node_id":"0.0-8.0-2.3","subject":"5y0a9x6plykskem","sona":"9304"},{"rt":1274,"stimulus":"<p>Welche Sequenz haben Sie als natürlicher empfunden?</p>","key_press":70,"test_part":"response","test_stimulus":{"position":1,"left":"bvh/vr_prediction_models/model(vcgpdm)-dataset(pass-bottle-hold)-mode(ELBO)-parts(1)-dyn(20)-lvm(5)-hold(4)/final-lines.txt","right":"bvh/pass-bottle-hold-training4-lines.txt","att_check":false},"trial_type":"html-keyboard-response","trial_index":22,"time_elapsed":82441,"internal_node_id":"0.0-8.0-3.3","subject":"5y0a9x6plykskem","sona":"9304"},{"rt":700,"stimulus":"<p>Bereit?</p>","key_press":32,"trial_type":"html-keyboard-response","trial_index":23,"time_elapsed":83140,"internal_node_id":"0.0-8.0-0.4","subject":"5y0a9x6plykskem","sona":"9304"},{"rt":null,"stimulus":"<div style=\"font-size:60px;\">+</div>","key_press":null,"trial_type":"html-keyboard-response","trial_index":24,"time_elapsed":85163,"internal_node_id":"0.0-8.0-1.4","subject":"5y0a9x6plykskem","sona":"9304"},{"trial_type":"turing-test","trial_index":25,"time_elapsed":88503,"internal_node_id":"0.0-8.0-2.4","subject":"5y0a9x6plykskem","sona":"9304"},{"rt":2958,"stimulus":"<p>Welche Sequenz haben Sie als natürlicher empfunden?</p>","key_press":70,"test_part":"response","test_stimulus":{"position":1,"left":"bvh/vr_prediction_models/model(dmp)-dataset(pass-bottle-hold)-npsi(70)-hold(2)/final-lines.txt","right":"bvh/pass-bottle-hold-training2-lines.txt","att_check":false},"trial_type":"html-keyboard-response","trial_index":26,"time_elapsed":91462,"internal_node_id":"0.0-8.0-3.4","subject":"5y0a9x6plykskem","sona":"9304"},{"rt":570,"stimulus":"<p>Bereit?</p>","key_press":32,"trial_type":"html-keyboard-response","trial_index":27,"time_elapsed":92033,"internal_node_id":"0.0-8.0-0.5","subject":"5y0a9x6plykskem","sona":"9304"},{"rt":null,"stimulus":"<div style=\"font-size:60px;\">+</div>","key_press":null,"trial_type":"html-keyboard-response","trial_index":28,"time_elapsed":94044,"internal_node_id":"0.0-8.0-1.5","subject":"5y0a9x6plykskem","sona":"9304"},{"trial_type":"turing-test","trial_index":29,"time_elapsed":97334,"internal_node_id":"0.0-8.0-2.5","subject":"5y0a9x6plykskem","sona":"9304"},{"rt":1231,"stimulus":"<p>Welche Sequenz haben Sie als natürlicher empfunden?</p>","key_press":70,"test_part":"response","test_stimulus":{"position":0,"left":"bvh/pass-bottle-hold-training2-lines.txt","right":"bvh/vr_prediction_models/model(tmp)-dataset(pass-bottle-hold)-numprim(11)-hold(2)/final-lines.txt","att_check":false},"trial_type":"html-keyboard-response","trial_index":30,"time_elapsed":98568,"internal_node_id":"0.0-8.0-3.5","subject":"5y0a9x6plykskem","sona":"9304"},{"rt":448,"stimulus":"<p>Bereit?</p>","key_press":32,"trial_type":"html-keyboard-response","trial_index":31,"time_elapsed":99017,"internal_node_id":"0.0-8.0-0.6","subject":"5y0a9x6plykskem","sona":"9304"},{"rt":null,"stimulus":"<div style=\"font-size:60px;\">+</div>","key_press":null,"trial_type":"html-keyboard-response","trial_index":32,"time_elapsed":101023,"internal_node_id":"0.0-8.0-1.6","subject":"5y0a9x6plykskem","sona":"9304"},{"trial_type":"turing-test","trial_index":33,"time_elapsed":104644,"internal_node_id":"0.0-8.0-2.6","subject":"5y0a9x6plykskem","sona":"9304"},{"rt":281,"stimulus":"<p>Welche Sequenz haben Sie als natürlicher empfunden?</p>","key_press":74,"test_part":"response","test_stimulus":{"position":1,"left":"bvh/vr_prediction_models/model(dmp)-dataset(return-bottle-hold)-npsi(40)-hold(3)/final-lines.txt","right":"bvh/return-bottle-hold-training3-lines.txt","att_check":false},"trial_type":"html-keyboard-response","trial_index":34,"time_elapsed":104928,"internal_node_id":"0.0-8.0-3.6","subject":"5y0a9x6plykskem","sona":"9304"},{"rt":909,"stimulus":"<p>Bereit?</p>","key_press":32,"trial_type":"html-keyboard-response","trial_index":35,"time_elapsed":105838,"internal_node_id":"0.0-8.0-0.7","subject":"5y0a9x6plykskem","sona":"9304"},{"rt":null,"stimulus":"<div style=\"font-size:60px;\">+</div>","key_press":null,"trial_type":"html-keyboard-response","trial_index":36,"time_elapsed":107854,"internal_node_id":"0.0-8.0-1.7","subject":"5y0a9x6plykskem","sona":"9304"},{"trial_type":"turing-test","trial_index":37,"time_elapsed":113674,"internal_node_id":"0.0-8.0-2.7","subject":"5y0a9x6plykskem","sona":"9304"},{"rt":1114,"stimulus":"<p>Welche Sequenz haben Sie als natürlicher empfunden?</p>","key_press":74,"test_part":"response","test_stimulus":{"position":1,"left":"bvh/vr_prediction_models/model(vcgpdm)-dataset(pass-bottle)-mode(ELBO)-parts(3)-dyn(25)-lvm(15)-hold(4)/final-lines.txt","right":"bvh/pass-bottle-training4-lines.txt","att_check":false},"trial_type":"html-keyboard-response","trial_index":38,"time_elapsed":114789,"internal_node_id":"0.0-8.0-3.7","subject":"5y0a9x6plykskem","sona":"9304"},{"rt":687,"stimulus":"<p>Bereit?</p>","key_press":32,"trial_type":"html-keyboard-response","trial_index":39,"time_elapsed":115477,"internal_node_id":"0.0-8.0-0.8","subject":"5y0a9x6plykskem","sona":"9304"},{"rt":null,"stimulus":"<div style=\"font-size:60px;\">+</div>","key_press":null,"trial_type":"html-keyboard-response","trial_index":40,"time_elapsed":117500,"internal_node_id":"0.0-8.0-1.8","subject":"5y0a9x6plykskem","sona":"9304"},{"trial_type":"turing-test","trial_index":41,"time_elapsed":120883,"internal_node_id":"0.0-8.0-2.8","subject":"5y0a9x6plykskem","sona":"9304"},{"rt":517,"stimulus":"<p>Welche Sequenz haben Sie als natürlicher empfunden?</p>","key_press":74,"test_part":"response","test_stimulus":{"position":1,"left":"bvh/vr_prediction_models/model(vcgpdm)-dataset(pass-bottle-hold)-mode(ELBO)-parts(3)-dyn(25)-lvm(25)-hold(0)/final-lines.txt","right":"bvh/pass-bottle-hold-training0-lines.txt","att_check":false},"trial_type":"html-keyboard-response","trial_index":42,"time_elapsed":121401,"internal_node_id":"0.0-8.0-3.8","subject":"5y0a9x6plykskem","sona":"9304"},{"rt":1114,"stimulus":"<p>Bereit?</p>","key_press":32,"trial_type":"html-keyboard-response","trial_index":43,"time_elapsed":122517,"internal_node_id":"0.0-8.0-0.9","subject":"5y0a9x6plykskem","sona":"9304"},{"rt":null,"stimulus":"<div style=\"font-size:60px;\">+</div>","key_press":null,"trial_type":"html-keyboard-response","trial_index":44,"time_elapsed":124534,"internal_node_id":"0.0-8.0-1.9","subject":"5y0a9x6plykskem","sona":"9304"},{"trial_type":"turing-test","trial_index":45,"time_elapsed":130674,"internal_node_id":"0.0-8.0-2.9","subject":"5y0a9x6plykskem","sona":"9304"},{"rt":577,"stimulus":"<p>Welche Sequenz haben Sie als natürlicher empfunden?</p>","key_press":74,"test_part":"response","test_stimulus":{"position":1,"left":"bvh/vr_prediction_models/model(vcgpdm)-dataset(return-bottle)-mode(ELBO)-parts(1)-dyn(10)-lvm(25)-hold(1)/final-lines.txt","right":"bvh/return-bottle-training1-lines.txt","att_check":false},"trial_type":"html-keyboard-response","trial_index":46,"time_elapsed":131252,"internal_node_id":"0.0-8.0-3.9","subject":"5y0a9x6plykskem","sona":"9304"},{"rt":1082,"stimulus":"<p>Bereit?</p>","key_press":32,"trial_type":"html-keyboard-response","trial_index":47,"time_elapsed":132335,"internal_node_id":"0.0-8.0-0.10","subject":"5y0a9x6plykskem","sona":"9304"},{"rt":null,"stimulus":"<div style=\"font-size:60px;\">+</div>","key_press":null,"trial_type":"html-keyboard-response","trial_index":48,"time_elapsed":134363,"internal_node_id":"0.0-8.0-1.10","subject":"5y0a9x6plykskem","sona":"9304"},{"trial_type":"turing-test","trial_index":49,"time_elapsed":139544,"internal_node_id":"0.0-8.0-2.10","subject":"5y0a9x6plykskem","sona":"9304"},{"rt":542,"stimulus":"<p>Welche Sequenz haben Sie als natürlicher empfunden?</p>","key_press":74,"test_part":"response","test_stimulus":{"position":1,"left":"bvh/vr_prediction_models/model(vcgpdm)-dataset(return-bottle-hold)-mode(ELBO)-parts(1)-dyn(10)-lvm(30)-hold(0)/final-lines.txt","right":"bvh/return-bottle-hold-training0-lines.txt","att_check":false},"trial_type":"html-keyboard-response","trial_index":50,"time_elapsed":140087,"internal_node_id":"0.0-8.0-3.10","subject":"5y0a9x6plykskem","sona":"9304"},{"rt":1140,"stimulus":"<p>Bereit?</p>","key_press":32,"trial_type":"html-keyboard-response","trial_index":51,"time_elapsed":141229,"internal_node_id":"0.0-8.0-0.11","subject":"5y0a9x6plykskem","sona":"9304"},{"rt":null,"stimulus":"<div style=\"font-size:60px;\">+</div>","key_press":null,"trial_type":"html-keyboard-response","trial_index":52,"time_elapsed":143243,"internal_node_id":"0.0-8.0-1.11","subject":"5y0a9x6plykskem","sona":"9304"},{"trial_type":"turing-test","trial_index":53,"time_elapsed":149063,"internal_node_id":"0.0-8.0-2.11","subject":"5y0a9x6plykskem","sona":"9304"}]