[{"rt":2085,"stimulus":"<p>Welcome!<br> Please choose your language to start the experiment in the chosen language.</p><p>Willkommen!<br> Bitte wählen Sie eine Sprache um das Experiment in der ausgewählten Sprache zu starten</p>","button_pressed":"1","trial_type":"html-button-response","trial_index":0,"time_elapsed":2092,"internal_node_id":"0.0-0.0","subject":"w75wd3tdpjxptzo","sona":"3973"},{"view_history":"[{\"page_index\":0,\"viewing_time\":540},{\"page_index\":1,\"viewing_time\":545},{\"page_index\":2,\"viewing_time\":567},{\"page_index\":3,\"viewing_time\":393}]","rt":2045,"trial_type":"instructions","trial_index":1,"time_elapsed":4138,"internal_node_id":"0.0-1.0-0.0","subject":"w75wd3tdpjxptzo","sona":"3973"},{"rt":696,"stimulus":"<p>Bereit?</p>","button_pressed":"0","trial_type":"html-button-response","trial_index":2,"time_elapsed":4836,"internal_node_id":"0.0-3.0","subject":"w75wd3tdpjxptzo","sona":"3973"},{"rt":null,"stimulus":"<div style=\"font-size:60px;\">+</div>","key_press":null,"trial_type":"html-keyboard-response","trial_index":3,"time_elapsed":6838,"internal_node_id":"0.0-4.0","subject":"w75wd3tdpjxptzo","sona":"3973"},{"trial_type":"training","trial_index":4,"time_elapsed":10113,"internal_node_id":"0.0-5.0","subject":"w75wd3tdpjxptzo","sona":"3973"},{"rt":780,"stimulus":"<p>Welche Sequenz haben Sie als natürlicher empfunden?</p>","button_pressed":"0","trial_type":"html-button-response","trial_index":5,"time_elapsed":10894,"internal_node_id":"0.0-6.0","subject":"w75wd3tdpjxptzo","sona":"3973"},{"rt":547,"stimulus":"<p>Das Experiment startet nun.</p><p> Bitte drücken Sie den Knopf, wenn Sie bereit sind.</p>","button_pressed":"0","trial_type":"html-button-response","trial_index":6,"time_elapsed":11443,"internal_node_id":"0.0-7.0","subject":"w75wd3tdpjxptzo","sona":"3973"},{"rt":568,"stimulus":"<p>Bereit?</p>","button_pressed":"0","trial_type":"html-button-response","trial_index":7,"time_elapsed":12012,"internal_node_id":"0.0-8.0-0.0","subject":"w75wd3tdpjxptzo","sona":"3973"},{"rt":null,"stimulus":"<div style=\"font-size:60px;\">+</div>","key_press":null,"trial_type":"html-keyboard-response","trial_index":8,"time_elapsed":14014,"internal_node_id":"0.0-8.0-1.0","subject":"w75wd3tdpjxptzo","sona":"3973"},{"trial_type":"turing-test","trial_index":9,"time_elapsed":19867,"internal_node_id":"0.0-8.0-2.0","subject":"w75wd3tdpjxptzo","sona":"3973"},{"rt":10816,"stimulus":"<p>Welche Sequenz haben Sie als natürlicher empfunden?</p>","button_pressed":"1","test_part":"response","test_stimulus":{"position":1,"left":"bvh/vr_prediction_models/model(vcgpdm)-dataset(return-bottle)-mode(ELBO)-parts(3)-dyn(10)-lvm(30)-hold(3)/final-lines.txt","right":"bvh/return-bottle-training3-lines.txt","att_check":false},"trial_type":"html-button-response","trial_index":10,"time_elapsed":30686,"internal_node_id":"0.0-8.0-3.0","subject":"w75wd3tdpjxptzo","sona":"3973"},{"rt":710,"stimulus":"<p>Bereit?</p>","button_pressed":"0","trial_type":"html-button-response","trial_index":11,"time_elapsed":31398,"internal_node_id":"0.0-8.0-0.1","subject":"w75wd3tdpjxptzo","sona":"3973"},{"rt":null,"stimulus":"<div style=\"font-size:60px;\">+</div>","key_press":null,"trial_type":"html-keyboard-response","trial_index":12,"time_elapsed":33403,"internal_node_id":"0.0-8.0-1.1","subject":"w75wd3tdpjxptzo","sona":"3973"},{"trial_type":"turing-test","trial_index":13,"time_elapsed":39133,"internal_node_id":"0.0-8.0-2.1","subject":"w75wd3tdpjxptzo","sona":"3973"},{"rt":828,"stimulus":"<p>Welche Sequenz haben Sie als natürlicher empfunden?</p>","button_pressed":"1","test_part":"response","test_stimulus":{"position":1,"left":"bvh/vr_prediction_models/model(dmp)-dataset(return-bottle)-npsi(80)-hold(3)/final-lines.txt","right":"bvh/return-bottle-training3-lines.txt","att_check":false},"trial_type":"html-button-response","trial_index":14,"time_elapsed":39963,"internal_node_id":"0.0-8.0-3.1","subject":"w75wd3tdpjxptzo","sona":"3973"},{"rt":607,"stimulus":"<p>Bereit?</p>","button_pressed":"0","trial_type":"html-button-response","trial_index":15,"time_elapsed":40571,"internal_node_id":"0.0-8.0-0.2","subject":"w75wd3tdpjxptzo","sona":"3973"},{"rt":null,"stimulus":"<div style=\"font-size:60px;\">+</div>","key_press":null,"trial_type":"html-keyboard-response","trial_index":16,"time_elapsed":42574,"internal_node_id":"0.0-8.0-1.2","subject":"w75wd3tdpjxptzo","sona":"3973"},{"trial_type":"turing-test","trial_index":17,"time_elapsed":48599,"internal_node_id":"0.0-8.0-2.2","subject":"w75wd3tdpjxptzo","sona":"3973"},{"rt":859,"stimulus":"<p>Welche Sequenz haben Sie als natürlicher empfunden?</p>","button_pressed":"0","test_part":"response","test_stimulus":{"position":0,"left":"bvh/return-bottle-training1-lines.txt","right":"bvh/vr_prediction_models/model(dmp)-dataset(return-bottle)-npsi(30)-hold(1)/final-lines.txt","att_check":false},"trial_type":"html-button-response","trial_index":18,"time_elapsed":49459,"internal_node_id":"0.0-8.0-3.2","subject":"w75wd3tdpjxptzo","sona":"3973"}]