[{"rt":1408,"stimulus":"<p>Welcome!<br> Please choose your language to start the experiment in the chosen language.</p><p>Willkommen!<br> Bitte wählen Sie eine Sprache, um das Experiment in der ausgewählten Sprache zu starten</p>","button_pressed":"1","trial_type":"html-button-response","trial_index":0,"time_elapsed":1414,"internal_node_id":"0.0-0.0","subject":"4fbd05t4s59xqjj","sona":"8719"},{"view_history":"[{\"page_index\":0,\"viewing_time\":893},{\"page_index\":1,\"viewing_time\":1424},{\"page_index\":2,\"viewing_time\":960},{\"page_index\":3,\"viewing_time\":1880},{\"page_index\":4,\"viewing_time\":1984}]","rt":7141,"trial_type":"instructions","trial_index":1,"time_elapsed":8558,"internal_node_id":"0.0-1.0-0.0","subject":"4fbd05t4s59xqjj","sona":"8719"},{"rt":1786,"stimulus":"<p>Bereit?</p>","key_press":32,"trial_type":"html-keyboard-response","trial_index":2,"time_elapsed":10349,"internal_node_id":"0.0-3.0","subject":"4fbd05t4s59xqjj","sona":"8719"},{"rt":null,"stimulus":"<div style=\"font-size:60px;\">+</div>","key_press":null,"trial_type":"html-keyboard-response","trial_index":3,"time_elapsed":12370,"internal_node_id":"0.0-4.0","subject":"4fbd05t4s59xqjj","sona":"8719"},{"trial_type":"training","trial_index":4,"time_elapsed":15642,"internal_node_id":"0.0-5.0","subject":"4fbd05t4s59xqjj","sona":"8719"},{"rt":959,"stimulus":"<p>Welche Sequenz haben Sie als natürlicher empfunden?</p>","key_press":70,"trial_type":"html-keyboard-response","trial_index":5,"time_elapsed":16606,"internal_node_id":"0.0-6.0","subject":"4fbd05t4s59xqjj","sona":"8719"},{"rt":2638,"stimulus":"<p>Das Experiment startet nun.</p><p><small>Bitte drücken Sie den Knopf, wenn Sie bereit sind.</small></p>","button_pressed":"0","trial_type":"html-button-response","trial_index":6,"time_elapsed":19245,"internal_node_id":"0.0-7.0","subject":"4fbd05t4s59xqjj","sona":"8719"},{"rt":1564,"stimulus":"<p>Bereit?</p>","key_press":32,"trial_type":"html-keyboard-response","trial_index":7,"time_elapsed":20811,"internal_node_id":"0.0-8.0-0.0","subject":"4fbd05t4s59xqjj","sona":"8719"},{"rt":null,"stimulus":"<div style=\"font-size:60px;\">+</div>","key_press":null,"trial_type":"html-keyboard-response","trial_index":8,"time_elapsed":22844,"internal_node_id":"0.0-8.0-1.0","subject":"4fbd05t4s59xqjj","sona":"8719"},{"trial_type":"turing-test","trial_index":9,"time_elapsed":28703,"internal_node_id":"0.0-8.0-2.0","subject":"4fbd05t4s59xqjj","sona":"8719"},{"rt":958,"stimulus":"<p>Welche Sequenz haben Sie als natürlicher empfunden?</p>","key_press":74,"test_part":"response","test_stimulus":{"position":0,"left":"bvh/return-bottle-hold-training4-lines.txt","right":"bvh/vr_prediction_models/model(vcgpdm)-dataset(return-bottle-hold)-mode(ELBO)-parts(3)-dyn(10)-lvm(10)-hold(4)/final-lines.txt","att_check":false},"trial_type":"html-keyboard-response","trial_index":10,"time_elapsed":29669,"internal_node_id":"0.0-8.0-3.0","subject":"4fbd05t4s59xqjj","sona":"8719"},{"rt":393,"stimulus":"<p>Bereit?</p>","key_press":32,"trial_type":"html-keyboard-response","trial_index":11,"time_elapsed":30067,"internal_node_id":"0.0-8.0-0.1","subject":"4fbd05t4s59xqjj","sona":"8719"},{"rt":null,"stimulus":"<div style=\"font-size:60px;\">+</div>","key_press":null,"trial_type":"html-keyboard-response","trial_index":12,"time_elapsed":32098,"internal_node_id":"0.0-8.0-1.1","subject":"4fbd05t4s59xqjj","sona":"8719"},{"trial_type":"turing-test","trial_index":13,"time_elapsed":38347,"internal_node_id":"0.0-8.0-2.1","subject":"4fbd05t4s59xqjj","sona":"8719"},{"rt":1345,"stimulus":"<p>Welche Sequenz haben Sie als natürlicher empfunden?</p>","key_press":70,"test_part":"response","test_stimulus":{"position":0,"left":"bvh/pass-bottle-training4-lines.txt","right":"bvh/vr_prediction_models/model(dmp)-dataset(pass-bottle)-npsi(20)-hold(4)/final-lines.txt","att_check":false},"trial_type":"html-keyboard-response","trial_index":14,"time_elapsed":39698,"internal_node_id":"0.0-8.0-3.1","subject":"4fbd05t4s59xqjj","sona":"8719"},{"rt":1117,"stimulus":"<p>Bereit?</p>","key_press":32,"trial_type":"html-keyboard-response","trial_index":15,"time_elapsed":40817,"internal_node_id":"0.0-8.0-0.2","subject":"4fbd05t4s59xqjj","sona":"8719"},{"rt":null,"stimulus":"<div style=\"font-size:60px;\">+</div>","key_press":null,"trial_type":"html-keyboard-response","trial_index":16,"time_elapsed":42847,"internal_node_id":"0.0-8.0-1.2","subject":"4fbd05t4s59xqjj","sona":"8719"},{"trial_type":"turing-test","trial_index":17,"time_elapsed":50363,"internal_node_id":"0.0-8.0-2.2","subject":"4fbd05t4s59xqjj","sona":"8719"},{"rt":1330,"stimulus":"<p>Welche Sequenz haben Sie als natürlicher empfunden?</p>","key_press":70,"test_part":"response","test_stimulus":{"position":0,"left":"bvh/return-bottle-training4-lines.txt","right":"bvh/vr_prediction_models/model(vcgpdm)-dataset(return-bottle)-mode(ELBO)-parts(1)-dyn(30)-lvm(35)-hold(4)/final-lines.txt","att_check":false},"trial_type":"html-keyboard-response","trial_index":18,"time_elapsed":51697,"internal_node_id":"0.0-8.0-3.2","subject":"4fbd05t4s59xqjj","sona":"8719"},{"rt":515,"stimulus":"<p>Bereit?</p>","key_press":32,"trial_type":"html-keyboard-response","trial_index":19,"time_elapsed":52216,"internal_node_id":"0.0-8.0-0.3","subject":"4fbd05t4s59xqjj","sona":"8719"},{"rt":null,"stimulus":"<div style=\"font-size:60px;\">+</div>","key_press":null,"trial_type":"html-keyboard-response","trial_index":20,"time_elapsed":54224,"internal_node_id":"0.0-8.0-1.3","subject":"4fbd05t4s59xqjj","sona":"8719"},{"trial_type":"turing-test","trial_index":21,"time_elapsed":57638,"internal_node_id":"0.0-8.0-2.3","subject":"4fbd05t4s59xqjj","sona":"8719"},{"rt":1901,"stimulus":"<p>Welche Sequenz haben Sie als natürlicher empfunden?</p>","key_press":74,"test_part":"response","test_stimulus":{"position":0,"left":"bvh/return-bottle-hold-training1-lines.txt","right":"bvh/vr_prediction_models/model(tmp)-dataset(return-bottle-hold)-numprim(10)-hold(1)/final-lines.txt","att_check":false},"trial_type":"html-keyboard-response","trial_index":22,"time_elapsed":59545,"internal_node_id":"0.0-8.0-3.3","subject":"4fbd05t4s59xqjj","sona":"8719"},{"rt":377,"stimulus":"<p>Bereit?</p>","key_press":32,"trial_type":"html-keyboard-response","trial_index":23,"time_elapsed":59925,"internal_node_id":"0.0-8.0-0.4","subject":"4fbd05t4s59xqjj","sona":"8719"},{"rt":null,"stimulus":"<div style=\"font-size:60px;\">+</div>","key_press":null,"trial_type":"html-keyboard-response","trial_index":24,"time_elapsed":61951,"internal_node_id":"0.0-8.0-1.4","subject":"4fbd05t4s59xqjj","sona":"8719"},{"trial_type":"turing-test","trial_index":25,"time_elapsed":67530,"internal_node_id":"0.0-8.0-2.4","subject":"4fbd05t4s59xqjj","sona":"8719"},{"rt":1435,"stimulus":"<p>Welche Sequenz haben Sie als natürlicher empfunden?</p>","key_press":70,"test_part":"response","test_stimulus":{"position":1,"left":"bvh/vr_prediction_models/model(vcgpdm)-dataset(pass-bottle-hold)-mode(ELBO)-parts(3)-dyn(25)-lvm(15)-hold(4)/final-lines.txt","right":"bvh/pass-bottle-hold-training4-lines.txt","att_check":false},"trial_type":"html-keyboard-response","trial_index":26,"time_elapsed":68971,"internal_node_id":"0.0-8.0-3.4","subject":"4fbd05t4s59xqjj","sona":"8719"},{"rt":948,"stimulus":"<p>Bereit?</p>","key_press":32,"trial_type":"html-keyboard-response","trial_index":27,"time_elapsed":69923,"internal_node_id":"0.0-8.0-0.5","subject":"4fbd05t4s59xqjj","sona":"8719"},{"rt":null,"stimulus":"<div style=\"font-size:60px;\">+</div>","key_press":null,"trial_type":"html-keyboard-response","trial_index":28,"time_elapsed":71947,"internal_node_id":"0.0-8.0-1.5","subject":"4fbd05t4s59xqjj","sona":"8719"},{"trial_type":"turing-test","trial_index":29,"time_elapsed":79188,"internal_node_id":"0.0-8.0-2.5","subject":"4fbd05t4s59xqjj","sona":"8719"},{"rt":614,"stimulus":"<p>Welche Sequenz haben Sie als natürlicher empfunden?</p>","key_press":70,"test_part":"response","test_stimulus":{"position":0,"left":"bvh/return-bottle-training4-lines.txt","right":"bvh/vr_prediction_models/model(vcgpdm)-dataset(return-bottle)-mode(ELBO)-parts(3)-dyn(10)-lvm(25)-hold(4)/final-lines.txt","att_check":false},"trial_type":"html-keyboard-response","trial_index":30,"time_elapsed":79811,"internal_node_id":"0.0-8.0-3.5","subject":"4fbd05t4s59xqjj","sona":"8719"},{"rt":484,"stimulus":"<p>Bereit?</p>","key_press":32,"trial_type":"html-keyboard-response","trial_index":31,"time_elapsed":80302,"internal_node_id":"0.0-8.0-0.6","subject":"4fbd05t4s59xqjj","sona":"8719"},{"rt":null,"stimulus":"<div style=\"font-size:60px;\">+</div>","key_press":null,"trial_type":"html-keyboard-response","trial_index":32,"time_elapsed":82322,"internal_node_id":"0.0-8.0-1.6","subject":"4fbd05t4s59xqjj","sona":"8719"},{"trial_type":"turing-test","trial_index":33,"time_elapsed":89615,"internal_node_id":"0.0-8.0-2.6","subject":"4fbd05t4s59xqjj","sona":"8719"},{"rt":1428,"stimulus":"<p>Welche Sequenz haben Sie als natürlicher empfunden?</p>","key_press":74,"test_part":"response","test_stimulus":{"position":1,"left":"bvh/vr_prediction_models/model(vcgpdm)-dataset(pass-bottle)-mode(ELBO)-parts(3)-dyn(30)-lvm(15)-hold(1)/final-lines.txt","right":"bvh/pass-bottle-training1-lines.txt","att_check":false},"trial_type":"html-keyboard-response","trial_index":34,"time_elapsed":91049,"internal_node_id":"0.0-8.0-3.6","subject":"4fbd05t4s59xqjj","sona":"8719"},{"rt":673,"stimulus":"<p>Bereit?</p>","key_press":32,"trial_type":"html-keyboard-response","trial_index":35,"time_elapsed":91728,"internal_node_id":"0.0-8.0-0.7","subject":"4fbd05t4s59xqjj","sona":"8719"},{"rt":null,"stimulus":"<div style=\"font-size:60px;\">+</div>","key_press":null,"trial_type":"html-keyboard-response","trial_index":36,"time_elapsed":93749,"internal_node_id":"0.0-8.0-1.7","subject":"4fbd05t4s59xqjj","sona":"8719"},{"trial_type":"turing-test","trial_index":37,"time_elapsed":102119,"internal_node_id":"0.0-8.0-2.7","subject":"4fbd05t4s59xqjj","sona":"8719"},{"rt":1417,"stimulus":"<p>Welche Sequenz haben Sie als natürlicher empfunden?</p>","key_press":74,"test_part":"response","test_stimulus":{"position":1,"left":"bvh/vr_prediction_models/model(vcgpdm)-dataset(return-bottle)-mode(ELBO)-parts(3)-dyn(25)-lvm(25)-hold(3)/final-lines.txt","right":"bvh/return-bottle-training3-lines.txt","att_check":false},"trial_type":"html-keyboard-response","trial_index":38,"time_elapsed":103545,"internal_node_id":"0.0-8.0-3.7","subject":"4fbd05t4s59xqjj","sona":"8719"},{"rt":509,"stimulus":"<p>Bereit?</p>","key_press":32,"trial_type":"html-keyboard-response","trial_index":39,"time_elapsed":104061,"internal_node_id":"0.0-8.0-0.8","subject":"4fbd05t4s59xqjj","sona":"8719"},{"rt":null,"stimulus":"<div style=\"font-size:60px;\">+</div>","key_press":null,"trial_type":"html-keyboard-response","trial_index":40,"time_elapsed":106090,"internal_node_id":"0.0-8.0-1.8","subject":"4fbd05t4s59xqjj","sona":"8719"},{"trial_type":"turing-test","trial_index":41,"time_elapsed":113618,"internal_node_id":"0.0-8.0-2.8","subject":"4fbd05t4s59xqjj","sona":"8719"},{"rt":1912,"stimulus":"<p>Welche Sequenz haben Sie als natürlicher empfunden?</p>","key_press":74,"test_part":"response","test_stimulus":{"position":1,"left":"bvh/vr_prediction_models/model(vcgpdm)-dataset(pass-bottle)-mode(ELBO)-parts(1)-dyn(30)-lvm(35)-hold(3)/final-lines.txt","right":"bvh/pass-bottle-training3-lines.txt","att_check":false},"trial_type":"html-keyboard-response","trial_index":42,"time_elapsed":115536,"internal_node_id":"0.0-8.0-3.8","subject":"4fbd05t4s59xqjj","sona":"8719"},{"rt":973,"stimulus":"<p>Bereit?</p>","key_press":32,"trial_type":"html-keyboard-response","trial_index":43,"time_elapsed":116513,"internal_node_id":"0.0-8.0-0.9","subject":"4fbd05t4s59xqjj","sona":"8719"},{"rt":null,"stimulus":"<div style=\"font-size:60px;\">+</div>","key_press":null,"trial_type":"html-keyboard-response","trial_index":44,"time_elapsed":118529,"internal_node_id":"0.0-8.0-1.9","subject":"4fbd05t4s59xqjj","sona":"8719"}]