[{"rt":1894,"stimulus":"<p>Welcome!<br> Please choose your language to start the experiment in the chosen language.</p><p>Willkommen!<br> Bitte wählen Sie eine Sprache, um das Experiment in der ausgewählten Sprache zu starten</p>","button_pressed":"1","trial_type":"html-button-response","trial_index":0,"time_elapsed":1901,"internal_node_id":"0.0-0.0","subject":"h2drs9pek4h2ugd","sona":"7624"},{"view_history":"[{\"page_index\":0,\"viewing_time\":2361},{\"page_index\":1,\"viewing_time\":3048},{\"page_index\":2,\"viewing_time\":3810},{\"page_index\":3,\"viewing_time\":2970},{\"page_index\":4,\"viewing_time\":2543}]","rt":14733,"trial_type":"instructions","trial_index":1,"time_elapsed":16636,"internal_node_id":"0.0-1.0-0.0","subject":"h2drs9pek4h2ugd","sona":"7624"},{"rt":1391,"stimulus":"<p>Bereit?</p>","key_press":32,"trial_type":"html-keyboard-response","trial_index":2,"time_elapsed":18029,"internal_node_id":"0.0-3.0","subject":"h2drs9pek4h2ugd","sona":"7624"},{"rt":null,"stimulus":"<div style=\"font-size:60px;\">+</div>","key_press":null,"trial_type":"html-keyboard-response","trial_index":3,"time_elapsed":20035,"internal_node_id":"0.0-4.0","subject":"h2drs9pek4h2ugd","sona":"7624"},{"trial_type":"training","trial_index":4,"time_elapsed":23502,"internal_node_id":"0.0-5.0","subject":"h2drs9pek4h2ugd","sona":"7624"},{"rt":310,"stimulus":"<p>Welche Sequenz haben Sie als natürlicher empfunden?</p>","key_press":70,"trial_type":"html-keyboard-response","trial_index":5,"time_elapsed":23813,"internal_node_id":"0.0-6.0","subject":"h2drs9pek4h2ugd","sona":"7624"},{"rt":2447,"stimulus":"<p>Das Experiment startet nun.</p><p><small>Bitte drücken Sie den Knopf, wenn Sie bereit sind.</small></p>","button_pressed":"0","trial_type":"html-button-response","trial_index":6,"time_elapsed":26262,"internal_node_id":"0.0-7.0","subject":"h2drs9pek4h2ugd","sona":"7624"},{"rt":3374,"stimulus":"<p>Bereit?</p>","key_press":32,"trial_type":"html-keyboard-response","trial_index":7,"time_elapsed":29635,"internal_node_id":"0.0-8.0-0.0","subject":"h2drs9pek4h2ugd","sona":"7624"},{"rt":null,"stimulus":"<div style=\"font-size:60px;\">+</div>","key_press":null,"trial_type":"html-keyboard-response","trial_index":8,"time_elapsed":31643,"internal_node_id":"0.0-8.0-1.0","subject":"h2drs9pek4h2ugd","sona":"7624"},{"trial_type":"turing-test","trial_index":9,"time_elapsed":34959,"internal_node_id":"0.0-8.0-2.0","subject":"h2drs9pek4h2ugd","sona":"7624"},{"rt":338,"stimulus":"<p>Welche Sequenz haben Sie als natürlicher empfunden?</p>","key_press":74,"test_part":"response","test_stimulus":{"position":1,"left":"bvh/vr_prediction_models/model(dmp)-dataset(pass-bottle-hold)-npsi(10)-hold(0)/final-lines.txt","right":"bvh/pass-bottle-hold-training0-lines.txt","att_check":false},"trial_type":"html-keyboard-response","trial_index":10,"time_elapsed":35300,"internal_node_id":"0.0-8.0-3.0","subject":"h2drs9pek4h2ugd","sona":"7624"},{"rt":4453,"stimulus":"<p>Bereit?</p>","key_press":32,"trial_type":"html-keyboard-response","trial_index":11,"time_elapsed":39755,"internal_node_id":"0.0-8.0-0.1","subject":"h2drs9pek4h2ugd","sona":"7624"},{"rt":null,"stimulus":"<div style=\"font-size:60px;\">+</div>","key_press":null,"trial_type":"html-keyboard-response","trial_index":12,"time_elapsed":41757,"internal_node_id":"0.0-8.0-1.1","subject":"h2drs9pek4h2ugd","sona":"7624"},{"trial_type":"turing-test","trial_index":13,"time_elapsed":45277,"internal_node_id":"0.0-8.0-2.1","subject":"h2drs9pek4h2ugd","sona":"7624"},{"rt":373,"stimulus":"<p>Welche Sequenz haben Sie als natürlicher empfunden?</p>","key_press":70,"test_part":"response","test_stimulus":{"position":0,"left":"bvh/pass-bottle-hold-training0-lines.txt","right":"bvh/vr_prediction_models/model(vcgpdm)-dataset(pass-bottle-hold)-mode(ELBO)-parts(3)-dyn(10)-lvm(10)-hold(0)/final-lines.txt","att_check":false},"trial_type":"html-keyboard-response","trial_index":14,"time_elapsed":45652,"internal_node_id":"0.0-8.0-3.1","subject":"h2drs9pek4h2ugd","sona":"7624"},{"rt":1118,"stimulus":"<p>Bereit?</p>","key_press":32,"trial_type":"html-keyboard-response","trial_index":15,"time_elapsed":46771,"internal_node_id":"0.0-8.0-0.2","subject":"h2drs9pek4h2ugd","sona":"7624"},{"rt":null,"stimulus":"<div style=\"font-size:60px;\">+</div>","key_press":null,"trial_type":"html-keyboard-response","trial_index":16,"time_elapsed":48773,"internal_node_id":"0.0-8.0-1.2","subject":"h2drs9pek4h2ugd","sona":"7624"},{"trial_type":"turing-test","trial_index":17,"time_elapsed":54748,"internal_node_id":"0.0-8.0-2.2","subject":"h2drs9pek4h2ugd","sona":"7624"},{"rt":678,"stimulus":"<p>Welche Sequenz haben Sie als natürlicher empfunden?</p>","key_press":74,"test_part":"response","test_stimulus":{"position":1,"left":"bvh/vr_prediction_models/model(vcgpdm)-dataset(pass-bottle)-mode(ELBO)-parts(3)-dyn(35)-lvm(20)-hold(3)/final-lines.txt","right":"bvh/pass-bottle-training3-lines.txt","att_check":false},"trial_type":"html-keyboard-response","trial_index":18,"time_elapsed":55427,"internal_node_id":"0.0-8.0-3.2","subject":"h2drs9pek4h2ugd","sona":"7624"},{"rt":319,"stimulus":"<p>Bereit?</p>","key_press":32,"trial_type":"html-keyboard-response","trial_index":19,"time_elapsed":55747,"internal_node_id":"0.0-8.0-0.3","subject":"h2drs9pek4h2ugd","sona":"7624"},{"rt":null,"stimulus":"<div style=\"font-size:60px;\">+</div>","key_press":null,"trial_type":"html-keyboard-response","trial_index":20,"time_elapsed":57749,"internal_node_id":"0.0-8.0-1.3","subject":"h2drs9pek4h2ugd","sona":"7624"},{"trial_type":"turing-test","trial_index":21,"time_elapsed":64646,"internal_node_id":"0.0-8.0-2.3","subject":"h2drs9pek4h2ugd","sona":"7624"},{"rt":468,"stimulus":"<p>Welche Sequenz haben Sie als natürlicher empfunden?</p>","key_press":70,"test_part":"response","test_stimulus":{"position":1,"left":"bvh/vr_prediction_models/model(vcgpdm)-dataset(pass-bottle)-mode(ELBO)-parts(3)-dyn(20)-lvm(15)-hold(0)/final-lines.txt","right":"bvh/pass-bottle-training0-lines.txt","att_check":false},"trial_type":"html-keyboard-response","trial_index":22,"time_elapsed":65116,"internal_node_id":"0.0-8.0-3.3","subject":"h2drs9pek4h2ugd","sona":"7624"},{"rt":414,"stimulus":"<p>Bereit?</p>","key_press":32,"trial_type":"html-keyboard-response","trial_index":23,"time_elapsed":65531,"internal_node_id":"0.0-8.0-0.4","subject":"h2drs9pek4h2ugd","sona":"7624"},{"rt":null,"stimulus":"<div style=\"font-size:60px;\">+</div>","key_press":null,"trial_type":"html-keyboard-response","trial_index":24,"time_elapsed":67538,"internal_node_id":"0.0-8.0-1.4","subject":"h2drs9pek4h2ugd","sona":"7624"},{"trial_type":"turing-test","trial_index":25,"time_elapsed":72791,"internal_node_id":"0.0-8.0-2.4","subject":"h2drs9pek4h2ugd","sona":"7624"},{"rt":523,"stimulus":"<p>Welche Sequenz haben Sie als natürlicher empfunden?</p>","key_press":74,"test_part":"response","test_stimulus":{"position":0,"left":"bvh/return-bottle-hold-training0-lines.txt","right":"bvh/vr_prediction_models/model(tmp)-dataset(return-bottle-hold)-numprim(6)-hold(0)/final-lines.txt","att_check":false},"trial_type":"html-keyboard-response","trial_index":26,"time_elapsed":73316,"internal_node_id":"0.0-8.0-3.4","subject":"h2drs9pek4h2ugd","sona":"7624"},{"rt":375,"stimulus":"<p>Bereit?</p>","key_press":32,"trial_type":"html-keyboard-response","trial_index":27,"time_elapsed":73692,"internal_node_id":"0.0-8.0-0.5","subject":"h2drs9pek4h2ugd","sona":"7624"},{"rt":null,"stimulus":"<div style=\"font-size:60px;\">+</div>","key_press":null,"trial_type":"html-keyboard-response","trial_index":28,"time_elapsed":75698,"internal_node_id":"0.0-8.0-1.5","subject":"h2drs9pek4h2ugd","sona":"7624"},{"trial_type":"turing-test","trial_index":29,"time_elapsed":79027,"internal_node_id":"0.0-8.0-2.5","subject":"h2drs9pek4h2ugd","sona":"7624"},{"rt":463,"stimulus":"<p>Welche Sequenz haben Sie als natürlicher empfunden?</p>","key_press":70,"test_part":"response","test_stimulus":{"position":0,"left":"bvh/return-bottle-hold-training1-lines.txt","right":"bvh/vr_prediction_models/model(dmp)-dataset(return-bottle-hold)-npsi(10)-hold(1)/final-lines.txt","att_check":false},"trial_type":"html-keyboard-response","trial_index":30,"time_elapsed":79492,"internal_node_id":"0.0-8.0-3.5","subject":"h2drs9pek4h2ugd","sona":"7624"},{"rt":287,"stimulus":"<p>Bereit?</p>","key_press":32,"trial_type":"html-keyboard-response","trial_index":31,"time_elapsed":79780,"internal_node_id":"0.0-8.0-0.6","subject":"h2drs9pek4h2ugd","sona":"7624"},{"rt":null,"stimulus":"<div style=\"font-size:60px;\">+</div>","key_press":null,"trial_type":"html-keyboard-response","trial_index":32,"time_elapsed":81785,"internal_node_id":"0.0-8.0-1.6","subject":"h2drs9pek4h2ugd","sona":"7624"},{"trial_type":"turing-test","trial_index":33,"time_elapsed":85589,"internal_node_id":"0.0-8.0-2.6","subject":"h2drs9pek4h2ugd","sona":"7624"},{"rt":405,"stimulus":"<p>Welche Sequenz haben Sie als natürlicher empfunden?</p>","key_press":70,"test_part":"response","test_stimulus":{"position":1,"left":"bvh/vr_prediction_models/model(vcgpdm)-dataset(return-bottle-hold)-mode(ELBO)-parts(3)-dyn(15)-lvm(30)-hold(4)/final-lines.txt","right":"bvh/return-bottle-hold-training4-lines.txt","att_check":false},"trial_type":"html-keyboard-response","trial_index":34,"time_elapsed":85997,"internal_node_id":"0.0-8.0-3.6","subject":"h2drs9pek4h2ugd","sona":"7624"},{"rt":270,"stimulus":"<p>Bereit?</p>","key_press":32,"trial_type":"html-keyboard-response","trial_index":35,"time_elapsed":86268,"internal_node_id":"0.0-8.0-0.7","subject":"h2drs9pek4h2ugd","sona":"7624"},{"rt":null,"stimulus":"<div style=\"font-size:60px;\">+</div>","key_press":null,"trial_type":"html-keyboard-response","trial_index":36,"time_elapsed":88270,"internal_node_id":"0.0-8.0-1.7","subject":"h2drs9pek4h2ugd","sona":"7624"},{"trial_type":"turing-test","trial_index":37,"time_elapsed":91747,"internal_node_id":"0.0-8.0-2.7","subject":"h2drs9pek4h2ugd","sona":"7624"},{"rt":265,"stimulus":"<p>Welche Sequenz haben Sie als natürlicher empfunden?</p>","key_press":74,"test_part":"response","test_stimulus":{"position":1,"left":"bvh/vr_prediction_models/model(vcgpdm)-dataset(pass-bottle-hold)-mode(ELBO)-parts(1)-dyn(20)-lvm(20)-hold(2)/final-lines.txt","right":"bvh/pass-bottle-hold-training2-lines.txt","att_check":false},"trial_type":"html-keyboard-response","trial_index":38,"time_elapsed":92013,"internal_node_id":"0.0-8.0-3.7","subject":"h2drs9pek4h2ugd","sona":"7624"},{"rt":295,"stimulus":"<p>Bereit?</p>","key_press":32,"trial_type":"html-keyboard-response","trial_index":39,"time_elapsed":92309,"internal_node_id":"0.0-8.0-0.8","subject":"h2drs9pek4h2ugd","sona":"7624"},{"rt":null,"stimulus":"<div style=\"font-size:60px;\">+</div>","key_press":null,"trial_type":"html-keyboard-response","trial_index":40,"time_elapsed":94313,"internal_node_id":"0.0-8.0-1.8","subject":"h2drs9pek4h2ugd","sona":"7624"},{"trial_type":"turing-test","trial_index":41,"time_elapsed":99512,"internal_node_id":"0.0-8.0-2.8","subject":"h2drs9pek4h2ugd","sona":"7624"},{"rt":317,"stimulus":"<p>Welche Sequenz haben Sie als natürlicher empfunden?</p>","key_press":70,"test_part":"response","test_stimulus":{"position":0,"left":"bvh/return-bottle-hold-training0-lines.txt","right":"bvh/vr_prediction_models/model(dmp)-dataset(return-bottle-hold)-npsi(100)-hold(0)/final-lines.txt","att_check":false},"trial_type":"html-keyboard-response","trial_index":42,"time_elapsed":99829,"internal_node_id":"0.0-8.0-3.8","subject":"h2drs9pek4h2ugd","sona":"7624"},{"rt":295,"stimulus":"<p>Bereit?</p>","key_press":32,"trial_type":"html-keyboard-response","trial_index":43,"time_elapsed":100125,"internal_node_id":"0.0-8.0-0.9","subject":"h2drs9pek4h2ugd","sona":"7624"},{"rt":null,"stimulus":"<div style=\"font-size:60px;\">+</div>","key_press":null,"trial_type":"html-keyboard-response","trial_index":44,"time_elapsed":102133,"internal_node_id":"0.0-8.0-1.9","subject":"h2drs9pek4h2ugd","sona":"7624"},{"trial_type":"turing-test","trial_index":45,"time_elapsed":105667,"internal_node_id":"0.0-8.0-2.9","subject":"h2drs9pek4h2ugd","sona":"7624"},{"rt":344,"stimulus":"<p>Welche Sequenz haben Sie als natürlicher empfunden?</p>","key_press":74,"test_part":"response","test_stimulus":{"position":0,"left":"bvh/pass-bottle-hold-training0-lines.txt","right":"bvh/vr_prediction_models/model(vcgpdm)-dataset(pass-bottle-hold)-mode(ELBO)-parts(1)-dyn(15)-lvm(35)-hold(0)/final-lines.txt","att_check":false},"trial_type":"html-keyboard-response","trial_index":46,"time_elapsed":106013,"internal_node_id":"0.0-8.0-3.9","subject":"h2drs9pek4h2ugd","sona":"7624"},{"rt":326,"stimulus":"<p>Bereit?</p>","key_press":32,"trial_type":"html-keyboard-response","trial_index":47,"time_elapsed":106340,"internal_node_id":"0.0-8.0-0.10","subject":"h2drs9pek4h2ugd","sona":"7624"},{"rt":null,"stimulus":"<div style=\"font-size:60px;\">+</div>","key_press":null,"trial_type":"html-keyboard-response","trial_index":48,"time_elapsed":108344,"internal_node_id":"0.0-8.0-1.10","subject":"h2drs9pek4h2ugd","sona":"7624"},{"trial_type":"turing-test","trial_index":49,"time_elapsed":111971,"internal_node_id":"0.0-8.0-2.10","subject":"h2drs9pek4h2ugd","sona":"7624"},{"rt":346,"stimulus":"<p>Welche Sequenz haben Sie als natürlicher empfunden?</p>","key_press":70,"test_part":"response","test_stimulus":{"position":0,"left":"bvh/pass-bottle-hold-training3-lines.txt","right":"bvh/vr_prediction_models/model(dmp)-dataset(pass-bottle-hold)-npsi(100)-hold(3)/final-lines.txt","att_check":false},"trial_type":"html-keyboard-response","trial_index":50,"time_elapsed":112317,"internal_node_id":"0.0-8.0-3.10","subject":"h2drs9pek4h2ugd","sona":"7624"},{"rt":262,"stimulus":"<p>Bereit?</p>","key_press":32,"trial_type":"html-keyboard-response","trial_index":51,"time_elapsed":112580,"internal_node_id":"0.0-8.0-0.11","subject":"h2drs9pek4h2ugd","sona":"7624"},{"rt":null,"stimulus":"<div style=\"font-size:60px;\">+</div>","key_press":null,"trial_type":"html-keyboard-response","trial_index":52,"time_elapsed":114583,"internal_node_id":"0.0-8.0-1.11","subject":"h2drs9pek4h2ugd","sona":"7624"},{"trial_type":"turing-test","trial_index":53,"time_elapsed":118321,"internal_node_id":"0.0-8.0-2.11","subject":"h2drs9pek4h2ugd","sona":"7624"},{"rt":363,"stimulus":"<p>Welche Sequenz haben Sie als natürlicher empfunden?</p>","key_press":74,"test_part":"response","test_stimulus":{"position":0,"left":"bvh/return-bottle-hold-training3-lines.txt","right":"bvh/vr_prediction_models/model(vcgpdm)-dataset(return-bottle-hold)-mode(ELBO)-parts(3)-dyn(20)-lvm(15)-hold(3)/final-lines.txt","att_check":false},"trial_type":"html-keyboard-response","trial_index":54,"time_elapsed":118685,"internal_node_id":"0.0-8.0-3.11","subject":"h2drs9pek4h2ugd","sona":"7624"},{"rt":295,"stimulus":"<p>Bereit?</p>","key_press":32,"trial_type":"html-keyboard-response","trial_index":55,"time_elapsed":118981,"internal_node_id":"0.0-8.0-0.12","subject":"h2drs9pek4h2ugd","sona":"7624"},{"rt":null,"stimulus":"<div style=\"font-size:60px;\">+</div>","key_press":null,"trial_type":"html-keyboard-response","trial_index":56,"time_elapsed":120987,"internal_node_id":"0.0-8.0-1.12","subject":"h2drs9pek4h2ugd","sona":"7624"},{"trial_type":"turing-test","trial_index":57,"time_elapsed":127143,"internal_node_id":"0.0-8.0-2.12","subject":"h2drs9pek4h2ugd","sona":"7624"},{"rt":333,"stimulus":"<p>Welche Sequenz haben Sie als natürlicher empfunden?</p>","key_press":74,"test_part":"response","test_stimulus":{"position":1,"left":"bvh/vr_prediction_models/model(tmp)-dataset(pass-bottle)-numprim(3)-hold(2)/final-lines.txt","right":"bvh/pass-bottle-training2-lines.txt","att_check":false},"trial_type":"html-keyboard-response","trial_index":58,"time_elapsed":127478,"internal_node_id":"0.0-8.0-3.12","subject":"h2drs9pek4h2ugd","sona":"7624"},{"rt":246,"stimulus":"<p>Bereit?</p>","key_press":32,"trial_type":"html-keyboard-response","trial_index":59,"time_elapsed":127725,"internal_node_id":"0.0-8.0-0.13","subject":"h2drs9pek4h2ugd","sona":"7624"},{"rt":null,"stimulus":"<div style=\"font-size:60px;\">+</div>","key_press":null,"trial_type":"html-keyboard-response","trial_index":60,"time_elapsed":129726,"internal_node_id":"0.0-8.0-1.13","subject":"h2drs9pek4h2ugd","sona":"7624"},{"trial_type":"turing-test","trial_index":61,"time_elapsed":136510,"internal_node_id":"0.0-8.0-2.13","subject":"h2drs9pek4h2ugd","sona":"7624"},{"rt":318,"stimulus":"<p>Welche Sequenz haben Sie als natürlicher empfunden?</p>","key_press":74,"test_part":"response","test_stimulus":{"position":1,"left":"bvh/vr_prediction_models/model(vcgpdm)-dataset(pass-bottle)-mode(ELBO)-parts(3)-dyn(20)-lvm(35)-hold(0)/final-lines.txt","right":"bvh/pass-bottle-training0-lines.txt","att_check":false},"trial_type":"html-keyboard-response","trial_index":62,"time_elapsed":136830,"internal_node_id":"0.0-8.0-3.13","subject":"h2drs9pek4h2ugd","sona":"7624"},{"rt":287,"stimulus":"<p>Bereit?</p>","key_press":32,"trial_type":"html-keyboard-response","trial_index":63,"time_elapsed":137117,"internal_node_id":"0.0-8.0-0.14","subject":"h2drs9pek4h2ugd","sona":"7624"},{"rt":null,"stimulus":"<div style=\"font-size:60px;\">+</div>","key_press":null,"trial_type":"html-keyboard-response","trial_index":64,"time_elapsed":139120,"internal_node_id":"0.0-8.0-1.14","subject":"h2drs9pek4h2ugd","sona":"7624"},{"trial_type":"turing-test","trial_index":65,"time_elapsed":145909,"internal_node_id":"0.0-8.0-2.14","subject":"h2drs9pek4h2ugd","sona":"7624"},{"rt":320,"stimulus":"<p>Welche Sequenz haben Sie als natürlicher empfunden?</p>","key_press":74,"test_part":"response","test_stimulus":{"position":1,"left":"bvh/vr_prediction_models/model(vcgpdm)-dataset(pass-bottle)-mode(ELBO)-parts(3)-dyn(25)-lvm(30)-hold(0)/final-lines.txt","right":"bvh/pass-bottle-training0-lines.txt","att_check":false},"trial_type":"html-keyboard-response","trial_index":66,"time_elapsed":146230,"internal_node_id":"0.0-8.0-3.14","subject":"h2drs9pek4h2ugd","sona":"7624"},{"rt":319,"stimulus":"<p>Bereit?</p>","key_press":32,"trial_type":"html-keyboard-response","trial_index":67,"time_elapsed":146549,"internal_node_id":"0.0-8.0-0.15","subject":"h2drs9pek4h2ugd","sona":"7624"},{"rt":null,"stimulus":"<div style=\"font-size:60px;\">+</div>","key_press":null,"trial_type":"html-keyboard-response","trial_index":68,"time_elapsed":148553,"internal_node_id":"0.0-8.0-1.15","subject":"h2drs9pek4h2ugd","sona":"7624"},{"trial_type":"turing-test","trial_index":69,"time_elapsed":154529,"internal_node_id":"0.0-8.0-2.15","subject":"h2drs9pek4h2ugd","sona":"7624"},{"rt":402,"stimulus":"<p>Welche Sequenz haben Sie als natürlicher empfunden?</p>","key_press":74,"test_part":"response","test_stimulus":{"position":1,"left":"bvh/vr_prediction_models/model(vcgpdm)-dataset(pass-bottle)-mode(ELBO)-parts(1)-dyn(10)-lvm(25)-hold(3)/final-lines.txt","right":"bvh/pass-bottle-training3-lines.txt","att_check":false},"trial_type":"html-keyboard-response","trial_index":70,"time_elapsed":154934,"internal_node_id":"0.0-8.0-3.15","subject":"h2drs9pek4h2ugd","sona":"7624"},{"rt":278,"stimulus":"<p>Bereit?</p>","key_press":32,"trial_type":"html-keyboard-response","trial_index":71,"time_elapsed":155214,"internal_node_id":"0.0-8.0-0.16","subject":"h2drs9pek4h2ugd","sona":"7624"},{"rt":null,"stimulus":"<div style=\"font-size:60px;\">+</div>","key_press":null,"trial_type":"html-keyboard-response","trial_index":72,"time_elapsed":157220,"internal_node_id":"0.0-8.0-1.16","subject":"h2drs9pek4h2ugd","sona":"7624"},{"trial_type":"turing-test","trial_index":73,"time_elapsed":160826,"internal_node_id":"0.0-8.0-2.16","subject":"h2drs9pek4h2ugd","sona":"7624"},{"rt":459,"stimulus":"<p>Welche Sequenz haben Sie als natürlicher empfunden?</p>","key_press":74,"test_part":"response","test_stimulus":{"position":0,"left":"bvh/pass-bottle-hold-training4-lines.txt","right":"bvh/vr_prediction_models/model(dmp)-dataset(pass-bottle-hold)-npsi(90)-hold(4)/final-lines.txt","att_check":true},"trial_type":"html-keyboard-response","trial_index":74,"time_elapsed":161287,"internal_node_id":"0.0-8.0-3.16","subject":"h2drs9pek4h2ugd","sona":"7624"},{"rt":223,"stimulus":"<p>Bereit?</p>","key_press":32,"trial_type":"html-keyboard-response","trial_index":75,"time_elapsed":161510,"internal_node_id":"0.0-8.0-0.17","subject":"h2drs9pek4h2ugd","sona":"7624"},{"rt":null,"stimulus":"<div style=\"font-size:60px;\">+</div>","key_press":null,"trial_type":"html-keyboard-response","trial_index":76,"time_elapsed":163515,"internal_node_id":"0.0-8.0-1.17","subject":"h2drs9pek4h2ugd","sona":"7624"},{"trial_type":"turing-test","trial_index":77,"time_elapsed":166952,"internal_node_id":"0.0-8.0-2.17","subject":"h2drs9pek4h2ugd","sona":"7624"},{"rt":542,"stimulus":"<p>Welche Sequenz haben Sie als natürlicher empfunden?</p>","key_press":74,"test_part":"response","test_stimulus":{"position":1,"left":"bvh/vr_prediction_models/model(vcgpdm)-dataset(pass-bottle-hold)-mode(ELBO)-parts(1)-dyn(10)-lvm(25)-hold(0)/final-lines.txt","right":"bvh/pass-bottle-hold-training0-lines.txt","att_check":false},"trial_type":"html-keyboard-response","trial_index":78,"time_elapsed":167494,"internal_node_id":"0.0-8.0-3.17","subject":"h2drs9pek4h2ugd","sona":"7624"},{"rt":239,"stimulus":"<p>Bereit?</p>","key_press":32,"trial_type":"html-keyboard-response","trial_index":79,"time_elapsed":167735,"internal_node_id":"0.0-8.0-0.18","subject":"h2drs9pek4h2ugd","sona":"7624"},{"rt":null,"stimulus":"<div style=\"font-size:60px;\">+</div>","key_press":null,"trial_type":"html-keyboard-response","trial_index":80,"time_elapsed":169739,"internal_node_id":"0.0-8.0-1.18","subject":"h2drs9pek4h2ugd","sona":"7624"},{"trial_type":"turing-test","trial_index":81,"time_elapsed":176386,"internal_node_id":"0.0-8.0-2.18","subject":"h2drs9pek4h2ugd","sona":"7624"},{"rt":267,"stimulus":"<p>Welche Sequenz haben Sie als natürlicher empfunden?</p>","key_press":74,"test_part":"response","test_stimulus":{"position":1,"left":"bvh/vr_prediction_models/model(vcgpdm)-dataset(return-bottle)-mode(ELBO)-parts(1)-dyn(15)-lvm(35)-hold(2)/final-lines.txt","right":"bvh/return-bottle-training2-lines.txt","att_check":false},"trial_type":"html-keyboard-response","trial_index":82,"time_elapsed":176655,"internal_node_id":"0.0-8.0-3.18","subject":"h2drs9pek4h2ugd","sona":"7624"},{"rt":285,"stimulus":"<p>Bereit?</p>","key_press":32,"trial_type":"html-keyboard-response","trial_index":83,"time_elapsed":176943,"internal_node_id":"0.0-8.0-0.19","subject":"h2drs9pek4h2ugd","sona":"7624"},{"rt":null,"stimulus":"<div style=\"font-size:60px;\">+</div>","key_press":null,"trial_type":"html-keyboard-response","trial_index":84,"time_elapsed":178946,"internal_node_id":"0.0-8.0-1.19","subject":"h2drs9pek4h2ugd","sona":"7624"},{"trial_type":"turing-test","trial_index":85,"time_elapsed":184524,"internal_node_id":"0.0-8.0-2.19","subject":"h2drs9pek4h2ugd","sona":"7624"},{"rt":313,"stimulus":"<p>Welche Sequenz haben Sie als natürlicher empfunden?</p>","key_press":70,"test_part":"response","test_stimulus":{"position":1,"left":"bvh/vr_prediction_models/model(vcgpdm)-dataset(pass-bottle)-mode(ELBO)-parts(3)-dyn(10)-lvm(25)-hold(1)/final-lines.txt","right":"bvh/pass-bottle-training1-lines.txt","att_check":false},"trial_type":"html-keyboard-response","trial_index":86,"time_elapsed":184839,"internal_node_id":"0.0-8.0-3.19","subject":"h2drs9pek4h2ugd","sona":"7624"},{"rt":270,"stimulus":"<p>Bereit?</p>","key_press":32,"trial_type":"html-keyboard-response","trial_index":87,"time_elapsed":185111,"internal_node_id":"0.0-8.0-0.20","subject":"h2drs9pek4h2ugd","sona":"7624"},{"rt":null,"stimulus":"<div style=\"font-size:60px;\">+</div>","key_press":null,"trial_type":"html-keyboard-response","trial_index":88,"time_elapsed":187115,"internal_node_id":"0.0-8.0-1.20","subject":"h2drs9pek4h2ugd","sona":"7624"},{"trial_type":"turing-test","trial_index":89,"time_elapsed":192614,"internal_node_id":"0.0-8.0-2.20","subject":"h2drs9pek4h2ugd","sona":"7624"},{"rt":392,"stimulus":"<p>Welche Sequenz haben Sie als natürlicher empfunden?</p>","key_press":74,"test_part":"response","test_stimulus":{"position":1,"left":"bvh/vr_prediction_models/model(vcgpdm)-dataset(return-bottle)-mode(ELBO)-parts(1)-dyn(35)-lvm(30)-hold(0)/final-lines.txt","right":"bvh/return-bottle-training0-lines.txt","att_check":false},"trial_type":"html-keyboard-response","trial_index":90,"time_elapsed":193007,"internal_node_id":"0.0-8.0-3.20","subject":"h2drs9pek4h2ugd","sona":"7624"},{"rt":270,"stimulus":"<p>Bereit?</p>","key_press":32,"trial_type":"html-keyboard-response","trial_index":91,"time_elapsed":193279,"internal_node_id":"0.0-8.0-0.21","subject":"h2drs9pek4h2ugd","sona":"7624"},{"rt":null,"stimulus":"<div style=\"font-size:60px;\">+</div>","key_press":null,"trial_type":"html-keyboard-response","trial_index":92,"time_elapsed":195282,"internal_node_id":"0.0-8.0-1.21","subject":"h2drs9pek4h2ugd","sona":"7624"},{"trial_type":"turing-test","trial_index":93,"time_elapsed":201338,"internal_node_id":"0.0-8.0-2.21","subject":"h2drs9pek4h2ugd","sona":"7624"},{"rt":364,"stimulus":"<p>Welche Sequenz haben Sie als natürlicher empfunden?</p>","key_press":70,"test_part":"response","test_stimulus":{"position":0,"left":"bvh/pass-bottle-training3-lines.txt","right":"bvh/vr_prediction_models/model(vcgpdm)-dataset(pass-bottle)-mode(ELBO)-parts(1)-dyn(25)-lvm(35)-hold(3)/final-lines.txt","att_check":false},"trial_type":"html-keyboard-response","trial_index":94,"time_elapsed":201703,"internal_node_id":"0.0-8.0-3.21","subject":"h2drs9pek4h2ugd","sona":"7624"},{"rt":326,"stimulus":"<p>Bereit?</p>","key_press":32,"trial_type":"html-keyboard-response","trial_index":95,"time_elapsed":202031,"internal_node_id":"0.0-8.0-0.22","subject":"h2drs9pek4h2ugd","sona":"7624"},{"rt":null,"stimulus":"<div style=\"font-size:60px;\">+</div>","key_press":null,"trial_type":"html-keyboard-response","trial_index":96,"time_elapsed":204038,"internal_node_id":"0.0-8.0-1.22","subject":"h2drs9pek4h2ugd","sona":"7624"},{"trial_type":"turing-test","trial_index":97,"time_elapsed":207541,"internal_node_id":"0.0-8.0-2.22","subject":"h2drs9pek4h2ugd","sona":"7624"},{"rt":1001,"stimulus":"<p>Welche Sequenz haben Sie als natürlicher empfunden?</p>","key_press":74,"test_part":"response","test_stimulus":{"position":1,"left":"bvh/vr_prediction_models/model(dmp)-dataset(return-bottle-hold)-npsi(30)-hold(2)/final-lines.txt","right":"bvh/return-bottle-hold-training2-lines.txt","att_check":true},"trial_type":"html-keyboard-response","trial_index":98,"time_elapsed":208544,"internal_node_id":"0.0-8.0-3.22","subject":"h2drs9pek4h2ugd","sona":"7624"},{"rt":262,"stimulus":"<p>Bereit?</p>","key_press":32,"trial_type":"html-keyboard-response","trial_index":99,"time_elapsed":208807,"internal_node_id":"0.0-8.0-0.23","subject":"h2drs9pek4h2ugd","sona":"7624"},{"rt":null,"stimulus":"<div style=\"font-size:60px;\">+</div>","key_press":null,"trial_type":"html-keyboard-response","trial_index":100,"time_elapsed":210809,"internal_node_id":"0.0-8.0-1.23","subject":"h2drs9pek4h2ugd","sona":"7624"},{"trial_type":"turing-test","trial_index":101,"time_elapsed":216920,"internal_node_id":"0.0-8.0-2.23","subject":"h2drs9pek4h2ugd","sona":"7624"},{"rt":175,"stimulus":"<p>Welche Sequenz haben Sie als natürlicher empfunden?</p>","key_press":74,"test_part":"response","test_stimulus":{"position":1,"left":"bvh/vr_prediction_models/model(vcgpdm)-dataset(return-bottle)-mode(ELBO)-parts(3)-dyn(20)-lvm(20)-hold(3)/final-lines.txt","right":"bvh/return-bottle-training3-lines.txt","att_check":false},"trial_type":"html-keyboard-response","trial_index":102,"time_elapsed":217096,"internal_node_id":"0.0-8.0-3.23","subject":"h2drs9pek4h2ugd","sona":"7624"},{"rt":375,"stimulus":"<p>Bereit?</p>","key_press":32,"trial_type":"html-keyboard-response","trial_index":103,"time_elapsed":217471,"internal_node_id":"0.0-8.0-0.24","subject":"h2drs9pek4h2ugd","sona":"7624"},{"rt":null,"stimulus":"<div style=\"font-size:60px;\">+</div>","key_press":null,"trial_type":"html-keyboard-response","trial_index":104,"time_elapsed":219475,"internal_node_id":"0.0-8.0-1.24","subject":"h2drs9pek4h2ugd","sona":"7624"},{"trial_type":"turing-test","trial_index":105,"time_elapsed":223337,"internal_node_id":"0.0-8.0-2.24","subject":"h2drs9pek4h2ugd","sona":"7624"},{"rt":581,"stimulus":"<p>Welche Sequenz haben Sie als natürlicher empfunden?</p>","key_press":70,"test_part":"response","test_stimulus":{"position":0,"left":"bvh/pass-bottle-hold-training3-lines.txt","right":"bvh/vr_prediction_models/model(vcgpdm)-dataset(pass-bottle-hold)-mode(ELBO)-parts(1)-dyn(30)-lvm(20)-hold(3)/final-lines.txt","att_check":false},"trial_type":"html-keyboard-response","trial_index":106,"time_elapsed":223920,"internal_node_id":"0.0-8.0-3.24","subject":"h2drs9pek4h2ugd","sona":"7624"},{"rt":239,"stimulus":"<p>Bereit?</p>","key_press":32,"trial_type":"html-keyboard-response","trial_index":107,"time_elapsed":224160,"internal_node_id":"0.0-8.0-0.25","subject":"h2drs9pek4h2ugd","sona":"7624"},{"rt":null,"stimulus":"<div style=\"font-size:60px;\">+</div>","key_press":null,"trial_type":"html-keyboard-response","trial_index":108,"time_elapsed":226166,"internal_node_id":"0.0-8.0-1.25","subject":"h2drs9pek4h2ugd","sona":"7624"},{"trial_type":"turing-test","trial_index":109,"time_elapsed":231878,"internal_node_id":"0.0-8.0-2.25","subject":"h2drs9pek4h2ugd","sona":"7624"},{"rt":465,"stimulus":"<p>Welche Sequenz haben Sie als natürlicher empfunden?</p>","key_press":74,"test_part":"response","test_stimulus":{"position":1,"left":"bvh/vr_prediction_models/model(tmp)-dataset(return-bottle)-numprim(5)-hold(3)/final-lines.txt","right":"bvh/return-bottle-training3-lines.txt","att_check":false},"trial_type":"html-keyboard-response","trial_index":110,"time_elapsed":232344,"internal_node_id":"0.0-8.0-3.25","subject":"h2drs9pek4h2ugd","sona":"7624"},{"rt":286,"stimulus":"<p>Bereit?</p>","key_press":32,"trial_type":"html-keyboard-response","trial_index":111,"time_elapsed":232632,"internal_node_id":"0.0-8.0-0.26","subject":"h2drs9pek4h2ugd","sona":"7624"},{"rt":null,"stimulus":"<div style=\"font-size:60px;\">+</div>","key_press":null,"trial_type":"html-keyboard-response","trial_index":112,"time_elapsed":234641,"internal_node_id":"0.0-8.0-1.26","subject":"h2drs9pek4h2ugd","sona":"7624"},{"trial_type":"turing-test","trial_index":113,"time_elapsed":240616,"internal_node_id":"0.0-8.0-2.26","subject":"h2drs9pek4h2ugd","sona":"7624"},{"rt":368,"stimulus":"<p>Welche Sequenz haben Sie als natürlicher empfunden?</p>","key_press":74,"test_part":"response","test_stimulus":{"position":1,"left":"bvh/vr_prediction_models/model(vcgpdm)-dataset(pass-bottle)-mode(ELBO)-parts(3)-dyn(25)-lvm(25)-hold(4)/final-lines.txt","right":"bvh/pass-bottle-training4-lines.txt","att_check":false},"trial_type":"html-keyboard-response","trial_index":114,"time_elapsed":240985,"internal_node_id":"0.0-8.0-3.26","subject":"h2drs9pek4h2ugd","sona":"7624"},{"rt":358,"stimulus":"<p>Bereit?</p>","key_press":32,"trial_type":"html-keyboard-response","trial_index":115,"time_elapsed":241344,"internal_node_id":"0.0-8.0-0.27","subject":"h2drs9pek4h2ugd","sona":"7624"},{"rt":null,"stimulus":"<div style=\"font-size:60px;\">+</div>","key_press":null,"trial_type":"html-keyboard-response","trial_index":116,"time_elapsed":243347,"internal_node_id":"0.0-8.0-1.27","subject":"h2drs9pek4h2ugd","sona":"7624"},{"trial_type":"turing-test","trial_index":117,"time_elapsed":249260,"internal_node_id":"0.0-8.0-2.27","subject":"h2drs9pek4h2ugd","sona":"7624"},{"rt":259,"stimulus":"<p>Welche Sequenz haben Sie als natürlicher empfunden?</p>","key_press":74,"test_part":"response","test_stimulus":{"position":1,"left":"bvh/vr_prediction_models/model(vcgpdm)-dataset(return-bottle)-mode(ELBO)-parts(1)-dyn(25)-lvm(35)-hold(3)/final-lines.txt","right":"bvh/return-bottle-training3-lines.txt","att_check":false},"trial_type":"html-keyboard-response","trial_index":118,"time_elapsed":249520,"internal_node_id":"0.0-8.0-3.27","subject":"h2drs9pek4h2ugd","sona":"7624"},{"rt":310,"stimulus":"<p>Bereit?</p>","key_press":32,"trial_type":"html-keyboard-response","trial_index":119,"time_elapsed":249832,"internal_node_id":"0.0-8.0-0.28","subject":"h2drs9pek4h2ugd","sona":"7624"},{"rt":null,"stimulus":"<div style=\"font-size:60px;\">+</div>","key_press":null,"trial_type":"html-keyboard-response","trial_index":120,"time_elapsed":251834,"internal_node_id":"0.0-8.0-1.28","subject":"h2drs9pek4h2ugd","sona":"7624"},{"trial_type":"turing-test","trial_index":121,"time_elapsed":255174,"internal_node_id":"0.0-8.0-2.28","subject":"h2drs9pek4h2ugd","sona":"7624"},{"rt":386,"stimulus":"<p>Welche Sequenz haben Sie als natürlicher empfunden?</p>","key_press":74,"test_part":"response","test_stimulus":{"position":1,"left":"bvh/vr_prediction_models/model(tmp)-dataset(pass-bottle-hold)-numprim(4)-hold(2)/final-lines.txt","right":"bvh/pass-bottle-hold-training2-lines.txt","att_check":false},"trial_type":"html-keyboard-response","trial_index":122,"time_elapsed":255561,"internal_node_id":"0.0-8.0-3.28","subject":"h2drs9pek4h2ugd","sona":"7624"},{"rt":255,"stimulus":"<p>Bereit?</p>","key_press":32,"trial_type":"html-keyboard-response","trial_index":123,"time_elapsed":255817,"internal_node_id":"0.0-8.0-0.29","subject":"h2drs9pek4h2ugd","sona":"7624"},{"rt":null,"stimulus":"<div style=\"font-size:60px;\">+</div>","key_press":null,"trial_type":"html-keyboard-response","trial_index":124,"time_elapsed":257824,"internal_node_id":"0.0-8.0-1.29","subject":"h2drs9pek4h2ugd","sona":"7624"},{"trial_type":"turing-test","trial_index":125,"time_elapsed":264579,"internal_node_id":"0.0-8.0-2.29","subject":"h2drs9pek4h2ugd","sona":"7624"},{"rt":398,"stimulus":"<p>Welche Sequenz haben Sie als natürlicher empfunden?</p>","key_press":74,"test_part":"response","test_stimulus":{"position":0,"left":"bvh/return-bottle-training2-lines.txt","right":"bvh/vr_prediction_models/model(vcgpdm)-dataset(return-bottle)-mode(ELBO)-parts(1)-dyn(10)-lvm(25)-hold(2)/final-lines.txt","att_check":false},"trial_type":"html-keyboard-response","trial_index":126,"time_elapsed":264977,"internal_node_id":"0.0-8.0-3.29","subject":"h2drs9pek4h2ugd","sona":"7624"},{"rt":223,"stimulus":"<p>Bereit?</p>","key_press":32,"trial_type":"html-keyboard-response","trial_index":127,"time_elapsed":265200,"internal_node_id":"0.0-8.0-0.30","subject":"h2drs9pek4h2ugd","sona":"7624"},{"rt":null,"stimulus":"<div style=\"font-size:60px;\">+</div>","key_press":null,"trial_type":"html-keyboard-response","trial_index":128,"time_elapsed":267205,"internal_node_id":"0.0-8.0-1.30","subject":"h2drs9pek4h2ugd","sona":"7624"},{"trial_type":"turing-test","trial_index":129,"time_elapsed":272279,"internal_node_id":"0.0-8.0-2.30","subject":"h2drs9pek4h2ugd","sona":"7624"},{"rt":648,"stimulus":"<p>Welche Sequenz haben Sie als natürlicher empfunden?</p>","key_press":74,"test_part":"response","test_stimulus":{"position":1,"left":"bvh/vr_prediction_models/model(dmp)-dataset(return-bottle-hold)-npsi(40)-hold(0)/final-lines.txt","right":"bvh/return-bottle-hold-training0-lines.txt","att_check":false},"trial_type":"html-keyboard-response","trial_index":130,"time_elapsed":272929,"internal_node_id":"0.0-8.0-3.30","subject":"h2drs9pek4h2ugd","sona":"7624"},{"rt":309,"stimulus":"<p>Bereit?</p>","key_press":32,"trial_type":"html-keyboard-response","trial_index":131,"time_elapsed":273241,"internal_node_id":"0.0-8.0-0.31","subject":"h2drs9pek4h2ugd","sona":"7624"},{"rt":null,"stimulus":"<div style=\"font-size:60px;\">+</div>","key_press":null,"trial_type":"html-keyboard-response","trial_index":132,"time_elapsed":275246,"internal_node_id":"0.0-8.0-1.31","subject":"h2drs9pek4h2ugd","sona":"7624"},{"trial_type":"turing-test","trial_index":133,"time_elapsed":281063,"internal_node_id":"0.0-8.0-2.31","subject":"h2drs9pek4h2ugd","sona":"7624"},{"rt":409,"stimulus":"<p>Welche Sequenz haben Sie als natürlicher empfunden?</p>","key_press":70,"test_part":"response","test_stimulus":{"position":0,"left":"bvh/pass-bottle-training1-lines.txt","right":"bvh/vr_prediction_models/model(vcgpdm)-dataset(pass-bottle)-mode(MAP)-parts(3)-hold(1)/final-lines.txt","att_check":false},"trial_type":"html-keyboard-response","trial_index":134,"time_elapsed":281473,"internal_node_id":"0.0-8.0-3.31","subject":"h2drs9pek4h2ugd","sona":"7624"},{"rt":303,"stimulus":"<p>Bereit?</p>","key_press":32,"trial_type":"html-keyboard-response","trial_index":135,"time_elapsed":281777,"internal_node_id":"0.0-8.0-0.32","subject":"h2drs9pek4h2ugd","sona":"7624"},{"rt":null,"stimulus":"<div style=\"font-size:60px;\">+</div>","key_press":null,"trial_type":"html-keyboard-response","trial_index":136,"time_elapsed":283782,"internal_node_id":"0.0-8.0-1.32","subject":"h2drs9pek4h2ugd","sona":"7624"},{"trial_type":"turing-test","trial_index":137,"time_elapsed":287706,"internal_node_id":"0.0-8.0-2.32","subject":"h2drs9pek4h2ugd","sona":"7624"},{"rt":367,"stimulus":"<p>Welche Sequenz haben Sie als natürlicher empfunden?</p>","key_press":70,"test_part":"response","test_stimulus":{"position":0,"left":"bvh/return-bottle-hold-training4-lines.txt","right":"bvh/vr_prediction_models/model(vcgpdm)-dataset(return-bottle-hold)-mode(ELBO)-parts(3)-dyn(20)-lvm(35)-hold(4)/final-lines.txt","att_check":false},"trial_type":"html-keyboard-response","trial_index":138,"time_elapsed":288073,"internal_node_id":"0.0-8.0-3.32","subject":"h2drs9pek4h2ugd","sona":"7624"},{"rt":262,"stimulus":"<p>Bereit?</p>","key_press":32,"trial_type":"html-keyboard-response","trial_index":139,"time_elapsed":288337,"internal_node_id":"0.0-8.0-0.33","subject":"h2drs9pek4h2ugd","sona":"7624"},{"rt":null,"stimulus":"<div style=\"font-size:60px;\">+</div>","key_press":null,"trial_type":"html-keyboard-response","trial_index":140,"time_elapsed":290339,"internal_node_id":"0.0-8.0-1.33","subject":"h2drs9pek4h2ugd","sona":"7624"},{"trial_type":"turing-test","trial_index":141,"time_elapsed":296230,"internal_node_id":"0.0-8.0-2.33","subject":"h2drs9pek4h2ugd","sona":"7624"},{"rt":314,"stimulus":"<p>Welche Sequenz haben Sie als natürlicher empfunden?</p>","key_press":70,"test_part":"response","test_stimulus":{"position":0,"left":"bvh/return-bottle-training4-lines.txt","right":"bvh/vr_prediction_models/model(tmp)-dataset(return-bottle)-numprim(7)-hold(4)/final-lines.txt","att_check":false},"trial_type":"html-keyboard-response","trial_index":142,"time_elapsed":296546,"internal_node_id":"0.0-8.0-3.33","subject":"h2drs9pek4h2ugd","sona":"7624"},{"rt":262,"stimulus":"<p>Bereit?</p>","key_press":32,"trial_type":"html-keyboard-response","trial_index":143,"time_elapsed":296809,"internal_node_id":"0.0-8.0-0.34","subject":"h2drs9pek4h2ugd","sona":"7624"},{"rt":null,"stimulus":"<div style=\"font-size:60px;\">+</div>","key_press":null,"trial_type":"html-keyboard-response","trial_index":144,"time_elapsed":298817,"internal_node_id":"0.0-8.0-1.34","subject":"h2drs9pek4h2ugd","sona":"7624"},{"trial_type":"turing-test","trial_index":145,"time_elapsed":305597,"internal_node_id":"0.0-8.0-2.34","subject":"h2drs9pek4h2ugd","sona":"7624"},{"rt":811,"stimulus":"<p>Welche Sequenz haben Sie als natürlicher empfunden?</p>","key_press":74,"test_part":"response","test_stimulus":{"position":1,"left":"bvh/vr_prediction_models/model(tmp)-dataset(pass-bottle)-numprim(5)-hold(0)/final-lines.txt","right":"bvh/pass-bottle-training0-lines.txt","att_check":false},"trial_type":"html-keyboard-response","trial_index":146,"time_elapsed":306410,"internal_node_id":"0.0-8.0-3.34","subject":"h2drs9pek4h2ugd","sona":"7624"},{"rt":311,"stimulus":"<p>Bereit?</p>","key_press":32,"trial_type":"html-keyboard-response","trial_index":147,"time_elapsed":306721,"internal_node_id":"0.0-8.0-0.35","subject":"h2drs9pek4h2ugd","sona":"7624"},{"rt":null,"stimulus":"<div style=\"font-size:60px;\">+</div>","key_press":null,"trial_type":"html-keyboard-response","trial_index":148,"time_elapsed":308728,"internal_node_id":"0.0-8.0-1.35","subject":"h2drs9pek4h2ugd","sona":"7624"},{"trial_type":"turing-test","trial_index":149,"time_elapsed":314447,"internal_node_id":"0.0-8.0-2.35","subject":"h2drs9pek4h2ugd","sona":"7624"},{"rt":441,"stimulus":"<p>Welche Sequenz haben Sie als natürlicher empfunden?</p>","key_press":74,"test_part":"response","test_stimulus":{"position":1,"left":"bvh/vr_prediction_models/model(tmp)-dataset(return-bottle)-numprim(8)-hold(3)/final-lines.txt","right":"bvh/return-bottle-training3-lines.txt","att_check":false},"trial_type":"html-keyboard-response","trial_index":150,"time_elapsed":314890,"internal_node_id":"0.0-8.0-3.35","subject":"h2drs9pek4h2ugd","sona":"7624"},{"rt":351,"stimulus":"<p>Bereit?</p>","key_press":32,"trial_type":"html-keyboard-response","trial_index":151,"time_elapsed":315243,"internal_node_id":"0.0-8.0-0.36","subject":"h2drs9pek4h2ugd","sona":"7624"},{"rt":null,"stimulus":"<div style=\"font-size:60px;\">+</div>","key_press":null,"trial_type":"html-keyboard-response","trial_index":152,"time_elapsed":317245,"internal_node_id":"0.0-8.0-1.36","subject":"h2drs9pek4h2ugd","sona":"7624"},{"trial_type":"turing-test","trial_index":153,"time_elapsed":324393,"internal_node_id":"0.0-8.0-2.36","subject":"h2drs9pek4h2ugd","sona":"7624"},{"rt":312,"stimulus":"<p>Welche Sequenz haben Sie als natürlicher empfunden?</p>","key_press":70,"test_part":"response","test_stimulus":{"position":1,"left":"bvh/vr_prediction_models/model(vcgpdm)-dataset(pass-bottle)-mode(ELBO)-parts(1)-dyn(30)-lvm(30)-hold(0)/final-lines.txt","right":"bvh/pass-bottle-training0-lines.txt","att_check":false},"trial_type":"html-keyboard-response","trial_index":154,"time_elapsed":324706,"internal_node_id":"0.0-8.0-3.36","subject":"h2drs9pek4h2ugd","sona":"7624"},{"rt":334,"stimulus":"<p>Bereit?</p>","key_press":32,"trial_type":"html-keyboard-response","trial_index":155,"time_elapsed":325042,"internal_node_id":"0.0-8.0-0.37","subject":"h2drs9pek4h2ugd","sona":"7624"},{"rt":null,"stimulus":"<div style=\"font-size:60px;\">+</div>","key_press":null,"trial_type":"html-keyboard-response","trial_index":156,"time_elapsed":327044,"internal_node_id":"0.0-8.0-1.37","subject":"h2drs9pek4h2ugd","sona":"7624"},{"trial_type":"turing-test","trial_index":157,"time_elapsed":332909,"internal_node_id":"0.0-8.0-2.37","subject":"h2drs9pek4h2ugd","sona":"7624"},{"rt":412,"stimulus":"<p>Welche Sequenz haben Sie als natürlicher empfunden?</p>","key_press":74,"test_part":"response","test_stimulus":{"position":0,"left":"bvh/pass-bottle-training3-lines.txt","right":"bvh/vr_prediction_models/model(tmp)-dataset(pass-bottle)-numprim(6)-hold(3)/final-lines.txt","att_check":false},"trial_type":"html-keyboard-response","trial_index":158,"time_elapsed":333323,"internal_node_id":"0.0-8.0-3.37","subject":"h2drs9pek4h2ugd","sona":"7624"},{"rt":350,"stimulus":"<p>Bereit?</p>","key_press":32,"trial_type":"html-keyboard-response","trial_index":159,"time_elapsed":333675,"internal_node_id":"0.0-8.0-0.38","subject":"h2drs9pek4h2ugd","sona":"7624"},{"rt":null,"stimulus":"<div style=\"font-size:60px;\">+</div>","key_press":null,"trial_type":"html-keyboard-response","trial_index":160,"time_elapsed":335680,"internal_node_id":"0.0-8.0-1.38","subject":"h2drs9pek4h2ugd","sona":"7624"},{"trial_type":"turing-test","trial_index":161,"time_elapsed":339256,"internal_node_id":"0.0-8.0-2.38","subject":"h2drs9pek4h2ugd","sona":"7624"},{"rt":433,"stimulus":"<p>Welche Sequenz haben Sie als natürlicher empfunden?</p>","key_press":70,"test_part":"response","test_stimulus":{"position":0,"left":"bvh/return-bottle-hold-training1-lines.txt","right":"bvh/vr_prediction_models/model(vcgpdm)-dataset(return-bottle-hold)-mode(ELBO)-parts(1)-dyn(20)-lvm(30)-hold(1)/final-lines.txt","att_check":false},"trial_type":"html-keyboard-response","trial_index":162,"time_elapsed":339690,"internal_node_id":"0.0-8.0-3.38","subject":"h2drs9pek4h2ugd","sona":"7624"},{"rt":343,"stimulus":"<p>Bereit?</p>","key_press":32,"trial_type":"html-keyboard-response","trial_index":163,"time_elapsed":340034,"internal_node_id":"0.0-8.0-0.39","subject":"h2drs9pek4h2ugd","sona":"7624"},{"rt":null,"stimulus":"<div style=\"font-size:60px;\">+</div>","key_press":null,"trial_type":"html-keyboard-response","trial_index":164,"time_elapsed":342043,"internal_node_id":"0.0-8.0-1.39","subject":"h2drs9pek4h2ugd","sona":"7624"},{"trial_type":"turing-test","trial_index":165,"time_elapsed":345961,"internal_node_id":"0.0-8.0-2.39","subject":"h2drs9pek4h2ugd","sona":"7624"},{"rt":328,"stimulus":"<p>Welche Sequenz haben Sie als natürlicher empfunden?</p>","key_press":70,"test_part":"response","test_stimulus":{"position":0,"left":"bvh/return-bottle-hold-training4-lines.txt","right":"bvh/vr_prediction_models/model(vcgpdm)-dataset(return-bottle-hold)-mode(ELBO)-parts(1)-dyn(35)-lvm(10)-hold(4)/final-lines.txt","att_check":false},"trial_type":"html-keyboard-response","trial_index":166,"time_elapsed":346291,"internal_node_id":"0.0-8.0-3.39","subject":"h2drs9pek4h2ugd","sona":"7624"},{"rt":245,"stimulus":"<p>Bereit?</p>","key_press":32,"trial_type":"html-keyboard-response","trial_index":167,"time_elapsed":346539,"internal_node_id":"0.0-8.0-0.40","subject":"h2drs9pek4h2ugd","sona":"7624"},{"rt":null,"stimulus":"<div style=\"font-size:60px;\">+</div>","key_press":null,"trial_type":"html-keyboard-response","trial_index":168,"time_elapsed":348542,"internal_node_id":"0.0-8.0-1.40","subject":"h2drs9pek4h2ugd","sona":"7624"},{"trial_type":"turing-test","trial_index":169,"time_elapsed":354378,"internal_node_id":"0.0-8.0-2.40","subject":"h2drs9pek4h2ugd","sona":"7624"},{"rt":391,"stimulus":"<p>Welche Sequenz haben Sie als natürlicher empfunden?</p>","key_press":74,"test_part":"response","test_stimulus":{"position":1,"left":"bvh/vr_prediction_models/model(dmp)-dataset(return-bottle)-npsi(40)-hold(4)/final-lines.txt","right":"bvh/return-bottle-training4-lines.txt","att_check":false},"trial_type":"html-keyboard-response","trial_index":170,"time_elapsed":354772,"internal_node_id":"0.0-8.0-3.40","subject":"h2drs9pek4h2ugd","sona":"7624"},{"rt":293,"stimulus":"<p>Bereit?</p>","key_press":32,"trial_type":"html-keyboard-response","trial_index":171,"time_elapsed":355067,"internal_node_id":"0.0-8.0-0.41","subject":"h2drs9pek4h2ugd","sona":"7624"},{"rt":null,"stimulus":"<div style=\"font-size:60px;\">+</div>","key_press":null,"trial_type":"html-keyboard-response","trial_index":172,"time_elapsed":357072,"internal_node_id":"0.0-8.0-1.41","subject":"h2drs9pek4h2ugd","sona":"7624"},{"trial_type":"turing-test","trial_index":173,"time_elapsed":360761,"internal_node_id":"0.0-8.0-2.41","subject":"h2drs9pek4h2ugd","sona":"7624"},{"rt":432,"stimulus":"<p>Welche Sequenz haben Sie als natürlicher empfunden?</p>","key_press":70,"test_part":"response","test_stimulus":{"position":1,"left":"bvh/vr_prediction_models/model(vcgpdm)-dataset(return-bottle-hold)-mode(ELBO)-parts(1)-dyn(20)-lvm(5)-hold(1)/final-lines.txt","right":"bvh/return-bottle-hold-training1-lines.txt","att_check":false},"trial_type":"html-keyboard-response","trial_index":174,"time_elapsed":361195,"internal_node_id":"0.0-8.0-3.41","subject":"h2drs9pek4h2ugd","sona":"7624"},{"rt":247,"stimulus":"<p>Bereit?</p>","key_press":32,"trial_type":"html-keyboard-response","trial_index":175,"time_elapsed":361443,"internal_node_id":"0.0-8.0-0.42","subject":"h2drs9pek4h2ugd","sona":"7624"},{"rt":null,"stimulus":"<div style=\"font-size:60px;\">+</div>","key_press":null,"trial_type":"html-keyboard-response","trial_index":176,"time_elapsed":363447,"internal_node_id":"0.0-8.0-1.42","subject":"h2drs9pek4h2ugd","sona":"7624"},{"trial_type":"turing-test","trial_index":177,"time_elapsed":370129,"internal_node_id":"0.0-8.0-2.42","subject":"h2drs9pek4h2ugd","sona":"7624"},{"rt":322,"stimulus":"<p>Welche Sequenz haben Sie als natürlicher empfunden?</p>","key_press":74,"test_part":"response","test_stimulus":{"position":1,"left":"bvh/vr_prediction_models/model(vcgpdm)-dataset(return-bottle)-mode(ELBO)-parts(1)-dyn(30)-lvm(35)-hold(2)/final-lines.txt","right":"bvh/return-bottle-training2-lines.txt","att_check":false},"trial_type":"html-keyboard-response","trial_index":178,"time_elapsed":370452,"internal_node_id":"0.0-8.0-3.42","subject":"h2drs9pek4h2ugd","sona":"7624"},{"rt":302,"stimulus":"<p>Bereit?</p>","key_press":32,"trial_type":"html-keyboard-response","trial_index":179,"time_elapsed":370756,"internal_node_id":"0.0-8.0-0.43","subject":"h2drs9pek4h2ugd","sona":"7624"},{"rt":null,"stimulus":"<div style=\"font-size:60px;\">+</div>","key_press":null,"trial_type":"html-keyboard-response","trial_index":180,"time_elapsed":372761,"internal_node_id":"0.0-8.0-1.43","subject":"h2drs9pek4h2ugd","sona":"7624"},{"trial_type":"turing-test","trial_index":181,"time_elapsed":376564,"internal_node_id":"0.0-8.0-2.43","subject":"h2drs9pek4h2ugd","sona":"7624"},{"rt":718,"stimulus":"<p>Welche Sequenz haben Sie als natürlicher empfunden?</p>","key_press":70,"test_part":"response","test_stimulus":{"position":1,"left":"bvh/vr_prediction_models/model(tmp)-dataset(return-bottle-hold)-numprim(8)-hold(4)/final-lines.txt","right":"bvh/return-bottle-hold-training4-lines.txt","att_check":false},"trial_type":"html-keyboard-response","trial_index":182,"time_elapsed":377284,"internal_node_id":"0.0-8.0-3.43","subject":"h2drs9pek4h2ugd","sona":"7624"},{"rt":246,"stimulus":"<p>Bereit?</p>","key_press":32,"trial_type":"html-keyboard-response","trial_index":183,"time_elapsed":377531,"internal_node_id":"0.0-8.0-0.44","subject":"h2drs9pek4h2ugd","sona":"7624"},{"rt":null,"stimulus":"<div style=\"font-size:60px;\">+</div>","key_press":null,"trial_type":"html-keyboard-response","trial_index":184,"time_elapsed":379534,"internal_node_id":"0.0-8.0-1.44","subject":"h2drs9pek4h2ugd","sona":"7624"},{"trial_type":"turing-test","trial_index":185,"time_elapsed":385521,"internal_node_id":"0.0-8.0-2.44","subject":"h2drs9pek4h2ugd","sona":"7624"},{"rt":177,"stimulus":"<p>Welche Sequenz haben Sie als natürlicher empfunden?</p>","key_press":74,"test_part":"response","test_stimulus":{"position":1,"left":"bvh/vr_prediction_models/model(vcgpdm)-dataset(pass-bottle)-mode(ELBO)-parts(1)-dyn(30)-lvm(35)-hold(3)/final-lines.txt","right":"bvh/pass-bottle-training3-lines.txt","att_check":false},"trial_type":"html-keyboard-response","trial_index":186,"time_elapsed":385700,"internal_node_id":"0.0-8.0-3.44","subject":"h2drs9pek4h2ugd","sona":"7624"},{"rt":334,"stimulus":"<p>Bereit?</p>","key_press":32,"trial_type":"html-keyboard-response","trial_index":187,"time_elapsed":386035,"internal_node_id":"0.0-8.0-0.45","subject":"h2drs9pek4h2ugd","sona":"7624"},{"rt":null,"stimulus":"<div style=\"font-size:60px;\">+</div>","key_press":null,"trial_type":"html-keyboard-response","trial_index":188,"time_elapsed":388037,"internal_node_id":"0.0-8.0-1.45","subject":"h2drs9pek4h2ugd","sona":"7624"},{"trial_type":"turing-test","trial_index":189,"time_elapsed":393631,"internal_node_id":"0.0-8.0-2.45","subject":"h2drs9pek4h2ugd","sona":"7624"},{"rt":675,"stimulus":"<p>Welche Sequenz haben Sie als natürlicher empfunden?</p>","key_press":70,"test_part":"response","test_stimulus":{"position":1,"left":"bvh/vr_prediction_models/model(tmp)-dataset(return-bottle)-numprim(8)-hold(3)/final-lines.txt","right":"bvh/return-bottle-training3-lines.txt","att_check":false},"trial_type":"html-keyboard-response","trial_index":190,"time_elapsed":394308,"internal_node_id":"0.0-8.0-3.45","subject":"h2drs9pek4h2ugd","sona":"7624"},{"rt":285,"stimulus":"<p>Bereit?</p>","key_press":32,"trial_type":"html-keyboard-response","trial_index":191,"time_elapsed":394596,"internal_node_id":"0.0-8.0-0.46","subject":"h2drs9pek4h2ugd","sona":"7624"},{"rt":null,"stimulus":"<div style=\"font-size:60px;\">+</div>","key_press":null,"trial_type":"html-keyboard-response","trial_index":192,"time_elapsed":396598,"internal_node_id":"0.0-8.0-1.46","subject":"h2drs9pek4h2ugd","sona":"7624"},{"trial_type":"turing-test","trial_index":193,"time_elapsed":402186,"internal_node_id":"0.0-8.0-2.46","subject":"h2drs9pek4h2ugd","sona":"7624"},{"rt":1312,"stimulus":"<p>Welche Sequenz haben Sie als natürlicher empfunden?</p>","key_press":70,"test_part":"response","test_stimulus":{"position":0,"left":"bvh/return-bottle-training3-lines.txt","right":"bvh/vr_prediction_models/model(tmp)-dataset(return-bottle)-numprim(5)-hold(3)/final-lines.txt","att_check":false},"trial_type":"html-keyboard-response","trial_index":194,"time_elapsed":403500,"internal_node_id":"0.0-8.0-3.46","subject":"h2drs9pek4h2ugd","sona":"7624"},{"rt":542,"stimulus":"<p>Bereit?</p>","key_press":32,"trial_type":"html-keyboard-response","trial_index":195,"time_elapsed":404044,"internal_node_id":"0.0-8.0-0.47","subject":"h2drs9pek4h2ugd","sona":"7624"},{"rt":null,"stimulus":"<div style=\"font-size:60px;\">+</div>","key_press":null,"trial_type":"html-keyboard-response","trial_index":196,"time_elapsed":406046,"internal_node_id":"0.0-8.0-1.47","subject":"h2drs9pek4h2ugd","sona":"7624"},{"trial_type":"turing-test","trial_index":197,"time_elapsed":409396,"internal_node_id":"0.0-8.0-2.47","subject":"h2drs9pek4h2ugd","sona":"7624"},{"rt":2095,"stimulus":"<p>Welche Sequenz haben Sie als natürlicher empfunden?</p>","key_press":70,"test_part":"response","test_stimulus":{"position":1,"left":"bvh/vr_prediction_models/model(dmp)-dataset(return-bottle-hold)-npsi(90)-hold(1)/final-lines.txt","right":"bvh/return-bottle-hold-training1-lines.txt","att_check":false},"trial_type":"html-keyboard-response","trial_index":198,"time_elapsed":411493,"internal_node_id":"0.0-8.0-3.47","subject":"h2drs9pek4h2ugd","sona":"7624"},{"rt":342,"stimulus":"<p>Bereit?</p>","key_press":32,"trial_type":"html-keyboard-response","trial_index":199,"time_elapsed":411837,"internal_node_id":"0.0-8.0-0.48","subject":"h2drs9pek4h2ugd","sona":"7624"},{"rt":null,"stimulus":"<div style=\"font-size:60px;\">+</div>","key_press":null,"trial_type":"html-keyboard-response","trial_index":200,"time_elapsed":413839,"internal_node_id":"0.0-8.0-1.48","subject":"h2drs9pek4h2ugd","sona":"7624"},{"trial_type":"turing-test","trial_index":201,"time_elapsed":417444,"internal_node_id":"0.0-8.0-2.48","subject":"h2drs9pek4h2ugd","sona":"7624"},{"rt":544,"stimulus":"<p>Welche Sequenz haben Sie als natürlicher empfunden?</p>","key_press":74,"test_part":"response","test_stimulus":{"position":0,"left":"bvh/pass-bottle-hold-training0-lines.txt","right":"bvh/vr_prediction_models/model(vcgpdm)-dataset(pass-bottle-hold)-mode(ELBO)-parts(1)-dyn(20)-lvm(5)-hold(0)/final-lines.txt","att_check":false},"trial_type":"html-keyboard-response","trial_index":202,"time_elapsed":417990,"internal_node_id":"0.0-8.0-3.48","subject":"h2drs9pek4h2ugd","sona":"7624"},{"rt":294,"stimulus":"<p>Bereit?</p>","key_press":32,"trial_type":"html-keyboard-response","trial_index":203,"time_elapsed":418285,"internal_node_id":"0.0-8.0-0.49","subject":"h2drs9pek4h2ugd","sona":"7624"},{"rt":null,"stimulus":"<div style=\"font-size:60px;\">+</div>","key_press":null,"trial_type":"html-keyboard-response","trial_index":204,"time_elapsed":420288,"internal_node_id":"0.0-8.0-1.49","subject":"h2drs9pek4h2ugd","sona":"7624"},{"trial_type":"turing-test","trial_index":205,"time_elapsed":423744,"internal_node_id":"0.0-8.0-2.49","subject":"h2drs9pek4h2ugd","sona":"7624"},{"rt":403,"stimulus":"<p>Welche Sequenz haben Sie als natürlicher empfunden?</p>","key_press":74,"test_part":"response","test_stimulus":{"position":1,"left":"bvh/vr_prediction_models/model(vcgpdm)-dataset(pass-bottle-hold)-mode(ELBO)-parts(3)-dyn(20)-lvm(20)-hold(1)/final-lines.txt","right":"bvh/pass-bottle-hold-training1-lines.txt","att_check":false},"trial_type":"html-keyboard-response","trial_index":206,"time_elapsed":424149,"internal_node_id":"0.0-8.0-3.49","subject":"h2drs9pek4h2ugd","sona":"7624"},{"rt":271,"stimulus":"<p>Bereit?</p>","key_press":32,"trial_type":"html-keyboard-response","trial_index":207,"time_elapsed":424420,"internal_node_id":"0.0-8.0-0.50","subject":"h2drs9pek4h2ugd","sona":"7624"},{"rt":null,"stimulus":"<div style=\"font-size:60px;\">+</div>","key_press":null,"trial_type":"html-keyboard-response","trial_index":208,"time_elapsed":426429,"internal_node_id":"0.0-8.0-1.50","subject":"h2drs9pek4h2ugd","sona":"7624"},{"trial_type":"turing-test","trial_index":209,"time_elapsed":432260,"internal_node_id":"0.0-8.0-2.50","subject":"h2drs9pek4h2ugd","sona":"7624"},{"rt":567,"stimulus":"<p>Welche Sequenz haben Sie als natürlicher empfunden?</p>","key_press":70,"test_part":"response","test_stimulus":{"position":0,"left":"bvh/pass-bottle-training1-lines.txt","right":"bvh/vr_prediction_models/model(vcgpdm)-dataset(pass-bottle)-mode(ELBO)-parts(1)-dyn(20)-lvm(30)-hold(1)/final-lines.txt","att_check":false},"trial_type":"html-keyboard-response","trial_index":210,"time_elapsed":432829,"internal_node_id":"0.0-8.0-3.50","subject":"h2drs9pek4h2ugd","sona":"7624"},{"rt":325,"stimulus":"<p>Bereit?</p>","key_press":32,"trial_type":"html-keyboard-response","trial_index":211,"time_elapsed":433157,"internal_node_id":"0.0-8.0-0.51","subject":"h2drs9pek4h2ugd","sona":"7624"},{"rt":null,"stimulus":"<div style=\"font-size:60px;\">+</div>","key_press":null,"trial_type":"html-keyboard-response","trial_index":212,"time_elapsed":435162,"internal_node_id":"0.0-8.0-1.51","subject":"h2drs9pek4h2ugd","sona":"7624"},{"trial_type":"turing-test","trial_index":213,"time_elapsed":441734,"internal_node_id":"0.0-8.0-2.51","subject":"h2drs9pek4h2ugd","sona":"7624"},{"rt":454,"stimulus":"<p>Welche Sequenz haben Sie als natürlicher empfunden?</p>","key_press":74,"test_part":"response","test_stimulus":{"position":1,"left":"bvh/vr_prediction_models/model(tmp)-dataset(return-bottle)-numprim(12)-hold(2)/final-lines.txt","right":"bvh/return-bottle-training2-lines.txt","att_check":false},"trial_type":"html-keyboard-response","trial_index":214,"time_elapsed":442189,"internal_node_id":"0.0-8.0-3.51","subject":"h2drs9pek4h2ugd","sona":"7624"},{"rt":302,"stimulus":"<p>Bereit?</p>","key_press":32,"trial_type":"html-keyboard-response","trial_index":215,"time_elapsed":442493,"internal_node_id":"0.0-8.0-0.52","subject":"h2drs9pek4h2ugd","sona":"7624"},{"rt":null,"stimulus":"<div style=\"font-size:60px;\">+</div>","key_press":null,"trial_type":"html-keyboard-response","trial_index":216,"time_elapsed":444496,"internal_node_id":"0.0-8.0-1.52","subject":"h2drs9pek4h2ugd","sona":"7624"},{"trial_type":"turing-test","trial_index":217,"time_elapsed":450631,"internal_node_id":"0.0-8.0-2.52","subject":"h2drs9pek4h2ugd","sona":"7624"},{"rt":397,"stimulus":"<p>Welche Sequenz haben Sie als natürlicher empfunden?</p>","key_press":74,"test_part":"response","test_stimulus":{"position":0,"left":"bvh/return-bottle-training1-lines.txt","right":"bvh/vr_prediction_models/model(tmp)-dataset(return-bottle)-numprim(10)-hold(1)/final-lines.txt","att_check":false},"trial_type":"html-keyboard-response","trial_index":218,"time_elapsed":451030,"internal_node_id":"0.0-8.0-3.52","subject":"h2drs9pek4h2ugd","sona":"7624"},{"rt":382,"stimulus":"<p>Bereit?</p>","key_press":32,"trial_type":"html-keyboard-response","trial_index":219,"time_elapsed":451413,"internal_node_id":"0.0-8.0-0.53","subject":"h2drs9pek4h2ugd","sona":"7624"},{"rt":null,"stimulus":"<div style=\"font-size:60px;\">+</div>","key_press":null,"trial_type":"html-keyboard-response","trial_index":220,"time_elapsed":453417,"internal_node_id":"0.0-8.0-1.53","subject":"h2drs9pek4h2ugd","sona":"7624"},{"trial_type":"turing-test","trial_index":221,"time_elapsed":457322,"internal_node_id":"0.0-8.0-2.53","subject":"h2drs9pek4h2ugd","sona":"7624"},{"rt":338,"stimulus":"<p>Welche Sequenz haben Sie als natürlicher empfunden?</p>","key_press":74,"test_part":"response","test_stimulus":{"position":0,"left":"bvh/pass-bottle-hold-training3-lines.txt","right":"bvh/vr_prediction_models/model(vcgpdm)-dataset(pass-bottle-hold)-mode(ELBO)-parts(1)-dyn(10)-lvm(25)-hold(3)/final-lines.txt","att_check":false},"trial_type":"html-keyboard-response","trial_index":222,"time_elapsed":457662,"internal_node_id":"0.0-8.0-3.53","subject":"h2drs9pek4h2ugd","sona":"7624"},{"rt":294,"stimulus":"<p>Bereit?</p>","key_press":32,"trial_type":"html-keyboard-response","trial_index":223,"time_elapsed":457957,"internal_node_id":"0.0-8.0-0.54","subject":"h2drs9pek4h2ugd","sona":"7624"},{"rt":null,"stimulus":"<div style=\"font-size:60px;\">+</div>","key_press":null,"trial_type":"html-keyboard-response","trial_index":224,"time_elapsed":459964,"internal_node_id":"0.0-8.0-1.54","subject":"h2drs9pek4h2ugd","sona":"7624"},{"trial_type":"turing-test","trial_index":225,"time_elapsed":466155,"internal_node_id":"0.0-8.0-2.54","subject":"h2drs9pek4h2ugd","sona":"7624"},{"rt":344,"stimulus":"<p>Welche Sequenz haben Sie als natürlicher empfunden?</p>","key_press":74,"test_part":"response","test_stimulus":{"position":1,"left":"bvh/vr_prediction_models/model(vcgpdm)-dataset(return-bottle)-mode(ELBO)-parts(3)-dyn(10)-lvm(30)-hold(1)/final-lines.txt","right":"bvh/return-bottle-training1-lines.txt","att_check":false},"trial_type":"html-keyboard-response","trial_index":226,"time_elapsed":466502,"internal_node_id":"0.0-8.0-3.54","subject":"h2drs9pek4h2ugd","sona":"7624"},{"rt":317,"stimulus":"<p>Bereit?</p>","key_press":32,"trial_type":"html-keyboard-response","trial_index":227,"time_elapsed":466822,"internal_node_id":"0.0-8.0-0.55","subject":"h2drs9pek4h2ugd","sona":"7624"},{"rt":null,"stimulus":"<div style=\"font-size:60px;\">+</div>","key_press":null,"trial_type":"html-keyboard-response","trial_index":228,"time_elapsed":468828,"internal_node_id":"0.0-8.0-1.55","subject":"h2drs9pek4h2ugd","sona":"7624"},{"trial_type":"turing-test","trial_index":229,"time_elapsed":474520,"internal_node_id":"0.0-8.0-2.55","subject":"h2drs9pek4h2ugd","sona":"7624"},{"rt":1044,"stimulus":"<p>Welche Sequenz haben Sie als natürlicher empfunden?</p>","key_press":70,"test_part":"response","test_stimulus":{"position":0,"left":"bvh/pass-bottle-training3-lines.txt","right":"bvh/vr_prediction_models/model(vcgpdm)-dataset(pass-bottle)-mode(ELBO)-parts(1)-dyn(25)-lvm(35)-hold(3)/final-lines.txt","att_check":false},"trial_type":"html-keyboard-response","trial_index":230,"time_elapsed":475566,"internal_node_id":"0.0-8.0-3.55","subject":"h2drs9pek4h2ugd","sona":"7624"},{"rt":384,"stimulus":"<p>Bereit?</p>","key_press":32,"trial_type":"html-keyboard-response","trial_index":231,"time_elapsed":475951,"internal_node_id":"0.0-8.0-0.56","subject":"h2drs9pek4h2ugd","sona":"7624"},{"rt":null,"stimulus":"<div style=\"font-size:60px;\">+</div>","key_press":null,"trial_type":"html-keyboard-response","trial_index":232,"time_elapsed":477956,"internal_node_id":"0.0-8.0-1.56","subject":"h2drs9pek4h2ugd","sona":"7624"},{"trial_type":"turing-test","trial_index":233,"time_elapsed":481654,"internal_node_id":"0.0-8.0-2.56","subject":"h2drs9pek4h2ugd","sona":"7624"},{"rt":679,"stimulus":"<p>Welche Sequenz haben Sie als natürlicher empfunden?</p>","key_press":74,"test_part":"response","test_stimulus":{"position":0,"left":"bvh/return-bottle-hold-training3-lines.txt","right":"bvh/vr_prediction_models/model(dmp)-dataset(return-bottle-hold)-npsi(50)-hold(3)/final-lines.txt","att_check":false},"trial_type":"html-keyboard-response","trial_index":234,"time_elapsed":482334,"internal_node_id":"0.0-8.0-3.56","subject":"h2drs9pek4h2ugd","sona":"7624"},{"rt":334,"stimulus":"<p>Bereit?</p>","key_press":32,"trial_type":"html-keyboard-response","trial_index":235,"time_elapsed":482670,"internal_node_id":"0.0-8.0-0.57","subject":"h2drs9pek4h2ugd","sona":"7624"},{"rt":null,"stimulus":"<div style=\"font-size:60px;\">+</div>","key_press":null,"trial_type":"html-keyboard-response","trial_index":236,"time_elapsed":484672,"internal_node_id":"0.0-8.0-1.57","subject":"h2drs9pek4h2ugd","sona":"7624"},{"trial_type":"turing-test","trial_index":237,"time_elapsed":490105,"internal_node_id":"0.0-8.0-2.57","subject":"h2drs9pek4h2ugd","sona":"7624"},{"rt":476,"stimulus":"<p>Welche Sequenz haben Sie als natürlicher empfunden?</p>","key_press":74,"test_part":"response","test_stimulus":{"position":1,"left":"bvh/vr_prediction_models/model(dmp)-dataset(pass-bottle)-npsi(40)-hold(1)/final-lines.txt","right":"bvh/pass-bottle-training1-lines.txt","att_check":false},"trial_type":"html-keyboard-response","trial_index":238,"time_elapsed":490582,"internal_node_id":"0.0-8.0-3.57","subject":"h2drs9pek4h2ugd","sona":"7624"},{"rt":237,"stimulus":"<p>Bereit?</p>","key_press":32,"trial_type":"html-keyboard-response","trial_index":239,"time_elapsed":490822,"internal_node_id":"0.0-8.0-0.58","subject":"h2drs9pek4h2ugd","sona":"7624"},{"rt":null,"stimulus":"<div style=\"font-size:60px;\">+</div>","key_press":null,"trial_type":"html-keyboard-response","trial_index":240,"time_elapsed":492825,"internal_node_id":"0.0-8.0-1.58","subject":"h2drs9pek4h2ugd","sona":"7624"},{"trial_type":"turing-test","trial_index":241,"time_elapsed":496339,"internal_node_id":"0.0-8.0-2.58","subject":"h2drs9pek4h2ugd","sona":"7624"},{"rt":522,"stimulus":"<p>Welche Sequenz haben Sie als natürlicher empfunden?</p>","key_press":74,"test_part":"response","test_stimulus":{"position":0,"left":"bvh/return-bottle-hold-training3-lines.txt","right":"bvh/vr_prediction_models/model(dmp)-dataset(return-bottle-hold)-npsi(50)-hold(3)/final-lines.txt","att_check":false},"trial_type":"html-keyboard-response","trial_index":242,"time_elapsed":496863,"internal_node_id":"0.0-8.0-3.58","subject":"h2drs9pek4h2ugd","sona":"7624"},{"rt":245,"stimulus":"<p>Bereit?</p>","key_press":32,"trial_type":"html-keyboard-response","trial_index":243,"time_elapsed":497111,"internal_node_id":"0.0-8.0-0.59","subject":"h2drs9pek4h2ugd","sona":"7624"},{"rt":null,"stimulus":"<div style=\"font-size:60px;\">+</div>","key_press":null,"trial_type":"html-keyboard-response","trial_index":244,"time_elapsed":499118,"internal_node_id":"0.0-8.0-1.59","subject":"h2drs9pek4h2ugd","sona":"7624"},{"trial_type":"turing-test","trial_index":245,"time_elapsed":505721,"internal_node_id":"0.0-8.0-2.59","subject":"h2drs9pek4h2ugd","sona":"7624"},{"rt":810,"stimulus":"<p>Welche Sequenz haben Sie als natürlicher empfunden?</p>","key_press":70,"test_part":"response","test_stimulus":{"position":0,"left":"bvh/pass-bottle-training0-lines.txt","right":"bvh/vr_prediction_models/model(tmp)-dataset(pass-bottle)-numprim(5)-hold(0)/final-lines.txt","att_check":false},"trial_type":"html-keyboard-response","trial_index":246,"time_elapsed":506535,"internal_node_id":"0.0-8.0-3.59","subject":"h2drs9pek4h2ugd","sona":"7624"},{"rt":205,"stimulus":"<p>Bereit?</p>","key_press":32,"trial_type":"html-keyboard-response","trial_index":247,"time_elapsed":506742,"internal_node_id":"0.0-8.0-0.60","subject":"h2drs9pek4h2ugd","sona":"7624"},{"rt":null,"stimulus":"<div style=\"font-size:60px;\">+</div>","key_press":null,"trial_type":"html-keyboard-response","trial_index":248,"time_elapsed":508746,"internal_node_id":"0.0-8.0-1.60","subject":"h2drs9pek4h2ugd","sona":"7624"},{"trial_type":"turing-test","trial_index":249,"time_elapsed":514451,"internal_node_id":"0.0-8.0-2.60","subject":"h2drs9pek4h2ugd","sona":"7624"},{"rt":707,"stimulus":"<p>Welche Sequenz haben Sie als natürlicher empfunden?</p>","key_press":74,"test_part":"response","test_stimulus":{"position":1,"left":"bvh/vr_prediction_models/model(tmp)-dataset(return-bottle)-numprim(6)-hold(3)/final-lines.txt","right":"bvh/return-bottle-training3-lines.txt","att_check":false},"trial_type":"html-keyboard-response","trial_index":250,"time_elapsed":515160,"internal_node_id":"0.0-8.0-3.60","subject":"h2drs9pek4h2ugd","sona":"7624"},{"rt":421,"stimulus":"<p>Bereit?</p>","key_press":32,"trial_type":"html-keyboard-response","trial_index":251,"time_elapsed":515583,"internal_node_id":"0.0-8.0-0.61","subject":"h2drs9pek4h2ugd","sona":"7624"},{"rt":null,"stimulus":"<div style=\"font-size:60px;\">+</div>","key_press":null,"trial_type":"html-keyboard-response","trial_index":252,"time_elapsed":517587,"internal_node_id":"0.0-8.0-1.61","subject":"h2drs9pek4h2ugd","sona":"7624"},{"trial_type":"turing-test","trial_index":253,"time_elapsed":522628,"internal_node_id":"0.0-8.0-2.61","subject":"h2drs9pek4h2ugd","sona":"7624"},{"rt":415,"stimulus":"<p>Welche Sequenz haben Sie als natürlicher empfunden?</p>","key_press":74,"test_part":"response","test_stimulus":{"position":1,"left":"bvh/vr_prediction_models/model(dmp)-dataset(return-bottle-hold)-npsi(80)-hold(0)/final-lines.txt","right":"bvh/return-bottle-hold-training0-lines.txt","att_check":true},"trial_type":"html-keyboard-response","trial_index":254,"time_elapsed":523048,"internal_node_id":"0.0-8.0-3.61","subject":"h2drs9pek4h2ugd","sona":"7624"},{"rt":318,"stimulus":"<p>Bereit?</p>","key_press":32,"trial_type":"html-keyboard-response","trial_index":255,"time_elapsed":523367,"internal_node_id":"0.0-8.0-0.62","subject":"h2drs9pek4h2ugd","sona":"7624"},{"rt":null,"stimulus":"<div style=\"font-size:60px;\">+</div>","key_press":null,"trial_type":"html-keyboard-response","trial_index":256,"time_elapsed":525375,"internal_node_id":"0.0-8.0-1.62","subject":"h2drs9pek4h2ugd","sona":"7624"},{"trial_type":"turing-test","trial_index":257,"time_elapsed":528654,"internal_node_id":"0.0-8.0-2.62","subject":"h2drs9pek4h2ugd","sona":"7624"},{"rt":351,"stimulus":"<p>Welche Sequenz haben Sie als natürlicher empfunden?</p>","key_press":74,"test_part":"response","test_stimulus":{"position":0,"left":"bvh/pass-bottle-hold-training2-lines.txt","right":"bvh/vr_prediction_models/model(dmp)-dataset(pass-bottle-hold)-npsi(60)-hold(2)/final-lines.txt","att_check":false},"trial_type":"html-keyboard-response","trial_index":258,"time_elapsed":529007,"internal_node_id":"0.0-8.0-3.62","subject":"h2drs9pek4h2ugd","sona":"7624"},{"rt":262,"stimulus":"<p>Bereit?</p>","key_press":32,"trial_type":"html-keyboard-response","trial_index":259,"time_elapsed":529271,"internal_node_id":"0.0-8.0-0.63","subject":"h2drs9pek4h2ugd","sona":"7624"},{"rt":null,"stimulus":"<div style=\"font-size:60px;\">+</div>","key_press":null,"trial_type":"html-keyboard-response","trial_index":260,"time_elapsed":531279,"internal_node_id":"0.0-8.0-1.63","subject":"h2drs9pek4h2ugd","sona":"7624"},{"trial_type":"turing-test","trial_index":261,"time_elapsed":538207,"internal_node_id":"0.0-8.0-2.63","subject":"h2drs9pek4h2ugd","sona":"7624"},{"rt":46,"stimulus":"<p>Welche Sequenz haben Sie als natürlicher empfunden?</p>","key_press":74,"test_part":"response","test_stimulus":{"position":0,"left":"bvh/return-bottle-training2-lines.txt","right":"bvh/vr_prediction_models/model(vcgpdm)-dataset(return-bottle)-mode(ELBO)-parts(3)-dyn(25)-lvm(15)-hold(2)/final-lines.txt","att_check":false},"trial_type":"html-keyboard-response","trial_index":262,"time_elapsed":538255,"internal_node_id":"0.0-8.0-3.63","subject":"h2drs9pek4h2ugd","sona":"7624"},{"rt":340,"stimulus":"<p>Bereit?</p>","key_press":32,"trial_type":"html-keyboard-response","trial_index":263,"time_elapsed":538600,"internal_node_id":"0.0-8.0-0.64","subject":"h2drs9pek4h2ugd","sona":"7624"},{"rt":null,"stimulus":"<div style=\"font-size:60px;\">+</div>","key_press":null,"trial_type":"html-keyboard-response","trial_index":264,"time_elapsed":540605,"internal_node_id":"0.0-8.0-1.64","subject":"h2drs9pek4h2ugd","sona":"7624"},{"trial_type":"turing-test","trial_index":265,"time_elapsed":547035,"internal_node_id":"0.0-8.0-2.64","subject":"h2drs9pek4h2ugd","sona":"7624"},{"rt":50,"stimulus":"<p>Welche Sequenz haben Sie als natürlicher empfunden?</p>","key_press":74,"test_part":"response","test_stimulus":{"position":1,"left":"bvh/vr_prediction_models/model(vcgpdm)-dataset(return-bottle)-mode(ELBO)-parts(1)-dyn(20)-lvm(20)-hold(1)/final-lines.txt","right":"bvh/return-bottle-training1-lines.txt","att_check":false},"trial_type":"html-keyboard-response","trial_index":266,"time_elapsed":547088,"internal_node_id":"0.0-8.0-3.64","subject":"h2drs9pek4h2ugd","sona":"7624"},{"rt":374,"stimulus":"<p>Bereit?</p>","key_press":32,"trial_type":"html-keyboard-response","trial_index":267,"time_elapsed":547463,"internal_node_id":"0.0-8.0-0.65","subject":"h2drs9pek4h2ugd","sona":"7624"},{"rt":null,"stimulus":"<div style=\"font-size:60px;\">+</div>","key_press":null,"trial_type":"html-keyboard-response","trial_index":268,"time_elapsed":549469,"internal_node_id":"0.0-8.0-1.65","subject":"h2drs9pek4h2ugd","sona":"7624"},{"trial_type":"turing-test","trial_index":269,"time_elapsed":553333,"internal_node_id":"0.0-8.0-2.65","subject":"h2drs9pek4h2ugd","sona":"7624"},{"rt":625,"stimulus":"<p>Welche Sequenz haben Sie als natürlicher empfunden?</p>","key_press":74,"test_part":"response","test_stimulus":{"position":1,"left":"bvh/vr_prediction_models/model(vcgpdm)-dataset(return-bottle-hold)-mode(ELBO)-parts(3)-dyn(25)-lvm(15)-hold(3)/final-lines.txt","right":"bvh/return-bottle-hold-training3-lines.txt","att_check":false},"trial_type":"html-keyboard-response","trial_index":270,"time_elapsed":553960,"internal_node_id":"0.0-8.0-3.65","subject":"h2drs9pek4h2ugd","sona":"7624"},{"rt":270,"stimulus":"<p>Bereit?</p>","key_press":32,"trial_type":"html-keyboard-response","trial_index":271,"time_elapsed":554232,"internal_node_id":"0.0-8.0-0.66","subject":"h2drs9pek4h2ugd","sona":"7624"},{"rt":null,"stimulus":"<div style=\"font-size:60px;\">+</div>","key_press":null,"trial_type":"html-keyboard-response","trial_index":272,"time_elapsed":556234,"internal_node_id":"0.0-8.0-1.66","subject":"h2drs9pek4h2ugd","sona":"7624"},{"trial_type":"turing-test","trial_index":273,"time_elapsed":562570,"internal_node_id":"0.0-8.0-2.66","subject":"h2drs9pek4h2ugd","sona":"7624"},{"rt":212,"stimulus":"<p>Welche Sequenz haben Sie als natürlicher empfunden?</p>","key_press":74,"test_part":"response","test_stimulus":{"position":0,"left":"bvh/return-bottle-training1-lines.txt","right":"bvh/vr_prediction_models/model(vcgpdm)-dataset(return-bottle)-mode(ELBO)-parts(1)-dyn(35)-lvm(10)-hold(1)/final-lines.txt","att_check":false},"trial_type":"html-keyboard-response","trial_index":274,"time_elapsed":562784,"internal_node_id":"0.0-8.0-3.66","subject":"h2drs9pek4h2ugd","sona":"7624"},{"rt":334,"stimulus":"<p>Bereit?</p>","key_press":32,"trial_type":"html-keyboard-response","trial_index":275,"time_elapsed":563120,"internal_node_id":"0.0-8.0-0.67","subject":"h2drs9pek4h2ugd","sona":"7624"},{"rt":null,"stimulus":"<div style=\"font-size:60px;\">+</div>","key_press":null,"trial_type":"html-keyboard-response","trial_index":276,"time_elapsed":565125,"internal_node_id":"0.0-8.0-1.67","subject":"h2drs9pek4h2ugd","sona":"7624"},{"trial_type":"turing-test","trial_index":277,"time_elapsed":570198,"internal_node_id":"0.0-8.0-2.67","subject":"h2drs9pek4h2ugd","sona":"7624"},{"rt":1416,"stimulus":"<p>Welche Sequenz haben Sie als natürlicher empfunden?</p>","key_press":70,"test_part":"response","test_stimulus":{"position":1,"left":"bvh/vr_prediction_models/model(dmp)-dataset(return-bottle-hold)-npsi(10)-hold(0)/final-lines.txt","right":"bvh/return-bottle-hold-training0-lines.txt","att_check":false},"trial_type":"html-keyboard-response","trial_index":278,"time_elapsed":571616,"internal_node_id":"0.0-8.0-3.67","subject":"h2drs9pek4h2ugd","sona":"7624"},{"rt":277,"stimulus":"<p>Bereit?</p>","key_press":32,"trial_type":"html-keyboard-response","trial_index":279,"time_elapsed":571896,"internal_node_id":"0.0-8.0-0.68","subject":"h2drs9pek4h2ugd","sona":"7624"},{"rt":null,"stimulus":"<div style=\"font-size:60px;\">+</div>","key_press":null,"trial_type":"html-keyboard-response","trial_index":280,"time_elapsed":573899,"internal_node_id":"0.0-8.0-1.68","subject":"h2drs9pek4h2ugd","sona":"7624"},{"trial_type":"turing-test","trial_index":281,"time_elapsed":580700,"internal_node_id":"0.0-8.0-2.68","subject":"h2drs9pek4h2ugd","sona":"7624"},{"rt":545,"stimulus":"<p>Welche Sequenz haben Sie als natürlicher empfunden?</p>","key_press":74,"test_part":"response","test_stimulus":{"position":1,"left":"bvh/vr_prediction_models/model(tmp)-dataset(pass-bottle)-numprim(10)-hold(0)/final-lines.txt","right":"bvh/pass-bottle-training0-lines.txt","att_check":false},"trial_type":"html-keyboard-response","trial_index":282,"time_elapsed":581249,"internal_node_id":"0.0-8.0-3.68","subject":"h2drs9pek4h2ugd","sona":"7624"},{"rt":269,"stimulus":"<p>Bereit?</p>","key_press":32,"trial_type":"html-keyboard-response","trial_index":283,"time_elapsed":581521,"internal_node_id":"0.0-8.0-0.69","subject":"h2drs9pek4h2ugd","sona":"7624"},{"rt":null,"stimulus":"<div style=\"font-size:60px;\">+</div>","key_press":null,"trial_type":"html-keyboard-response","trial_index":284,"time_elapsed":583524,"internal_node_id":"0.0-8.0-1.69","subject":"h2drs9pek4h2ugd","sona":"7624"},{"trial_type":"turing-test","trial_index":285,"time_elapsed":590458,"internal_node_id":"0.0-8.0-2.69","subject":"h2drs9pek4h2ugd","sona":"7624"},{"rt":733,"stimulus":"<p>Welche Sequenz haben Sie als natürlicher empfunden?</p>","key_press":74,"test_part":"response","test_stimulus":{"position":0,"left":"bvh/return-bottle-training2-lines.txt","right":"bvh/vr_prediction_models/model(vcgpdm)-dataset(return-bottle)-mode(ELBO)-parts(1)-dyn(35)-lvm(10)-hold(2)/final-lines.txt","att_check":false},"trial_type":"html-keyboard-response","trial_index":286,"time_elapsed":591193,"internal_node_id":"0.0-8.0-3.69","subject":"h2drs9pek4h2ugd","sona":"7624"},{"rt":374,"stimulus":"<p>Bereit?</p>","key_press":32,"trial_type":"html-keyboard-response","trial_index":287,"time_elapsed":591568,"internal_node_id":"0.0-8.0-0.70","subject":"h2drs9pek4h2ugd","sona":"7624"},{"rt":null,"stimulus":"<div style=\"font-size:60px;\">+</div>","key_press":null,"trial_type":"html-keyboard-response","trial_index":288,"time_elapsed":593579,"internal_node_id":"0.0-8.0-1.70","subject":"h2drs9pek4h2ugd","sona":"7624"},{"trial_type":"turing-test","trial_index":289,"time_elapsed":599649,"internal_node_id":"0.0-8.0-2.70","subject":"h2drs9pek4h2ugd","sona":"7624"},{"rt":533,"stimulus":"<p>Welche Sequenz haben Sie als natürlicher empfunden?</p>","key_press":70,"test_part":"response","test_stimulus":{"position":0,"left":"bvh/pass-bottle-training2-lines.txt","right":"bvh/vr_prediction_models/model(dmp)-dataset(pass-bottle)-npsi(60)-hold(2)/final-lines.txt","att_check":false},"trial_type":"html-keyboard-response","trial_index":290,"time_elapsed":600186,"internal_node_id":"0.0-8.0-3.70","subject":"h2drs9pek4h2ugd","sona":"7624"},{"rt":1621,"stimulus":"<p>Bereit?</p>","key_press":32,"trial_type":"html-keyboard-response","trial_index":291,"time_elapsed":601809,"internal_node_id":"0.0-8.0-0.71","subject":"h2drs9pek4h2ugd","sona":"7624"},{"rt":null,"stimulus":"<div style=\"font-size:60px;\">+</div>","key_press":null,"trial_type":"html-keyboard-response","trial_index":292,"time_elapsed":603815,"internal_node_id":"0.0-8.0-1.71","subject":"h2drs9pek4h2ugd","sona":"7624"},{"trial_type":"turing-test","trial_index":293,"time_elapsed":607441,"internal_node_id":"0.0-8.0-2.71","subject":"h2drs9pek4h2ugd","sona":"7624"},{"rt":326,"stimulus":"<p>Welche Sequenz haben Sie als natürlicher empfunden?</p>","key_press":70,"test_part":"response","test_stimulus":{"position":1,"left":"bvh/vr_prediction_models/model(tmp)-dataset(return-bottle-hold)-numprim(10)-hold(3)/final-lines.txt","right":"bvh/return-bottle-hold-training3-lines.txt","att_check":false},"trial_type":"html-keyboard-response","trial_index":294,"time_elapsed":607770,"internal_node_id":"0.0-8.0-3.71","subject":"h2drs9pek4h2ugd","sona":"7624"},{"rt":254,"stimulus":"<p>Bereit?</p>","key_press":32,"trial_type":"html-keyboard-response","trial_index":295,"time_elapsed":608026,"internal_node_id":"0.0-8.0-0.72","subject":"h2drs9pek4h2ugd","sona":"7624"},{"rt":null,"stimulus":"<div style=\"font-size:60px;\">+</div>","key_press":null,"trial_type":"html-keyboard-response","trial_index":296,"time_elapsed":610028,"internal_node_id":"0.0-8.0-1.72","subject":"h2drs9pek4h2ugd","sona":"7624"},{"trial_type":"turing-test","trial_index":297,"time_elapsed":615454,"internal_node_id":"0.0-8.0-2.72","subject":"h2drs9pek4h2ugd","sona":"7624"},{"rt":402,"stimulus":"<p>Welche Sequenz haben Sie als natürlicher empfunden?</p>","key_press":70,"test_part":"response","test_stimulus":{"position":0,"left":"bvh/return-bottle-training0-lines.txt","right":"bvh/vr_prediction_models/model(dmp)-dataset(return-bottle)-npsi(50)-hold(0)/final-lines.txt","att_check":false},"trial_type":"html-keyboard-response","trial_index":298,"time_elapsed":615858,"internal_node_id":"0.0-8.0-3.72","subject":"h2drs9pek4h2ugd","sona":"7624"},{"rt":270,"stimulus":"<p>Bereit?</p>","key_press":32,"trial_type":"html-keyboard-response","trial_index":299,"time_elapsed":616129,"internal_node_id":"0.0-8.0-0.73","subject":"h2drs9pek4h2ugd","sona":"7624"},{"rt":null,"stimulus":"<div style=\"font-size:60px;\">+</div>","key_press":null,"trial_type":"html-keyboard-response","trial_index":300,"time_elapsed":618133,"internal_node_id":"0.0-8.0-1.73","subject":"h2drs9pek4h2ugd","sona":"7624"},{"trial_type":"turing-test","trial_index":301,"time_elapsed":623904,"internal_node_id":"0.0-8.0-2.73","subject":"h2drs9pek4h2ugd","sona":"7624"},{"rt":392,"stimulus":"<p>Welche Sequenz haben Sie als natürlicher empfunden?</p>","key_press":70,"test_part":"response","test_stimulus":{"position":0,"left":"bvh/pass-bottle-training3-lines.txt","right":"bvh/vr_prediction_models/model(tmp)-dataset(pass-bottle)-numprim(12)-hold(3)/final-lines.txt","att_check":false},"trial_type":"html-keyboard-response","trial_index":302,"time_elapsed":624299,"internal_node_id":"0.0-8.0-3.73","subject":"h2drs9pek4h2ugd","sona":"7624"},{"rt":213,"stimulus":"<p>Bereit?</p>","key_press":32,"trial_type":"html-keyboard-response","trial_index":303,"time_elapsed":624514,"internal_node_id":"0.0-8.0-0.74","subject":"h2drs9pek4h2ugd","sona":"7624"},{"rt":null,"stimulus":"<div style=\"font-size:60px;\">+</div>","key_press":null,"trial_type":"html-keyboard-response","trial_index":304,"time_elapsed":626518,"internal_node_id":"0.0-8.0-1.74","subject":"h2drs9pek4h2ugd","sona":"7624"},{"trial_type":"turing-test","trial_index":305,"time_elapsed":633022,"internal_node_id":"0.0-8.0-2.74","subject":"h2drs9pek4h2ugd","sona":"7624"},{"rt":369,"stimulus":"<p>Welche Sequenz haben Sie als natürlicher empfunden?</p>","key_press":74,"test_part":"response","test_stimulus":{"position":1,"left":"bvh/vr_prediction_models/model(vcgpdm)-dataset(pass-bottle)-mode(ELBO)-parts(1)-dyn(20)-lvm(5)-hold(2)/final-lines.txt","right":"bvh/pass-bottle-training2-lines.txt","att_check":false},"trial_type":"html-keyboard-response","trial_index":306,"time_elapsed":633394,"internal_node_id":"0.0-8.0-3.74","subject":"h2drs9pek4h2ugd","sona":"7624"},{"rt":301,"stimulus":"<p>Bereit?</p>","key_press":32,"trial_type":"html-keyboard-response","trial_index":307,"time_elapsed":633698,"internal_node_id":"0.0-8.0-0.75","subject":"h2drs9pek4h2ugd","sona":"7624"},{"rt":null,"stimulus":"<div style=\"font-size:60px;\">+</div>","key_press":null,"trial_type":"html-keyboard-response","trial_index":308,"time_elapsed":635700,"internal_node_id":"0.0-8.0-1.75","subject":"h2drs9pek4h2ugd","sona":"7624"},{"trial_type":"turing-test","trial_index":309,"time_elapsed":642642,"internal_node_id":"0.0-8.0-2.75","subject":"h2drs9pek4h2ugd","sona":"7624"},{"rt":478,"stimulus":"<p>Welche Sequenz haben Sie als natürlicher empfunden?</p>","key_press":70,"test_part":"response","test_stimulus":{"position":0,"left":"bvh/pass-bottle-training0-lines.txt","right":"bvh/vr_prediction_models/model(vcgpdm)-dataset(pass-bottle)-mode(ELBO)-parts(3)-dyn(20)-lvm(20)-hold(0)/final-lines.txt","att_check":false},"trial_type":"html-keyboard-response","trial_index":310,"time_elapsed":643123,"internal_node_id":"0.0-8.0-3.75","subject":"h2drs9pek4h2ugd","sona":"7624"},{"rt":229,"stimulus":"<p>Bereit?</p>","key_press":32,"trial_type":"html-keyboard-response","trial_index":311,"time_elapsed":643354,"internal_node_id":"0.0-8.0-0.76","subject":"h2drs9pek4h2ugd","sona":"7624"},{"rt":null,"stimulus":"<div style=\"font-size:60px;\">+</div>","key_press":null,"trial_type":"html-keyboard-response","trial_index":312,"time_elapsed":645359,"internal_node_id":"0.0-8.0-1.76","subject":"h2drs9pek4h2ugd","sona":"7624"},{"trial_type":"turing-test","trial_index":313,"time_elapsed":651292,"internal_node_id":"0.0-8.0-2.76","subject":"h2drs9pek4h2ugd","sona":"7624"},{"rt":300,"stimulus":"<p>Welche Sequenz haben Sie als natürlicher empfunden?</p>","key_press":70,"test_part":"response","test_stimulus":{"position":0,"left":"bvh/pass-bottle-training4-lines.txt","right":"bvh/vr_prediction_models/model(vcgpdm)-dataset(pass-bottle)-mode(ELBO)-parts(3)-dyn(30)-lvm(15)-hold(4)/final-lines.txt","att_check":false},"trial_type":"html-keyboard-response","trial_index":314,"time_elapsed":651595,"internal_node_id":"0.0-8.0-3.76","subject":"h2drs9pek4h2ugd","sona":"7624"},{"rt":253,"stimulus":"<p>Bereit?</p>","key_press":32,"trial_type":"html-keyboard-response","trial_index":315,"time_elapsed":651850,"internal_node_id":"0.0-8.0-0.77","subject":"h2drs9pek4h2ugd","sona":"7624"},{"rt":null,"stimulus":"<div style=\"font-size:60px;\">+</div>","key_press":null,"trial_type":"html-keyboard-response","trial_index":316,"time_elapsed":653853,"internal_node_id":"0.0-8.0-1.77","subject":"h2drs9pek4h2ugd","sona":"7624"},{"trial_type":"turing-test","trial_index":317,"time_elapsed":660071,"internal_node_id":"0.0-8.0-2.77","subject":"h2drs9pek4h2ugd","sona":"7624"},{"rt":225,"stimulus":"<p>Welche Sequenz haben Sie als natürlicher empfunden?</p>","key_press":70,"test_part":"response","test_stimulus":{"position":0,"left":"bvh/pass-bottle-training2-lines.txt","right":"bvh/vr_prediction_models/model(tmp)-dataset(pass-bottle)-numprim(5)-hold(2)/final-lines.txt","att_check":false},"trial_type":"html-keyboard-response","trial_index":318,"time_elapsed":660298,"internal_node_id":"0.0-8.0-3.77","subject":"h2drs9pek4h2ugd","sona":"7624"},{"rt":262,"stimulus":"<p>Bereit?</p>","key_press":32,"trial_type":"html-keyboard-response","trial_index":319,"time_elapsed":660562,"internal_node_id":"0.0-8.0-0.78","subject":"h2drs9pek4h2ugd","sona":"7624"},{"rt":null,"stimulus":"<div style=\"font-size:60px;\">+</div>","key_press":null,"trial_type":"html-keyboard-response","trial_index":320,"time_elapsed":662568,"internal_node_id":"0.0-8.0-1.78","subject":"h2drs9pek4h2ugd","sona":"7624"},{"trial_type":"turing-test","trial_index":321,"time_elapsed":668648,"internal_node_id":"0.0-8.0-2.78","subject":"h2drs9pek4h2ugd","sona":"7624"},{"rt":1033,"stimulus":"<p>Welche Sequenz haben Sie als natürlicher empfunden?</p>","key_press":74,"test_part":"response","test_stimulus":{"position":0,"left":"bvh/return-bottle-training4-lines.txt","right":"bvh/vr_prediction_models/model(vcgpdm)-dataset(return-bottle)-mode(ELBO)-parts(1)-dyn(10)-lvm(5)-hold(4)/final-lines.txt","att_check":false},"trial_type":"html-keyboard-response","trial_index":322,"time_elapsed":669683,"internal_node_id":"0.0-8.0-3.78","subject":"h2drs9pek4h2ugd","sona":"7624"},{"rt":389,"stimulus":"<p>Bereit?</p>","key_press":32,"trial_type":"html-keyboard-response","trial_index":323,"time_elapsed":670074,"internal_node_id":"0.0-8.0-0.79","subject":"h2drs9pek4h2ugd","sona":"7624"},{"rt":null,"stimulus":"<div style=\"font-size:60px;\">+</div>","key_press":null,"trial_type":"html-keyboard-response","trial_index":324,"time_elapsed":672083,"internal_node_id":"0.0-8.0-1.79","subject":"h2drs9pek4h2ugd","sona":"7624"},{"trial_type":"turing-test","trial_index":325,"time_elapsed":679039,"internal_node_id":"0.0-8.0-2.79","subject":"h2drs9pek4h2ugd","sona":"7624"},{"rt":314,"stimulus":"<p>Welche Sequenz haben Sie als natürlicher empfunden?</p>","key_press":70,"test_part":"response","test_stimulus":{"position":0,"left":"bvh/pass-bottle-training0-lines.txt","right":"bvh/vr_prediction_models/model(vcgpdm)-dataset(pass-bottle)-mode(ELBO)-parts(1)-dyn(10)-lvm(30)-hold(0)/final-lines.txt","att_check":false},"trial_type":"html-keyboard-response","trial_index":326,"time_elapsed":679355,"internal_node_id":"0.0-8.0-3.79","subject":"h2drs9pek4h2ugd","sona":"7624"},{"rt":9334,"responses":"{\"age\":\"20\",\"gender\":\"männlich\"}","trial_type":"survey-text","trial_index":327,"time_elapsed":688695,"internal_node_id":"0.0-10.0-0.0","subject":"h2drs9pek4h2ugd","sona":"7624"},{"rt":37121,"responses":"{\"area\":\"Arme\",\"Q1\":\"Abgehackt\",\"Q2\":\"Wilde Bewegungen\"}","trial_type":"survey-text","trial_index":328,"time_elapsed":725844,"internal_node_id":"0.0-10.0-1.0","subject":"h2drs9pek4h2ugd","sona":"7624"}]