[{"rt":11300,"stimulus":"<p>Welcome!<br> Please choose your language to start the experiment in the chosen language.</p><p>Willkommen!<br> Bitte wählen Sie eine Sprache, um das Experiment in der ausgewählten Sprache zu starten</p>","button_pressed":"1","trial_type":"html-button-response","trial_index":0,"time_elapsed":11595,"internal_node_id":"0.0-0.0","subject":"nsk20fxa10wgqlm","sona":"7468"},{"view_history":"[{\"page_index\":0,\"viewing_time\":11523},{\"page_index\":1,\"viewing_time\":5532},{\"page_index\":2,\"viewing_time\":8973},{\"page_index\":3,\"viewing_time\":5336},{\"page_index\":4,\"viewing_time\":4145}]","rt":35510,"trial_type":"instructions","trial_index":1,"time_elapsed":47110,"internal_node_id":"0.0-1.0-0.0","subject":"nsk20fxa10wgqlm","sona":"7468"},{"rt":2063,"stimulus":"<p>Bereit?</p>","key_press":32,"trial_type":"html-keyboard-response","trial_index":2,"time_elapsed":49177,"internal_node_id":"0.0-3.0","subject":"nsk20fxa10wgqlm","sona":"7468"},{"rt":null,"stimulus":"<div style=\"font-size:60px;\">+</div>","key_press":null,"trial_type":"html-keyboard-response","trial_index":3,"time_elapsed":51200,"internal_node_id":"0.0-4.0","subject":"nsk20fxa10wgqlm","sona":"7468"},{"trial_type":"training","trial_index":4,"time_elapsed":61739,"internal_node_id":"0.0-5.0","subject":"nsk20fxa10wgqlm","sona":"7468"},{"rt":5901,"stimulus":"<p>Welche Sequenz haben Sie als natürlicher empfunden?</p>","key_press":70,"trial_type":"html-keyboard-response","trial_index":5,"time_elapsed":67643,"internal_node_id":"0.0-6.0","subject":"nsk20fxa10wgqlm","sona":"7468"},{"rt":5420,"stimulus":"<p>Das Experiment startet nun.</p><p><small>Bitte drücken Sie den Knopf, wenn Sie bereit sind.</small></p>","button_pressed":"0","trial_type":"html-button-response","trial_index":6,"time_elapsed":73064,"internal_node_id":"0.0-7.0","subject":"nsk20fxa10wgqlm","sona":"7468"},{"rt":1629,"stimulus":"<p>Bereit?</p>","key_press":32,"trial_type":"html-keyboard-response","trial_index":7,"time_elapsed":74698,"internal_node_id":"0.0-8.0-0.0","subject":"nsk20fxa10wgqlm","sona":"7468"},{"rt":null,"stimulus":"<div style=\"font-size:60px;\">+</div>","key_press":null,"trial_type":"html-keyboard-response","trial_index":8,"time_elapsed":76717,"internal_node_id":"0.0-8.0-1.0","subject":"nsk20fxa10wgqlm","sona":"7468"},{"trial_type":"turing-test","trial_index":9,"time_elapsed":82119,"internal_node_id":"0.0-8.0-2.0","subject":"nsk20fxa10wgqlm","sona":"7468"},{"rt":1861,"stimulus":"<p>Welche Sequenz haben Sie als natürlicher empfunden?</p>","key_press":70,"test_part":"response","test_stimulus":{"position":1,"left":"bvh/vr_prediction_models/model(vcgpdm)-dataset(return-bottle-hold)-mode(ELBO)-parts(1)-dyn(10)-lvm(5)-hold(0)/final-lines.txt","right":"bvh/return-bottle-hold-training0-lines.txt","att_check":false},"trial_type":"html-keyboard-response","trial_index":10,"time_elapsed":83985,"internal_node_id":"0.0-8.0-3.0","subject":"nsk20fxa10wgqlm","sona":"7468"},{"rt":1749,"stimulus":"<p>Bereit?</p>","key_press":32,"trial_type":"html-keyboard-response","trial_index":11,"time_elapsed":85738,"internal_node_id":"0.0-8.0-0.1","subject":"nsk20fxa10wgqlm","sona":"7468"},{"rt":null,"stimulus":"<div style=\"font-size:60px;\">+</div>","key_press":null,"trial_type":"html-keyboard-response","trial_index":12,"time_elapsed":87773,"internal_node_id":"0.0-8.0-1.1","subject":"nsk20fxa10wgqlm","sona":"7468"},{"trial_type":"turing-test","trial_index":13,"time_elapsed":93265,"internal_node_id":"0.0-8.0-2.1","subject":"nsk20fxa10wgqlm","sona":"7468"},{"rt":524,"stimulus":"<p>Welche Sequenz haben Sie als natürlicher empfunden?</p>","key_press":70,"test_part":"response","test_stimulus":{"position":1,"left":"bvh/vr_prediction_models/model(tmp)-dataset(return-bottle)-numprim(3)-hold(0)/final-lines.txt","right":"bvh/return-bottle-training0-lines.txt","att_check":false},"trial_type":"html-keyboard-response","trial_index":14,"time_elapsed":93791,"internal_node_id":"0.0-8.0-3.1","subject":"nsk20fxa10wgqlm","sona":"7468"},{"rt":1106,"stimulus":"<p>Bereit?</p>","key_press":32,"trial_type":"html-keyboard-response","trial_index":15,"time_elapsed":94900,"internal_node_id":"0.0-8.0-0.2","subject":"nsk20fxa10wgqlm","sona":"7468"},{"rt":null,"stimulus":"<div style=\"font-size:60px;\">+</div>","key_press":null,"trial_type":"html-keyboard-response","trial_index":16,"time_elapsed":96907,"internal_node_id":"0.0-8.0-1.2","subject":"nsk20fxa10wgqlm","sona":"7468"},{"trial_type":"turing-test","trial_index":17,"time_elapsed":103750,"internal_node_id":"0.0-8.0-2.2","subject":"nsk20fxa10wgqlm","sona":"7468"},{"rt":955,"stimulus":"<p>Welche Sequenz haben Sie als natürlicher empfunden?</p>","key_press":74,"test_part":"response","test_stimulus":{"position":0,"left":"bvh/return-bottle-training2-lines.txt","right":"bvh/vr_prediction_models/model(vcgpdm)-dataset(return-bottle)-mode(MAP)-parts(1)-hold(2)/final-lines.txt","att_check":false},"trial_type":"html-keyboard-response","trial_index":18,"time_elapsed":104707,"internal_node_id":"0.0-8.0-3.2","subject":"nsk20fxa10wgqlm","sona":"7468"},{"rt":8696,"stimulus":"<p>Bereit?</p>","key_press":32,"trial_type":"html-keyboard-response","trial_index":19,"time_elapsed":113405,"internal_node_id":"0.0-8.0-0.3","subject":"nsk20fxa10wgqlm","sona":"7468"},{"rt":null,"stimulus":"<div style=\"font-size:60px;\">+</div>","key_press":null,"trial_type":"html-keyboard-response","trial_index":20,"time_elapsed":115461,"internal_node_id":"0.0-8.0-1.3","subject":"nsk20fxa10wgqlm","sona":"7468"},{"trial_type":"turing-test","trial_index":21,"time_elapsed":121785,"internal_node_id":"0.0-8.0-2.3","subject":"nsk20fxa10wgqlm","sona":"7468"},{"rt":1112,"stimulus":"<p>Welche Sequenz haben Sie als natürlicher empfunden?</p>","key_press":74,"test_part":"response","test_stimulus":{"position":0,"left":"bvh/pass-bottle-training2-lines.txt","right":"bvh/vr_prediction_models/model(tmp)-dataset(pass-bottle)-numprim(6)-hold(2)/final-lines.txt","att_check":false},"trial_type":"html-keyboard-response","trial_index":22,"time_elapsed":122900,"internal_node_id":"0.0-8.0-3.3","subject":"nsk20fxa10wgqlm","sona":"7468"},{"rt":740,"stimulus":"<p>Bereit?</p>","key_press":32,"trial_type":"html-keyboard-response","trial_index":23,"time_elapsed":123642,"internal_node_id":"0.0-8.0-0.4","subject":"nsk20fxa10wgqlm","sona":"7468"},{"rt":null,"stimulus":"<div style=\"font-size:60px;\">+</div>","key_press":null,"trial_type":"html-keyboard-response","trial_index":24,"time_elapsed":125659,"internal_node_id":"0.0-8.0-1.4","subject":"nsk20fxa10wgqlm","sona":"7468"},{"trial_type":"turing-test","trial_index":25,"time_elapsed":129058,"internal_node_id":"0.0-8.0-2.4","subject":"nsk20fxa10wgqlm","sona":"7468"},{"rt":549,"stimulus":"<p>Welche Sequenz haben Sie als natürlicher empfunden?</p>","key_press":70,"test_part":"response","test_stimulus":{"position":0,"left":"bvh/pass-bottle-hold-training2-lines.txt","right":"bvh/vr_prediction_models/model(dmp)-dataset(pass-bottle-hold)-npsi(50)-hold(2)/final-lines.txt","att_check":false},"trial_type":"html-keyboard-response","trial_index":26,"time_elapsed":129608,"internal_node_id":"0.0-8.0-3.4","subject":"nsk20fxa10wgqlm","sona":"7468"},{"rt":767,"stimulus":"<p>Bereit?</p>","key_press":32,"trial_type":"html-keyboard-response","trial_index":27,"time_elapsed":130379,"internal_node_id":"0.0-8.0-0.5","subject":"nsk20fxa10wgqlm","sona":"7468"},{"rt":null,"stimulus":"<div style=\"font-size:60px;\">+</div>","key_press":null,"trial_type":"html-keyboard-response","trial_index":28,"time_elapsed":132393,"internal_node_id":"0.0-8.0-1.5","subject":"nsk20fxa10wgqlm","sona":"7468"},{"trial_type":"turing-test","trial_index":29,"time_elapsed":138608,"internal_node_id":"0.0-8.0-2.5","subject":"nsk20fxa10wgqlm","sona":"7468"},{"rt":691,"stimulus":"<p>Welche Sequenz haben Sie als natürlicher empfunden?</p>","key_press":70,"test_part":"response","test_stimulus":{"position":1,"left":"bvh/vr_prediction_models/model(tmp)-dataset(pass-bottle)-numprim(4)-hold(2)/final-lines.txt","right":"bvh/pass-bottle-training2-lines.txt","att_check":false},"trial_type":"html-keyboard-response","trial_index":30,"time_elapsed":139300,"internal_node_id":"0.0-8.0-3.5","subject":"nsk20fxa10wgqlm","sona":"7468"},{"rt":411,"stimulus":"<p>Bereit?</p>","key_press":32,"trial_type":"html-keyboard-response","trial_index":31,"time_elapsed":139712,"internal_node_id":"0.0-8.0-0.6","subject":"nsk20fxa10wgqlm","sona":"7468"},{"rt":null,"stimulus":"<div style=\"font-size:60px;\">+</div>","key_press":null,"trial_type":"html-keyboard-response","trial_index":32,"time_elapsed":141737,"internal_node_id":"0.0-8.0-1.6","subject":"nsk20fxa10wgqlm","sona":"7468"},{"trial_type":"turing-test","trial_index":33,"time_elapsed":147742,"internal_node_id":"0.0-8.0-2.6","subject":"nsk20fxa10wgqlm","sona":"7468"},{"rt":609,"stimulus":"<p>Welche Sequenz haben Sie als natürlicher empfunden?</p>","key_press":70,"test_part":"response","test_stimulus":{"position":0,"left":"bvh/return-bottle-training4-lines.txt","right":"bvh/vr_prediction_models/model(vcgpdm)-dataset(return-bottle)-mode(ELBO)-parts(1)-dyn(20)-lvm(20)-hold(4)/final-lines.txt","att_check":false},"trial_type":"html-keyboard-response","trial_index":34,"time_elapsed":148354,"internal_node_id":"0.0-8.0-3.6","subject":"nsk20fxa10wgqlm","sona":"7468"},{"rt":783,"stimulus":"<p>Bereit?</p>","key_press":32,"trial_type":"html-keyboard-response","trial_index":35,"time_elapsed":149141,"internal_node_id":"0.0-8.0-0.7","subject":"nsk20fxa10wgqlm","sona":"7468"},{"rt":null,"stimulus":"<div style=\"font-size:60px;\">+</div>","key_press":null,"trial_type":"html-keyboard-response","trial_index":36,"time_elapsed":151164,"internal_node_id":"0.0-8.0-1.7","subject":"nsk20fxa10wgqlm","sona":"7468"},{"trial_type":"turing-test","trial_index":37,"time_elapsed":157301,"internal_node_id":"0.0-8.0-2.7","subject":"nsk20fxa10wgqlm","sona":"7468"},{"rt":988,"stimulus":"<p>Welche Sequenz haben Sie als natürlicher empfunden?</p>","key_press":74,"test_part":"response","test_stimulus":{"position":1,"left":"bvh/vr_prediction_models/model(dmp)-dataset(pass-bottle)-npsi(20)-hold(2)/final-lines.txt","right":"bvh/pass-bottle-training2-lines.txt","att_check":false},"trial_type":"html-keyboard-response","trial_index":38,"time_elapsed":158290,"internal_node_id":"0.0-8.0-3.7","subject":"nsk20fxa10wgqlm","sona":"7468"},{"rt":452,"stimulus":"<p>Bereit?</p>","key_press":32,"trial_type":"html-keyboard-response","trial_index":39,"time_elapsed":158745,"internal_node_id":"0.0-8.0-0.8","subject":"nsk20fxa10wgqlm","sona":"7468"},{"rt":null,"stimulus":"<div style=\"font-size:60px;\">+</div>","key_press":null,"trial_type":"html-keyboard-response","trial_index":40,"time_elapsed":160771,"internal_node_id":"0.0-8.0-1.8","subject":"nsk20fxa10wgqlm","sona":"7468"},{"trial_type":"turing-test","trial_index":41,"time_elapsed":167024,"internal_node_id":"0.0-8.0-2.8","subject":"nsk20fxa10wgqlm","sona":"7468"},{"rt":625,"stimulus":"<p>Welche Sequenz haben Sie als natürlicher empfunden?</p>","key_press":70,"test_part":"response","test_stimulus":{"position":0,"left":"bvh/pass-bottle-training2-lines.txt","right":"bvh/vr_prediction_models/model(vcgpdm)-dataset(pass-bottle)-mode(ELBO)-parts(3)-dyn(10)-lvm(30)-hold(2)/final-lines.txt","att_check":false},"trial_type":"html-keyboard-response","trial_index":42,"time_elapsed":167653,"internal_node_id":"0.0-8.0-3.8","subject":"nsk20fxa10wgqlm","sona":"7468"},{"rt":348,"stimulus":"<p>Bereit?</p>","key_press":32,"trial_type":"html-keyboard-response","trial_index":43,"time_elapsed":168002,"internal_node_id":"0.0-8.0-0.9","subject":"nsk20fxa10wgqlm","sona":"7468"},{"rt":null,"stimulus":"<div style=\"font-size:60px;\">+</div>","key_press":null,"trial_type":"html-keyboard-response","trial_index":44,"time_elapsed":170029,"internal_node_id":"0.0-8.0-1.9","subject":"nsk20fxa10wgqlm","sona":"7468"},{"trial_type":"turing-test","trial_index":45,"time_elapsed":173569,"internal_node_id":"0.0-8.0-2.9","subject":"nsk20fxa10wgqlm","sona":"7468"},{"rt":642,"stimulus":"<p>Welche Sequenz haben Sie als natürlicher empfunden?</p>","key_press":74,"test_part":"response","test_stimulus":{"position":0,"left":"bvh/pass-bottle-hold-training2-lines.txt","right":"bvh/vr_prediction_models/model(vcgpdm)-dataset(pass-bottle-hold)-mode(ELBO)-parts(3)-dyn(30)-lvm(15)-hold(2)/final-lines.txt","att_check":false},"trial_type":"html-keyboard-response","trial_index":46,"time_elapsed":174212,"internal_node_id":"0.0-8.0-3.9","subject":"nsk20fxa10wgqlm","sona":"7468"},{"rt":308,"stimulus":"<p>Bereit?</p>","key_press":32,"trial_type":"html-keyboard-response","trial_index":47,"time_elapsed":174524,"internal_node_id":"0.0-8.0-0.10","subject":"nsk20fxa10wgqlm","sona":"7468"},{"rt":null,"stimulus":"<div style=\"font-size:60px;\">+</div>","key_press":null,"trial_type":"html-keyboard-response","trial_index":48,"time_elapsed":176544,"internal_node_id":"0.0-8.0-1.10","subject":"nsk20fxa10wgqlm","sona":"7468"},{"trial_type":"turing-test","trial_index":49,"time_elapsed":179942,"internal_node_id":"0.0-8.0-2.10","subject":"nsk20fxa10wgqlm","sona":"7468"},{"rt":518,"stimulus":"<p>Welche Sequenz haben Sie als natürlicher empfunden?</p>","key_press":70,"test_part":"response","test_stimulus":{"position":0,"left":"bvh/return-bottle-hold-training1-lines.txt","right":"bvh/vr_prediction_models/model(tmp)-dataset(return-bottle-hold)-numprim(13)-hold(1)/final-lines.txt","att_check":false},"trial_type":"html-keyboard-response","trial_index":50,"time_elapsed":180464,"internal_node_id":"0.0-8.0-3.10","subject":"nsk20fxa10wgqlm","sona":"7468"},{"rt":270,"stimulus":"<p>Bereit?</p>","key_press":32,"trial_type":"html-keyboard-response","trial_index":51,"time_elapsed":180737,"internal_node_id":"0.0-8.0-0.11","subject":"nsk20fxa10wgqlm","sona":"7468"},{"rt":null,"stimulus":"<div style=\"font-size:60px;\">+</div>","key_press":null,"trial_type":"html-keyboard-response","trial_index":52,"time_elapsed":182757,"internal_node_id":"0.0-8.0-1.11","subject":"nsk20fxa10wgqlm","sona":"7468"},{"trial_type":"turing-test","trial_index":53,"time_elapsed":186485,"internal_node_id":"0.0-8.0-2.11","subject":"nsk20fxa10wgqlm","sona":"7468"}]