[{"rt":3226.380000007339,"stimulus":"<p>Welcome!<br> Please choose your language to start the experiment in the chosen language.</p><p>Willkommen!<br> Bitte wählen Sie eine Sprache, um das Experiment in der ausgewählten Sprache zu starten</p>","button_pressed":"1","trial_type":"html-button-response","trial_index":0,"time_elapsed":3261,"internal_node_id":"0.0-0.0","subject":"g26nw50gth1mdf1","sona":"9586"},{"view_history":"[{\"page_index\":0,\"viewing_time\":7404.304999974556},{\"page_index\":1,\"viewing_time\":5379.579999949783},{\"page_index\":2,\"viewing_time\":5139.99000005424},{\"page_index\":3,\"viewing_time\":3280.030000023544},{\"page_index\":4,\"viewing_time\":2219.979999936186}]","rt":23425.014999927953,"trial_type":"instructions","trial_index":1,"time_elapsed":26689,"internal_node_id":"0.0-1.0-0.0","subject":"g26nw50gth1mdf1","sona":"9586"},{"rt":1494.7399999946356,"stimulus":"<p>Bereit?</p>","key_press":32,"trial_type":"html-keyboard-response","trial_index":2,"time_elapsed":28186,"internal_node_id":"0.0-3.0","subject":"g26nw50gth1mdf1","sona":"9586"},{"rt":null,"stimulus":"<div style=\"font-size:60px;\">+</div>","key_press":null,"trial_type":"html-keyboard-response","trial_index":3,"time_elapsed":30217,"internal_node_id":"0.0-4.0","subject":"g26nw50gth1mdf1","sona":"9586"},{"trial_type":"training","trial_index":4,"time_elapsed":34040,"internal_node_id":"0.0-5.0","subject":"g26nw50gth1mdf1","sona":"9586"},{"rt":4260.869999998249,"stimulus":"<p>Welche Sequenz haben Sie als natürlicher empfunden?</p>","key_press":70,"trial_type":"html-keyboard-response","trial_index":5,"time_elapsed":38303,"internal_node_id":"0.0-6.0","subject":"g26nw50gth1mdf1","sona":"9586"},{"rt":3240.2149999979883,"stimulus":"<p>Das Experiment startet nun.</p><p><small>Bitte drücken Sie den Knopf, wenn Sie bereit sind.</small></p>","button_pressed":"0","trial_type":"html-button-response","trial_index":6,"time_elapsed":41546,"internal_node_id":"0.0-7.0","subject":"g26nw50gth1mdf1","sona":"9586"},{"rt":1709.4250000081956,"stimulus":"<p>Bereit?</p>","key_press":32,"trial_type":"html-keyboard-response","trial_index":7,"time_elapsed":43257,"internal_node_id":"0.0-8.0-0.0","subject":"g26nw50gth1mdf1","sona":"9586"},{"rt":null,"stimulus":"<div style=\"font-size:60px;\">+</div>","key_press":null,"trial_type":"html-keyboard-response","trial_index":8,"time_elapsed":45272,"internal_node_id":"0.0-8.0-1.0","subject":"g26nw50gth1mdf1","sona":"9586"},{"trial_type":"turing-test","trial_index":9,"time_elapsed":51924,"internal_node_id":"0.0-8.0-2.0","subject":"g26nw50gth1mdf1","sona":"9586"},{"rt":1108.420000062324,"stimulus":"<p>Welche Sequenz haben Sie als natürlicher empfunden?</p>","key_press":74,"test_part":"response","test_stimulus":{"position":0,"left":"bvh/return-bottle-training3-lines.txt","right":"bvh/vr_prediction_models/model(dmp)-dataset(return-bottle)-npsi(40)-hold(3)/final-lines.txt","att_check":false},"trial_type":"html-keyboard-response","trial_index":10,"time_elapsed":53038,"internal_node_id":"0.0-8.0-3.0","subject":"g26nw50gth1mdf1","sona":"9586"},{"rt":1535.6599999358878,"stimulus":"<p>Bereit?</p>","key_press":32,"trial_type":"html-keyboard-response","trial_index":11,"time_elapsed":54577,"internal_node_id":"0.0-8.0-0.1","subject":"g26nw50gth1mdf1","sona":"9586"},{"rt":null,"stimulus":"<div style=\"font-size:60px;\">+</div>","key_press":null,"trial_type":"html-keyboard-response","trial_index":12,"time_elapsed":56602,"internal_node_id":"0.0-8.0-1.1","subject":"g26nw50gth1mdf1","sona":"9586"},{"trial_type":"turing-test","trial_index":13,"time_elapsed":60223,"internal_node_id":"0.0-8.0-2.1","subject":"g26nw50gth1mdf1","sona":"9586"},{"rt":3255.174999940209,"stimulus":"<p>Welche Sequenz haben Sie als natürlicher empfunden?</p>","key_press":74,"test_part":"response","test_stimulus":{"position":1,"left":"bvh/vr_prediction_models/model(vcgpdm)-dataset(pass-bottle-hold)-mode(ELBO)-parts(3)-dyn(15)-lvm(30)-hold(0)/final-lines.txt","right":"bvh/pass-bottle-hold-training0-lines.txt","att_check":false},"trial_type":"html-keyboard-response","trial_index":14,"time_elapsed":63484,"internal_node_id":"0.0-8.0-3.1","subject":"g26nw50gth1mdf1","sona":"9586"},{"rt":808.2049998920411,"stimulus":"<p>Bereit?</p>","key_press":32,"trial_type":"html-keyboard-response","trial_index":15,"time_elapsed":64296,"internal_node_id":"0.0-8.0-0.2","subject":"g26nw50gth1mdf1","sona":"9586"},{"rt":null,"stimulus":"<div style=\"font-size:60px;\">+</div>","key_press":null,"trial_type":"html-keyboard-response","trial_index":16,"time_elapsed":66311,"internal_node_id":"0.0-8.0-1.2","subject":"g26nw50gth1mdf1","sona":"9586"},{"trial_type":"turing-test","trial_index":17,"time_elapsed":69739,"internal_node_id":"0.0-8.0-2.2","subject":"g26nw50gth1mdf1","sona":"9586"},{"rt":2452.6300000725314,"stimulus":"<p>Welche Sequenz haben Sie als natürlicher empfunden?</p>","key_press":74,"test_part":"response","test_stimulus":{"position":1,"left":"bvh/vr_prediction_models/model(tmp)-dataset(pass-bottle-hold)-numprim(9)-hold(1)/final-lines.txt","right":"bvh/pass-bottle-hold-training1-lines.txt","att_check":false},"trial_type":"html-keyboard-response","trial_index":18,"time_elapsed":72198,"internal_node_id":"0.0-8.0-3.2","subject":"g26nw50gth1mdf1","sona":"9586"},{"rt":720.229999977164,"stimulus":"<p>Bereit?</p>","key_press":32,"trial_type":"html-keyboard-response","trial_index":19,"time_elapsed":72921,"internal_node_id":"0.0-8.0-0.3","subject":"g26nw50gth1mdf1","sona":"9586"},{"rt":null,"stimulus":"<div style=\"font-size:60px;\">+</div>","key_press":null,"trial_type":"html-keyboard-response","trial_index":20,"time_elapsed":74945,"internal_node_id":"0.0-8.0-1.3","subject":"g26nw50gth1mdf1","sona":"9586"},{"trial_type":"turing-test","trial_index":21,"time_elapsed":81823,"internal_node_id":"0.0-8.0-2.3","subject":"g26nw50gth1mdf1","sona":"9586"},{"rt":1039.214999997057,"stimulus":"<p>Welche Sequenz haben Sie als natürlicher empfunden?</p>","key_press":74,"test_part":"response","test_stimulus":{"position":1,"left":"bvh/vr_prediction_models/model(vcgpdm)-dataset(return-bottle)-mode(ELBO)-parts(3)-dyn(10)-lvm(25)-hold(1)/final-lines.txt","right":"bvh/return-bottle-training1-lines.txt","att_check":false},"trial_type":"html-keyboard-response","trial_index":22,"time_elapsed":82867,"internal_node_id":"0.0-8.0-3.3","subject":"g26nw50gth1mdf1","sona":"9586"},{"rt":759.554999996908,"stimulus":"<p>Bereit?</p>","key_press":32,"trial_type":"html-keyboard-response","trial_index":23,"time_elapsed":83631,"internal_node_id":"0.0-8.0-0.4","subject":"g26nw50gth1mdf1","sona":"9586"},{"rt":null,"stimulus":"<div style=\"font-size:60px;\">+</div>","key_press":null,"trial_type":"html-keyboard-response","trial_index":24,"time_elapsed":85653,"internal_node_id":"0.0-8.0-1.4","subject":"g26nw50gth1mdf1","sona":"9586"},{"trial_type":"turing-test","trial_index":25,"time_elapsed":89671,"internal_node_id":"0.0-8.0-2.4","subject":"g26nw50gth1mdf1","sona":"9586"},{"rt":1963.6950000422075,"stimulus":"<p>Welche Sequenz haben Sie als natürlicher empfunden?</p>","key_press":74,"test_part":"response","test_stimulus":{"position":1,"left":"bvh/vr_prediction_models/model(vcgpdm)-dataset(pass-bottle-hold)-mode(ELBO)-parts(1)-dyn(35)-lvm(30)-hold(2)/final-lines.txt","right":"bvh/pass-bottle-hold-training2-lines.txt","att_check":false},"trial_type":"html-keyboard-response","trial_index":26,"time_elapsed":91641,"internal_node_id":"0.0-8.0-3.4","subject":"g26nw50gth1mdf1","sona":"9586"},{"rt":483.82500000298023,"stimulus":"<p>Bereit?</p>","key_press":32,"trial_type":"html-keyboard-response","trial_index":27,"time_elapsed":92130,"internal_node_id":"0.0-8.0-0.5","subject":"g26nw50gth1mdf1","sona":"9586"},{"rt":null,"stimulus":"<div style=\"font-size:60px;\">+</div>","key_press":null,"trial_type":"html-keyboard-response","trial_index":28,"time_elapsed":94154,"internal_node_id":"0.0-8.0-1.5","subject":"g26nw50gth1mdf1","sona":"9586"},{"trial_type":"turing-test","trial_index":29,"time_elapsed":98029,"internal_node_id":"0.0-8.0-2.5","subject":"g26nw50gth1mdf1","sona":"9586"},{"rt":2022.7200000081211,"stimulus":"<p>Welche Sequenz haben Sie als natürlicher empfunden?</p>","key_press":70,"test_part":"response","test_stimulus":{"position":0,"left":"bvh/pass-bottle-hold-training3-lines.txt","right":"bvh/vr_prediction_models/model(vcgpdm)-dataset(pass-bottle-hold)-mode(ELBO)-parts(1)-dyn(30)-lvm(20)-hold(3)/final-lines.txt","att_check":false},"trial_type":"html-keyboard-response","trial_index":30,"time_elapsed":100059,"internal_node_id":"0.0-8.0-3.5","subject":"g26nw50gth1mdf1","sona":"9586"},{"rt":459.984999964945,"stimulus":"<p>Bereit?</p>","key_press":32,"trial_type":"html-keyboard-response","trial_index":31,"time_elapsed":100523,"internal_node_id":"0.0-8.0-0.6","subject":"g26nw50gth1mdf1","sona":"9586"},{"rt":null,"stimulus":"<div style=\"font-size:60px;\">+</div>","key_press":null,"trial_type":"html-keyboard-response","trial_index":32,"time_elapsed":102542,"internal_node_id":"0.0-8.0-1.6","subject":"g26nw50gth1mdf1","sona":"9586"},{"trial_type":"turing-test","trial_index":33,"time_elapsed":106275,"internal_node_id":"0.0-8.0-2.6","subject":"g26nw50gth1mdf1","sona":"9586"},{"rt":990.2449999935925,"stimulus":"<p>Welche Sequenz haben Sie als natürlicher empfunden?</p>","key_press":74,"test_part":"response","test_stimulus":{"position":0,"left":"bvh/pass-bottle-hold-training1-lines.txt","right":"bvh/vr_prediction_models/model(vcgpdm)-dataset(pass-bottle-hold)-mode(ELBO)-parts(3)-dyn(10)-lvm(30)-hold(1)/final-lines.txt","att_check":false},"trial_type":"html-keyboard-response","trial_index":34,"time_elapsed":107286,"internal_node_id":"0.0-8.0-3.6","subject":"g26nw50gth1mdf1","sona":"9586"},{"rt":586.3599999574944,"stimulus":"<p>Bereit?</p>","key_press":32,"trial_type":"html-keyboard-response","trial_index":35,"time_elapsed":107880,"internal_node_id":"0.0-8.0-0.7","subject":"g26nw50gth1mdf1","sona":"9586"},{"rt":null,"stimulus":"<div style=\"font-size:60px;\">+</div>","key_press":null,"trial_type":"html-keyboard-response","trial_index":36,"time_elapsed":109896,"internal_node_id":"0.0-8.0-1.7","subject":"g26nw50gth1mdf1","sona":"9586"},{"trial_type":"turing-test","trial_index":37,"time_elapsed":114104,"internal_node_id":"0.0-8.0-2.7","subject":"g26nw50gth1mdf1","sona":"9586"},{"rt":893.2449999265373,"stimulus":"<p>Welche Sequenz haben Sie als natürlicher empfunden?</p>","key_press":74,"test_part":"response","test_stimulus":{"position":1,"left":"bvh/vr_prediction_models/model(tmp)-dataset(return-bottle-hold)-numprim(13)-hold(4)/final-lines.txt","right":"bvh/return-bottle-hold-training4-lines.txt","att_check":false},"trial_type":"html-keyboard-response","trial_index":38,"time_elapsed":115018,"internal_node_id":"0.0-8.0-3.7","subject":"g26nw50gth1mdf1","sona":"9586"},{"rt":386.23499998357147,"stimulus":"<p>Bereit?</p>","key_press":32,"trial_type":"html-keyboard-response","trial_index":39,"time_elapsed":115429,"internal_node_id":"0.0-8.0-0.8","subject":"g26nw50gth1mdf1","sona":"9586"},{"rt":null,"stimulus":"<div style=\"font-size:60px;\">+</div>","key_press":null,"trial_type":"html-keyboard-response","trial_index":40,"time_elapsed":117444,"internal_node_id":"0.0-8.0-1.8","subject":"g26nw50gth1mdf1","sona":"9586"},{"trial_type":"turing-test","trial_index":41,"time_elapsed":120972,"internal_node_id":"0.0-8.0-2.8","subject":"g26nw50gth1mdf1","sona":"9586"},{"rt":1436.6499999305233,"stimulus":"<p>Welche Sequenz haben Sie als natürlicher empfunden?</p>","key_press":74,"test_part":"response","test_stimulus":{"position":0,"left":"bvh/pass-bottle-hold-training3-lines.txt","right":"bvh/vr_prediction_models/model(dmp)-dataset(pass-bottle-hold)-npsi(20)-hold(3)/final-lines.txt","att_check":true},"trial_type":"html-keyboard-response","trial_index":42,"time_elapsed":122413,"internal_node_id":"0.0-8.0-3.8","subject":"g26nw50gth1mdf1","sona":"9586"},{"rt":453.55500001460314,"stimulus":"<p>Bereit?</p>","key_press":32,"trial_type":"html-keyboard-response","trial_index":43,"time_elapsed":122872,"internal_node_id":"0.0-8.0-0.9","subject":"g26nw50gth1mdf1","sona":"9586"},{"rt":null,"stimulus":"<div style=\"font-size:60px;\">+</div>","key_press":null,"trial_type":"html-keyboard-response","trial_index":44,"time_elapsed":124886,"internal_node_id":"0.0-8.0-1.9","subject":"g26nw50gth1mdf1","sona":"9586"},{"trial_type":"turing-test","trial_index":45,"time_elapsed":128408,"internal_node_id":"0.0-8.0-2.9","subject":"g26nw50gth1mdf1","sona":"9586"},{"rt":850.3900000359863,"stimulus":"<p>Welche Sequenz haben Sie als natürlicher empfunden?</p>","key_press":70,"test_part":"response","test_stimulus":{"position":1,"left":"bvh/vr_prediction_models/model(vcgpdm)-dataset(pass-bottle-hold)-mode(ELBO)-parts(1)-dyn(10)-lvm(5)-hold(1)/final-lines.txt","right":"bvh/pass-bottle-hold-training1-lines.txt","att_check":false},"trial_type":"html-keyboard-response","trial_index":46,"time_elapsed":129280,"internal_node_id":"0.0-8.0-3.9","subject":"g26nw50gth1mdf1","sona":"9586"},{"rt":307.9800000414252,"stimulus":"<p>Bereit?</p>","key_press":32,"trial_type":"html-keyboard-response","trial_index":47,"time_elapsed":129606,"internal_node_id":"0.0-8.0-0.10","subject":"g26nw50gth1mdf1","sona":"9586"},{"rt":null,"stimulus":"<div style=\"font-size:60px;\">+</div>","key_press":null,"trial_type":"html-keyboard-response","trial_index":48,"time_elapsed":131622,"internal_node_id":"0.0-8.0-1.10","subject":"g26nw50gth1mdf1","sona":"9586"},{"trial_type":"turing-test","trial_index":49,"time_elapsed":137941,"internal_node_id":"0.0-8.0-2.10","subject":"g26nw50gth1mdf1","sona":"9586"},{"rt":1209.789999993518,"stimulus":"<p>Welche Sequenz haben Sie als natürlicher empfunden?</p>","key_press":70,"test_part":"response","test_stimulus":{"position":0,"left":"bvh/return-bottle-training0-lines.txt","right":"bvh/vr_prediction_models/model(vcgpdm)-dataset(return-bottle)-mode(ELBO)-parts(3)-dyn(20)-lvm(35)-hold(0)/final-lines.txt","att_check":false},"trial_type":"html-keyboard-response","trial_index":50,"time_elapsed":139163,"internal_node_id":"0.0-8.0-3.10","subject":"g26nw50gth1mdf1","sona":"9586"},{"rt":351.43499996047467,"stimulus":"<p>Bereit?</p>","key_press":32,"trial_type":"html-keyboard-response","trial_index":51,"time_elapsed":139524,"internal_node_id":"0.0-8.0-0.11","subject":"g26nw50gth1mdf1","sona":"9586"},{"rt":null,"stimulus":"<div style=\"font-size:60px;\">+</div>","key_press":null,"trial_type":"html-keyboard-response","trial_index":52,"time_elapsed":141539,"internal_node_id":"0.0-8.0-1.11","subject":"g26nw50gth1mdf1","sona":"9586"}]