[{"rt":2989.9700000241864,"stimulus":"<p>Welcome!<br> Please choose your language to start the experiment in the chosen language.</p><p>Willkommen!<br> Bitte wählen Sie eine Sprache, um das Experiment in der ausgewählten Sprache zu starten</p>","button_pressed":"1","trial_type":"html-button-response","trial_index":0,"time_elapsed":3018,"internal_node_id":"0.0-0.0","subject":"7h5tjraoj9tkeun","sona":"7441"},{"view_history":"[{\"page_index\":0,\"viewing_time\":4862.770000007004},{\"page_index\":1,\"viewing_time\":3013.794999977108},{\"page_index\":2,\"viewing_time\":9515.855000005104},{\"page_index\":3,\"viewing_time\":10743.935000005877},{\"page_index\":4,\"viewing_time\":2975.0200000125915}]","rt":31113.779999985127,"trial_type":"instructions","trial_index":1,"time_elapsed":34136,"internal_node_id":"0.0-1.0-0.0","subject":"7h5tjraoj9tkeun","sona":"7441"},{"rt":1918.9900000055786,"stimulus":"<p>Bereit?</p>","key_press":32,"trial_type":"html-keyboard-response","trial_index":2,"time_elapsed":36059,"internal_node_id":"0.0-3.0","subject":"7h5tjraoj9tkeun","sona":"7441"},{"rt":null,"stimulus":"<div style=\"font-size:60px;\">+</div>","key_press":null,"trial_type":"html-keyboard-response","trial_index":3,"time_elapsed":38072,"internal_node_id":"0.0-4.0","subject":"7h5tjraoj9tkeun","sona":"7441"},{"trial_type":"training","trial_index":4,"time_elapsed":41612,"internal_node_id":"0.0-5.0","subject":"7h5tjraoj9tkeun","sona":"7441"},{"rt":2449.525000003632,"stimulus":"<p>Welche Sequenz haben Sie als natürlicher empfunden?</p>","key_press":70,"trial_type":"html-keyboard-response","trial_index":5,"time_elapsed":44063,"internal_node_id":"0.0-6.0","subject":"7h5tjraoj9tkeun","sona":"7441"},{"rt":2677.2250000212807,"stimulus":"<p>Das Experiment startet nun.</p><p><small>Bitte drücken Sie den Knopf, wenn Sie bereit sind.</small></p>","button_pressed":"0","trial_type":"html-button-response","trial_index":6,"time_elapsed":46743,"internal_node_id":"0.0-7.0","subject":"7h5tjraoj9tkeun","sona":"7441"},{"rt":1578.2000000181142,"stimulus":"<p>Bereit?</p>","key_press":32,"trial_type":"html-keyboard-response","trial_index":7,"time_elapsed":48324,"internal_node_id":"0.0-8.0-0.0","subject":"7h5tjraoj9tkeun","sona":"7441"},{"rt":null,"stimulus":"<div style=\"font-size:60px;\">+</div>","key_press":null,"trial_type":"html-keyboard-response","trial_index":8,"time_elapsed":50335,"internal_node_id":"0.0-8.0-1.0","subject":"7h5tjraoj9tkeun","sona":"7441"},{"trial_type":"turing-test","trial_index":9,"time_elapsed":53726,"internal_node_id":"0.0-8.0-2.0","subject":"7h5tjraoj9tkeun","sona":"7441"},{"rt":494.1150000086054,"stimulus":"<p>Welche Sequenz haben Sie als natürlicher empfunden?</p>","key_press":74,"test_part":"response","test_stimulus":{"position":1,"left":"bvh/vr_prediction_models/model(dmp)-dataset(return-bottle-hold)-npsi(50)-hold(1)/final-lines.txt","right":"bvh/return-bottle-hold-training1-lines.txt","att_check":false},"trial_type":"html-keyboard-response","trial_index":10,"time_elapsed":54229,"internal_node_id":"0.0-8.0-3.0","subject":"7h5tjraoj9tkeun","sona":"7441"},{"rt":1343.735000002198,"stimulus":"<p>Bereit?</p>","key_press":32,"trial_type":"html-keyboard-response","trial_index":11,"time_elapsed":55576,"internal_node_id":"0.0-8.0-0.1","subject":"7h5tjraoj9tkeun","sona":"7441"},{"rt":null,"stimulus":"<div style=\"font-size:60px;\">+</div>","key_press":null,"trial_type":"html-keyboard-response","trial_index":12,"time_elapsed":57584,"internal_node_id":"0.0-8.0-1.1","subject":"7h5tjraoj9tkeun","sona":"7441"},{"trial_type":"turing-test","trial_index":13,"time_elapsed":61000,"internal_node_id":"0.0-8.0-2.1","subject":"7h5tjraoj9tkeun","sona":"7441"},{"rt":831.2200000218581,"stimulus":"<p>Welche Sequenz haben Sie als natürlicher empfunden?</p>","key_press":74,"test_part":"response","test_stimulus":{"position":0,"left":"bvh/pass-bottle-hold-training2-lines.txt","right":"bvh/vr_prediction_models/model(tmp)-dataset(pass-bottle-hold)-numprim(12)-hold(2)/final-lines.txt","att_check":false},"trial_type":"html-keyboard-response","trial_index":14,"time_elapsed":61834,"internal_node_id":"0.0-8.0-3.1","subject":"7h5tjraoj9tkeun","sona":"7441"},{"rt":1107.5349999882746,"stimulus":"<p>Bereit?</p>","key_press":32,"trial_type":"html-keyboard-response","trial_index":15,"time_elapsed":62945,"internal_node_id":"0.0-8.0-0.2","subject":"7h5tjraoj9tkeun","sona":"7441"},{"rt":null,"stimulus":"<div style=\"font-size:60px;\">+</div>","key_press":null,"trial_type":"html-keyboard-response","trial_index":16,"time_elapsed":64958,"internal_node_id":"0.0-8.0-1.2","subject":"7h5tjraoj9tkeun","sona":"7441"},{"trial_type":"turing-test","trial_index":17,"time_elapsed":68544,"internal_node_id":"0.0-8.0-2.2","subject":"7h5tjraoj9tkeun","sona":"7441"},{"rt":597.1349999890663,"stimulus":"<p>Welche Sequenz haben Sie als natürlicher empfunden?</p>","key_press":70,"test_part":"response","test_stimulus":{"position":0,"left":"bvh/return-bottle-hold-training2-lines.txt","right":"bvh/vr_prediction_models/model(dmp)-dataset(return-bottle-hold)-npsi(50)-hold(2)/final-lines.txt","att_check":false},"trial_type":"html-keyboard-response","trial_index":18,"time_elapsed":69144,"internal_node_id":"0.0-8.0-3.2","subject":"7h5tjraoj9tkeun","sona":"7441"},{"rt":912.6149999792688,"stimulus":"<p>Bereit?</p>","key_press":32,"trial_type":"html-keyboard-response","trial_index":19,"time_elapsed":70058,"internal_node_id":"0.0-8.0-0.3","subject":"7h5tjraoj9tkeun","sona":"7441"},{"rt":null,"stimulus":"<div style=\"font-size:60px;\">+</div>","key_press":null,"trial_type":"html-keyboard-response","trial_index":20,"time_elapsed":72065,"internal_node_id":"0.0-8.0-1.3","subject":"7h5tjraoj9tkeun","sona":"7441"},{"trial_type":"turing-test","trial_index":21,"time_elapsed":78446,"internal_node_id":"0.0-8.0-2.3","subject":"7h5tjraoj9tkeun","sona":"7441"},{"rt":654.5699999842327,"stimulus":"<p>Welche Sequenz haben Sie als natürlicher empfunden?</p>","key_press":70,"test_part":"response","test_stimulus":{"position":0,"left":"bvh/return-bottle-training1-lines.txt","right":"bvh/vr_prediction_models/model(vcgpdm)-dataset(return-bottle)-mode(ELBO)-parts(1)-dyn(20)-lvm(30)-hold(1)/final-lines.txt","att_check":false},"trial_type":"html-keyboard-response","trial_index":22,"time_elapsed":79105,"internal_node_id":"0.0-8.0-3.3","subject":"7h5tjraoj9tkeun","sona":"7441"},{"rt":918.8199999916833,"stimulus":"<p>Bereit?</p>","key_press":32,"trial_type":"html-keyboard-response","trial_index":23,"time_elapsed":80028,"internal_node_id":"0.0-8.0-0.4","subject":"7h5tjraoj9tkeun","sona":"7441"},{"rt":null,"stimulus":"<div style=\"font-size:60px;\">+</div>","key_press":null,"trial_type":"html-keyboard-response","trial_index":24,"time_elapsed":82034,"internal_node_id":"0.0-8.0-1.4","subject":"7h5tjraoj9tkeun","sona":"7441"},{"trial_type":"turing-test","trial_index":25,"time_elapsed":87822,"internal_node_id":"0.0-8.0-2.4","subject":"7h5tjraoj9tkeun","sona":"7441"},{"rt":526.8749999813735,"stimulus":"<p>Welche Sequenz haben Sie als natürlicher empfunden?</p>","key_press":70,"test_part":"response","test_stimulus":{"position":1,"left":"bvh/vr_prediction_models/model(tmp)-dataset(pass-bottle)-numprim(4)-hold(1)/final-lines.txt","right":"bvh/pass-bottle-training1-lines.txt","att_check":false},"trial_type":"html-keyboard-response","trial_index":26,"time_elapsed":88354,"internal_node_id":"0.0-8.0-3.4","subject":"7h5tjraoj9tkeun","sona":"7441"},{"rt":673.4849999775179,"stimulus":"<p>Bereit?</p>","key_press":32,"trial_type":"html-keyboard-response","trial_index":27,"time_elapsed":89049,"internal_node_id":"0.0-8.0-0.5","subject":"7h5tjraoj9tkeun","sona":"7441"},{"rt":null,"stimulus":"<div style=\"font-size:60px;\">+</div>","key_press":null,"trial_type":"html-keyboard-response","trial_index":28,"time_elapsed":91058,"internal_node_id":"0.0-8.0-1.5","subject":"7h5tjraoj9tkeun","sona":"7441"},{"trial_type":"turing-test","trial_index":29,"time_elapsed":94782,"internal_node_id":"0.0-8.0-2.5","subject":"7h5tjraoj9tkeun","sona":"7441"},{"rt":447.054999996908,"stimulus":"<p>Welche Sequenz haben Sie als natürlicher empfunden?</p>","key_press":74,"test_part":"response","test_stimulus":{"position":1,"left":"bvh/vr_prediction_models/model(vcgpdm)-dataset(pass-bottle-hold)-mode(MAP)-parts(1)-hold(0)/final-lines.txt","right":"bvh/pass-bottle-hold-training0-lines.txt","att_check":false},"trial_type":"html-keyboard-response","trial_index":30,"time_elapsed":95234,"internal_node_id":"0.0-8.0-3.5","subject":"7h5tjraoj9tkeun","sona":"7441"},{"rt":884.619999997085,"stimulus":"<p>Bereit?</p>","key_press":32,"trial_type":"html-keyboard-response","trial_index":31,"time_elapsed":96138,"internal_node_id":"0.0-8.0-0.6","subject":"7h5tjraoj9tkeun","sona":"7441"},{"rt":null,"stimulus":"<div style=\"font-size:60px;\">+</div>","key_press":null,"trial_type":"html-keyboard-response","trial_index":32,"time_elapsed":98156,"internal_node_id":"0.0-8.0-1.6","subject":"7h5tjraoj9tkeun","sona":"7441"},{"trial_type":"turing-test","trial_index":33,"time_elapsed":104148,"internal_node_id":"0.0-8.0-2.6","subject":"7h5tjraoj9tkeun","sona":"7441"},{"rt":594.6549999935087,"stimulus":"<p>Welche Sequenz haben Sie als natürlicher empfunden?</p>","key_press":70,"test_part":"response","test_stimulus":{"position":0,"left":"bvh/return-bottle-training0-lines.txt","right":"bvh/vr_prediction_models/model(vcgpdm)-dataset(return-bottle)-mode(ELBO)-parts(1)-dyn(10)-lvm(30)-hold(0)/final-lines.txt","att_check":false},"trial_type":"html-keyboard-response","trial_index":34,"time_elapsed":104747,"internal_node_id":"0.0-8.0-3.6","subject":"7h5tjraoj9tkeun","sona":"7441"},{"rt":1048.0450000031851,"stimulus":"<p>Bereit?</p>","key_press":32,"trial_type":"html-keyboard-response","trial_index":35,"time_elapsed":105799,"internal_node_id":"0.0-8.0-0.7","subject":"7h5tjraoj9tkeun","sona":"7441"},{"rt":null,"stimulus":"<div style=\"font-size:60px;\">+</div>","key_press":null,"trial_type":"html-keyboard-response","trial_index":36,"time_elapsed":107805,"internal_node_id":"0.0-8.0-1.7","subject":"7h5tjraoj9tkeun","sona":"7441"},{"trial_type":"turing-test","trial_index":37,"time_elapsed":113416,"internal_node_id":"0.0-8.0-2.7","subject":"7h5tjraoj9tkeun","sona":"7441"},{"rt":527.7400000195485,"stimulus":"<p>Welche Sequenz haben Sie als natürlicher empfunden?</p>","key_press":74,"test_part":"response","test_stimulus":{"position":1,"left":"bvh/vr_prediction_models/model(dmp)-dataset(pass-bottle)-npsi(30)-hold(1)/final-lines.txt","right":"bvh/pass-bottle-training1-lines.txt","att_check":false},"trial_type":"html-keyboard-response","trial_index":38,"time_elapsed":113949,"internal_node_id":"0.0-8.0-3.7","subject":"7h5tjraoj9tkeun","sona":"7441"},{"rt":551.1650000116788,"stimulus":"<p>Bereit?</p>","key_press":32,"trial_type":"html-keyboard-response","trial_index":39,"time_elapsed":114507,"internal_node_id":"0.0-8.0-0.8","subject":"7h5tjraoj9tkeun","sona":"7441"},{"rt":null,"stimulus":"<div style=\"font-size:60px;\">+</div>","key_press":null,"trial_type":"html-keyboard-response","trial_index":40,"time_elapsed":116517,"internal_node_id":"0.0-8.0-1.8","subject":"7h5tjraoj9tkeun","sona":"7441"},{"trial_type":"turing-test","trial_index":41,"time_elapsed":122661,"internal_node_id":"0.0-8.0-2.8","subject":"7h5tjraoj9tkeun","sona":"7441"},{"rt":452.7949999901466,"stimulus":"<p>Welche Sequenz haben Sie als natürlicher empfunden?</p>","key_press":74,"test_part":"response","test_stimulus":{"position":1,"left":"bvh/vr_prediction_models/model(dmp)-dataset(return-bottle)-npsi(70)-hold(1)/final-lines.txt","right":"bvh/return-bottle-training1-lines.txt","att_check":false},"trial_type":"html-keyboard-response","trial_index":42,"time_elapsed":123120,"internal_node_id":"0.0-8.0-3.8","subject":"7h5tjraoj9tkeun","sona":"7441"},{"rt":821.6599999868777,"stimulus":"<p>Bereit?</p>","key_press":32,"trial_type":"html-keyboard-response","trial_index":43,"time_elapsed":123944,"internal_node_id":"0.0-8.0-0.9","subject":"7h5tjraoj9tkeun","sona":"7441"},{"rt":null,"stimulus":"<div style=\"font-size:60px;\">+</div>","key_press":null,"trial_type":"html-keyboard-response","trial_index":44,"time_elapsed":125952,"internal_node_id":"0.0-8.0-1.9","subject":"7h5tjraoj9tkeun","sona":"7441"},{"trial_type":"turing-test","trial_index":45,"time_elapsed":129801,"internal_node_id":"0.0-8.0-2.9","subject":"7h5tjraoj9tkeun","sona":"7441"},{"rt":738.4899999888148,"stimulus":"<p>Welche Sequenz haben Sie als natürlicher empfunden?</p>","key_press":74,"test_part":"response","test_stimulus":{"position":0,"left":"bvh/return-bottle-hold-training2-lines.txt","right":"bvh/vr_prediction_models/model(vcgpdm)-dataset(return-bottle-hold)-mode(ELBO)-parts(3)-dyn(10)-lvm(30)-hold(2)/final-lines.txt","att_check":false},"trial_type":"html-keyboard-response","trial_index":46,"time_elapsed":130545,"internal_node_id":"0.0-8.0-3.9","subject":"7h5tjraoj9tkeun","sona":"7441"},{"rt":2202.1850000019185,"stimulus":"<p>Bereit?</p>","key_press":32,"trial_type":"html-keyboard-response","trial_index":47,"time_elapsed":132752,"internal_node_id":"0.0-8.0-0.10","subject":"7h5tjraoj9tkeun","sona":"7441"},{"rt":null,"stimulus":"<div style=\"font-size:60px;\">+</div>","key_press":null,"trial_type":"html-keyboard-response","trial_index":48,"time_elapsed":134758,"internal_node_id":"0.0-8.0-1.10","subject":"7h5tjraoj9tkeun","sona":"7441"},{"trial_type":"turing-test","trial_index":49,"time_elapsed":138444,"internal_node_id":"0.0-8.0-2.10","subject":"7h5tjraoj9tkeun","sona":"7441"},{"rt":735.0849999929778,"stimulus":"<p>Welche Sequenz haben Sie als natürlicher empfunden?</p>","key_press":70,"test_part":"response","test_stimulus":{"position":0,"left":"bvh/pass-bottle-hold-training4-lines.txt","right":"bvh/vr_prediction_models/model(dmp)-dataset(pass-bottle-hold)-npsi(70)-hold(4)/final-lines.txt","att_check":false},"trial_type":"html-keyboard-response","trial_index":50,"time_elapsed":139187,"internal_node_id":"0.0-8.0-3.10","subject":"7h5tjraoj9tkeun","sona":"7441"},{"rt":456.87999998335727,"stimulus":"<p>Bereit?</p>","key_press":32,"trial_type":"html-keyboard-response","trial_index":51,"time_elapsed":139649,"internal_node_id":"0.0-8.0-0.11","subject":"7h5tjraoj9tkeun","sona":"7441"},{"rt":null,"stimulus":"<div style=\"font-size:60px;\">+</div>","key_press":null,"trial_type":"html-keyboard-response","trial_index":52,"time_elapsed":141666,"internal_node_id":"0.0-8.0-1.11","subject":"7h5tjraoj9tkeun","sona":"7441"},{"trial_type":"turing-test","trial_index":53,"time_elapsed":145291,"internal_node_id":"0.0-8.0-2.11","subject":"7h5tjraoj9tkeun","sona":"7441"},{"rt":342.73999999277294,"stimulus":"<p>Welche Sequenz haben Sie als natürlicher empfunden?</p>","key_press":70,"test_part":"response","test_stimulus":{"position":0,"left":"bvh/pass-bottle-hold-training2-lines.txt","right":"bvh/vr_prediction_models/model(vcgpdm)-dataset(pass-bottle-hold)-mode(MAP)-parts(1)-hold(2)/final-lines.txt","att_check":false},"trial_type":"html-keyboard-response","trial_index":54,"time_elapsed":145637,"internal_node_id":"0.0-8.0-3.11","subject":"7h5tjraoj9tkeun","sona":"7441"},{"rt":501.0049999982584,"stimulus":"<p>Bereit?</p>","key_press":32,"trial_type":"html-keyboard-response","trial_index":55,"time_elapsed":146142,"internal_node_id":"0.0-8.0-0.12","subject":"7h5tjraoj9tkeun","sona":"7441"},{"rt":null,"stimulus":"<div style=\"font-size:60px;\">+</div>","key_press":null,"trial_type":"html-keyboard-response","trial_index":56,"time_elapsed":148144,"internal_node_id":"0.0-8.0-1.12","subject":"7h5tjraoj9tkeun","sona":"7441"},{"trial_type":"turing-test","trial_index":57,"time_elapsed":151689,"internal_node_id":"0.0-8.0-2.12","subject":"7h5tjraoj9tkeun","sona":"7441"},{"rt":456.5549999824725,"stimulus":"<p>Welche Sequenz haben Sie als natürlicher empfunden?</p>","key_press":74,"test_part":"response","test_stimulus":{"position":0,"left":"bvh/pass-bottle-hold-training0-lines.txt","right":"bvh/vr_prediction_models/model(vcgpdm)-dataset(pass-bottle-hold)-mode(ELBO)-parts(1)-dyn(25)-lvm(35)-hold(0)/final-lines.txt","att_check":false},"trial_type":"html-keyboard-response","trial_index":58,"time_elapsed":152151,"internal_node_id":"0.0-8.0-3.12","subject":"7h5tjraoj9tkeun","sona":"7441"},{"rt":482.79499998898245,"stimulus":"<p>Bereit?</p>","key_press":32,"trial_type":"html-keyboard-response","trial_index":59,"time_elapsed":152638,"internal_node_id":"0.0-8.0-0.13","subject":"7h5tjraoj9tkeun","sona":"7441"},{"rt":null,"stimulus":"<div style=\"font-size:60px;\">+</div>","key_press":null,"trial_type":"html-keyboard-response","trial_index":60,"time_elapsed":154643,"internal_node_id":"0.0-8.0-1.13","subject":"7h5tjraoj9tkeun","sona":"7441"},{"trial_type":"turing-test","trial_index":61,"time_elapsed":160732,"internal_node_id":"0.0-8.0-2.13","subject":"7h5tjraoj9tkeun","sona":"7441"},{"rt":885.7549999956973,"stimulus":"<p>Welche Sequenz haben Sie als natürlicher empfunden?</p>","key_press":70,"test_part":"response","test_stimulus":{"position":0,"left":"bvh/return-bottle-training3-lines.txt","right":"bvh/vr_prediction_models/model(vcgpdm)-dataset(return-bottle)-mode(ELBO)-parts(3)-dyn(10)-lvm(25)-hold(3)/final-lines.txt","att_check":false},"trial_type":"html-keyboard-response","trial_index":62,"time_elapsed":161623,"internal_node_id":"0.0-8.0-3.13","subject":"7h5tjraoj9tkeun","sona":"7441"},{"rt":390.6649999844376,"stimulus":"<p>Bereit?</p>","key_press":32,"trial_type":"html-keyboard-response","trial_index":63,"time_elapsed":162018,"internal_node_id":"0.0-8.0-0.14","subject":"7h5tjraoj9tkeun","sona":"7441"},{"rt":null,"stimulus":"<div style=\"font-size:60px;\">+</div>","key_press":null,"trial_type":"html-keyboard-response","trial_index":64,"time_elapsed":164024,"internal_node_id":"0.0-8.0-1.14","subject":"7h5tjraoj9tkeun","sona":"7441"},{"trial_type":"turing-test","trial_index":65,"time_elapsed":169804,"internal_node_id":"0.0-8.0-2.14","subject":"7h5tjraoj9tkeun","sona":"7441"},{"rt":507.484999980079,"stimulus":"<p>Welche Sequenz haben Sie als natürlicher empfunden?</p>","key_press":70,"test_part":"response","test_stimulus":{"position":0,"left":"bvh/return-bottle-training0-lines.txt","right":"bvh/vr_prediction_models/model(vcgpdm)-dataset(return-bottle)-mode(ELBO)-parts(1)-dyn(30)-lvm(30)-hold(0)/final-lines.txt","att_check":false},"trial_type":"html-keyboard-response","trial_index":66,"time_elapsed":170317,"internal_node_id":"0.0-8.0-3.14","subject":"7h5tjraoj9tkeun","sona":"7441"},{"rt":440.86499998229556,"stimulus":"<p>Bereit?</p>","key_press":32,"trial_type":"html-keyboard-response","trial_index":67,"time_elapsed":170763,"internal_node_id":"0.0-8.0-0.15","subject":"7h5tjraoj9tkeun","sona":"7441"},{"rt":null,"stimulus":"<div style=\"font-size:60px;\">+</div>","key_press":null,"trial_type":"html-keyboard-response","trial_index":68,"time_elapsed":172765,"internal_node_id":"0.0-8.0-1.15","subject":"7h5tjraoj9tkeun","sona":"7441"},{"trial_type":"turing-test","trial_index":69,"time_elapsed":176191,"internal_node_id":"0.0-8.0-2.15","subject":"7h5tjraoj9tkeun","sona":"7441"},{"rt":799.509999982547,"stimulus":"<p>Welche Sequenz haben Sie als natürlicher empfunden?</p>","key_press":74,"test_part":"response","test_stimulus":{"position":1,"left":"bvh/vr_prediction_models/model(tmp)-dataset(pass-bottle-hold)-numprim(15)-hold(2)/final-lines.txt","right":"bvh/pass-bottle-hold-training2-lines.txt","att_check":false},"trial_type":"html-keyboard-response","trial_index":70,"time_elapsed":176997,"internal_node_id":"0.0-8.0-3.15","subject":"7h5tjraoj9tkeun","sona":"7441"},{"rt":565.2049999916926,"stimulus":"<p>Bereit?</p>","key_press":32,"trial_type":"html-keyboard-response","trial_index":71,"time_elapsed":177567,"internal_node_id":"0.0-8.0-0.16","subject":"7h5tjraoj9tkeun","sona":"7441"},{"rt":null,"stimulus":"<div style=\"font-size:60px;\">+</div>","key_press":null,"trial_type":"html-keyboard-response","trial_index":72,"time_elapsed":179590,"internal_node_id":"0.0-8.0-1.16","subject":"7h5tjraoj9tkeun","sona":"7441"},{"trial_type":"turing-test","trial_index":73,"time_elapsed":186394,"internal_node_id":"0.0-8.0-2.16","subject":"7h5tjraoj9tkeun","sona":"7441"},{"rt":294.5000000181608,"stimulus":"<p>Welche Sequenz haben Sie als natürlicher empfunden?</p>","key_press":74,"test_part":"response","test_stimulus":{"position":1,"left":"bvh/vr_prediction_models/model(dmp)-dataset(return-bottle)-npsi(80)-hold(2)/final-lines.txt","right":"bvh/return-bottle-training2-lines.txt","att_check":false},"trial_type":"html-keyboard-response","trial_index":74,"time_elapsed":186695,"internal_node_id":"0.0-8.0-3.16","subject":"7h5tjraoj9tkeun","sona":"7441"},{"rt":597.9149999911897,"stimulus":"<p>Bereit?</p>","key_press":32,"trial_type":"html-keyboard-response","trial_index":75,"time_elapsed":187298,"internal_node_id":"0.0-8.0-0.17","subject":"7h5tjraoj9tkeun","sona":"7441"},{"rt":null,"stimulus":"<div style=\"font-size:60px;\">+</div>","key_press":null,"trial_type":"html-keyboard-response","trial_index":76,"time_elapsed":189310,"internal_node_id":"0.0-8.0-1.17","subject":"7h5tjraoj9tkeun","sona":"7441"},{"trial_type":"turing-test","trial_index":77,"time_elapsed":193334,"internal_node_id":"0.0-8.0-2.17","subject":"7h5tjraoj9tkeun","sona":"7441"},{"rt":471.95999999530613,"stimulus":"<p>Welche Sequenz haben Sie als natürlicher empfunden?</p>","key_press":74,"test_part":"response","test_stimulus":{"position":0,"left":"bvh/return-bottle-hold-training4-lines.txt","right":"bvh/vr_prediction_models/model(vcgpdm)-dataset(return-bottle-hold)-mode(ELBO)-parts(3)-dyn(20)-lvm(35)-hold(4)/final-lines.txt","att_check":false},"trial_type":"html-keyboard-response","trial_index":78,"time_elapsed":193816,"internal_node_id":"0.0-8.0-3.17","subject":"7h5tjraoj9tkeun","sona":"7441"},{"rt":424.1299999994226,"stimulus":"<p>Bereit?</p>","key_press":32,"trial_type":"html-keyboard-response","trial_index":79,"time_elapsed":194244,"internal_node_id":"0.0-8.0-0.18","subject":"7h5tjraoj9tkeun","sona":"7441"},{"rt":null,"stimulus":"<div style=\"font-size:60px;\">+</div>","key_press":null,"trial_type":"html-keyboard-response","trial_index":80,"time_elapsed":196247,"internal_node_id":"0.0-8.0-1.18","subject":"7h5tjraoj9tkeun","sona":"7441"},{"trial_type":"turing-test","trial_index":81,"time_elapsed":202185,"internal_node_id":"0.0-8.0-2.18","subject":"7h5tjraoj9tkeun","sona":"7441"},{"rt":404.18000001227483,"stimulus":"<p>Welche Sequenz haben Sie als natürlicher empfunden?</p>","key_press":70,"test_part":"response","test_stimulus":{"position":0,"left":"bvh/return-bottle-training3-lines.txt","right":"bvh/vr_prediction_models/model(dmp)-dataset(return-bottle)-npsi(60)-hold(3)/final-lines.txt","att_check":true},"trial_type":"html-keyboard-response","trial_index":82,"time_elapsed":202596,"internal_node_id":"0.0-8.0-3.18","subject":"7h5tjraoj9tkeun","sona":"7441"},{"rt":375.9000000136439,"stimulus":"<p>Bereit?</p>","key_press":32,"trial_type":"html-keyboard-response","trial_index":83,"time_elapsed":202977,"internal_node_id":"0.0-8.0-0.19","subject":"7h5tjraoj9tkeun","sona":"7441"},{"rt":null,"stimulus":"<div style=\"font-size:60px;\">+</div>","key_press":null,"trial_type":"html-keyboard-response","trial_index":84,"time_elapsed":204983,"internal_node_id":"0.0-8.0-1.19","subject":"7h5tjraoj9tkeun","sona":"7441"},{"trial_type":"turing-test","trial_index":85,"time_elapsed":208695,"internal_node_id":"0.0-8.0-2.19","subject":"7h5tjraoj9tkeun","sona":"7441"},{"rt":193.63999998313375,"stimulus":"<p>Welche Sequenz haben Sie als natürlicher empfunden?</p>","key_press":70,"test_part":"response","test_stimulus":{"position":1,"left":"bvh/vr_prediction_models/model(tmp)-dataset(return-bottle-hold)-numprim(3)-hold(3)/final-lines.txt","right":"bvh/return-bottle-hold-training3-lines.txt","att_check":false},"trial_type":"html-keyboard-response","trial_index":86,"time_elapsed":208899,"internal_node_id":"0.0-8.0-3.19","subject":"7h5tjraoj9tkeun","sona":"7441"},{"rt":425.1300000178162,"stimulus":"<p>Bereit?</p>","key_press":32,"trial_type":"html-keyboard-response","trial_index":87,"time_elapsed":209329,"internal_node_id":"0.0-8.0-0.20","subject":"7h5tjraoj9tkeun","sona":"7441"},{"rt":null,"stimulus":"<div style=\"font-size:60px;\">+</div>","key_press":null,"trial_type":"html-keyboard-response","trial_index":88,"time_elapsed":211342,"internal_node_id":"0.0-8.0-1.20","subject":"7h5tjraoj9tkeun","sona":"7441"},{"trial_type":"turing-test","trial_index":89,"time_elapsed":216885,"internal_node_id":"0.0-8.0-2.20","subject":"7h5tjraoj9tkeun","sona":"7441"},{"rt":390.769999998156,"stimulus":"<p>Welche Sequenz haben Sie als natürlicher empfunden?</p>","key_press":70,"test_part":"response","test_stimulus":{"position":0,"left":"bvh/return-bottle-training0-lines.txt","right":"bvh/vr_prediction_models/model(tmp)-dataset(return-bottle)-numprim(5)-hold(0)/final-lines.txt","att_check":false},"trial_type":"html-keyboard-response","trial_index":90,"time_elapsed":217284,"internal_node_id":"0.0-8.0-3.20","subject":"7h5tjraoj9tkeun","sona":"7441"},{"rt":454.11000002059154,"stimulus":"<p>Bereit?</p>","key_press":32,"trial_type":"html-keyboard-response","trial_index":91,"time_elapsed":217743,"internal_node_id":"0.0-8.0-0.21","subject":"7h5tjraoj9tkeun","sona":"7441"},{"rt":null,"stimulus":"<div style=\"font-size:60px;\">+</div>","key_press":null,"trial_type":"html-keyboard-response","trial_index":92,"time_elapsed":219746,"internal_node_id":"0.0-8.0-1.21","subject":"7h5tjraoj9tkeun","sona":"7441"},{"trial_type":"turing-test","trial_index":93,"time_elapsed":225585,"internal_node_id":"0.0-8.0-2.21","subject":"7h5tjraoj9tkeun","sona":"7441"},{"rt":346.7299999902025,"stimulus":"<p>Welche Sequenz haben Sie als natürlicher empfunden?</p>","key_press":70,"test_part":"response","test_stimulus":{"position":0,"left":"bvh/pass-bottle-training4-lines.txt","right":"bvh/vr_prediction_models/model(vcgpdm)-dataset(pass-bottle)-mode(ELBO)-parts(1)-dyn(30)-lvm(20)-hold(4)/final-lines.txt","att_check":false},"trial_type":"html-keyboard-response","trial_index":94,"time_elapsed":225939,"internal_node_id":"0.0-8.0-3.21","subject":"7h5tjraoj9tkeun","sona":"7441"},{"rt":334.6000000019558,"stimulus":"<p>Bereit?</p>","key_press":32,"trial_type":"html-keyboard-response","trial_index":95,"time_elapsed":226278,"internal_node_id":"0.0-8.0-0.22","subject":"7h5tjraoj9tkeun","sona":"7441"},{"rt":null,"stimulus":"<div style=\"font-size:60px;\">+</div>","key_press":null,"trial_type":"html-keyboard-response","trial_index":96,"time_elapsed":228286,"internal_node_id":"0.0-8.0-1.22","subject":"7h5tjraoj9tkeun","sona":"7441"},{"trial_type":"turing-test","trial_index":97,"time_elapsed":234112,"internal_node_id":"0.0-8.0-2.22","subject":"7h5tjraoj9tkeun","sona":"7441"},{"rt":921.7149999749381,"stimulus":"<p>Welche Sequenz haben Sie als natürlicher empfunden?</p>","key_press":70,"test_part":"response","test_stimulus":{"position":1,"left":"bvh/vr_prediction_models/model(vcgpdm)-dataset(return-bottle-hold)-mode(ELBO)-parts(3)-dyn(10)-lvm(25)-hold(0)/final-lines.txt","right":"bvh/return-bottle-hold-training0-lines.txt","att_check":false},"trial_type":"html-keyboard-response","trial_index":98,"time_elapsed":235040,"internal_node_id":"0.0-8.0-3.22","subject":"7h5tjraoj9tkeun","sona":"7441"},{"rt":293.8999999896623,"stimulus":"<p>Bereit?</p>","key_press":32,"trial_type":"html-keyboard-response","trial_index":99,"time_elapsed":235338,"internal_node_id":"0.0-8.0-0.23","subject":"7h5tjraoj9tkeun","sona":"7441"},{"rt":null,"stimulus":"<div style=\"font-size:60px;\">+</div>","key_press":null,"trial_type":"html-keyboard-response","trial_index":100,"time_elapsed":237356,"internal_node_id":"0.0-8.0-1.23","subject":"7h5tjraoj9tkeun","sona":"7441"},{"trial_type":"turing-test","trial_index":101,"time_elapsed":243612,"internal_node_id":"0.0-8.0-2.23","subject":"7h5tjraoj9tkeun","sona":"7441"},{"rt":507.7950000122655,"stimulus":"<p>Welche Sequenz haben Sie als natürlicher empfunden?</p>","key_press":74,"test_part":"response","test_stimulus":{"position":0,"left":"bvh/pass-bottle-training2-lines.txt","right":"bvh/vr_prediction_models/model(tmp)-dataset(pass-bottle)-numprim(7)-hold(2)/final-lines.txt","att_check":false},"trial_type":"html-keyboard-response","trial_index":102,"time_elapsed":244126,"internal_node_id":"0.0-8.0-3.23","subject":"7h5tjraoj9tkeun","sona":"7441"},{"rt":389.9150000070222,"stimulus":"<p>Bereit?</p>","key_press":32,"trial_type":"html-keyboard-response","trial_index":103,"time_elapsed":244525,"internal_node_id":"0.0-8.0-0.24","subject":"7h5tjraoj9tkeun","sona":"7441"},{"rt":null,"stimulus":"<div style=\"font-size:60px;\">+</div>","key_press":null,"trial_type":"html-keyboard-response","trial_index":104,"time_elapsed":246542,"internal_node_id":"0.0-8.0-1.24","subject":"7h5tjraoj9tkeun","sona":"7441"},{"trial_type":"turing-test","trial_index":105,"time_elapsed":250444,"internal_node_id":"0.0-8.0-2.24","subject":"7h5tjraoj9tkeun","sona":"7441"},{"rt":330.6099999754224,"stimulus":"<p>Welche Sequenz haben Sie als natürlicher empfunden?</p>","key_press":70,"test_part":"response","test_stimulus":{"position":0,"left":"bvh/return-bottle-hold-training4-lines.txt","right":"bvh/vr_prediction_models/model(dmp)-dataset(return-bottle-hold)-npsi(80)-hold(4)/final-lines.txt","att_check":true},"trial_type":"html-keyboard-response","trial_index":106,"time_elapsed":250782,"internal_node_id":"0.0-8.0-3.24","subject":"7h5tjraoj9tkeun","sona":"7441"},{"rt":307.4450000131037,"stimulus":"<p>Bereit?</p>","key_press":32,"trial_type":"html-keyboard-response","trial_index":107,"time_elapsed":251092,"internal_node_id":"0.0-8.0-0.25","subject":"7h5tjraoj9tkeun","sona":"7441"},{"rt":null,"stimulus":"<div style=\"font-size:60px;\">+</div>","key_press":null,"trial_type":"html-keyboard-response","trial_index":108,"time_elapsed":253104,"internal_node_id":"0.0-8.0-1.25","subject":"7h5tjraoj9tkeun","sona":"7441"},{"trial_type":"turing-test","trial_index":109,"time_elapsed":259946,"internal_node_id":"0.0-8.0-2.25","subject":"7h5tjraoj9tkeun","sona":"7441"},{"rt":607.2550000099,"stimulus":"<p>Welche Sequenz haben Sie als natürlicher empfunden?</p>","key_press":70,"test_part":"response","test_stimulus":{"position":1,"left":"bvh/vr_prediction_models/model(vcgpdm)-dataset(pass-bottle)-mode(ELBO)-parts(1)-dyn(15)-lvm(35)-hold(0)/final-lines.txt","right":"bvh/pass-bottle-training0-lines.txt","att_check":false},"trial_type":"html-keyboard-response","trial_index":110,"time_elapsed":260560,"internal_node_id":"0.0-8.0-3.25","subject":"7h5tjraoj9tkeun","sona":"7441"},{"rt":403.3050000143703,"stimulus":"<p>Bereit?</p>","key_press":32,"trial_type":"html-keyboard-response","trial_index":111,"time_elapsed":260968,"internal_node_id":"0.0-8.0-0.26","subject":"7h5tjraoj9tkeun","sona":"7441"},{"rt":null,"stimulus":"<div style=\"font-size:60px;\">+</div>","key_press":null,"trial_type":"html-keyboard-response","trial_index":112,"time_elapsed":262976,"internal_node_id":"0.0-8.0-1.26","subject":"7h5tjraoj9tkeun","sona":"7441"},{"trial_type":"turing-test","trial_index":113,"time_elapsed":266237,"internal_node_id":"0.0-8.0-2.26","subject":"7h5tjraoj9tkeun","sona":"7441"},{"rt":788.2200000167359,"stimulus":"<p>Welche Sequenz haben Sie als natürlicher empfunden?</p>","key_press":70,"test_part":"response","test_stimulus":{"position":0,"left":"bvh/pass-bottle-hold-training0-lines.txt","right":"bvh/vr_prediction_models/model(vcgpdm)-dataset(pass-bottle-hold)-mode(ELBO)-parts(1)-dyn(25)-lvm(35)-hold(0)/final-lines.txt","att_check":false},"trial_type":"html-keyboard-response","trial_index":114,"time_elapsed":267031,"internal_node_id":"0.0-8.0-3.26","subject":"7h5tjraoj9tkeun","sona":"7441"},{"rt":205.97999999881722,"stimulus":"<p>Bereit?</p>","key_press":32,"trial_type":"html-keyboard-response","trial_index":115,"time_elapsed":267242,"internal_node_id":"0.0-8.0-0.27","subject":"7h5tjraoj9tkeun","sona":"7441"},{"rt":null,"stimulus":"<div style=\"font-size:60px;\">+</div>","key_press":null,"trial_type":"html-keyboard-response","trial_index":116,"time_elapsed":269250,"internal_node_id":"0.0-8.0-1.27","subject":"7h5tjraoj9tkeun","sona":"7441"},{"trial_type":"turing-test","trial_index":117,"time_elapsed":275415,"internal_node_id":"0.0-8.0-2.27","subject":"7h5tjraoj9tkeun","sona":"7441"},{"rt":415.6550000188872,"stimulus":"<p>Welche Sequenz haben Sie als natürlicher empfunden?</p>","key_press":74,"test_part":"response","test_stimulus":{"position":0,"left":"bvh/pass-bottle-training2-lines.txt","right":"bvh/vr_prediction_models/model(vcgpdm)-dataset(pass-bottle)-mode(ELBO)-parts(1)-dyn(30)-lvm(20)-hold(2)/final-lines.txt","att_check":false},"trial_type":"html-keyboard-response","trial_index":118,"time_elapsed":275839,"internal_node_id":"0.0-8.0-3.27","subject":"7h5tjraoj9tkeun","sona":"7441"},{"rt":403.35000000777654,"stimulus":"<p>Bereit?</p>","key_press":32,"trial_type":"html-keyboard-response","trial_index":119,"time_elapsed":276248,"internal_node_id":"0.0-8.0-0.28","subject":"7h5tjraoj9tkeun","sona":"7441"},{"rt":null,"stimulus":"<div style=\"font-size:60px;\">+</div>","key_press":null,"trial_type":"html-keyboard-response","trial_index":120,"time_elapsed":278254,"internal_node_id":"0.0-8.0-1.28","subject":"7h5tjraoj9tkeun","sona":"7441"},{"trial_type":"turing-test","trial_index":121,"time_elapsed":282303,"internal_node_id":"0.0-8.0-2.28","subject":"7h5tjraoj9tkeun","sona":"7441"},{"rt":254.47999997413717,"stimulus":"<p>Welche Sequenz haben Sie als natürlicher empfunden?</p>","key_press":74,"test_part":"response","test_stimulus":{"position":1,"left":"bvh/vr_prediction_models/model(vcgpdm)-dataset(return-bottle-hold)-mode(ELBO)-parts(3)-dyn(20)-lvm(35)-hold(3)/final-lines.txt","right":"bvh/return-bottle-hold-training3-lines.txt","att_check":false},"trial_type":"html-keyboard-response","trial_index":122,"time_elapsed":282563,"internal_node_id":"0.0-8.0-3.28","subject":"7h5tjraoj9tkeun","sona":"7441"},{"rt":326.4049999997951,"stimulus":"<p>Bereit?</p>","key_press":32,"trial_type":"html-keyboard-response","trial_index":123,"time_elapsed":282895,"internal_node_id":"0.0-8.0-0.29","subject":"7h5tjraoj9tkeun","sona":"7441"},{"rt":null,"stimulus":"<div style=\"font-size:60px;\">+</div>","key_press":null,"trial_type":"html-keyboard-response","trial_index":124,"time_elapsed":284899,"internal_node_id":"0.0-8.0-1.29","subject":"7h5tjraoj9tkeun","sona":"7441"},{"trial_type":"turing-test","trial_index":125,"time_elapsed":291863,"internal_node_id":"0.0-8.0-2.29","subject":"7h5tjraoj9tkeun","sona":"7441"},{"rt":244.0000000060536,"stimulus":"<p>Welche Sequenz haben Sie als natürlicher empfunden?</p>","key_press":74,"test_part":"response","test_stimulus":{"position":0,"left":"bvh/pass-bottle-training0-lines.txt","right":"bvh/vr_prediction_models/model(vcgpdm)-dataset(pass-bottle)-mode(ELBO)-parts(1)-dyn(20)-lvm(5)-hold(0)/final-lines.txt","att_check":false},"trial_type":"html-keyboard-response","trial_index":126,"time_elapsed":292115,"internal_node_id":"0.0-8.0-3.29","subject":"7h5tjraoj9tkeun","sona":"7441"},{"rt":412.53499998128973,"stimulus":"<p>Bereit?</p>","key_press":32,"trial_type":"html-keyboard-response","trial_index":127,"time_elapsed":292534,"internal_node_id":"0.0-8.0-0.30","subject":"7h5tjraoj9tkeun","sona":"7441"},{"rt":null,"stimulus":"<div style=\"font-size:60px;\">+</div>","key_press":null,"trial_type":"html-keyboard-response","trial_index":128,"time_elapsed":294546,"internal_node_id":"0.0-8.0-1.30","subject":"7h5tjraoj9tkeun","sona":"7441"},{"trial_type":"turing-test","trial_index":129,"time_elapsed":300306,"internal_node_id":"0.0-8.0-2.30","subject":"7h5tjraoj9tkeun","sona":"7441"},{"rt":294.68500000075437,"stimulus":"<p>Welche Sequenz haben Sie als natürlicher empfunden?</p>","key_press":74,"test_part":"response","test_stimulus":{"position":1,"left":"bvh/vr_prediction_models/model(tmp)-dataset(pass-bottle)-numprim(6)-hold(4)/final-lines.txt","right":"bvh/pass-bottle-training4-lines.txt","att_check":false},"trial_type":"html-keyboard-response","trial_index":130,"time_elapsed":300609,"internal_node_id":"0.0-8.0-3.30","subject":"7h5tjraoj9tkeun","sona":"7441"},{"rt":443.3499999868218,"stimulus":"<p>Bereit?</p>","key_press":32,"trial_type":"html-keyboard-response","trial_index":131,"time_elapsed":301059,"internal_node_id":"0.0-8.0-0.31","subject":"7h5tjraoj9tkeun","sona":"7441"},{"rt":null,"stimulus":"<div style=\"font-size:60px;\">+</div>","key_press":null,"trial_type":"html-keyboard-response","trial_index":132,"time_elapsed":303074,"internal_node_id":"0.0-8.0-1.31","subject":"7h5tjraoj9tkeun","sona":"7441"},{"trial_type":"turing-test","trial_index":133,"time_elapsed":309707,"internal_node_id":"0.0-8.0-2.31","subject":"7h5tjraoj9tkeun","sona":"7441"},{"rt":277.72000001277775,"stimulus":"<p>Welche Sequenz haben Sie als natürlicher empfunden?</p>","key_press":74,"test_part":"response","test_stimulus":{"position":1,"left":"bvh/vr_prediction_models/model(vcgpdm)-dataset(return-bottle)-mode(MAP)-parts(3)-hold(2)/final-lines.txt","right":"bvh/return-bottle-training2-lines.txt","att_check":false},"trial_type":"html-keyboard-response","trial_index":134,"time_elapsed":309993,"internal_node_id":"0.0-8.0-3.31","subject":"7h5tjraoj9tkeun","sona":"7441"},{"rt":467.7699999883771,"stimulus":"<p>Bereit?</p>","key_press":32,"trial_type":"html-keyboard-response","trial_index":135,"time_elapsed":310467,"internal_node_id":"0.0-8.0-0.32","subject":"7h5tjraoj9tkeun","sona":"7441"},{"rt":null,"stimulus":"<div style=\"font-size:60px;\">+</div>","key_press":null,"trial_type":"html-keyboard-response","trial_index":136,"time_elapsed":312482,"internal_node_id":"0.0-8.0-1.32","subject":"7h5tjraoj9tkeun","sona":"7441"},{"trial_type":"turing-test","trial_index":137,"time_elapsed":318282,"internal_node_id":"0.0-8.0-2.32","subject":"7h5tjraoj9tkeun","sona":"7441"},{"rt":422.86500000045635,"stimulus":"<p>Welche Sequenz haben Sie als natürlicher empfunden?</p>","key_press":74,"test_part":"response","test_stimulus":{"position":0,"left":"bvh/pass-bottle-training4-lines.txt","right":"bvh/vr_prediction_models/model(vcgpdm)-dataset(pass-bottle)-mode(ELBO)-parts(3)-dyn(20)-lvm(20)-hold(4)/final-lines.txt","att_check":false},"trial_type":"html-keyboard-response","trial_index":138,"time_elapsed":318711,"internal_node_id":"0.0-8.0-3.32","subject":"7h5tjraoj9tkeun","sona":"7441"},{"rt":411.88500000862405,"stimulus":"<p>Bereit?</p>","key_press":32,"trial_type":"html-keyboard-response","trial_index":139,"time_elapsed":319129,"internal_node_id":"0.0-8.0-0.33","subject":"7h5tjraoj9tkeun","sona":"7441"},{"rt":null,"stimulus":"<div style=\"font-size:60px;\">+</div>","key_press":null,"trial_type":"html-keyboard-response","trial_index":140,"time_elapsed":321134,"internal_node_id":"0.0-8.0-1.33","subject":"7h5tjraoj9tkeun","sona":"7441"},{"trial_type":"turing-test","trial_index":141,"time_elapsed":324672,"internal_node_id":"0.0-8.0-2.33","subject":"7h5tjraoj9tkeun","sona":"7441"},{"rt":317.9949999903329,"stimulus":"<p>Welche Sequenz haben Sie als natürlicher empfunden?</p>","key_press":74,"test_part":"response","test_stimulus":{"position":0,"left":"bvh/return-bottle-hold-training1-lines.txt","right":"bvh/vr_prediction_models/model(vcgpdm)-dataset(return-bottle-hold)-mode(ELBO)-parts(1)-dyn(35)-lvm(30)-hold(1)/final-lines.txt","att_check":false},"trial_type":"html-keyboard-response","trial_index":142,"time_elapsed":324997,"internal_node_id":"0.0-8.0-3.33","subject":"7h5tjraoj9tkeun","sona":"7441"},{"rt":402.4799999897368,"stimulus":"<p>Bereit?</p>","key_press":32,"trial_type":"html-keyboard-response","trial_index":143,"time_elapsed":325405,"internal_node_id":"0.0-8.0-0.34","subject":"7h5tjraoj9tkeun","sona":"7441"},{"rt":null,"stimulus":"<div style=\"font-size:60px;\">+</div>","key_press":null,"trial_type":"html-keyboard-response","trial_index":144,"time_elapsed":327426,"internal_node_id":"0.0-8.0-1.34","subject":"7h5tjraoj9tkeun","sona":"7441"},{"trial_type":"turing-test","trial_index":145,"time_elapsed":330792,"internal_node_id":"0.0-8.0-2.34","subject":"7h5tjraoj9tkeun","sona":"7441"},{"rt":417.0750000048429,"stimulus":"<p>Welche Sequenz haben Sie als natürlicher empfunden?</p>","key_press":70,"test_part":"response","test_stimulus":{"position":1,"left":"bvh/vr_prediction_models/model(tmp)-dataset(pass-bottle-hold)-numprim(3)-hold(0)/final-lines.txt","right":"bvh/pass-bottle-hold-training0-lines.txt","att_check":false},"trial_type":"html-keyboard-response","trial_index":146,"time_elapsed":331221,"internal_node_id":"0.0-8.0-3.34","subject":"7h5tjraoj9tkeun","sona":"7441"},{"rt":282.1950000070501,"stimulus":"<p>Bereit?</p>","key_press":32,"trial_type":"html-keyboard-response","trial_index":147,"time_elapsed":331510,"internal_node_id":"0.0-8.0-0.35","subject":"7h5tjraoj9tkeun","sona":"7441"},{"rt":null,"stimulus":"<div style=\"font-size:60px;\">+</div>","key_press":null,"trial_type":"html-keyboard-response","trial_index":148,"time_elapsed":333518,"internal_node_id":"0.0-8.0-1.35","subject":"7h5tjraoj9tkeun","sona":"7441"},{"trial_type":"turing-test","trial_index":149,"time_elapsed":337350,"internal_node_id":"0.0-8.0-2.35","subject":"7h5tjraoj9tkeun","sona":"7441"},{"rt":282.99500001594424,"stimulus":"<p>Welche Sequenz haben Sie als natürlicher empfunden?</p>","key_press":70,"test_part":"response","test_stimulus":{"position":0,"left":"bvh/pass-bottle-hold-training3-lines.txt","right":"bvh/vr_prediction_models/model(vcgpdm)-dataset(pass-bottle-hold)-mode(ELBO)-parts(1)-dyn(30)-lvm(35)-hold(3)/final-lines.txt","att_check":false},"trial_type":"html-keyboard-response","trial_index":150,"time_elapsed":337641,"internal_node_id":"0.0-8.0-3.35","subject":"7h5tjraoj9tkeun","sona":"7441"},{"rt":229.6900000073947,"stimulus":"<p>Bereit?</p>","key_press":32,"trial_type":"html-keyboard-response","trial_index":151,"time_elapsed":337878,"internal_node_id":"0.0-8.0-0.36","subject":"7h5tjraoj9tkeun","sona":"7441"},{"rt":null,"stimulus":"<div style=\"font-size:60px;\">+</div>","key_press":null,"trial_type":"html-keyboard-response","trial_index":152,"time_elapsed":339886,"internal_node_id":"0.0-8.0-1.36","subject":"7h5tjraoj9tkeun","sona":"7441"},{"trial_type":"turing-test","trial_index":153,"time_elapsed":345345,"internal_node_id":"0.0-8.0-2.36","subject":"7h5tjraoj9tkeun","sona":"7441"},{"rt":331.02000001235865,"stimulus":"<p>Welche Sequenz haben Sie als natürlicher empfunden?</p>","key_press":74,"test_part":"response","test_stimulus":{"position":1,"left":"bvh/vr_prediction_models/model(vcgpdm)-dataset(return-bottle-hold)-mode(MAP)-parts(1)-hold(0)/final-lines.txt","right":"bvh/return-bottle-hold-training0-lines.txt","att_check":false},"trial_type":"html-keyboard-response","trial_index":154,"time_elapsed":345683,"internal_node_id":"0.0-8.0-3.36","subject":"7h5tjraoj9tkeun","sona":"7441"},{"rt":494.39500001608394,"stimulus":"<p>Bereit?</p>","key_press":32,"trial_type":"html-keyboard-response","trial_index":155,"time_elapsed":346183,"internal_node_id":"0.0-8.0-0.37","subject":"7h5tjraoj9tkeun","sona":"7441"},{"rt":null,"stimulus":"<div style=\"font-size:60px;\">+</div>","key_press":null,"trial_type":"html-keyboard-response","trial_index":156,"time_elapsed":348200,"internal_node_id":"0.0-8.0-1.37","subject":"7h5tjraoj9tkeun","sona":"7441"},{"trial_type":"turing-test","trial_index":157,"time_elapsed":354782,"internal_node_id":"0.0-8.0-2.37","subject":"7h5tjraoj9tkeun","sona":"7441"},{"rt":462.39000000059605,"stimulus":"<p>Welche Sequenz haben Sie als natürlicher empfunden?</p>","key_press":74,"test_part":"response","test_stimulus":{"position":1,"left":"bvh/vr_prediction_models/model(tmp)-dataset(return-bottle)-numprim(13)-hold(2)/final-lines.txt","right":"bvh/return-bottle-training2-lines.txt","att_check":false},"trial_type":"html-keyboard-response","trial_index":158,"time_elapsed":355258,"internal_node_id":"0.0-8.0-3.37","subject":"7h5tjraoj9tkeun","sona":"7441"},{"rt":336.5850000118371,"stimulus":"<p>Bereit?</p>","key_press":32,"trial_type":"html-keyboard-response","trial_index":159,"time_elapsed":355600,"internal_node_id":"0.0-8.0-0.38","subject":"7h5tjraoj9tkeun","sona":"7441"},{"rt":null,"stimulus":"<div style=\"font-size:60px;\">+</div>","key_press":null,"trial_type":"html-keyboard-response","trial_index":160,"time_elapsed":357617,"internal_node_id":"0.0-8.0-1.38","subject":"7h5tjraoj9tkeun","sona":"7441"},{"trial_type":"turing-test","trial_index":161,"time_elapsed":364602,"internal_node_id":"0.0-8.0-2.38","subject":"7h5tjraoj9tkeun","sona":"7441"},{"rt":313.8549999857787,"stimulus":"<p>Welche Sequenz haben Sie als natürlicher empfunden?</p>","key_press":70,"test_part":"response","test_stimulus":{"position":0,"left":"bvh/return-bottle-training2-lines.txt","right":"bvh/vr_prediction_models/model(vcgpdm)-dataset(return-bottle)-mode(ELBO)-parts(3)-dyn(30)-lvm(15)-hold(2)/final-lines.txt","att_check":false},"trial_type":"html-keyboard-response","trial_index":162,"time_elapsed":364926,"internal_node_id":"0.0-8.0-3.38","subject":"7h5tjraoj9tkeun","sona":"7441"},{"rt":319.9200000090059,"stimulus":"<p>Bereit?</p>","key_press":32,"trial_type":"html-keyboard-response","trial_index":163,"time_elapsed":365252,"internal_node_id":"0.0-8.0-0.39","subject":"7h5tjraoj9tkeun","sona":"7441"},{"rt":null,"stimulus":"<div style=\"font-size:60px;\">+</div>","key_press":null,"trial_type":"html-keyboard-response","trial_index":164,"time_elapsed":367265,"internal_node_id":"0.0-8.0-1.39","subject":"7h5tjraoj9tkeun","sona":"7441"},{"trial_type":"turing-test","trial_index":165,"time_elapsed":373420,"internal_node_id":"0.0-8.0-2.39","subject":"7h5tjraoj9tkeun","sona":"7441"},{"rt":456.00000000558794,"stimulus":"<p>Welche Sequenz haben Sie als natürlicher empfunden?</p>","key_press":74,"test_part":"response","test_stimulus":{"position":1,"left":"bvh/vr_prediction_models/model(vcgpdm)-dataset(pass-bottle)-mode(ELBO)-parts(1)-dyn(30)-lvm(35)-hold(2)/final-lines.txt","right":"bvh/pass-bottle-training2-lines.txt","att_check":false},"trial_type":"html-keyboard-response","trial_index":166,"time_elapsed":373892,"internal_node_id":"0.0-8.0-3.39","subject":"7h5tjraoj9tkeun","sona":"7441"},{"rt":487.01499999151565,"stimulus":"<p>Bereit?</p>","key_press":32,"trial_type":"html-keyboard-response","trial_index":167,"time_elapsed":374403,"internal_node_id":"0.0-8.0-0.40","subject":"7h5tjraoj9tkeun","sona":"7441"},{"rt":null,"stimulus":"<div style=\"font-size:60px;\">+</div>","key_press":null,"trial_type":"html-keyboard-response","trial_index":168,"time_elapsed":376417,"internal_node_id":"0.0-8.0-1.40","subject":"7h5tjraoj9tkeun","sona":"7441"},{"trial_type":"turing-test","trial_index":169,"time_elapsed":379734,"internal_node_id":"0.0-8.0-2.40","subject":"7h5tjraoj9tkeun","sona":"7441"},{"rt":841.3999999756925,"stimulus":"<p>Welche Sequenz haben Sie als natürlicher empfunden?</p>","key_press":74,"test_part":"response","test_stimulus":{"position":0,"left":"bvh/pass-bottle-hold-training1-lines.txt","right":"bvh/vr_prediction_models/model(vcgpdm)-dataset(pass-bottle-hold)-mode(ELBO)-parts(3)-dyn(10)-lvm(30)-hold(1)/final-lines.txt","att_check":false},"trial_type":"html-keyboard-response","trial_index":170,"time_elapsed":380584,"internal_node_id":"0.0-8.0-3.40","subject":"7h5tjraoj9tkeun","sona":"7441"},{"rt":439.61999999010004,"stimulus":"<p>Bereit?</p>","key_press":32,"trial_type":"html-keyboard-response","trial_index":171,"time_elapsed":381029,"internal_node_id":"0.0-8.0-0.41","subject":"7h5tjraoj9tkeun","sona":"7441"},{"rt":null,"stimulus":"<div style=\"font-size:60px;\">+</div>","key_press":null,"trial_type":"html-keyboard-response","trial_index":172,"time_elapsed":383034,"internal_node_id":"0.0-8.0-1.41","subject":"7h5tjraoj9tkeun","sona":"7441"},{"trial_type":"turing-test","trial_index":173,"time_elapsed":389645,"internal_node_id":"0.0-8.0-2.41","subject":"7h5tjraoj9tkeun","sona":"7441"},{"rt":344.1599999787286,"stimulus":"<p>Welche Sequenz haben Sie als natürlicher empfunden?</p>","key_press":74,"test_part":"response","test_stimulus":{"position":1,"left":"bvh/vr_prediction_models/model(tmp)-dataset(return-bottle)-numprim(5)-hold(2)/final-lines.txt","right":"bvh/return-bottle-training2-lines.txt","att_check":false},"trial_type":"html-keyboard-response","trial_index":174,"time_elapsed":389998,"internal_node_id":"0.0-8.0-3.41","subject":"7h5tjraoj9tkeun","sona":"7441"},{"rt":380.9049999981653,"stimulus":"<p>Bereit?</p>","key_press":32,"trial_type":"html-keyboard-response","trial_index":175,"time_elapsed":390390,"internal_node_id":"0.0-8.0-0.42","subject":"7h5tjraoj9tkeun","sona":"7441"},{"rt":null,"stimulus":"<div style=\"font-size:60px;\">+</div>","key_press":null,"trial_type":"html-keyboard-response","trial_index":176,"time_elapsed":392395,"internal_node_id":"0.0-8.0-1.42","subject":"7h5tjraoj9tkeun","sona":"7441"},{"trial_type":"turing-test","trial_index":177,"time_elapsed":398532,"internal_node_id":"0.0-8.0-2.42","subject":"7h5tjraoj9tkeun","sona":"7441"},{"rt":326.86000000103377,"stimulus":"<p>Welche Sequenz haben Sie als natürlicher empfunden?</p>","key_press":74,"test_part":"response","test_stimulus":{"position":1,"left":"bvh/vr_prediction_models/model(vcgpdm)-dataset(return-bottle)-mode(ELBO)-parts(3)-dyn(15)-lvm(30)-hold(1)/final-lines.txt","right":"bvh/return-bottle-training1-lines.txt","att_check":false},"trial_type":"html-keyboard-response","trial_index":178,"time_elapsed":398868,"internal_node_id":"0.0-8.0-3.42","subject":"7h5tjraoj9tkeun","sona":"7441"},{"rt":330.9949999966193,"stimulus":"<p>Bereit?</p>","key_press":32,"trial_type":"html-keyboard-response","trial_index":179,"time_elapsed":399206,"internal_node_id":"0.0-8.0-0.43","subject":"7h5tjraoj9tkeun","sona":"7441"},{"rt":null,"stimulus":"<div style=\"font-size:60px;\">+</div>","key_press":null,"trial_type":"html-keyboard-response","trial_index":180,"time_elapsed":401217,"internal_node_id":"0.0-8.0-1.43","subject":"7h5tjraoj9tkeun","sona":"7441"},{"trial_type":"turing-test","trial_index":181,"time_elapsed":407905,"internal_node_id":"0.0-8.0-2.43","subject":"7h5tjraoj9tkeun","sona":"7441"},{"rt":347.154999995837,"stimulus":"<p>Welche Sequenz haben Sie als natürlicher empfunden?</p>","key_press":74,"test_part":"response","test_stimulus":{"position":1,"left":"bvh/vr_prediction_models/model(dmp)-dataset(pass-bottle)-npsi(70)-hold(0)/final-lines.txt","right":"bvh/pass-bottle-training0-lines.txt","att_check":false},"trial_type":"html-keyboard-response","trial_index":182,"time_elapsed":408261,"internal_node_id":"0.0-8.0-3.43","subject":"7h5tjraoj9tkeun","sona":"7441"},{"rt":575.8250000071712,"stimulus":"<p>Bereit?</p>","key_press":32,"trial_type":"html-keyboard-response","trial_index":183,"time_elapsed":408848,"internal_node_id":"0.0-8.0-0.44","subject":"7h5tjraoj9tkeun","sona":"7441"},{"rt":null,"stimulus":"<div style=\"font-size:60px;\">+</div>","key_press":null,"trial_type":"html-keyboard-response","trial_index":184,"time_elapsed":410863,"internal_node_id":"0.0-8.0-1.44","subject":"7h5tjraoj9tkeun","sona":"7441"},{"trial_type":"turing-test","trial_index":185,"time_elapsed":414052,"internal_node_id":"0.0-8.0-2.44","subject":"7h5tjraoj9tkeun","sona":"7441"},{"rt":344.1400000010617,"stimulus":"<p>Welche Sequenz haben Sie als natürlicher empfunden?</p>","key_press":70,"test_part":"response","test_stimulus":{"position":0,"left":"bvh/pass-bottle-hold-training1-lines.txt","right":"bvh/vr_prediction_models/model(dmp)-dataset(pass-bottle-hold)-npsi(80)-hold(1)/final-lines.txt","att_check":false},"trial_type":"html-keyboard-response","trial_index":186,"time_elapsed":414399,"internal_node_id":"0.0-8.0-3.44","subject":"7h5tjraoj9tkeun","sona":"7441"},{"rt":287.12500000256114,"stimulus":"<p>Bereit?</p>","key_press":32,"trial_type":"html-keyboard-response","trial_index":187,"time_elapsed":414695,"internal_node_id":"0.0-8.0-0.45","subject":"7h5tjraoj9tkeun","sona":"7441"},{"rt":null,"stimulus":"<div style=\"font-size:60px;\">+</div>","key_press":null,"trial_type":"html-keyboard-response","trial_index":188,"time_elapsed":416702,"internal_node_id":"0.0-8.0-1.45","subject":"7h5tjraoj9tkeun","sona":"7441"},{"trial_type":"turing-test","trial_index":189,"time_elapsed":420013,"internal_node_id":"0.0-8.0-2.45","subject":"7h5tjraoj9tkeun","sona":"7441"},{"rt":732.1950000186916,"stimulus":"<p>Welche Sequenz haben Sie als natürlicher empfunden?</p>","key_press":74,"test_part":"response","test_stimulus":{"position":0,"left":"bvh/pass-bottle-hold-training2-lines.txt","right":"bvh/vr_prediction_models/model(tmp)-dataset(pass-bottle-hold)-numprim(9)-hold(2)/final-lines.txt","att_check":false},"trial_type":"html-keyboard-response","trial_index":190,"time_elapsed":420753,"internal_node_id":"0.0-8.0-3.45","subject":"7h5tjraoj9tkeun","sona":"7441"},{"rt":540.3700000024401,"stimulus":"<p>Bereit?</p>","key_press":32,"trial_type":"html-keyboard-response","trial_index":191,"time_elapsed":421301,"internal_node_id":"0.0-8.0-0.46","subject":"7h5tjraoj9tkeun","sona":"7441"},{"rt":null,"stimulus":"<div style=\"font-size:60px;\">+</div>","key_press":null,"trial_type":"html-keyboard-response","trial_index":192,"time_elapsed":423306,"internal_node_id":"0.0-8.0-1.46","subject":"7h5tjraoj9tkeun","sona":"7441"},{"trial_type":"turing-test","trial_index":193,"time_elapsed":429173,"internal_node_id":"0.0-8.0-2.46","subject":"7h5tjraoj9tkeun","sona":"7441"},{"rt":310.25000000954606,"stimulus":"<p>Welche Sequenz haben Sie als natürlicher empfunden?</p>","key_press":74,"test_part":"response","test_stimulus":{"position":1,"left":"bvh/vr_prediction_models/model(vcgpdm)-dataset(return-bottle)-mode(ELBO)-parts(3)-dyn(20)-lvm(35)-hold(4)/final-lines.txt","right":"bvh/return-bottle-training4-lines.txt","att_check":false},"trial_type":"html-keyboard-response","trial_index":194,"time_elapsed":429488,"internal_node_id":"0.0-8.0-3.46","subject":"7h5tjraoj9tkeun","sona":"7441"},{"rt":387.5150000094436,"stimulus":"<p>Bereit?</p>","key_press":32,"trial_type":"html-keyboard-response","trial_index":195,"time_elapsed":429883,"internal_node_id":"0.0-8.0-0.47","subject":"7h5tjraoj9tkeun","sona":"7441"},{"rt":null,"stimulus":"<div style=\"font-size:60px;\">+</div>","key_press":null,"trial_type":"html-keyboard-response","trial_index":196,"time_elapsed":431887,"internal_node_id":"0.0-8.0-1.47","subject":"7h5tjraoj9tkeun","sona":"7441"},{"trial_type":"turing-test","trial_index":197,"time_elapsed":437902,"internal_node_id":"0.0-8.0-2.47","subject":"7h5tjraoj9tkeun","sona":"7441"},{"rt":0.3650000144261867,"stimulus":"<p>Welche Sequenz haben Sie als natürlicher empfunden?</p>","key_press":74,"test_part":"response","test_stimulus":{"position":1,"left":"bvh/vr_prediction_models/model(vcgpdm)-dataset(pass-bottle)-mode(ELBO)-parts(1)-dyn(20)-lvm(5)-hold(3)/final-lines.txt","right":"bvh/pass-bottle-training3-lines.txt","att_check":false},"trial_type":"html-keyboard-response","trial_index":198,"time_elapsed":437919,"internal_node_id":"0.0-8.0-3.47","subject":"7h5tjraoj9tkeun","sona":"7441"},{"rt":1226.0449999885168,"stimulus":"<p>Bereit?</p>","key_press":32,"trial_type":"html-keyboard-response","trial_index":199,"time_elapsed":439163,"internal_node_id":"0.0-8.0-0.48","subject":"7h5tjraoj9tkeun","sona":"7441"},{"rt":null,"stimulus":"<div style=\"font-size:60px;\">+</div>","key_press":null,"trial_type":"html-keyboard-response","trial_index":200,"time_elapsed":441173,"internal_node_id":"0.0-8.0-1.48","subject":"7h5tjraoj9tkeun","sona":"7441"},{"trial_type":"turing-test","trial_index":201,"time_elapsed":447841,"internal_node_id":"0.0-8.0-2.48","subject":"7h5tjraoj9tkeun","sona":"7441"},{"rt":339.2849999945611,"stimulus":"<p>Welche Sequenz haben Sie als natürlicher empfunden?</p>","key_press":74,"test_part":"response","test_stimulus":{"position":0,"left":"bvh/pass-bottle-training0-lines.txt","right":"bvh/vr_prediction_models/model(vcgpdm)-dataset(pass-bottle)-mode(ELBO)-parts(1)-dyn(20)-lvm(5)-hold(0)/final-lines.txt","att_check":false},"trial_type":"html-keyboard-response","trial_index":202,"time_elapsed":448203,"internal_node_id":"0.0-8.0-3.48","subject":"7h5tjraoj9tkeun","sona":"7441"},{"rt":398.35499998298474,"stimulus":"<p>Bereit?</p>","key_press":32,"trial_type":"html-keyboard-response","trial_index":203,"time_elapsed":448614,"internal_node_id":"0.0-8.0-0.49","subject":"7h5tjraoj9tkeun","sona":"7441"},{"rt":null,"stimulus":"<div style=\"font-size:60px;\">+</div>","key_press":null,"trial_type":"html-keyboard-response","trial_index":204,"time_elapsed":450646,"internal_node_id":"0.0-8.0-1.49","subject":"7h5tjraoj9tkeun","sona":"7441"},{"trial_type":"turing-test","trial_index":205,"time_elapsed":454147,"internal_node_id":"0.0-8.0-2.49","subject":"7h5tjraoj9tkeun","sona":"7441"},{"rt":1069.870000006631,"stimulus":"<p>Welche Sequenz haben Sie als natürlicher empfunden?</p>","key_press":74,"test_part":"response","test_stimulus":{"position":1,"left":"bvh/vr_prediction_models/model(vcgpdm)-dataset(return-bottle-hold)-mode(ELBO)-parts(1)-dyn(20)-lvm(20)-hold(2)/final-lines.txt","right":"bvh/return-bottle-hold-training2-lines.txt","att_check":false},"trial_type":"html-keyboard-response","trial_index":206,"time_elapsed":455231,"internal_node_id":"0.0-8.0-3.49","subject":"7h5tjraoj9tkeun","sona":"7441"},{"rt":496.1699999985285,"stimulus":"<p>Bereit?</p>","key_press":32,"trial_type":"html-keyboard-response","trial_index":207,"time_elapsed":455735,"internal_node_id":"0.0-8.0-0.50","subject":"7h5tjraoj9tkeun","sona":"7441"},{"rt":null,"stimulus":"<div style=\"font-size:60px;\">+</div>","key_press":null,"trial_type":"html-keyboard-response","trial_index":208,"time_elapsed":457746,"internal_node_id":"0.0-8.0-1.50","subject":"7h5tjraoj9tkeun","sona":"7441"},{"trial_type":"turing-test","trial_index":209,"time_elapsed":463484,"internal_node_id":"0.0-8.0-2.50","subject":"7h5tjraoj9tkeun","sona":"7441"},{"rt":362.3049999878276,"stimulus":"<p>Welche Sequenz haben Sie als natürlicher empfunden?</p>","key_press":74,"test_part":"response","test_stimulus":{"position":1,"left":"bvh/vr_prediction_models/model(dmp)-dataset(return-bottle)-npsi(50)-hold(3)/final-lines.txt","right":"bvh/return-bottle-training3-lines.txt","att_check":false},"trial_type":"html-keyboard-response","trial_index":210,"time_elapsed":463856,"internal_node_id":"0.0-8.0-3.50","subject":"7h5tjraoj9tkeun","sona":"7441"},{"rt":429.0400000172667,"stimulus":"<p>Bereit?</p>","key_press":32,"trial_type":"html-keyboard-response","trial_index":211,"time_elapsed":464292,"internal_node_id":"0.0-8.0-0.51","subject":"7h5tjraoj9tkeun","sona":"7441"},{"rt":null,"stimulus":"<div style=\"font-size:60px;\">+</div>","key_press":null,"trial_type":"html-keyboard-response","trial_index":212,"time_elapsed":466313,"internal_node_id":"0.0-8.0-1.51","subject":"7h5tjraoj9tkeun","sona":"7441"},{"trial_type":"turing-test","trial_index":213,"time_elapsed":469822,"internal_node_id":"0.0-8.0-2.51","subject":"7h5tjraoj9tkeun","sona":"7441"},{"rt":850.8750000037253,"stimulus":"<p>Welche Sequenz haben Sie als natürlicher empfunden?</p>","key_press":70,"test_part":"response","test_stimulus":{"position":0,"left":"bvh/pass-bottle-hold-training4-lines.txt","right":"bvh/vr_prediction_models/model(dmp)-dataset(pass-bottle-hold)-npsi(70)-hold(4)/final-lines.txt","att_check":false},"trial_type":"html-keyboard-response","trial_index":214,"time_elapsed":470683,"internal_node_id":"0.0-8.0-3.51","subject":"7h5tjraoj9tkeun","sona":"7441"},{"rt":280.05999999004416,"stimulus":"<p>Bereit?</p>","key_press":32,"trial_type":"html-keyboard-response","trial_index":215,"time_elapsed":470974,"internal_node_id":"0.0-8.0-0.52","subject":"7h5tjraoj9tkeun","sona":"7441"},{"rt":null,"stimulus":"<div style=\"font-size:60px;\">+</div>","key_press":null,"trial_type":"html-keyboard-response","trial_index":216,"time_elapsed":472987,"internal_node_id":"0.0-8.0-1.52","subject":"7h5tjraoj9tkeun","sona":"7441"},{"trial_type":"turing-test","trial_index":217,"time_elapsed":476608,"internal_node_id":"0.0-8.0-2.52","subject":"7h5tjraoj9tkeun","sona":"7441"},{"rt":297.2050000098534,"stimulus":"<p>Welche Sequenz haben Sie als natürlicher empfunden?</p>","key_press":74,"test_part":"response","test_stimulus":{"position":0,"left":"bvh/pass-bottle-hold-training3-lines.txt","right":"bvh/vr_prediction_models/model(vcgpdm)-dataset(pass-bottle-hold)-mode(ELBO)-parts(1)-dyn(20)-lvm(20)-hold(3)/final-lines.txt","att_check":false},"trial_type":"html-keyboard-response","trial_index":218,"time_elapsed":476916,"internal_node_id":"0.0-8.0-3.52","subject":"7h5tjraoj9tkeun","sona":"7441"},{"rt":302.319999987958,"stimulus":"<p>Bereit?</p>","key_press":32,"trial_type":"html-keyboard-response","trial_index":219,"time_elapsed":477243,"internal_node_id":"0.0-8.0-0.53","subject":"7h5tjraoj9tkeun","sona":"7441"},{"rt":null,"stimulus":"<div style=\"font-size:60px;\">+</div>","key_press":null,"trial_type":"html-keyboard-response","trial_index":220,"time_elapsed":479251,"internal_node_id":"0.0-8.0-1.53","subject":"7h5tjraoj9tkeun","sona":"7441"},{"trial_type":"turing-test","trial_index":221,"time_elapsed":485083,"internal_node_id":"0.0-8.0-2.53","subject":"7h5tjraoj9tkeun","sona":"7441"},{"rt":502.58000000030734,"stimulus":"<p>Welche Sequenz haben Sie als natürlicher empfunden?</p>","key_press":74,"test_part":"response","test_stimulus":{"position":0,"left":"bvh/return-bottle-training4-lines.txt","right":"bvh/vr_prediction_models/model(vcgpdm)-dataset(return-bottle)-mode(ELBO)-parts(1)-dyn(20)-lvm(5)-hold(4)/final-lines.txt","att_check":false},"trial_type":"html-keyboard-response","trial_index":222,"time_elapsed":485607,"internal_node_id":"0.0-8.0-3.53","subject":"7h5tjraoj9tkeun","sona":"7441"},{"rt":339.11000000080094,"stimulus":"<p>Bereit?</p>","key_press":32,"trial_type":"html-keyboard-response","trial_index":223,"time_elapsed":485974,"internal_node_id":"0.0-8.0-0.54","subject":"7h5tjraoj9tkeun","sona":"7441"},{"rt":null,"stimulus":"<div style=\"font-size:60px;\">+</div>","key_press":null,"trial_type":"html-keyboard-response","trial_index":224,"time_elapsed":487985,"internal_node_id":"0.0-8.0-1.54","subject":"7h5tjraoj9tkeun","sona":"7441"},{"trial_type":"turing-test","trial_index":225,"time_elapsed":491464,"internal_node_id":"0.0-8.0-2.54","subject":"7h5tjraoj9tkeun","sona":"7441"},{"rt":342.9949999845121,"stimulus":"<p>Welche Sequenz haben Sie als natürlicher empfunden?</p>","key_press":70,"test_part":"response","test_stimulus":{"position":0,"left":"bvh/return-bottle-hold-training2-lines.txt","right":"bvh/vr_prediction_models/model(dmp)-dataset(return-bottle-hold)-npsi(40)-hold(2)/final-lines.txt","att_check":false},"trial_type":"html-keyboard-response","trial_index":226,"time_elapsed":491832,"internal_node_id":"0.0-8.0-3.54","subject":"7h5tjraoj9tkeun","sona":"7441"},{"rt":247.56499999784864,"stimulus":"<p>Bereit?</p>","key_press":32,"trial_type":"html-keyboard-response","trial_index":227,"time_elapsed":492105,"internal_node_id":"0.0-8.0-0.55","subject":"7h5tjraoj9tkeun","sona":"7441"},{"rt":null,"stimulus":"<div style=\"font-size:60px;\">+</div>","key_press":null,"trial_type":"html-keyboard-response","trial_index":228,"time_elapsed":494114,"internal_node_id":"0.0-8.0-1.55","subject":"7h5tjraoj9tkeun","sona":"7441"},{"trial_type":"turing-test","trial_index":229,"time_elapsed":497793,"internal_node_id":"0.0-8.0-2.55","subject":"7h5tjraoj9tkeun","sona":"7441"},{"rt":646.0800000058953,"stimulus":"<p>Welche Sequenz haben Sie als natürlicher empfunden?</p>","key_press":74,"test_part":"response","test_stimulus":{"position":1,"left":"bvh/vr_prediction_models/model(dmp)-dataset(pass-bottle-hold)-npsi(50)-hold(3)/final-lines.txt","right":"bvh/pass-bottle-hold-training3-lines.txt","att_check":true},"trial_type":"html-keyboard-response","trial_index":230,"time_elapsed":498463,"internal_node_id":"0.0-8.0-3.55","subject":"7h5tjraoj9tkeun","sona":"7441"},{"rt":352.53000000375323,"stimulus":"<p>Bereit?</p>","key_press":32,"trial_type":"html-keyboard-response","trial_index":231,"time_elapsed":498830,"internal_node_id":"0.0-8.0-0.56","subject":"7h5tjraoj9tkeun","sona":"7441"},{"rt":null,"stimulus":"<div style=\"font-size:60px;\">+</div>","key_press":null,"trial_type":"html-keyboard-response","trial_index":232,"time_elapsed":500846,"internal_node_id":"0.0-8.0-1.56","subject":"7h5tjraoj9tkeun","sona":"7441"},{"trial_type":"turing-test","trial_index":233,"time_elapsed":504588,"internal_node_id":"0.0-8.0-2.56","subject":"7h5tjraoj9tkeun","sona":"7441"},{"rt":459.4300000171643,"stimulus":"<p>Welche Sequenz haben Sie als natürlicher empfunden?</p>","key_press":70,"test_part":"response","test_stimulus":{"position":0,"left":"bvh/return-bottle-hold-training3-lines.txt","right":"bvh/vr_prediction_models/model(vcgpdm)-dataset(return-bottle-hold)-mode(ELBO)-parts(1)-dyn(35)-lvm(10)-hold(3)/final-lines.txt","att_check":false},"trial_type":"html-keyboard-response","trial_index":234,"time_elapsed":505058,"internal_node_id":"0.0-8.0-3.56","subject":"7h5tjraoj9tkeun","sona":"7441"},{"rt":888.0050000152551,"stimulus":"<p>Bereit?</p>","key_press":32,"trial_type":"html-keyboard-response","trial_index":235,"time_elapsed":505959,"internal_node_id":"0.0-8.0-0.57","subject":"7h5tjraoj9tkeun","sona":"7441"},{"rt":null,"stimulus":"<div style=\"font-size:60px;\">+</div>","key_press":null,"trial_type":"html-keyboard-response","trial_index":236,"time_elapsed":507981,"internal_node_id":"0.0-8.0-1.57","subject":"7h5tjraoj9tkeun","sona":"7441"},{"trial_type":"turing-test","trial_index":237,"time_elapsed":513504,"internal_node_id":"0.0-8.0-2.57","subject":"7h5tjraoj9tkeun","sona":"7441"},{"rt":338.2350000028964,"stimulus":"<p>Welche Sequenz haben Sie als natürlicher empfunden?</p>","key_press":70,"test_part":"response","test_stimulus":{"position":0,"left":"bvh/pass-bottle-training1-lines.txt","right":"bvh/vr_prediction_models/model(vcgpdm)-dataset(pass-bottle)-mode(ELBO)-parts(1)-dyn(10)-lvm(5)-hold(1)/final-lines.txt","att_check":false},"trial_type":"html-keyboard-response","trial_index":238,"time_elapsed":513853,"internal_node_id":"0.0-8.0-3.57","subject":"7h5tjraoj9tkeun","sona":"7441"},{"rt":324.5149999856949,"stimulus":"<p>Bereit?</p>","key_press":32,"trial_type":"html-keyboard-response","trial_index":239,"time_elapsed":514185,"internal_node_id":"0.0-8.0-0.58","subject":"7h5tjraoj9tkeun","sona":"7441"},{"rt":null,"stimulus":"<div style=\"font-size:60px;\">+</div>","key_press":null,"trial_type":"html-keyboard-response","trial_index":240,"time_elapsed":516206,"internal_node_id":"0.0-8.0-1.58","subject":"7h5tjraoj9tkeun","sona":"7441"},{"trial_type":"turing-test","trial_index":241,"time_elapsed":522077,"internal_node_id":"0.0-8.0-2.58","subject":"7h5tjraoj9tkeun","sona":"7441"},{"rt":409.6049999934621,"stimulus":"<p>Welche Sequenz haben Sie als natürlicher empfunden?</p>","key_press":70,"test_part":"response","test_stimulus":{"position":0,"left":"bvh/pass-bottle-training4-lines.txt","right":"bvh/vr_prediction_models/model(dmp)-dataset(pass-bottle)-npsi(80)-hold(4)/final-lines.txt","att_check":false},"trial_type":"html-keyboard-response","trial_index":242,"time_elapsed":522505,"internal_node_id":"0.0-8.0-3.58","subject":"7h5tjraoj9tkeun","sona":"7441"},{"rt":349.48000000440516,"stimulus":"<p>Bereit?</p>","key_press":32,"trial_type":"html-keyboard-response","trial_index":243,"time_elapsed":522867,"internal_node_id":"0.0-8.0-0.59","subject":"7h5tjraoj9tkeun","sona":"7441"},{"rt":null,"stimulus":"<div style=\"font-size:60px;\">+</div>","key_press":null,"trial_type":"html-keyboard-response","trial_index":244,"time_elapsed":524876,"internal_node_id":"0.0-8.0-1.59","subject":"7h5tjraoj9tkeun","sona":"7441"},{"trial_type":"turing-test","trial_index":245,"time_elapsed":530781,"internal_node_id":"0.0-8.0-2.59","subject":"7h5tjraoj9tkeun","sona":"7441"},{"rt":405.9700000216253,"stimulus":"<p>Welche Sequenz haben Sie als natürlicher empfunden?</p>","key_press":70,"test_part":"response","test_stimulus":{"position":0,"left":"bvh/return-bottle-training4-lines.txt","right":"bvh/vr_prediction_models/model(vcgpdm)-dataset(return-bottle)-mode(ELBO)-parts(1)-dyn(20)-lvm(30)-hold(4)/final-lines.txt","att_check":false},"trial_type":"html-keyboard-response","trial_index":246,"time_elapsed":531201,"internal_node_id":"0.0-8.0-3.59","subject":"7h5tjraoj9tkeun","sona":"7441"},{"rt":290.44000001158565,"stimulus":"<p>Bereit?</p>","key_press":32,"trial_type":"html-keyboard-response","trial_index":247,"time_elapsed":531507,"internal_node_id":"0.0-8.0-0.60","subject":"7h5tjraoj9tkeun","sona":"7441"},{"rt":null,"stimulus":"<div style=\"font-size:60px;\">+</div>","key_press":null,"trial_type":"html-keyboard-response","trial_index":248,"time_elapsed":533524,"internal_node_id":"0.0-8.0-1.60","subject":"7h5tjraoj9tkeun","sona":"7441"},{"trial_type":"turing-test","trial_index":249,"time_elapsed":537263,"internal_node_id":"0.0-8.0-2.60","subject":"7h5tjraoj9tkeun","sona":"7441"},{"rt":508.43499999609776,"stimulus":"<p>Welche Sequenz haben Sie als natürlicher empfunden?</p>","key_press":70,"test_part":"response","test_stimulus":{"position":1,"left":"bvh/vr_prediction_models/model(vcgpdm)-dataset(return-bottle-hold)-mode(ELBO)-parts(1)-dyn(25)-lvm(35)-hold(3)/final-lines.txt","right":"bvh/return-bottle-hold-training3-lines.txt","att_check":false},"trial_type":"html-keyboard-response","trial_index":250,"time_elapsed":537785,"internal_node_id":"0.0-8.0-3.60","subject":"7h5tjraoj9tkeun","sona":"7441"},{"rt":279.27500000805594,"stimulus":"<p>Bereit?</p>","key_press":32,"trial_type":"html-keyboard-response","trial_index":251,"time_elapsed":538078,"internal_node_id":"0.0-8.0-0.61","subject":"7h5tjraoj9tkeun","sona":"7441"},{"rt":null,"stimulus":"<div style=\"font-size:60px;\">+</div>","key_press":null,"trial_type":"html-keyboard-response","trial_index":252,"time_elapsed":540086,"internal_node_id":"0.0-8.0-1.61","subject":"7h5tjraoj9tkeun","sona":"7441"},{"trial_type":"turing-test","trial_index":253,"time_elapsed":545407,"internal_node_id":"0.0-8.0-2.61","subject":"7h5tjraoj9tkeun","sona":"7441"},{"rt":485.23500000010245,"stimulus":"<p>Welche Sequenz haben Sie als natürlicher empfunden?</p>","key_press":70,"test_part":"response","test_stimulus":{"position":0,"left":"bvh/pass-bottle-training1-lines.txt","right":"bvh/vr_prediction_models/model(dmp)-dataset(pass-bottle)-npsi(30)-hold(1)/final-lines.txt","att_check":false},"trial_type":"html-keyboard-response","trial_index":254,"time_elapsed":545907,"internal_node_id":"0.0-8.0-3.61","subject":"7h5tjraoj9tkeun","sona":"7441"},{"rt":295.6899999990128,"stimulus":"<p>Bereit?</p>","key_press":32,"trial_type":"html-keyboard-response","trial_index":255,"time_elapsed":546212,"internal_node_id":"0.0-8.0-0.62","subject":"7h5tjraoj9tkeun","sona":"7441"},{"rt":null,"stimulus":"<div style=\"font-size:60px;\">+</div>","key_press":null,"trial_type":"html-keyboard-response","trial_index":256,"time_elapsed":548229,"internal_node_id":"0.0-8.0-1.62","subject":"7h5tjraoj9tkeun","sona":"7441"},{"trial_type":"turing-test","trial_index":257,"time_elapsed":554036,"internal_node_id":"0.0-8.0-2.62","subject":"7h5tjraoj9tkeun","sona":"7441"},{"rt":301.60000000614673,"stimulus":"<p>Welche Sequenz haben Sie als natürlicher empfunden?</p>","key_press":70,"test_part":"response","test_stimulus":{"position":0,"left":"bvh/return-bottle-training4-lines.txt","right":"bvh/vr_prediction_models/model(tmp)-dataset(return-bottle)-numprim(4)-hold(4)/final-lines.txt","att_check":false},"trial_type":"html-keyboard-response","trial_index":258,"time_elapsed":554357,"internal_node_id":"0.0-8.0-3.62","subject":"7h5tjraoj9tkeun","sona":"7441"},{"rt":251.54500000644475,"stimulus":"<p>Bereit?</p>","key_press":32,"trial_type":"html-keyboard-response","trial_index":259,"time_elapsed":554621,"internal_node_id":"0.0-8.0-0.63","subject":"7h5tjraoj9tkeun","sona":"7441"},{"rt":null,"stimulus":"<div style=\"font-size:60px;\">+</div>","key_press":null,"trial_type":"html-keyboard-response","trial_index":260,"time_elapsed":556625,"internal_node_id":"0.0-8.0-1.63","subject":"7h5tjraoj9tkeun","sona":"7441"},{"trial_type":"turing-test","trial_index":261,"time_elapsed":560240,"internal_node_id":"0.0-8.0-2.63","subject":"7h5tjraoj9tkeun","sona":"7441"},{"rt":652.0899999886751,"stimulus":"<p>Welche Sequenz haben Sie als natürlicher empfunden?</p>","key_press":70,"test_part":"response","test_stimulus":{"position":0,"left":"bvh/pass-bottle-hold-training3-lines.txt","right":"bvh/vr_prediction_models/model(tmp)-dataset(pass-bottle-hold)-numprim(11)-hold(3)/final-lines.txt","att_check":false},"trial_type":"html-keyboard-response","trial_index":262,"time_elapsed":560898,"internal_node_id":"0.0-8.0-3.63","subject":"7h5tjraoj9tkeun","sona":"7441"},{"rt":256.28999999025837,"stimulus":"<p>Bereit?</p>","key_press":32,"trial_type":"html-keyboard-response","trial_index":263,"time_elapsed":561168,"internal_node_id":"0.0-8.0-0.64","subject":"7h5tjraoj9tkeun","sona":"7441"},{"rt":null,"stimulus":"<div style=\"font-size:60px;\">+</div>","key_press":null,"trial_type":"html-keyboard-response","trial_index":264,"time_elapsed":563174,"internal_node_id":"0.0-8.0-1.64","subject":"7h5tjraoj9tkeun","sona":"7441"},{"trial_type":"turing-test","trial_index":265,"time_elapsed":568616,"internal_node_id":"0.0-8.0-2.64","subject":"7h5tjraoj9tkeun","sona":"7441"},{"rt":400.7899999851361,"stimulus":"<p>Welche Sequenz haben Sie als natürlicher empfunden?</p>","key_press":70,"test_part":"response","test_stimulus":{"position":0,"left":"bvh/pass-bottle-training1-lines.txt","right":"bvh/vr_prediction_models/model(dmp)-dataset(pass-bottle)-npsi(80)-hold(1)/final-lines.txt","att_check":false},"trial_type":"html-keyboard-response","trial_index":266,"time_elapsed":569031,"internal_node_id":"0.0-8.0-3.64","subject":"7h5tjraoj9tkeun","sona":"7441"},{"rt":289.4300000043586,"stimulus":"<p>Bereit?</p>","key_press":32,"trial_type":"html-keyboard-response","trial_index":267,"time_elapsed":569328,"internal_node_id":"0.0-8.0-0.65","subject":"7h5tjraoj9tkeun","sona":"7441"},{"rt":null,"stimulus":"<div style=\"font-size:60px;\">+</div>","key_press":null,"trial_type":"html-keyboard-response","trial_index":268,"time_elapsed":571338,"internal_node_id":"0.0-8.0-1.65","subject":"7h5tjraoj9tkeun","sona":"7441"},{"trial_type":"turing-test","trial_index":269,"time_elapsed":577202,"internal_node_id":"0.0-8.0-2.65","subject":"7h5tjraoj9tkeun","sona":"7441"},{"rt":442.1349999902304,"stimulus":"<p>Welche Sequenz haben Sie als natürlicher empfunden?</p>","key_press":74,"test_part":"response","test_stimulus":{"position":1,"left":"bvh/vr_prediction_models/model(dmp)-dataset(return-bottle)-npsi(100)-hold(4)/final-lines.txt","right":"bvh/return-bottle-training4-lines.txt","att_check":false},"trial_type":"html-keyboard-response","trial_index":270,"time_elapsed":577655,"internal_node_id":"0.0-8.0-3.65","subject":"7h5tjraoj9tkeun","sona":"7441"},{"rt":3171.249999984866,"stimulus":"<p>Bereit?</p>","key_press":32,"trial_type":"html-keyboard-response","trial_index":271,"time_elapsed":580838,"internal_node_id":"0.0-8.0-0.66","subject":"7h5tjraoj9tkeun","sona":"7441"},{"rt":null,"stimulus":"<div style=\"font-size:60px;\">+</div>","key_press":null,"trial_type":"html-keyboard-response","trial_index":272,"time_elapsed":582855,"internal_node_id":"0.0-8.0-1.66","subject":"7h5tjraoj9tkeun","sona":"7441"},{"trial_type":"turing-test","trial_index":273,"time_elapsed":586503,"internal_node_id":"0.0-8.0-2.66","subject":"7h5tjraoj9tkeun","sona":"7441"},{"rt":336.0500000126194,"stimulus":"<p>Welche Sequenz haben Sie als natürlicher empfunden?</p>","key_press":70,"test_part":"response","test_stimulus":{"position":0,"left":"bvh/pass-bottle-hold-training4-lines.txt","right":"bvh/vr_prediction_models/model(dmp)-dataset(pass-bottle-hold)-npsi(40)-hold(4)/final-lines.txt","att_check":false},"trial_type":"html-keyboard-response","trial_index":274,"time_elapsed":586848,"internal_node_id":"0.0-8.0-3.66","subject":"7h5tjraoj9tkeun","sona":"7441"},{"rt":262.72999998764135,"stimulus":"<p>Bereit?</p>","key_press":32,"trial_type":"html-keyboard-response","trial_index":275,"time_elapsed":587115,"internal_node_id":"0.0-8.0-0.67","subject":"7h5tjraoj9tkeun","sona":"7441"},{"rt":null,"stimulus":"<div style=\"font-size:60px;\">+</div>","key_press":null,"trial_type":"html-keyboard-response","trial_index":276,"time_elapsed":589126,"internal_node_id":"0.0-8.0-1.67","subject":"7h5tjraoj9tkeun","sona":"7441"},{"trial_type":"turing-test","trial_index":277,"time_elapsed":592725,"internal_node_id":"0.0-8.0-2.67","subject":"7h5tjraoj9tkeun","sona":"7441"},{"rt":348.72499998891726,"stimulus":"<p>Welche Sequenz haben Sie als natürlicher empfunden?</p>","key_press":70,"test_part":"response","test_stimulus":{"position":0,"left":"bvh/return-bottle-hold-training3-lines.txt","right":"bvh/vr_prediction_models/model(dmp)-dataset(return-bottle-hold)-npsi(10)-hold(3)/final-lines.txt","att_check":false},"trial_type":"html-keyboard-response","trial_index":278,"time_elapsed":593082,"internal_node_id":"0.0-8.0-3.67","subject":"7h5tjraoj9tkeun","sona":"7441"},{"rt":299.910000001546,"stimulus":"<p>Bereit?</p>","key_press":32,"trial_type":"html-keyboard-response","trial_index":279,"time_elapsed":593389,"internal_node_id":"0.0-8.0-0.68","subject":"7h5tjraoj9tkeun","sona":"7441"},{"rt":null,"stimulus":"<div style=\"font-size:60px;\">+</div>","key_press":null,"trial_type":"html-keyboard-response","trial_index":280,"time_elapsed":595396,"internal_node_id":"0.0-8.0-1.68","subject":"7h5tjraoj9tkeun","sona":"7441"},{"trial_type":"turing-test","trial_index":281,"time_elapsed":598832,"internal_node_id":"0.0-8.0-2.68","subject":"7h5tjraoj9tkeun","sona":"7441"},{"rt":309.71000000135973,"stimulus":"<p>Welche Sequenz haben Sie als natürlicher empfunden?</p>","key_press":70,"test_part":"response","test_stimulus":{"position":1,"left":"bvh/vr_prediction_models/model(vcgpdm)-dataset(return-bottle-hold)-mode(ELBO)-parts(3)-dyn(20)-lvm(15)-hold(1)/final-lines.txt","right":"bvh/return-bottle-hold-training1-lines.txt","att_check":false},"trial_type":"html-keyboard-response","trial_index":282,"time_elapsed":599153,"internal_node_id":"0.0-8.0-3.68","subject":"7h5tjraoj9tkeun","sona":"7441"},{"rt":280.91499998117797,"stimulus":"<p>Bereit?</p>","key_press":32,"trial_type":"html-keyboard-response","trial_index":283,"time_elapsed":599438,"internal_node_id":"0.0-8.0-0.69","subject":"7h5tjraoj9tkeun","sona":"7441"},{"rt":null,"stimulus":"<div style=\"font-size:60px;\">+</div>","key_press":null,"trial_type":"html-keyboard-response","trial_index":284,"time_elapsed":601453,"internal_node_id":"0.0-8.0-1.69","subject":"7h5tjraoj9tkeun","sona":"7441"},{"trial_type":"turing-test","trial_index":285,"time_elapsed":607365,"internal_node_id":"0.0-8.0-2.69","subject":"7h5tjraoj9tkeun","sona":"7441"},{"rt":582.269999984419,"stimulus":"<p>Welche Sequenz haben Sie als natürlicher empfunden?</p>","key_press":70,"test_part":"response","test_stimulus":{"position":1,"left":"bvh/vr_prediction_models/model(vcgpdm)-dataset(return-bottle)-mode(ELBO)-parts(3)-dyn(25)-lvm(30)-hold(3)/final-lines.txt","right":"bvh/return-bottle-training3-lines.txt","att_check":false},"trial_type":"html-keyboard-response","trial_index":286,"time_elapsed":607956,"internal_node_id":"0.0-8.0-3.69","subject":"7h5tjraoj9tkeun","sona":"7441"},{"rt":264.69000001088716,"stimulus":"<p>Bereit?</p>","key_press":32,"trial_type":"html-keyboard-response","trial_index":287,"time_elapsed":608228,"internal_node_id":"0.0-8.0-0.70","subject":"7h5tjraoj9tkeun","sona":"7441"},{"rt":null,"stimulus":"<div style=\"font-size:60px;\">+</div>","key_press":null,"trial_type":"html-keyboard-response","trial_index":288,"time_elapsed":610238,"internal_node_id":"0.0-8.0-1.70","subject":"7h5tjraoj9tkeun","sona":"7441"},{"trial_type":"turing-test","trial_index":289,"time_elapsed":613840,"internal_node_id":"0.0-8.0-2.70","subject":"7h5tjraoj9tkeun","sona":"7441"},{"rt":444.84499999089167,"stimulus":"<p>Welche Sequenz haben Sie als natürlicher empfunden?</p>","key_press":74,"test_part":"response","test_stimulus":{"position":0,"left":"bvh/pass-bottle-hold-training4-lines.txt","right":"bvh/vr_prediction_models/model(tmp)-dataset(pass-bottle-hold)-numprim(10)-hold(4)/final-lines.txt","att_check":false},"trial_type":"html-keyboard-response","trial_index":290,"time_elapsed":614295,"internal_node_id":"0.0-8.0-3.70","subject":"7h5tjraoj9tkeun","sona":"7441"},{"rt":344.03500001644716,"stimulus":"<p>Bereit?</p>","key_press":32,"trial_type":"html-keyboard-response","trial_index":291,"time_elapsed":614649,"internal_node_id":"0.0-8.0-0.71","subject":"7h5tjraoj9tkeun","sona":"7441"},{"rt":null,"stimulus":"<div style=\"font-size:60px;\">+</div>","key_press":null,"trial_type":"html-keyboard-response","trial_index":292,"time_elapsed":616663,"internal_node_id":"0.0-8.0-1.71","subject":"7h5tjraoj9tkeun","sona":"7441"},{"trial_type":"turing-test","trial_index":293,"time_elapsed":622852,"internal_node_id":"0.0-8.0-2.71","subject":"7h5tjraoj9tkeun","sona":"7441"},{"rt":306.10000001615845,"stimulus":"<p>Welche Sequenz haben Sie als natürlicher empfunden?</p>","key_press":70,"test_part":"response","test_stimulus":{"position":0,"left":"bvh/pass-bottle-training3-lines.txt","right":"bvh/vr_prediction_models/model(vcgpdm)-dataset(pass-bottle)-mode(ELBO)-parts(1)-dyn(20)-lvm(30)-hold(3)/final-lines.txt","att_check":false},"trial_type":"html-keyboard-response","trial_index":294,"time_elapsed":623167,"internal_node_id":"0.0-8.0-3.71","subject":"7h5tjraoj9tkeun","sona":"7441"},{"rt":314.200000022538,"stimulus":"<p>Bereit?</p>","key_press":32,"trial_type":"html-keyboard-response","trial_index":295,"time_elapsed":623489,"internal_node_id":"0.0-8.0-0.72","subject":"7h5tjraoj9tkeun","sona":"7441"},{"rt":null,"stimulus":"<div style=\"font-size:60px;\">+</div>","key_press":null,"trial_type":"html-keyboard-response","trial_index":296,"time_elapsed":625496,"internal_node_id":"0.0-8.0-1.72","subject":"7h5tjraoj9tkeun","sona":"7441"},{"trial_type":"turing-test","trial_index":297,"time_elapsed":631250,"internal_node_id":"0.0-8.0-2.72","subject":"7h5tjraoj9tkeun","sona":"7441"},{"rt":433.9099999924656,"stimulus":"<p>Welche Sequenz haben Sie als natürlicher empfunden?</p>","key_press":74,"test_part":"response","test_stimulus":{"position":1,"left":"bvh/vr_prediction_models/model(dmp)-dataset(pass-bottle)-npsi(40)-hold(3)/final-lines.txt","right":"bvh/pass-bottle-training3-lines.txt","att_check":false},"trial_type":"html-keyboard-response","trial_index":298,"time_elapsed":631695,"internal_node_id":"0.0-8.0-3.72","subject":"7h5tjraoj9tkeun","sona":"7441"},{"rt":343.61000001081266,"stimulus":"<p>Bereit?</p>","key_press":32,"trial_type":"html-keyboard-response","trial_index":299,"time_elapsed":632050,"internal_node_id":"0.0-8.0-0.73","subject":"7h5tjraoj9tkeun","sona":"7441"},{"rt":null,"stimulus":"<div style=\"font-size:60px;\">+</div>","key_press":null,"trial_type":"html-keyboard-response","trial_index":300,"time_elapsed":634062,"internal_node_id":"0.0-8.0-1.73","subject":"7h5tjraoj9tkeun","sona":"7441"},{"trial_type":"turing-test","trial_index":301,"time_elapsed":637636,"internal_node_id":"0.0-8.0-2.73","subject":"7h5tjraoj9tkeun","sona":"7441"},{"rt":240.25499998242594,"stimulus":"<p>Welche Sequenz haben Sie als natürlicher empfunden?</p>","key_press":70,"test_part":"response","test_stimulus":{"position":1,"left":"bvh/vr_prediction_models/model(dmp)-dataset(pass-bottle-hold)-npsi(80)-hold(3)/final-lines.txt","right":"bvh/pass-bottle-hold-training3-lines.txt","att_check":false},"trial_type":"html-keyboard-response","trial_index":302,"time_elapsed":637897,"internal_node_id":"0.0-8.0-3.73","subject":"7h5tjraoj9tkeun","sona":"7441"},{"rt":243.84499998996034,"stimulus":"<p>Bereit?</p>","key_press":32,"trial_type":"html-keyboard-response","trial_index":303,"time_elapsed":638169,"internal_node_id":"0.0-8.0-0.74","subject":"7h5tjraoj9tkeun","sona":"7441"},{"rt":null,"stimulus":"<div style=\"font-size:60px;\">+</div>","key_press":null,"trial_type":"html-keyboard-response","trial_index":304,"time_elapsed":640174,"internal_node_id":"0.0-8.0-1.74","subject":"7h5tjraoj9tkeun","sona":"7441"},{"trial_type":"turing-test","trial_index":305,"time_elapsed":643852,"internal_node_id":"0.0-8.0-2.74","subject":"7h5tjraoj9tkeun","sona":"7441"},{"rt":296.47500001010485,"stimulus":"<p>Welche Sequenz haben Sie als natürlicher empfunden?</p>","key_press":74,"test_part":"response","test_stimulus":{"position":1,"left":"bvh/vr_prediction_models/model(vcgpdm)-dataset(pass-bottle-hold)-mode(MAP)-parts(3)-hold(4)/final-lines.txt","right":"bvh/pass-bottle-hold-training4-lines.txt","att_check":false},"trial_type":"html-keyboard-response","trial_index":306,"time_elapsed":644170,"internal_node_id":"0.0-8.0-3.74","subject":"7h5tjraoj9tkeun","sona":"7441"},{"rt":265.9099999873433,"stimulus":"<p>Bereit?</p>","key_press":32,"trial_type":"html-keyboard-response","trial_index":307,"time_elapsed":644463,"internal_node_id":"0.0-8.0-0.75","subject":"7h5tjraoj9tkeun","sona":"7441"},{"rt":null,"stimulus":"<div style=\"font-size:60px;\">+</div>","key_press":null,"trial_type":"html-keyboard-response","trial_index":308,"time_elapsed":646471,"internal_node_id":"0.0-8.0-1.75","subject":"7h5tjraoj9tkeun","sona":"7441"},{"trial_type":"turing-test","trial_index":309,"time_elapsed":650022,"internal_node_id":"0.0-8.0-2.75","subject":"7h5tjraoj9tkeun","sona":"7441"},{"rt":267.82000000821427,"stimulus":"<p>Welche Sequenz haben Sie als natürlicher empfunden?</p>","key_press":70,"test_part":"response","test_stimulus":{"position":0,"left":"bvh/pass-bottle-hold-training0-lines.txt","right":"bvh/vr_prediction_models/model(vcgpdm)-dataset(pass-bottle-hold)-mode(ELBO)-parts(1)-dyn(20)-lvm(20)-hold(0)/final-lines.txt","att_check":false},"trial_type":"html-keyboard-response","trial_index":310,"time_elapsed":650303,"internal_node_id":"0.0-8.0-3.75","subject":"7h5tjraoj9tkeun","sona":"7441"},{"rt":182.5599999865517,"stimulus":"<p>Bereit?</p>","key_press":32,"trial_type":"html-keyboard-response","trial_index":311,"time_elapsed":650500,"internal_node_id":"0.0-8.0-0.76","subject":"7h5tjraoj9tkeun","sona":"7441"},{"rt":null,"stimulus":"<div style=\"font-size:60px;\">+</div>","key_press":null,"trial_type":"html-keyboard-response","trial_index":312,"time_elapsed":652504,"internal_node_id":"0.0-8.0-1.76","subject":"7h5tjraoj9tkeun","sona":"7441"},{"trial_type":"turing-test","trial_index":313,"time_elapsed":656045,"internal_node_id":"0.0-8.0-2.76","subject":"7h5tjraoj9tkeun","sona":"7441"},{"rt":271.0450000013225,"stimulus":"<p>Welche Sequenz haben Sie als natürlicher empfunden?</p>","key_press":70,"test_part":"response","test_stimulus":{"position":0,"left":"bvh/pass-bottle-hold-training3-lines.txt","right":"bvh/vr_prediction_models/model(tmp)-dataset(pass-bottle-hold)-numprim(6)-hold(3)/final-lines.txt","att_check":false},"trial_type":"html-keyboard-response","trial_index":314,"time_elapsed":656329,"internal_node_id":"0.0-8.0-3.76","subject":"7h5tjraoj9tkeun","sona":"7441"},{"rt":240.8749999885913,"stimulus":"<p>Bereit?</p>","key_press":32,"trial_type":"html-keyboard-response","trial_index":315,"time_elapsed":656585,"internal_node_id":"0.0-8.0-0.77","subject":"7h5tjraoj9tkeun","sona":"7441"},{"rt":null,"stimulus":"<div style=\"font-size:60px;\">+</div>","key_press":null,"trial_type":"html-keyboard-response","trial_index":316,"time_elapsed":658602,"internal_node_id":"0.0-8.0-1.77","subject":"7h5tjraoj9tkeun","sona":"7441"},{"trial_type":"turing-test","trial_index":317,"time_elapsed":662342,"internal_node_id":"0.0-8.0-2.77","subject":"7h5tjraoj9tkeun","sona":"7441"},{"rt":305.45499999425374,"stimulus":"<p>Welche Sequenz haben Sie als natürlicher empfunden?</p>","key_press":70,"test_part":"response","test_stimulus":{"position":1,"left":"bvh/vr_prediction_models/model(vcgpdm)-dataset(pass-bottle-hold)-mode(ELBO)-parts(1)-dyn(20)-lvm(5)-hold(4)/final-lines.txt","right":"bvh/pass-bottle-hold-training4-lines.txt","att_check":false},"trial_type":"html-keyboard-response","trial_index":318,"time_elapsed":662663,"internal_node_id":"0.0-8.0-3.77","subject":"7h5tjraoj9tkeun","sona":"7441"},{"rt":218.05999998468906,"stimulus":"<p>Bereit?</p>","key_press":32,"trial_type":"html-keyboard-response","trial_index":319,"time_elapsed":662896,"internal_node_id":"0.0-8.0-0.78","subject":"7h5tjraoj9tkeun","sona":"7441"},{"rt":null,"stimulus":"<div style=\"font-size:60px;\">+</div>","key_press":null,"trial_type":"html-keyboard-response","trial_index":320,"time_elapsed":664902,"internal_node_id":"0.0-8.0-1.78","subject":"7h5tjraoj9tkeun","sona":"7441"},{"trial_type":"turing-test","trial_index":321,"time_elapsed":668206,"internal_node_id":"0.0-8.0-2.78","subject":"7h5tjraoj9tkeun","sona":"7441"},{"rt":320.22500000311993,"stimulus":"<p>Welche Sequenz haben Sie als natürlicher empfunden?</p>","key_press":70,"test_part":"response","test_stimulus":{"position":0,"left":"bvh/pass-bottle-hold-training2-lines.txt","right":"bvh/vr_prediction_models/model(tmp)-dataset(pass-bottle-hold)-numprim(10)-hold(2)/final-lines.txt","att_check":false},"trial_type":"html-keyboard-response","trial_index":322,"time_elapsed":668541,"internal_node_id":"0.0-8.0-3.78","subject":"7h5tjraoj9tkeun","sona":"7441"},{"rt":168.59000001568347,"stimulus":"<p>Bereit?</p>","key_press":32,"trial_type":"html-keyboard-response","trial_index":323,"time_elapsed":668726,"internal_node_id":"0.0-8.0-0.79","subject":"7h5tjraoj9tkeun","sona":"7441"},{"rt":null,"stimulus":"<div style=\"font-size:60px;\">+</div>","key_press":null,"trial_type":"html-keyboard-response","trial_index":324,"time_elapsed":670740,"internal_node_id":"0.0-8.0-1.79","subject":"7h5tjraoj9tkeun","sona":"7441"},{"trial_type":"turing-test","trial_index":325,"time_elapsed":676750,"internal_node_id":"0.0-8.0-2.79","subject":"7h5tjraoj9tkeun","sona":"7441"},{"rt":499.47499998961575,"stimulus":"<p>Welche Sequenz haben Sie als natürlicher empfunden?</p>","key_press":74,"test_part":"response","test_stimulus":{"position":1,"left":"bvh/vr_prediction_models/model(dmp)-dataset(return-bottle)-npsi(30)-hold(4)/final-lines.txt","right":"bvh/return-bottle-training4-lines.txt","att_check":false},"trial_type":"html-keyboard-response","trial_index":326,"time_elapsed":677262,"internal_node_id":"0.0-8.0-3.79","subject":"7h5tjraoj9tkeun","sona":"7441"},{"rt":9731.78500001086,"responses":"{\"age\":\"21\",\"gender\":\"weiblich\"}","trial_type":"survey-text","trial_index":327,"time_elapsed":687020,"internal_node_id":"0.0-10.0-0.0","subject":"7h5tjraoj9tkeun","sona":"7441"},{"rt":68383.74499999918,"responses":"{\"area\":\"aud die beine\",\"Q1\":\"an fliegenden bewegungen oder ruckartigen\",\"Q2\":\"wenn das Männchen sich stark bewegt hat und Bewegungen gemacht hat, die nicht möglich sind\"}","trial_type":"survey-text","trial_index":328,"time_elapsed":755438,"internal_node_id":"0.0-10.0-1.0","subject":"7h5tjraoj9tkeun","sona":"7441"}]