[{"rt":4391.025000004447,"stimulus":"<p>Welcome!<br> Please choose your language to start the experiment in the chosen language.</p><p>Willkommen!<br> Bitte wählen Sie eine Sprache, um das Experiment in der ausgewählten Sprache zu starten</p>","button_pressed":"1","trial_type":"html-button-response","trial_index":0,"time_elapsed":4400,"internal_node_id":"0.0-0.0","subject":"w3kjebc1eyhg5tf","sona":"8653"},{"view_history":"[{\"page_index\":0,\"viewing_time\":9521.970000001602},{\"page_index\":1,\"viewing_time\":5663.6600000056205},{\"page_index\":2,\"viewing_time\":9203.785000005155},{\"page_index\":3,\"viewing_time\":7061.074999990524},{\"page_index\":4,\"viewing_time\":4975.455000007059}]","rt":36427.06500001077,"trial_type":"instructions","trial_index":1,"time_elapsed":40828,"internal_node_id":"0.0-1.0-0.0","subject":"w3kjebc1eyhg5tf","sona":"8653"},{"rt":2666.42999999749,"stimulus":"<p>Bereit?</p>","key_press":32,"trial_type":"html-keyboard-response","trial_index":2,"time_elapsed":43496,"internal_node_id":"0.0-3.0","subject":"w3kjebc1eyhg5tf","sona":"8653"},{"rt":null,"stimulus":"<div style=\"font-size:60px;\">+</div>","key_press":null,"trial_type":"html-keyboard-response","trial_index":3,"time_elapsed":45505,"internal_node_id":"0.0-4.0","subject":"w3kjebc1eyhg5tf","sona":"8653"},{"trial_type":"training","trial_index":4,"time_elapsed":49035,"internal_node_id":"0.0-5.0","subject":"w3kjebc1eyhg5tf","sona":"8653"},{"rt":4113.610000000335,"stimulus":"<p>Welche Sequenz haben Sie als natürlicher empfunden?</p>","key_press":70,"trial_type":"html-keyboard-response","trial_index":5,"time_elapsed":53152,"internal_node_id":"0.0-6.0","subject":"w3kjebc1eyhg5tf","sona":"8653"},{"rt":3097.285000010743,"stimulus":"<p>Das Experiment startet nun.</p><p><small>Bitte drücken Sie den Knopf, wenn Sie bereit sind.</small></p>","button_pressed":"0","trial_type":"html-button-response","trial_index":6,"time_elapsed":56251,"internal_node_id":"0.0-7.0","subject":"w3kjebc1eyhg5tf","sona":"8653"},{"rt":1746.5699999884237,"stimulus":"<p>Bereit?</p>","key_press":32,"trial_type":"html-keyboard-response","trial_index":7,"time_elapsed":57999,"internal_node_id":"0.0-8.0-0.0","subject":"w3kjebc1eyhg5tf","sona":"8653"},{"rt":null,"stimulus":"<div style=\"font-size:60px;\">+</div>","key_press":null,"trial_type":"html-keyboard-response","trial_index":8,"time_elapsed":60016,"internal_node_id":"0.0-8.0-1.0","subject":"w3kjebc1eyhg5tf","sona":"8653"},{"trial_type":"turing-test","trial_index":9,"time_elapsed":65888,"internal_node_id":"0.0-8.0-2.0","subject":"w3kjebc1eyhg5tf","sona":"8653"},{"rt":736.65500000061,"stimulus":"<p>Welche Sequenz haben Sie als natürlicher empfunden?</p>","key_press":74,"test_part":"response","test_stimulus":{"position":1,"left":"bvh/vr_prediction_models/model(vcgpdm)-dataset(pass-bottle)-mode(MAP)-parts(1)-hold(1)/final-lines.txt","right":"bvh/pass-bottle-training1-lines.txt","att_check":false},"trial_type":"html-keyboard-response","trial_index":10,"time_elapsed":66636,"internal_node_id":"0.0-8.0-3.0","subject":"w3kjebc1eyhg5tf","sona":"8653"},{"rt":1326.7350000096485,"stimulus":"<p>Bereit?</p>","key_press":32,"trial_type":"html-keyboard-response","trial_index":11,"time_elapsed":67967,"internal_node_id":"0.0-8.0-0.1","subject":"w3kjebc1eyhg5tf","sona":"8653"},{"rt":null,"stimulus":"<div style=\"font-size:60px;\">+</div>","key_press":null,"trial_type":"html-keyboard-response","trial_index":12,"time_elapsed":69980,"internal_node_id":"0.0-8.0-1.1","subject":"w3kjebc1eyhg5tf","sona":"8653"},{"trial_type":"turing-test","trial_index":13,"time_elapsed":75920,"internal_node_id":"0.0-8.0-2.1","subject":"w3kjebc1eyhg5tf","sona":"8653"},{"rt":708.3849999908125,"stimulus":"<p>Welche Sequenz haben Sie als natürlicher empfunden?</p>","key_press":70,"test_part":"response","test_stimulus":{"position":1,"left":"bvh/vr_prediction_models/model(dmp)-dataset(return-bottle)-npsi(60)-hold(4)/final-lines.txt","right":"bvh/return-bottle-training4-lines.txt","att_check":false},"trial_type":"html-keyboard-response","trial_index":14,"time_elapsed":76631,"internal_node_id":"0.0-8.0-3.1","subject":"w3kjebc1eyhg5tf","sona":"8653"},{"rt":930.0100000109524,"stimulus":"<p>Bereit?</p>","key_press":32,"trial_type":"html-keyboard-response","trial_index":15,"time_elapsed":77564,"internal_node_id":"0.0-8.0-0.2","subject":"w3kjebc1eyhg5tf","sona":"8653"},{"rt":null,"stimulus":"<div style=\"font-size:60px;\">+</div>","key_press":null,"trial_type":"html-keyboard-response","trial_index":16,"time_elapsed":79573,"internal_node_id":"0.0-8.0-1.2","subject":"w3kjebc1eyhg5tf","sona":"8653"},{"trial_type":"turing-test","trial_index":17,"time_elapsed":85732,"internal_node_id":"0.0-8.0-2.2","subject":"w3kjebc1eyhg5tf","sona":"8653"},{"rt":653.1050000048708,"stimulus":"<p>Welche Sequenz haben Sie als natürlicher empfunden?</p>","key_press":74,"test_part":"response","test_stimulus":{"position":0,"left":"bvh/pass-bottle-training4-lines.txt","right":"bvh/vr_prediction_models/model(vcgpdm)-dataset(pass-bottle)-mode(ELBO)-parts(1)-dyn(20)-lvm(20)-hold(4)/final-lines.txt","att_check":false},"trial_type":"html-keyboard-response","trial_index":18,"time_elapsed":86393,"internal_node_id":"0.0-8.0-3.2","subject":"w3kjebc1eyhg5tf","sona":"8653"},{"rt":708.9199999900302,"stimulus":"<p>Bereit?</p>","key_press":32,"trial_type":"html-keyboard-response","trial_index":19,"time_elapsed":87106,"internal_node_id":"0.0-8.0-0.3","subject":"w3kjebc1eyhg5tf","sona":"8653"},{"rt":null,"stimulus":"<div style=\"font-size:60px;\">+</div>","key_press":null,"trial_type":"html-keyboard-response","trial_index":20,"time_elapsed":89115,"internal_node_id":"0.0-8.0-1.3","subject":"w3kjebc1eyhg5tf","sona":"8653"},{"trial_type":"turing-test","trial_index":21,"time_elapsed":93004,"internal_node_id":"0.0-8.0-2.3","subject":"w3kjebc1eyhg5tf","sona":"8653"},{"rt":999.9799999932293,"stimulus":"<p>Welche Sequenz haben Sie als natürlicher empfunden?</p>","key_press":74,"test_part":"response","test_stimulus":{"position":1,"left":"bvh/vr_prediction_models/model(dmp)-dataset(return-bottle-hold)-npsi(60)-hold(4)/final-lines.txt","right":"bvh/return-bottle-hold-training4-lines.txt","att_check":false},"trial_type":"html-keyboard-response","trial_index":22,"time_elapsed":94011,"internal_node_id":"0.0-8.0-3.3","subject":"w3kjebc1eyhg5tf","sona":"8653"},{"rt":1356.034999989788,"stimulus":"<p>Bereit?</p>","key_press":32,"trial_type":"html-keyboard-response","trial_index":23,"time_elapsed":95372,"internal_node_id":"0.0-8.0-0.4","subject":"w3kjebc1eyhg5tf","sona":"8653"},{"rt":null,"stimulus":"<div style=\"font-size:60px;\">+</div>","key_press":null,"trial_type":"html-keyboard-response","trial_index":24,"time_elapsed":97387,"internal_node_id":"0.0-8.0-1.4","subject":"w3kjebc1eyhg5tf","sona":"8653"},{"trial_type":"turing-test","trial_index":25,"time_elapsed":101368,"internal_node_id":"0.0-8.0-2.4","subject":"w3kjebc1eyhg5tf","sona":"8653"},{"rt":459.7550000034971,"stimulus":"<p>Welche Sequenz haben Sie als natürlicher empfunden?</p>","key_press":70,"test_part":"response","test_stimulus":{"position":1,"left":"bvh/vr_prediction_models/model(vcgpdm)-dataset(return-bottle-hold)-mode(ELBO)-parts(1)-dyn(20)-lvm(20)-hold(2)/final-lines.txt","right":"bvh/return-bottle-hold-training2-lines.txt","att_check":false},"trial_type":"html-keyboard-response","trial_index":26,"time_elapsed":101835,"internal_node_id":"0.0-8.0-3.4","subject":"w3kjebc1eyhg5tf","sona":"8653"},{"rt":599.3500000040513,"stimulus":"<p>Bereit?</p>","key_press":32,"trial_type":"html-keyboard-response","trial_index":27,"time_elapsed":102439,"internal_node_id":"0.0-8.0-0.5","subject":"w3kjebc1eyhg5tf","sona":"8653"},{"rt":null,"stimulus":"<div style=\"font-size:60px;\">+</div>","key_press":null,"trial_type":"html-keyboard-response","trial_index":28,"time_elapsed":104442,"internal_node_id":"0.0-8.0-1.5","subject":"w3kjebc1eyhg5tf","sona":"8653"},{"trial_type":"turing-test","trial_index":29,"time_elapsed":108495,"internal_node_id":"0.0-8.0-2.5","subject":"w3kjebc1eyhg5tf","sona":"8653"},{"rt":830.1599999977043,"stimulus":"<p>Welche Sequenz haben Sie als natürlicher empfunden?</p>","key_press":74,"test_part":"response","test_stimulus":{"position":1,"left":"bvh/vr_prediction_models/model(vcgpdm)-dataset(return-bottle-hold)-mode(ELBO)-parts(3)-dyn(25)-lvm(30)-hold(3)/final-lines.txt","right":"bvh/return-bottle-hold-training3-lines.txt","att_check":false},"trial_type":"html-keyboard-response","trial_index":30,"time_elapsed":109335,"internal_node_id":"0.0-8.0-3.5","subject":"w3kjebc1eyhg5tf","sona":"8653"},{"rt":712.2500000114087,"stimulus":"<p>Bereit?</p>","key_press":32,"trial_type":"html-keyboard-response","trial_index":31,"time_elapsed":110051,"internal_node_id":"0.0-8.0-0.6","subject":"w3kjebc1eyhg5tf","sona":"8653"},{"rt":null,"stimulus":"<div style=\"font-size:60px;\">+</div>","key_press":null,"trial_type":"html-keyboard-response","trial_index":32,"time_elapsed":112063,"internal_node_id":"0.0-8.0-1.6","subject":"w3kjebc1eyhg5tf","sona":"8653"},{"trial_type":"turing-test","trial_index":33,"time_elapsed":117305,"internal_node_id":"0.0-8.0-2.6","subject":"w3kjebc1eyhg5tf","sona":"8653"},{"rt":706.1450000037439,"stimulus":"<p>Welche Sequenz haben Sie als natürlicher empfunden?</p>","key_press":70,"test_part":"response","test_stimulus":{"position":0,"left":"bvh/return-bottle-hold-training0-lines.txt","right":"bvh/vr_prediction_models/model(dmp)-dataset(return-bottle-hold)-npsi(70)-hold(0)/final-lines.txt","att_check":false},"trial_type":"html-keyboard-response","trial_index":34,"time_elapsed":118019,"internal_node_id":"0.0-8.0-3.6","subject":"w3kjebc1eyhg5tf","sona":"8653"},{"rt":1013.8600000063889,"stimulus":"<p>Bereit?</p>","key_press":32,"trial_type":"html-keyboard-response","trial_index":35,"time_elapsed":119037,"internal_node_id":"0.0-8.0-0.7","subject":"w3kjebc1eyhg5tf","sona":"8653"},{"rt":null,"stimulus":"<div style=\"font-size:60px;\">+</div>","key_press":null,"trial_type":"html-keyboard-response","trial_index":36,"time_elapsed":121049,"internal_node_id":"0.0-8.0-1.7","subject":"w3kjebc1eyhg5tf","sona":"8653"},{"trial_type":"turing-test","trial_index":37,"time_elapsed":124457,"internal_node_id":"0.0-8.0-2.7","subject":"w3kjebc1eyhg5tf","sona":"8653"},{"rt":794.884999995702,"stimulus":"<p>Welche Sequenz haben Sie als natürlicher empfunden?</p>","key_press":70,"test_part":"response","test_stimulus":{"position":0,"left":"bvh/pass-bottle-hold-training1-lines.txt","right":"bvh/vr_prediction_models/model(dmp)-dataset(pass-bottle-hold)-npsi(80)-hold(1)/final-lines.txt","att_check":false},"trial_type":"html-keyboard-response","trial_index":38,"time_elapsed":125260,"internal_node_id":"0.0-8.0-3.7","subject":"w3kjebc1eyhg5tf","sona":"8653"},{"rt":659.0250000008382,"stimulus":"<p>Bereit?</p>","key_press":32,"trial_type":"html-keyboard-response","trial_index":39,"time_elapsed":125923,"internal_node_id":"0.0-8.0-0.8","subject":"w3kjebc1eyhg5tf","sona":"8653"},{"rt":null,"stimulus":"<div style=\"font-size:60px;\">+</div>","key_press":null,"trial_type":"html-keyboard-response","trial_index":40,"time_elapsed":127931,"internal_node_id":"0.0-8.0-1.8","subject":"w3kjebc1eyhg5tf","sona":"8653"},{"trial_type":"turing-test","trial_index":41,"time_elapsed":135016,"internal_node_id":"0.0-8.0-2.8","subject":"w3kjebc1eyhg5tf","sona":"8653"},{"rt":186.295000006794,"stimulus":"<p>Welche Sequenz haben Sie als natürlicher empfunden?</p>","key_press":70,"test_part":"response","test_stimulus":{"position":0,"left":"bvh/return-bottle-training2-lines.txt","right":"bvh/vr_prediction_models/model(vcgpdm)-dataset(return-bottle)-mode(ELBO)-parts(3)-dyn(35)-lvm(20)-hold(2)/final-lines.txt","att_check":false},"trial_type":"html-keyboard-response","trial_index":42,"time_elapsed":135212,"internal_node_id":"0.0-8.0-3.8","subject":"w3kjebc1eyhg5tf","sona":"8653"},{"rt":881.0950000042794,"stimulus":"<p>Bereit?</p>","key_press":32,"trial_type":"html-keyboard-response","trial_index":43,"time_elapsed":136099,"internal_node_id":"0.0-8.0-0.9","subject":"w3kjebc1eyhg5tf","sona":"8653"},{"rt":null,"stimulus":"<div style=\"font-size:60px;\">+</div>","key_press":null,"trial_type":"html-keyboard-response","trial_index":44,"time_elapsed":138114,"internal_node_id":"0.0-8.0-1.9","subject":"w3kjebc1eyhg5tf","sona":"8653"},{"trial_type":"turing-test","trial_index":45,"time_elapsed":143309,"internal_node_id":"0.0-8.0-2.9","subject":"w3kjebc1eyhg5tf","sona":"8653"},{"rt":403.0849999981001,"stimulus":"<p>Welche Sequenz haben Sie als natürlicher empfunden?</p>","key_press":74,"test_part":"response","test_stimulus":{"position":0,"left":"bvh/return-bottle-hold-training0-lines.txt","right":"bvh/vr_prediction_models/model(tmp)-dataset(return-bottle-hold)-numprim(11)-hold(0)/final-lines.txt","att_check":false},"trial_type":"html-keyboard-response","trial_index":46,"time_elapsed":143721,"internal_node_id":"0.0-8.0-3.9","subject":"w3kjebc1eyhg5tf","sona":"8653"},{"rt":565.5200000037439,"stimulus":"<p>Bereit?</p>","key_press":32,"trial_type":"html-keyboard-response","trial_index":47,"time_elapsed":144293,"internal_node_id":"0.0-8.0-0.10","subject":"w3kjebc1eyhg5tf","sona":"8653"},{"rt":null,"stimulus":"<div style=\"font-size:60px;\">+</div>","key_press":null,"trial_type":"html-keyboard-response","trial_index":48,"time_elapsed":146302,"internal_node_id":"0.0-8.0-1.10","subject":"w3kjebc1eyhg5tf","sona":"8653"},{"trial_type":"turing-test","trial_index":49,"time_elapsed":153500,"internal_node_id":"0.0-8.0-2.10","subject":"w3kjebc1eyhg5tf","sona":"8653"},{"rt":400.195000009262,"stimulus":"<p>Welche Sequenz haben Sie als natürlicher empfunden?</p>","key_press":74,"test_part":"response","test_stimulus":{"position":0,"left":"bvh/pass-bottle-training0-lines.txt","right":"bvh/vr_prediction_models/model(vcgpdm)-dataset(pass-bottle)-mode(ELBO)-parts(1)-dyn(20)-lvm(5)-hold(0)/final-lines.txt","att_check":false},"trial_type":"html-keyboard-response","trial_index":50,"time_elapsed":153911,"internal_node_id":"0.0-8.0-3.10","subject":"w3kjebc1eyhg5tf","sona":"8653"},{"rt":435.76999999640975,"stimulus":"<p>Bereit?</p>","key_press":32,"trial_type":"html-keyboard-response","trial_index":51,"time_elapsed":154352,"internal_node_id":"0.0-8.0-0.11","subject":"w3kjebc1eyhg5tf","sona":"8653"},{"rt":null,"stimulus":"<div style=\"font-size:60px;\">+</div>","key_press":null,"trial_type":"html-keyboard-response","trial_index":52,"time_elapsed":156363,"internal_node_id":"0.0-8.0-1.11","subject":"w3kjebc1eyhg5tf","sona":"8653"},{"trial_type":"turing-test","trial_index":53,"time_elapsed":160087,"internal_node_id":"0.0-8.0-2.11","subject":"w3kjebc1eyhg5tf","sona":"8653"},{"rt":1601.280000002589,"stimulus":"<p>Welche Sequenz haben Sie als natürlicher empfunden?</p>","key_press":70,"test_part":"response","test_stimulus":{"position":0,"left":"bvh/pass-bottle-hold-training1-lines.txt","right":"bvh/vr_prediction_models/model(vcgpdm)-dataset(pass-bottle-hold)-mode(ELBO)-parts(1)-dyn(20)-lvm(30)-hold(1)/final-lines.txt","att_check":false},"trial_type":"html-keyboard-response","trial_index":54,"time_elapsed":161702,"internal_node_id":"0.0-8.0-3.11","subject":"w3kjebc1eyhg5tf","sona":"8653"},{"rt":538.1100000086008,"stimulus":"<p>Bereit?</p>","key_press":32,"trial_type":"html-keyboard-response","trial_index":55,"time_elapsed":162246,"internal_node_id":"0.0-8.0-0.12","subject":"w3kjebc1eyhg5tf","sona":"8653"},{"rt":null,"stimulus":"<div style=\"font-size:60px;\">+</div>","key_press":null,"trial_type":"html-keyboard-response","trial_index":56,"time_elapsed":164254,"internal_node_id":"0.0-8.0-1.12","subject":"w3kjebc1eyhg5tf","sona":"8653"},{"trial_type":"turing-test","trial_index":57,"time_elapsed":167739,"internal_node_id":"0.0-8.0-2.12","subject":"w3kjebc1eyhg5tf","sona":"8653"},{"rt":338.07999998680316,"stimulus":"<p>Welche Sequenz haben Sie als natürlicher empfunden?</p>","key_press":74,"test_part":"response","test_stimulus":{"position":1,"left":"bvh/vr_prediction_models/model(vcgpdm)-dataset(pass-bottle-hold)-mode(ELBO)-parts(3)-dyn(25)-lvm(25)-hold(1)/final-lines.txt","right":"bvh/pass-bottle-hold-training1-lines.txt","att_check":false},"trial_type":"html-keyboard-response","trial_index":58,"time_elapsed":168085,"internal_node_id":"0.0-8.0-3.12","subject":"w3kjebc1eyhg5tf","sona":"8653"},{"rt":455.40500000061,"stimulus":"<p>Bereit?</p>","key_press":32,"trial_type":"html-keyboard-response","trial_index":59,"time_elapsed":168547,"internal_node_id":"0.0-8.0-0.13","subject":"w3kjebc1eyhg5tf","sona":"8653"},{"rt":null,"stimulus":"<div style=\"font-size:60px;\">+</div>","key_press":null,"trial_type":"html-keyboard-response","trial_index":60,"time_elapsed":170557,"internal_node_id":"0.0-8.0-1.13","subject":"w3kjebc1eyhg5tf","sona":"8653"},{"trial_type":"turing-test","trial_index":61,"time_elapsed":176072,"internal_node_id":"0.0-8.0-2.13","subject":"w3kjebc1eyhg5tf","sona":"8653"},{"rt":633.9149999985239,"stimulus":"<p>Welche Sequenz haben Sie als natürlicher empfunden?</p>","key_press":74,"test_part":"response","test_stimulus":{"position":1,"left":"bvh/vr_prediction_models/model(tmp)-dataset(pass-bottle)-numprim(14)-hold(1)/final-lines.txt","right":"bvh/pass-bottle-training1-lines.txt","att_check":false},"trial_type":"html-keyboard-response","trial_index":62,"time_elapsed":176716,"internal_node_id":"0.0-8.0-3.13","subject":"w3kjebc1eyhg5tf","sona":"8653"},{"rt":399.9400000029709,"stimulus":"<p>Bereit?</p>","key_press":32,"trial_type":"html-keyboard-response","trial_index":63,"time_elapsed":177123,"internal_node_id":"0.0-8.0-0.14","subject":"w3kjebc1eyhg5tf","sona":"8653"},{"rt":null,"stimulus":"<div style=\"font-size:60px;\">+</div>","key_press":null,"trial_type":"html-keyboard-response","trial_index":64,"time_elapsed":179138,"internal_node_id":"0.0-8.0-1.14","subject":"w3kjebc1eyhg5tf","sona":"8653"},{"trial_type":"turing-test","trial_index":65,"time_elapsed":185301,"internal_node_id":"0.0-8.0-2.14","subject":"w3kjebc1eyhg5tf","sona":"8653"},{"rt":476.04999999748543,"stimulus":"<p>Welche Sequenz haben Sie als natürlicher empfunden?</p>","key_press":70,"test_part":"response","test_stimulus":{"position":0,"left":"bvh/return-bottle-training4-lines.txt","right":"bvh/vr_prediction_models/model(vcgpdm)-dataset(return-bottle)-mode(ELBO)-parts(3)-dyn(10)-lvm(30)-hold(4)/final-lines.txt","att_check":false},"trial_type":"html-keyboard-response","trial_index":66,"time_elapsed":185786,"internal_node_id":"0.0-8.0-3.14","subject":"w3kjebc1eyhg5tf","sona":"8653"},{"rt":671.5949999925215,"stimulus":"<p>Bereit?</p>","key_press":32,"trial_type":"html-keyboard-response","trial_index":67,"time_elapsed":186465,"internal_node_id":"0.0-8.0-0.15","subject":"w3kjebc1eyhg5tf","sona":"8653"},{"rt":null,"stimulus":"<div style=\"font-size:60px;\">+</div>","key_press":null,"trial_type":"html-keyboard-response","trial_index":68,"time_elapsed":188474,"internal_node_id":"0.0-8.0-1.15","subject":"w3kjebc1eyhg5tf","sona":"8653"},{"trial_type":"turing-test","trial_index":69,"time_elapsed":194385,"internal_node_id":"0.0-8.0-2.15","subject":"w3kjebc1eyhg5tf","sona":"8653"},{"rt":474.40999999525957,"stimulus":"<p>Welche Sequenz haben Sie als natürlicher empfunden?</p>","key_press":70,"test_part":"response","test_stimulus":{"position":0,"left":"bvh/return-bottle-training0-lines.txt","right":"bvh/vr_prediction_models/model(vcgpdm)-dataset(return-bottle)-mode(ELBO)-parts(1)-dyn(35)-lvm(10)-hold(0)/final-lines.txt","att_check":false},"trial_type":"html-keyboard-response","trial_index":70,"time_elapsed":194867,"internal_node_id":"0.0-8.0-3.15","subject":"w3kjebc1eyhg5tf","sona":"8653"},{"rt":583.2349999982398,"stimulus":"<p>Bereit?</p>","key_press":32,"trial_type":"html-keyboard-response","trial_index":71,"time_elapsed":195457,"internal_node_id":"0.0-8.0-0.16","subject":"w3kjebc1eyhg5tf","sona":"8653"},{"rt":null,"stimulus":"<div style=\"font-size:60px;\">+</div>","key_press":null,"trial_type":"html-keyboard-response","trial_index":72,"time_elapsed":197472,"internal_node_id":"0.0-8.0-1.16","subject":"w3kjebc1eyhg5tf","sona":"8653"},{"trial_type":"turing-test","trial_index":73,"time_elapsed":201502,"internal_node_id":"0.0-8.0-2.16","subject":"w3kjebc1eyhg5tf","sona":"8653"},{"rt":496.63999999756925,"stimulus":"<p>Welche Sequenz haben Sie als natürlicher empfunden?</p>","key_press":70,"test_part":"response","test_stimulus":{"position":0,"left":"bvh/pass-bottle-hold-training3-lines.txt","right":"bvh/vr_prediction_models/model(vcgpdm)-dataset(pass-bottle-hold)-mode(ELBO)-parts(1)-dyn(30)-lvm(20)-hold(3)/final-lines.txt","att_check":false},"trial_type":"html-keyboard-response","trial_index":74,"time_elapsed":202007,"internal_node_id":"0.0-8.0-3.16","subject":"w3kjebc1eyhg5tf","sona":"8653"},{"rt":1578.6300000036135,"stimulus":"<p>Bereit?</p>","key_press":32,"trial_type":"html-keyboard-response","trial_index":75,"time_elapsed":203589,"internal_node_id":"0.0-8.0-0.17","subject":"w3kjebc1eyhg5tf","sona":"8653"},{"rt":null,"stimulus":"<div style=\"font-size:60px;\">+</div>","key_press":null,"trial_type":"html-keyboard-response","trial_index":76,"time_elapsed":205600,"internal_node_id":"0.0-8.0-1.17","subject":"w3kjebc1eyhg5tf","sona":"8653"},{"trial_type":"turing-test","trial_index":77,"time_elapsed":212026,"internal_node_id":"0.0-8.0-2.17","subject":"w3kjebc1eyhg5tf","sona":"8653"},{"rt":797.7150000078836,"stimulus":"<p>Welche Sequenz haben Sie als natürlicher empfunden?</p>","key_press":74,"test_part":"response","test_stimulus":{"position":1,"left":"bvh/vr_prediction_models/model(vcgpdm)-dataset(return-bottle)-mode(ELBO)-parts(3)-dyn(10)-lvm(25)-hold(1)/final-lines.txt","right":"bvh/return-bottle-training1-lines.txt","att_check":false},"trial_type":"html-keyboard-response","trial_index":78,"time_elapsed":212826,"internal_node_id":"0.0-8.0-3.17","subject":"w3kjebc1eyhg5tf","sona":"8653"},{"rt":431.60500000522006,"stimulus":"<p>Bereit?</p>","key_press":32,"trial_type":"html-keyboard-response","trial_index":79,"time_elapsed":213260,"internal_node_id":"0.0-8.0-0.18","subject":"w3kjebc1eyhg5tf","sona":"8653"},{"rt":null,"stimulus":"<div style=\"font-size:60px;\">+</div>","key_press":null,"trial_type":"html-keyboard-response","trial_index":80,"time_elapsed":215268,"internal_node_id":"0.0-8.0-1.18","subject":"w3kjebc1eyhg5tf","sona":"8653"},{"trial_type":"turing-test","trial_index":81,"time_elapsed":221443,"internal_node_id":"0.0-8.0-2.18","subject":"w3kjebc1eyhg5tf","sona":"8653"},{"rt":519.8400000081165,"stimulus":"<p>Welche Sequenz haben Sie als natürlicher empfunden?</p>","key_press":70,"test_part":"response","test_stimulus":{"position":0,"left":"bvh/return-bottle-training1-lines.txt","right":"bvh/vr_prediction_models/model(dmp)-dataset(return-bottle)-npsi(60)-hold(1)/final-lines.txt","att_check":false},"trial_type":"html-keyboard-response","trial_index":82,"time_elapsed":221972,"internal_node_id":"0.0-8.0-3.18","subject":"w3kjebc1eyhg5tf","sona":"8653"},{"rt":382.7600000076927,"stimulus":"<p>Bereit?</p>","key_press":32,"trial_type":"html-keyboard-response","trial_index":83,"time_elapsed":222365,"internal_node_id":"0.0-8.0-0.19","subject":"w3kjebc1eyhg5tf","sona":"8653"},{"rt":null,"stimulus":"<div style=\"font-size:60px;\">+</div>","key_press":null,"trial_type":"html-keyboard-response","trial_index":84,"time_elapsed":224372,"internal_node_id":"0.0-8.0-1.19","subject":"w3kjebc1eyhg5tf","sona":"8653"},{"trial_type":"turing-test","trial_index":85,"time_elapsed":228181,"internal_node_id":"0.0-8.0-2.19","subject":"w3kjebc1eyhg5tf","sona":"8653"},{"rt":595.2399999951012,"stimulus":"<p>Welche Sequenz haben Sie als natürlicher empfunden?</p>","key_press":70,"test_part":"response","test_stimulus":{"position":0,"left":"bvh/return-bottle-hold-training1-lines.txt","right":"bvh/vr_prediction_models/model(vcgpdm)-dataset(return-bottle-hold)-mode(MAP)-parts(1)-hold(1)/final-lines.txt","att_check":false},"trial_type":"html-keyboard-response","trial_index":86,"time_elapsed":228783,"internal_node_id":"0.0-8.0-3.19","subject":"w3kjebc1eyhg5tf","sona":"8653"},{"rt":373.6849999986589,"stimulus":"<p>Bereit?</p>","key_press":32,"trial_type":"html-keyboard-response","trial_index":87,"time_elapsed":229163,"internal_node_id":"0.0-8.0-0.20","subject":"w3kjebc1eyhg5tf","sona":"8653"},{"rt":null,"stimulus":"<div style=\"font-size:60px;\">+</div>","key_press":null,"trial_type":"html-keyboard-response","trial_index":88,"time_elapsed":231170,"internal_node_id":"0.0-8.0-1.20","subject":"w3kjebc1eyhg5tf","sona":"8653"},{"trial_type":"turing-test","trial_index":89,"time_elapsed":237689,"internal_node_id":"0.0-8.0-2.20","subject":"w3kjebc1eyhg5tf","sona":"8653"},{"rt":511.67000000714324,"stimulus":"<p>Welche Sequenz haben Sie als natürlicher empfunden?</p>","key_press":74,"test_part":"response","test_stimulus":{"position":1,"left":"bvh/vr_prediction_models/model(vcgpdm)-dataset(return-bottle)-mode(ELBO)-parts(1)-dyn(20)-lvm(20)-hold(1)/final-lines.txt","right":"bvh/return-bottle-training1-lines.txt","att_check":false},"trial_type":"html-keyboard-response","trial_index":90,"time_elapsed":238214,"internal_node_id":"0.0-8.0-3.20","subject":"w3kjebc1eyhg5tf","sona":"8653"},{"rt":610.4950000008103,"stimulus":"<p>Bereit?</p>","key_press":32,"trial_type":"html-keyboard-response","trial_index":91,"time_elapsed":238830,"internal_node_id":"0.0-8.0-0.21","subject":"w3kjebc1eyhg5tf","sona":"8653"},{"rt":null,"stimulus":"<div style=\"font-size:60px;\">+</div>","key_press":null,"trial_type":"html-keyboard-response","trial_index":92,"time_elapsed":240847,"internal_node_id":"0.0-8.0-1.21","subject":"w3kjebc1eyhg5tf","sona":"8653"},{"trial_type":"turing-test","trial_index":93,"time_elapsed":246975,"internal_node_id":"0.0-8.0-2.21","subject":"w3kjebc1eyhg5tf","sona":"8653"},{"rt":411.3749999960419,"stimulus":"<p>Welche Sequenz haben Sie als natürlicher empfunden?</p>","key_press":74,"test_part":"response","test_stimulus":{"position":1,"left":"bvh/vr_prediction_models/model(vcgpdm)-dataset(return-bottle)-mode(ELBO)-parts(1)-dyn(30)-lvm(35)-hold(4)/final-lines.txt","right":"bvh/return-bottle-training4-lines.txt","att_check":false},"trial_type":"html-keyboard-response","trial_index":94,"time_elapsed":247399,"internal_node_id":"0.0-8.0-3.21","subject":"w3kjebc1eyhg5tf","sona":"8653"},{"rt":422.1550000074785,"stimulus":"<p>Bereit?</p>","key_press":32,"trial_type":"html-keyboard-response","trial_index":95,"time_elapsed":247828,"internal_node_id":"0.0-8.0-0.22","subject":"w3kjebc1eyhg5tf","sona":"8653"},{"rt":null,"stimulus":"<div style=\"font-size:60px;\">+</div>","key_press":null,"trial_type":"html-keyboard-response","trial_index":96,"time_elapsed":249844,"internal_node_id":"0.0-8.0-1.22","subject":"w3kjebc1eyhg5tf","sona":"8653"},{"trial_type":"turing-test","trial_index":97,"time_elapsed":253834,"internal_node_id":"0.0-8.0-2.22","subject":"w3kjebc1eyhg5tf","sona":"8653"},{"rt":1029.0699999895878,"stimulus":"<p>Welche Sequenz haben Sie als natürlicher empfunden?</p>","key_press":74,"test_part":"response","test_stimulus":{"position":0,"left":"bvh/return-bottle-hold-training3-lines.txt","right":"bvh/vr_prediction_models/model(vcgpdm)-dataset(return-bottle-hold)-mode(ELBO)-parts(1)-dyn(10)-lvm(25)-hold(3)/final-lines.txt","att_check":false},"trial_type":"html-keyboard-response","trial_index":98,"time_elapsed":254876,"internal_node_id":"0.0-8.0-3.22","subject":"w3kjebc1eyhg5tf","sona":"8653"},{"rt":496.4299999992363,"stimulus":"<p>Bereit?</p>","key_press":32,"trial_type":"html-keyboard-response","trial_index":99,"time_elapsed":255378,"internal_node_id":"0.0-8.0-0.23","subject":"w3kjebc1eyhg5tf","sona":"8653"},{"rt":null,"stimulus":"<div style=\"font-size:60px;\">+</div>","key_press":null,"trial_type":"html-keyboard-response","trial_index":100,"time_elapsed":257397,"internal_node_id":"0.0-8.0-1.23","subject":"w3kjebc1eyhg5tf","sona":"8653"},{"trial_type":"turing-test","trial_index":101,"time_elapsed":263585,"internal_node_id":"0.0-8.0-2.23","subject":"w3kjebc1eyhg5tf","sona":"8653"},{"rt":347.40499999315944,"stimulus":"<p>Welche Sequenz haben Sie als natürlicher empfunden?</p>","key_press":70,"test_part":"response","test_stimulus":{"position":0,"left":"bvh/return-bottle-training4-lines.txt","right":"bvh/vr_prediction_models/model(vcgpdm)-dataset(return-bottle)-mode(ELBO)-parts(1)-dyn(30)-lvm(30)-hold(4)/final-lines.txt","att_check":false},"trial_type":"html-keyboard-response","trial_index":102,"time_elapsed":263942,"internal_node_id":"0.0-8.0-3.23","subject":"w3kjebc1eyhg5tf","sona":"8653"},{"rt":536.7600000026869,"stimulus":"<p>Bereit?</p>","key_press":32,"trial_type":"html-keyboard-response","trial_index":103,"time_elapsed":264487,"internal_node_id":"0.0-8.0-0.24","subject":"w3kjebc1eyhg5tf","sona":"8653"},{"rt":null,"stimulus":"<div style=\"font-size:60px;\">+</div>","key_press":null,"trial_type":"html-keyboard-response","trial_index":104,"time_elapsed":266501,"internal_node_id":"0.0-8.0-1.24","subject":"w3kjebc1eyhg5tf","sona":"8653"},{"trial_type":"turing-test","trial_index":105,"time_elapsed":272064,"internal_node_id":"0.0-8.0-2.24","subject":"w3kjebc1eyhg5tf","sona":"8653"},{"rt":676.5650000015739,"stimulus":"<p>Welche Sequenz haben Sie als natürlicher empfunden?</p>","key_press":70,"test_part":"response","test_stimulus":{"position":1,"left":"bvh/vr_prediction_models/model(tmp)-dataset(pass-bottle)-numprim(5)-hold(1)/final-lines.txt","right":"bvh/pass-bottle-training1-lines.txt","att_check":false},"trial_type":"html-keyboard-response","trial_index":106,"time_elapsed":272756,"internal_node_id":"0.0-8.0-3.24","subject":"w3kjebc1eyhg5tf","sona":"8653"},{"rt":460.479999994277,"stimulus":"<p>Bereit?</p>","key_press":32,"trial_type":"html-keyboard-response","trial_index":107,"time_elapsed":273223,"internal_node_id":"0.0-8.0-0.25","subject":"w3kjebc1eyhg5tf","sona":"8653"},{"rt":null,"stimulus":"<div style=\"font-size:60px;\">+</div>","key_press":null,"trial_type":"html-keyboard-response","trial_index":108,"time_elapsed":275241,"internal_node_id":"0.0-8.0-1.25","subject":"w3kjebc1eyhg5tf","sona":"8653"},{"trial_type":"turing-test","trial_index":109,"time_elapsed":281685,"internal_node_id":"0.0-8.0-2.25","subject":"w3kjebc1eyhg5tf","sona":"8653"},{"rt":1527.8250000119442,"stimulus":"<p>Welche Sequenz haben Sie als natürlicher empfunden?</p>","key_press":70,"test_part":"response","test_stimulus":{"position":1,"left":"bvh/vr_prediction_models/model(vcgpdm)-dataset(return-bottle)-mode(ELBO)-parts(1)-dyn(10)-lvm(30)-hold(1)/final-lines.txt","right":"bvh/return-bottle-training1-lines.txt","att_check":false},"trial_type":"html-keyboard-response","trial_index":110,"time_elapsed":283226,"internal_node_id":"0.0-8.0-3.25","subject":"w3kjebc1eyhg5tf","sona":"8653"},{"rt":667.6500000030501,"stimulus":"<p>Bereit?</p>","key_press":32,"trial_type":"html-keyboard-response","trial_index":111,"time_elapsed":283898,"internal_node_id":"0.0-8.0-0.26","subject":"w3kjebc1eyhg5tf","sona":"8653"},{"rt":null,"stimulus":"<div style=\"font-size:60px;\">+</div>","key_press":null,"trial_type":"html-keyboard-response","trial_index":112,"time_elapsed":285905,"internal_node_id":"0.0-8.0-1.26","subject":"w3kjebc1eyhg5tf","sona":"8653"},{"trial_type":"turing-test","trial_index":113,"time_elapsed":291105,"internal_node_id":"0.0-8.0-2.26","subject":"w3kjebc1eyhg5tf","sona":"8653"},{"rt":412.5249999924563,"stimulus":"<p>Welche Sequenz haben Sie als natürlicher empfunden?</p>","key_press":74,"test_part":"response","test_stimulus":{"position":1,"left":"bvh/vr_prediction_models/model(dmp)-dataset(return-bottle-hold)-npsi(50)-hold(0)/final-lines.txt","right":"bvh/return-bottle-hold-training0-lines.txt","att_check":false},"trial_type":"html-keyboard-response","trial_index":114,"time_elapsed":291528,"internal_node_id":"0.0-8.0-3.26","subject":"w3kjebc1eyhg5tf","sona":"8653"},{"rt":490.28500000713393,"stimulus":"<p>Bereit?</p>","key_press":32,"trial_type":"html-keyboard-response","trial_index":115,"time_elapsed":292025,"internal_node_id":"0.0-8.0-0.27","subject":"w3kjebc1eyhg5tf","sona":"8653"},{"rt":null,"stimulus":"<div style=\"font-size:60px;\">+</div>","key_press":null,"trial_type":"html-keyboard-response","trial_index":116,"time_elapsed":294035,"internal_node_id":"0.0-8.0-1.27","subject":"w3kjebc1eyhg5tf","sona":"8653"},{"trial_type":"turing-test","trial_index":117,"time_elapsed":300347,"internal_node_id":"0.0-8.0-2.27","subject":"w3kjebc1eyhg5tf","sona":"8653"},{"rt":303.2799999928102,"stimulus":"<p>Welche Sequenz haben Sie als natürlicher empfunden?</p>","key_press":74,"test_part":"response","test_stimulus":{"position":0,"left":"bvh/pass-bottle-training2-lines.txt","right":"bvh/vr_prediction_models/model(dmp)-dataset(pass-bottle)-npsi(50)-hold(2)/final-lines.txt","att_check":true},"trial_type":"html-keyboard-response","trial_index":118,"time_elapsed":300661,"internal_node_id":"0.0-8.0-3.27","subject":"w3kjebc1eyhg5tf","sona":"8653"},{"rt":558.3000000042375,"stimulus":"<p>Bereit?</p>","key_press":32,"trial_type":"html-keyboard-response","trial_index":119,"time_elapsed":301225,"internal_node_id":"0.0-8.0-0.28","subject":"w3kjebc1eyhg5tf","sona":"8653"},{"rt":null,"stimulus":"<div style=\"font-size:60px;\">+</div>","key_press":null,"trial_type":"html-keyboard-response","trial_index":120,"time_elapsed":303246,"internal_node_id":"0.0-8.0-1.28","subject":"w3kjebc1eyhg5tf","sona":"8653"},{"trial_type":"turing-test","trial_index":121,"time_elapsed":306820,"internal_node_id":"0.0-8.0-2.28","subject":"w3kjebc1eyhg5tf","sona":"8653"},{"rt":216.91000000282656,"stimulus":"<p>Welche Sequenz haben Sie als natürlicher empfunden?</p>","key_press":74,"test_part":"response","test_stimulus":{"position":0,"left":"bvh/return-bottle-hold-training2-lines.txt","right":"bvh/vr_prediction_models/model(dmp)-dataset(return-bottle-hold)-npsi(80)-hold(2)/final-lines.txt","att_check":true},"trial_type":"html-keyboard-response","trial_index":122,"time_elapsed":307047,"internal_node_id":"0.0-8.0-3.28","subject":"w3kjebc1eyhg5tf","sona":"8653"},{"rt":427.8400000039255,"stimulus":"<p>Bereit?</p>","key_press":32,"trial_type":"html-keyboard-response","trial_index":123,"time_elapsed":307484,"internal_node_id":"0.0-8.0-0.29","subject":"w3kjebc1eyhg5tf","sona":"8653"},{"rt":null,"stimulus":"<div style=\"font-size:60px;\">+</div>","key_press":null,"trial_type":"html-keyboard-response","trial_index":124,"time_elapsed":309492,"internal_node_id":"0.0-8.0-1.29","subject":"w3kjebc1eyhg5tf","sona":"8653"},{"trial_type":"turing-test","trial_index":125,"time_elapsed":315538,"internal_node_id":"0.0-8.0-2.29","subject":"w3kjebc1eyhg5tf","sona":"8653"},{"rt":458.2200000004377,"stimulus":"<p>Welche Sequenz haben Sie als natürlicher empfunden?</p>","key_press":74,"test_part":"response","test_stimulus":{"position":1,"left":"bvh/vr_prediction_models/model(vcgpdm)-dataset(pass-bottle)-mode(ELBO)-parts(1)-dyn(30)-lvm(35)-hold(4)/final-lines.txt","right":"bvh/pass-bottle-training4-lines.txt","att_check":false},"trial_type":"html-keyboard-response","trial_index":126,"time_elapsed":316007,"internal_node_id":"0.0-8.0-3.29","subject":"w3kjebc1eyhg5tf","sona":"8653"},{"rt":393.1849999935366,"stimulus":"<p>Bereit?</p>","key_press":32,"trial_type":"html-keyboard-response","trial_index":127,"time_elapsed":316407,"internal_node_id":"0.0-8.0-0.30","subject":"w3kjebc1eyhg5tf","sona":"8653"},{"rt":null,"stimulus":"<div style=\"font-size:60px;\">+</div>","key_press":null,"trial_type":"html-keyboard-response","trial_index":128,"time_elapsed":318414,"internal_node_id":"0.0-8.0-1.30","subject":"w3kjebc1eyhg5tf","sona":"8653"},{"trial_type":"turing-test","trial_index":129,"time_elapsed":322370,"internal_node_id":"0.0-8.0-2.30","subject":"w3kjebc1eyhg5tf","sona":"8653"},{"rt":5478.235000002314,"stimulus":"<p>Welche Sequenz haben Sie als natürlicher empfunden?</p>","key_press":74,"test_part":"response","test_stimulus":{"position":1,"left":"bvh/vr_prediction_models/model(vcgpdm)-dataset(return-bottle-hold)-mode(ELBO)-parts(3)-dyn(20)-lvm(35)-hold(2)/final-lines.txt","right":"bvh/return-bottle-hold-training2-lines.txt","att_check":false},"trial_type":"html-keyboard-response","trial_index":130,"time_elapsed":327862,"internal_node_id":"0.0-8.0-3.30","subject":"w3kjebc1eyhg5tf","sona":"8653"},{"rt":1190.8499999990454,"stimulus":"<p>Bereit?</p>","key_press":32,"trial_type":"html-keyboard-response","trial_index":131,"time_elapsed":329058,"internal_node_id":"0.0-8.0-0.31","subject":"w3kjebc1eyhg5tf","sona":"8653"},{"rt":null,"stimulus":"<div style=\"font-size:60px;\">+</div>","key_press":null,"trial_type":"html-keyboard-response","trial_index":132,"time_elapsed":331069,"internal_node_id":"0.0-8.0-1.31","subject":"w3kjebc1eyhg5tf","sona":"8653"},{"trial_type":"turing-test","trial_index":133,"time_elapsed":336759,"internal_node_id":"0.0-8.0-2.31","subject":"w3kjebc1eyhg5tf","sona":"8653"},{"rt":42.30000000097789,"stimulus":"<p>Welche Sequenz haben Sie als natürlicher empfunden?</p>","key_press":74,"test_part":"response","test_stimulus":{"position":1,"left":"bvh/vr_prediction_models/model(tmp)-dataset(return-bottle-hold)-numprim(4)-hold(0)/final-lines.txt","right":"bvh/return-bottle-hold-training0-lines.txt","att_check":false},"trial_type":"html-keyboard-response","trial_index":134,"time_elapsed":336811,"internal_node_id":"0.0-8.0-3.31","subject":"w3kjebc1eyhg5tf","sona":"8653"},{"rt":681.0899999982212,"stimulus":"<p>Bereit?</p>","key_press":32,"trial_type":"html-keyboard-response","trial_index":135,"time_elapsed":337501,"internal_node_id":"0.0-8.0-0.32","subject":"w3kjebc1eyhg5tf","sona":"8653"},{"rt":null,"stimulus":"<div style=\"font-size:60px;\">+</div>","key_press":null,"trial_type":"html-keyboard-response","trial_index":136,"time_elapsed":339505,"internal_node_id":"0.0-8.0-1.32","subject":"w3kjebc1eyhg5tf","sona":"8653"},{"trial_type":"turing-test","trial_index":137,"time_elapsed":343095,"internal_node_id":"0.0-8.0-2.32","subject":"w3kjebc1eyhg5tf","sona":"8653"},{"rt":98.27000000223052,"stimulus":"<p>Welche Sequenz haben Sie als natürlicher empfunden?</p>","key_press":74,"test_part":"response","test_stimulus":{"position":1,"left":"bvh/vr_prediction_models/model(vcgpdm)-dataset(pass-bottle-hold)-mode(ELBO)-parts(1)-dyn(30)-lvm(20)-hold(3)/final-lines.txt","right":"bvh/pass-bottle-hold-training3-lines.txt","att_check":false},"trial_type":"html-keyboard-response","trial_index":138,"time_elapsed":343207,"internal_node_id":"0.0-8.0-3.32","subject":"w3kjebc1eyhg5tf","sona":"8653"},{"rt":507.17500000610016,"stimulus":"<p>Bereit?</p>","key_press":32,"trial_type":"html-keyboard-response","trial_index":139,"time_elapsed":343723,"internal_node_id":"0.0-8.0-0.33","subject":"w3kjebc1eyhg5tf","sona":"8653"},{"rt":null,"stimulus":"<div style=\"font-size:60px;\">+</div>","key_press":null,"trial_type":"html-keyboard-response","trial_index":140,"time_elapsed":345733,"internal_node_id":"0.0-8.0-1.33","subject":"w3kjebc1eyhg5tf","sona":"8653"},{"trial_type":"turing-test","trial_index":141,"time_elapsed":352220,"internal_node_id":"0.0-8.0-2.33","subject":"w3kjebc1eyhg5tf","sona":"8653"},{"rt":307.6700000092387,"stimulus":"<p>Welche Sequenz haben Sie als natürlicher empfunden?</p>","key_press":70,"test_part":"response","test_stimulus":{"position":0,"left":"bvh/return-bottle-training1-lines.txt","right":"bvh/vr_prediction_models/model(vcgpdm)-dataset(return-bottle)-mode(ELBO)-parts(1)-dyn(30)-lvm(30)-hold(1)/final-lines.txt","att_check":false},"trial_type":"html-keyboard-response","trial_index":142,"time_elapsed":352539,"internal_node_id":"0.0-8.0-3.33","subject":"w3kjebc1eyhg5tf","sona":"8653"},{"rt":4116.430000009132,"stimulus":"<p>Bereit?</p>","key_press":32,"trial_type":"html-keyboard-response","trial_index":143,"time_elapsed":356657,"internal_node_id":"0.0-8.0-0.34","subject":"w3kjebc1eyhg5tf","sona":"8653"},{"rt":null,"stimulus":"<div style=\"font-size:60px;\">+</div>","key_press":null,"trial_type":"html-keyboard-response","trial_index":144,"time_elapsed":358670,"internal_node_id":"0.0-8.0-1.34","subject":"w3kjebc1eyhg5tf","sona":"8653"},{"trial_type":"turing-test","trial_index":145,"time_elapsed":364966,"internal_node_id":"0.0-8.0-2.34","subject":"w3kjebc1eyhg5tf","sona":"8653"},{"rt":489.27000000549015,"stimulus":"<p>Welche Sequenz haben Sie als natürlicher empfunden?</p>","key_press":70,"test_part":"response","test_stimulus":{"position":1,"left":"bvh/vr_prediction_models/model(dmp)-dataset(return-bottle)-npsi(100)-hold(1)/final-lines.txt","right":"bvh/return-bottle-training1-lines.txt","att_check":false},"trial_type":"html-keyboard-response","trial_index":146,"time_elapsed":365461,"internal_node_id":"0.0-8.0-3.34","subject":"w3kjebc1eyhg5tf","sona":"8653"},{"rt":469.83000000182074,"stimulus":"<p>Bereit?</p>","key_press":32,"trial_type":"html-keyboard-response","trial_index":147,"time_elapsed":365935,"internal_node_id":"0.0-8.0-0.35","subject":"w3kjebc1eyhg5tf","sona":"8653"},{"rt":null,"stimulus":"<div style=\"font-size:60px;\">+</div>","key_press":null,"trial_type":"html-keyboard-response","trial_index":148,"time_elapsed":367949,"internal_node_id":"0.0-8.0-1.35","subject":"w3kjebc1eyhg5tf","sona":"8653"},{"trial_type":"turing-test","trial_index":149,"time_elapsed":374425,"internal_node_id":"0.0-8.0-2.35","subject":"w3kjebc1eyhg5tf","sona":"8653"},{"rt":481.8749999976717,"stimulus":"<p>Welche Sequenz haben Sie als natürlicher empfunden?</p>","key_press":70,"test_part":"response","test_stimulus":{"position":0,"left":"bvh/return-bottle-training1-lines.txt","right":"bvh/vr_prediction_models/model(vcgpdm)-dataset(return-bottle)-mode(ELBO)-parts(3)-dyn(25)-lvm(30)-hold(1)/final-lines.txt","att_check":false},"trial_type":"html-keyboard-response","trial_index":150,"time_elapsed":374916,"internal_node_id":"0.0-8.0-3.35","subject":"w3kjebc1eyhg5tf","sona":"8653"},{"rt":3880.650000006426,"stimulus":"<p>Bereit?</p>","key_press":32,"trial_type":"html-keyboard-response","trial_index":151,"time_elapsed":378803,"internal_node_id":"0.0-8.0-0.36","subject":"w3kjebc1eyhg5tf","sona":"8653"},{"rt":null,"stimulus":"<div style=\"font-size:60px;\">+</div>","key_press":null,"trial_type":"html-keyboard-response","trial_index":152,"time_elapsed":380817,"internal_node_id":"0.0-8.0-1.36","subject":"w3kjebc1eyhg5tf","sona":"8653"},{"trial_type":"turing-test","trial_index":153,"time_elapsed":384889,"internal_node_id":"0.0-8.0-2.36","subject":"w3kjebc1eyhg5tf","sona":"8653"},{"rt":406.0850000096252,"stimulus":"<p>Welche Sequenz haben Sie als natürlicher empfunden?</p>","key_press":74,"test_part":"response","test_stimulus":{"position":1,"left":"bvh/vr_prediction_models/model(vcgpdm)-dataset(pass-bottle-hold)-mode(ELBO)-parts(3)-dyn(30)-lvm(15)-hold(3)/final-lines.txt","right":"bvh/pass-bottle-hold-training3-lines.txt","att_check":false},"trial_type":"html-keyboard-response","trial_index":154,"time_elapsed":385304,"internal_node_id":"0.0-8.0-3.36","subject":"w3kjebc1eyhg5tf","sona":"8653"},{"rt":346.68000000237953,"stimulus":"<p>Bereit?</p>","key_press":32,"trial_type":"html-keyboard-response","trial_index":155,"time_elapsed":385656,"internal_node_id":"0.0-8.0-0.37","subject":"w3kjebc1eyhg5tf","sona":"8653"},{"rt":null,"stimulus":"<div style=\"font-size:60px;\">+</div>","key_press":null,"trial_type":"html-keyboard-response","trial_index":156,"time_elapsed":387670,"internal_node_id":"0.0-8.0-1.37","subject":"w3kjebc1eyhg5tf","sona":"8653"},{"trial_type":"turing-test","trial_index":157,"time_elapsed":391115,"internal_node_id":"0.0-8.0-2.37","subject":"w3kjebc1eyhg5tf","sona":"8653"},{"rt":652.0049999962794,"stimulus":"<p>Welche Sequenz haben Sie als natürlicher empfunden?</p>","key_press":70,"test_part":"response","test_stimulus":{"position":0,"left":"bvh/return-bottle-hold-training1-lines.txt","right":"bvh/vr_prediction_models/model(dmp)-dataset(return-bottle-hold)-npsi(90)-hold(1)/final-lines.txt","att_check":false},"trial_type":"html-keyboard-response","trial_index":158,"time_elapsed":391780,"internal_node_id":"0.0-8.0-3.37","subject":"w3kjebc1eyhg5tf","sona":"8653"},{"rt":267.2900000034133,"stimulus":"<p>Bereit?</p>","key_press":32,"trial_type":"html-keyboard-response","trial_index":159,"time_elapsed":392054,"internal_node_id":"0.0-8.0-0.38","subject":"w3kjebc1eyhg5tf","sona":"8653"},{"rt":null,"stimulus":"<div style=\"font-size:60px;\">+</div>","key_press":null,"trial_type":"html-keyboard-response","trial_index":160,"time_elapsed":394070,"internal_node_id":"0.0-8.0-1.38","subject":"w3kjebc1eyhg5tf","sona":"8653"},{"trial_type":"turing-test","trial_index":161,"time_elapsed":400185,"internal_node_id":"0.0-8.0-2.38","subject":"w3kjebc1eyhg5tf","sona":"8653"},{"rt":523.2149999937974,"stimulus":"<p>Welche Sequenz haben Sie als natürlicher empfunden?</p>","key_press":74,"test_part":"response","test_stimulus":{"position":1,"left":"bvh/vr_prediction_models/model(vcgpdm)-dataset(pass-bottle)-mode(ELBO)-parts(3)-dyn(25)-lvm(30)-hold(4)/final-lines.txt","right":"bvh/pass-bottle-training4-lines.txt","att_check":false},"trial_type":"html-keyboard-response","trial_index":162,"time_elapsed":400718,"internal_node_id":"0.0-8.0-3.38","subject":"w3kjebc1eyhg5tf","sona":"8653"},{"rt":420.799999992596,"stimulus":"<p>Bereit?</p>","key_press":32,"trial_type":"html-keyboard-response","trial_index":163,"time_elapsed":401150,"internal_node_id":"0.0-8.0-0.39","subject":"w3kjebc1eyhg5tf","sona":"8653"},{"rt":null,"stimulus":"<div style=\"font-size:60px;\">+</div>","key_press":null,"trial_type":"html-keyboard-response","trial_index":164,"time_elapsed":403155,"internal_node_id":"0.0-8.0-1.39","subject":"w3kjebc1eyhg5tf","sona":"8653"},{"trial_type":"turing-test","trial_index":165,"time_elapsed":406953,"internal_node_id":"0.0-8.0-2.39","subject":"w3kjebc1eyhg5tf","sona":"8653"},{"rt":217.0449999975972,"stimulus":"<p>Welche Sequenz haben Sie als natürlicher empfunden?</p>","key_press":70,"test_part":"response","test_stimulus":{"position":0,"left":"bvh/return-bottle-hold-training2-lines.txt","right":"bvh/vr_prediction_models/model(vcgpdm)-dataset(return-bottle-hold)-mode(ELBO)-parts(1)-dyn(10)-lvm(30)-hold(2)/final-lines.txt","att_check":false},"trial_type":"html-keyboard-response","trial_index":166,"time_elapsed":407174,"internal_node_id":"0.0-8.0-3.39","subject":"w3kjebc1eyhg5tf","sona":"8653"},{"rt":717.5300000089919,"stimulus":"<p>Bereit?</p>","key_press":32,"trial_type":"html-keyboard-response","trial_index":167,"time_elapsed":407895,"internal_node_id":"0.0-8.0-0.40","subject":"w3kjebc1eyhg5tf","sona":"8653"},{"rt":null,"stimulus":"<div style=\"font-size:60px;\">+</div>","key_press":null,"trial_type":"html-keyboard-response","trial_index":168,"time_elapsed":409913,"internal_node_id":"0.0-8.0-1.40","subject":"w3kjebc1eyhg5tf","sona":"8653"},{"trial_type":"turing-test","trial_index":169,"time_elapsed":415714,"internal_node_id":"0.0-8.0-2.40","subject":"w3kjebc1eyhg5tf","sona":"8653"},{"rt":1648.8050000043586,"stimulus":"<p>Welche Sequenz haben Sie als natürlicher empfunden?</p>","key_press":74,"test_part":"response","test_stimulus":{"position":0,"left":"bvh/pass-bottle-training4-lines.txt","right":"bvh/vr_prediction_models/model(tmp)-dataset(pass-bottle)-numprim(8)-hold(4)/final-lines.txt","att_check":false},"trial_type":"html-keyboard-response","trial_index":170,"time_elapsed":417380,"internal_node_id":"0.0-8.0-3.40","subject":"w3kjebc1eyhg5tf","sona":"8653"},{"rt":1144.4500000070548,"stimulus":"<p>Bereit?</p>","key_press":32,"trial_type":"html-keyboard-response","trial_index":171,"time_elapsed":418529,"internal_node_id":"0.0-8.0-0.41","subject":"w3kjebc1eyhg5tf","sona":"8653"},{"rt":null,"stimulus":"<div style=\"font-size:60px;\">+</div>","key_press":null,"trial_type":"html-keyboard-response","trial_index":172,"time_elapsed":420539,"internal_node_id":"0.0-8.0-1.41","subject":"w3kjebc1eyhg5tf","sona":"8653"},{"trial_type":"turing-test","trial_index":173,"time_elapsed":426799,"internal_node_id":"0.0-8.0-2.41","subject":"w3kjebc1eyhg5tf","sona":"8653"},{"rt":536.164999997709,"stimulus":"<p>Welche Sequenz haben Sie als natürlicher empfunden?</p>","key_press":70,"test_part":"response","test_stimulus":{"position":0,"left":"bvh/return-bottle-training3-lines.txt","right":"bvh/vr_prediction_models/model(vcgpdm)-dataset(return-bottle)-mode(ELBO)-parts(3)-dyn(25)-lvm(30)-hold(3)/final-lines.txt","att_check":false},"trial_type":"html-keyboard-response","trial_index":174,"time_elapsed":427344,"internal_node_id":"0.0-8.0-3.41","subject":"w3kjebc1eyhg5tf","sona":"8653"},{"rt":531.6349999920931,"stimulus":"<p>Bereit?</p>","key_press":32,"trial_type":"html-keyboard-response","trial_index":175,"time_elapsed":427883,"internal_node_id":"0.0-8.0-0.42","subject":"w3kjebc1eyhg5tf","sona":"8653"},{"rt":null,"stimulus":"<div style=\"font-size:60px;\">+</div>","key_press":null,"trial_type":"html-keyboard-response","trial_index":176,"time_elapsed":429889,"internal_node_id":"0.0-8.0-1.42","subject":"w3kjebc1eyhg5tf","sona":"8653"},{"trial_type":"turing-test","trial_index":177,"time_elapsed":436240,"internal_node_id":"0.0-8.0-2.42","subject":"w3kjebc1eyhg5tf","sona":"8653"},{"rt":0.9549999958835542,"stimulus":"<p>Welche Sequenz haben Sie als natürlicher empfunden?</p>","key_press":74,"test_part":"response","test_stimulus":{"position":1,"left":"bvh/vr_prediction_models/model(vcgpdm)-dataset(pass-bottle)-mode(ELBO)-parts(1)-dyn(10)-lvm(5)-hold(3)/final-lines.txt","right":"bvh/pass-bottle-training3-lines.txt","att_check":false},"trial_type":"html-keyboard-response","trial_index":178,"time_elapsed":436252,"internal_node_id":"0.0-8.0-3.42","subject":"w3kjebc1eyhg5tf","sona":"8653"},{"rt":941.4549999928568,"stimulus":"<p>Bereit?</p>","key_press":32,"trial_type":"html-keyboard-response","trial_index":179,"time_elapsed":437205,"internal_node_id":"0.0-8.0-0.43","subject":"w3kjebc1eyhg5tf","sona":"8653"},{"rt":null,"stimulus":"<div style=\"font-size:60px;\">+</div>","key_press":null,"trial_type":"html-keyboard-response","trial_index":180,"time_elapsed":439218,"internal_node_id":"0.0-8.0-1.43","subject":"w3kjebc1eyhg5tf","sona":"8653"},{"trial_type":"turing-test","trial_index":181,"time_elapsed":445289,"internal_node_id":"0.0-8.0-2.43","subject":"w3kjebc1eyhg5tf","sona":"8653"},{"rt":263.8650000008056,"stimulus":"<p>Welche Sequenz haben Sie als natürlicher empfunden?</p>","key_press":74,"test_part":"response","test_stimulus":{"position":1,"left":"bvh/vr_prediction_models/model(vcgpdm)-dataset(pass-bottle)-mode(ELBO)-parts(1)-dyn(20)-lvm(5)-hold(4)/final-lines.txt","right":"bvh/pass-bottle-training4-lines.txt","att_check":false},"trial_type":"html-keyboard-response","trial_index":182,"time_elapsed":445574,"internal_node_id":"0.0-8.0-3.43","subject":"w3kjebc1eyhg5tf","sona":"8653"},{"rt":475.5999999906635,"stimulus":"<p>Bereit?</p>","key_press":32,"trial_type":"html-keyboard-response","trial_index":183,"time_elapsed":446058,"internal_node_id":"0.0-8.0-0.44","subject":"w3kjebc1eyhg5tf","sona":"8653"},{"rt":null,"stimulus":"<div style=\"font-size:60px;\">+</div>","key_press":null,"trial_type":"html-keyboard-response","trial_index":184,"time_elapsed":448061,"internal_node_id":"0.0-8.0-1.44","subject":"w3kjebc1eyhg5tf","sona":"8653"},{"trial_type":"turing-test","trial_index":185,"time_elapsed":451971,"internal_node_id":"0.0-8.0-2.44","subject":"w3kjebc1eyhg5tf","sona":"8653"},{"rt":402.27500000037253,"stimulus":"<p>Welche Sequenz haben Sie als natürlicher empfunden?</p>","key_press":70,"test_part":"response","test_stimulus":{"position":0,"left":"bvh/return-bottle-hold-training2-lines.txt","right":"bvh/vr_prediction_models/model(vcgpdm)-dataset(return-bottle-hold)-mode(ELBO)-parts(3)-dyn(10)-lvm(30)-hold(2)/final-lines.txt","att_check":false},"trial_type":"html-keyboard-response","trial_index":186,"time_elapsed":452383,"internal_node_id":"0.0-8.0-3.44","subject":"w3kjebc1eyhg5tf","sona":"8653"},{"rt":580.0900000031106,"stimulus":"<p>Bereit?</p>","key_press":32,"trial_type":"html-keyboard-response","trial_index":187,"time_elapsed":452972,"internal_node_id":"0.0-8.0-0.45","subject":"w3kjebc1eyhg5tf","sona":"8653"},{"rt":null,"stimulus":"<div style=\"font-size:60px;\">+</div>","key_press":null,"trial_type":"html-keyboard-response","trial_index":188,"time_elapsed":454977,"internal_node_id":"0.0-8.0-1.45","subject":"w3kjebc1eyhg5tf","sona":"8653"},{"trial_type":"turing-test","trial_index":189,"time_elapsed":460850,"internal_node_id":"0.0-8.0-2.45","subject":"w3kjebc1eyhg5tf","sona":"8653"},{"rt":143.17000001028646,"stimulus":"<p>Welche Sequenz haben Sie als natürlicher empfunden?</p>","key_press":74,"test_part":"response","test_stimulus":{"position":0,"left":"bvh/return-bottle-training4-lines.txt","right":"bvh/vr_prediction_models/model(dmp)-dataset(return-bottle)-npsi(20)-hold(4)/final-lines.txt","att_check":false},"trial_type":"html-keyboard-response","trial_index":190,"time_elapsed":461005,"internal_node_id":"0.0-8.0-3.45","subject":"w3kjebc1eyhg5tf","sona":"8653"},{"rt":442.22500000614673,"stimulus":"<p>Bereit?</p>","key_press":32,"trial_type":"html-keyboard-response","trial_index":191,"time_elapsed":461457,"internal_node_id":"0.0-8.0-0.46","subject":"w3kjebc1eyhg5tf","sona":"8653"},{"rt":null,"stimulus":"<div style=\"font-size:60px;\">+</div>","key_press":null,"trial_type":"html-keyboard-response","trial_index":192,"time_elapsed":463465,"internal_node_id":"0.0-8.0-1.46","subject":"w3kjebc1eyhg5tf","sona":"8653"},{"trial_type":"turing-test","trial_index":193,"time_elapsed":466976,"internal_node_id":"0.0-8.0-2.46","subject":"w3kjebc1eyhg5tf","sona":"8653"},{"rt":337.16999999887776,"stimulus":"<p>Welche Sequenz haben Sie als natürlicher empfunden?</p>","key_press":70,"test_part":"response","test_stimulus":{"position":1,"left":"bvh/vr_prediction_models/model(dmp)-dataset(pass-bottle-hold)-npsi(100)-hold(2)/final-lines.txt","right":"bvh/pass-bottle-hold-training2-lines.txt","att_check":false},"trial_type":"html-keyboard-response","trial_index":194,"time_elapsed":467325,"internal_node_id":"0.0-8.0-3.46","subject":"w3kjebc1eyhg5tf","sona":"8653"},{"rt":831.7950000055134,"stimulus":"<p>Bereit?</p>","key_press":32,"trial_type":"html-keyboard-response","trial_index":195,"time_elapsed":468166,"internal_node_id":"0.0-8.0-0.47","subject":"w3kjebc1eyhg5tf","sona":"8653"},{"rt":null,"stimulus":"<div style=\"font-size:60px;\">+</div>","key_press":null,"trial_type":"html-keyboard-response","trial_index":196,"time_elapsed":470170,"internal_node_id":"0.0-8.0-1.47","subject":"w3kjebc1eyhg5tf","sona":"8653"},{"trial_type":"turing-test","trial_index":197,"time_elapsed":473898,"internal_node_id":"0.0-8.0-2.47","subject":"w3kjebc1eyhg5tf","sona":"8653"},{"rt":166.0799999954179,"stimulus":"<p>Welche Sequenz haben Sie als natürlicher empfunden?</p>","key_press":74,"test_part":"response","test_stimulus":{"position":1,"left":"bvh/vr_prediction_models/model(vcgpdm)-dataset(pass-bottle-hold)-mode(ELBO)-parts(3)-dyn(15)-lvm(30)-hold(2)/final-lines.txt","right":"bvh/pass-bottle-hold-training2-lines.txt","att_check":false},"trial_type":"html-keyboard-response","trial_index":198,"time_elapsed":474079,"internal_node_id":"0.0-8.0-3.47","subject":"w3kjebc1eyhg5tf","sona":"8653"},{"rt":482.99500001303386,"stimulus":"<p>Bereit?</p>","key_press":32,"trial_type":"html-keyboard-response","trial_index":199,"time_elapsed":474573,"internal_node_id":"0.0-8.0-0.48","subject":"w3kjebc1eyhg5tf","sona":"8653"},{"rt":null,"stimulus":"<div style=\"font-size:60px;\">+</div>","key_press":null,"trial_type":"html-keyboard-response","trial_index":200,"time_elapsed":476582,"internal_node_id":"0.0-8.0-1.48","subject":"w3kjebc1eyhg5tf","sona":"8653"},{"trial_type":"turing-test","trial_index":201,"time_elapsed":482799,"internal_node_id":"0.0-8.0-2.48","subject":"w3kjebc1eyhg5tf","sona":"8653"},{"rt":457.4549999961164,"stimulus":"<p>Welche Sequenz haben Sie als natürlicher empfunden?</p>","key_press":74,"test_part":"response","test_stimulus":{"position":1,"left":"bvh/vr_prediction_models/model(vcgpdm)-dataset(pass-bottle)-mode(ELBO)-parts(1)-dyn(30)-lvm(35)-hold(3)/final-lines.txt","right":"bvh/pass-bottle-training3-lines.txt","att_check":false},"trial_type":"html-keyboard-response","trial_index":202,"time_elapsed":483278,"internal_node_id":"0.0-8.0-3.48","subject":"w3kjebc1eyhg5tf","sona":"8653"},{"rt":476.47500000311993,"stimulus":"<p>Bereit?</p>","key_press":32,"trial_type":"html-keyboard-response","trial_index":203,"time_elapsed":483765,"internal_node_id":"0.0-8.0-0.49","subject":"w3kjebc1eyhg5tf","sona":"8653"},{"rt":null,"stimulus":"<div style=\"font-size:60px;\">+</div>","key_press":null,"trial_type":"html-keyboard-response","trial_index":204,"time_elapsed":485778,"internal_node_id":"0.0-8.0-1.49","subject":"w3kjebc1eyhg5tf","sona":"8653"},{"trial_type":"turing-test","trial_index":205,"time_elapsed":491993,"internal_node_id":"0.0-8.0-2.49","subject":"w3kjebc1eyhg5tf","sona":"8653"},{"rt":412.4500000034459,"stimulus":"<p>Welche Sequenz haben Sie als natürlicher empfunden?</p>","key_press":74,"test_part":"response","test_stimulus":{"position":1,"left":"bvh/vr_prediction_models/model(dmp)-dataset(return-bottle)-npsi(90)-hold(1)/final-lines.txt","right":"bvh/return-bottle-training1-lines.txt","att_check":false},"trial_type":"html-keyboard-response","trial_index":206,"time_elapsed":492423,"internal_node_id":"0.0-8.0-3.49","subject":"w3kjebc1eyhg5tf","sona":"8653"},{"rt":404.9300000042422,"stimulus":"<p>Bereit?</p>","key_press":32,"trial_type":"html-keyboard-response","trial_index":207,"time_elapsed":492837,"internal_node_id":"0.0-8.0-0.50","subject":"w3kjebc1eyhg5tf","sona":"8653"},{"rt":null,"stimulus":"<div style=\"font-size:60px;\">+</div>","key_press":null,"trial_type":"html-keyboard-response","trial_index":208,"time_elapsed":494849,"internal_node_id":"0.0-8.0-1.50","subject":"w3kjebc1eyhg5tf","sona":"8653"},{"trial_type":"turing-test","trial_index":209,"time_elapsed":498604,"internal_node_id":"0.0-8.0-2.50","subject":"w3kjebc1eyhg5tf","sona":"8653"},{"rt":547.1449999895412,"stimulus":"<p>Welche Sequenz haben Sie als natürlicher empfunden?</p>","key_press":74,"test_part":"response","test_stimulus":{"position":1,"left":"bvh/vr_prediction_models/model(tmp)-dataset(return-bottle-hold)-numprim(12)-hold(3)/final-lines.txt","right":"bvh/return-bottle-hold-training3-lines.txt","att_check":false},"trial_type":"html-keyboard-response","trial_index":210,"time_elapsed":499164,"internal_node_id":"0.0-8.0-3.50","subject":"w3kjebc1eyhg5tf","sona":"8653"},{"rt":688.3050000033109,"stimulus":"<p>Bereit?</p>","key_press":32,"trial_type":"html-keyboard-response","trial_index":211,"time_elapsed":499858,"internal_node_id":"0.0-8.0-0.51","subject":"w3kjebc1eyhg5tf","sona":"8653"},{"rt":null,"stimulus":"<div style=\"font-size:60px;\">+</div>","key_press":null,"trial_type":"html-keyboard-response","trial_index":212,"time_elapsed":501872,"internal_node_id":"0.0-8.0-1.51","subject":"w3kjebc1eyhg5tf","sona":"8653"},{"trial_type":"turing-test","trial_index":213,"time_elapsed":507914,"internal_node_id":"0.0-8.0-2.51","subject":"w3kjebc1eyhg5tf","sona":"8653"},{"rt":571.7749999894295,"stimulus":"<p>Welche Sequenz haben Sie als natürlicher empfunden?</p>","key_press":70,"test_part":"response","test_stimulus":{"position":1,"left":"bvh/vr_prediction_models/model(dmp)-dataset(pass-bottle)-npsi(50)-hold(2)/final-lines.txt","right":"bvh/pass-bottle-training2-lines.txt","att_check":false},"trial_type":"html-keyboard-response","trial_index":214,"time_elapsed":508499,"internal_node_id":"0.0-8.0-3.51","subject":"w3kjebc1eyhg5tf","sona":"8653"},{"rt":435.4649999877438,"stimulus":"<p>Bereit?</p>","key_press":32,"trial_type":"html-keyboard-response","trial_index":215,"time_elapsed":508948,"internal_node_id":"0.0-8.0-0.52","subject":"w3kjebc1eyhg5tf","sona":"8653"},{"rt":null,"stimulus":"<div style=\"font-size:60px;\">+</div>","key_press":null,"trial_type":"html-keyboard-response","trial_index":216,"time_elapsed":510964,"internal_node_id":"0.0-8.0-1.52","subject":"w3kjebc1eyhg5tf","sona":"8653"},{"trial_type":"turing-test","trial_index":217,"time_elapsed":516982,"internal_node_id":"0.0-8.0-2.52","subject":"w3kjebc1eyhg5tf","sona":"8653"},{"rt":454.50500000151806,"stimulus":"<p>Welche Sequenz haben Sie als natürlicher empfunden?</p>","key_press":74,"test_part":"response","test_stimulus":{"position":1,"left":"bvh/vr_prediction_models/model(dmp)-dataset(pass-bottle)-npsi(80)-hold(3)/final-lines.txt","right":"bvh/pass-bottle-training3-lines.txt","att_check":true},"trial_type":"html-keyboard-response","trial_index":218,"time_elapsed":517453,"internal_node_id":"0.0-8.0-3.52","subject":"w3kjebc1eyhg5tf","sona":"8653"},{"rt":427.0449999894481,"stimulus":"<p>Bereit?</p>","key_press":32,"trial_type":"html-keyboard-response","trial_index":219,"time_elapsed":517890,"internal_node_id":"0.0-8.0-0.53","subject":"w3kjebc1eyhg5tf","sona":"8653"},{"rt":null,"stimulus":"<div style=\"font-size:60px;\">+</div>","key_press":null,"trial_type":"html-keyboard-response","trial_index":220,"time_elapsed":519906,"internal_node_id":"0.0-8.0-1.53","subject":"w3kjebc1eyhg5tf","sona":"8653"},{"trial_type":"turing-test","trial_index":221,"time_elapsed":525468,"internal_node_id":"0.0-8.0-2.53","subject":"w3kjebc1eyhg5tf","sona":"8653"},{"rt":582.2299999999814,"stimulus":"<p>Welche Sequenz haben Sie als natürlicher empfunden?</p>","key_press":70,"test_part":"response","test_stimulus":{"position":1,"left":"bvh/vr_prediction_models/model(tmp)-dataset(pass-bottle)-numprim(9)-hold(1)/final-lines.txt","right":"bvh/pass-bottle-training1-lines.txt","att_check":false},"trial_type":"html-keyboard-response","trial_index":222,"time_elapsed":526066,"internal_node_id":"0.0-8.0-3.53","subject":"w3kjebc1eyhg5tf","sona":"8653"},{"rt":317.5000000046566,"stimulus":"<p>Bereit?</p>","key_press":32,"trial_type":"html-keyboard-response","trial_index":223,"time_elapsed":526398,"internal_node_id":"0.0-8.0-0.54","subject":"w3kjebc1eyhg5tf","sona":"8653"},{"rt":null,"stimulus":"<div style=\"font-size:60px;\">+</div>","key_press":null,"trial_type":"html-keyboard-response","trial_index":224,"time_elapsed":528405,"internal_node_id":"0.0-8.0-1.54","subject":"w3kjebc1eyhg5tf","sona":"8653"},{"trial_type":"turing-test","trial_index":225,"time_elapsed":534540,"internal_node_id":"0.0-8.0-2.54","subject":"w3kjebc1eyhg5tf","sona":"8653"},{"rt":297.43999999482185,"stimulus":"<p>Welche Sequenz haben Sie als natürlicher empfunden?</p>","key_press":70,"test_part":"response","test_stimulus":{"position":1,"left":"bvh/vr_prediction_models/model(vcgpdm)-dataset(pass-bottle)-mode(ELBO)-parts(3)-dyn(25)-lvm(15)-hold(4)/final-lines.txt","right":"bvh/pass-bottle-training4-lines.txt","att_check":false},"trial_type":"html-keyboard-response","trial_index":226,"time_elapsed":534850,"internal_node_id":"0.0-8.0-3.54","subject":"w3kjebc1eyhg5tf","sona":"8653"},{"rt":263.00999999511987,"stimulus":"<p>Bereit?</p>","key_press":32,"trial_type":"html-keyboard-response","trial_index":227,"time_elapsed":535122,"internal_node_id":"0.0-8.0-0.55","subject":"w3kjebc1eyhg5tf","sona":"8653"},{"rt":null,"stimulus":"<div style=\"font-size:60px;\">+</div>","key_press":null,"trial_type":"html-keyboard-response","trial_index":228,"time_elapsed":537132,"internal_node_id":"0.0-8.0-1.55","subject":"w3kjebc1eyhg5tf","sona":"8653"},{"trial_type":"turing-test","trial_index":229,"time_elapsed":543296,"internal_node_id":"0.0-8.0-2.55","subject":"w3kjebc1eyhg5tf","sona":"8653"},{"rt":847.6950000040233,"stimulus":"<p>Welche Sequenz haben Sie als natürlicher empfunden?</p>","key_press":70,"test_part":"response","test_stimulus":{"position":0,"left":"bvh/return-bottle-training1-lines.txt","right":"bvh/vr_prediction_models/model(tmp)-dataset(return-bottle)-numprim(3)-hold(1)/final-lines.txt","att_check":false},"trial_type":"html-keyboard-response","trial_index":230,"time_elapsed":544161,"internal_node_id":"0.0-8.0-3.55","subject":"w3kjebc1eyhg5tf","sona":"8653"},{"rt":408.0850000027567,"stimulus":"<p>Bereit?</p>","key_press":32,"trial_type":"html-keyboard-response","trial_index":231,"time_elapsed":544578,"internal_node_id":"0.0-8.0-0.56","subject":"w3kjebc1eyhg5tf","sona":"8653"},{"rt":null,"stimulus":"<div style=\"font-size:60px;\">+</div>","key_press":null,"trial_type":"html-keyboard-response","trial_index":232,"time_elapsed":546588,"internal_node_id":"0.0-8.0-1.56","subject":"w3kjebc1eyhg5tf","sona":"8653"},{"trial_type":"turing-test","trial_index":233,"time_elapsed":550314,"internal_node_id":"0.0-8.0-2.56","subject":"w3kjebc1eyhg5tf","sona":"8653"},{"rt":382.0149999955902,"stimulus":"<p>Welche Sequenz haben Sie als natürlicher empfunden?</p>","key_press":74,"test_part":"response","test_stimulus":{"position":0,"left":"bvh/pass-bottle-hold-training1-lines.txt","right":"bvh/vr_prediction_models/model(vcgpdm)-dataset(pass-bottle-hold)-mode(ELBO)-parts(3)-dyn(20)-lvm(35)-hold(1)/final-lines.txt","att_check":false},"trial_type":"html-keyboard-response","trial_index":234,"time_elapsed":550706,"internal_node_id":"0.0-8.0-3.56","subject":"w3kjebc1eyhg5tf","sona":"8653"},{"rt":383.4050000004936,"stimulus":"<p>Bereit?</p>","key_press":32,"trial_type":"html-keyboard-response","trial_index":235,"time_elapsed":551098,"internal_node_id":"0.0-8.0-0.57","subject":"w3kjebc1eyhg5tf","sona":"8653"},{"rt":null,"stimulus":"<div style=\"font-size:60px;\">+</div>","key_press":null,"trial_type":"html-keyboard-response","trial_index":236,"time_elapsed":553114,"internal_node_id":"0.0-8.0-1.57","subject":"w3kjebc1eyhg5tf","sona":"8653"},{"trial_type":"turing-test","trial_index":237,"time_elapsed":556581,"internal_node_id":"0.0-8.0-2.57","subject":"w3kjebc1eyhg5tf","sona":"8653"},{"rt":384.2049999948358,"stimulus":"<p>Welche Sequenz haben Sie als natürlicher empfunden?</p>","key_press":74,"test_part":"response","test_stimulus":{"position":1,"left":"bvh/vr_prediction_models/model(tmp)-dataset(pass-bottle-hold)-numprim(10)-hold(2)/final-lines.txt","right":"bvh/pass-bottle-hold-training2-lines.txt","att_check":false},"trial_type":"html-keyboard-response","trial_index":238,"time_elapsed":556977,"internal_node_id":"0.0-8.0-3.57","subject":"w3kjebc1eyhg5tf","sona":"8653"},{"rt":416.84999999415595,"stimulus":"<p>Bereit?</p>","key_press":32,"trial_type":"html-keyboard-response","trial_index":239,"time_elapsed":557402,"internal_node_id":"0.0-8.0-0.58","subject":"w3kjebc1eyhg5tf","sona":"8653"},{"rt":null,"stimulus":"<div style=\"font-size:60px;\">+</div>","key_press":null,"trial_type":"html-keyboard-response","trial_index":240,"time_elapsed":559411,"internal_node_id":"0.0-8.0-1.58","subject":"w3kjebc1eyhg5tf","sona":"8653"},{"trial_type":"turing-test","trial_index":241,"time_elapsed":563058,"internal_node_id":"0.0-8.0-2.58","subject":"w3kjebc1eyhg5tf","sona":"8653"},{"rt":306.6800000087824,"stimulus":"<p>Welche Sequenz haben Sie als natürlicher empfunden?</p>","key_press":74,"test_part":"response","test_stimulus":{"position":1,"left":"bvh/vr_prediction_models/model(tmp)-dataset(pass-bottle-hold)-numprim(6)-hold(3)/final-lines.txt","right":"bvh/pass-bottle-hold-training3-lines.txt","att_check":false},"trial_type":"html-keyboard-response","trial_index":242,"time_elapsed":563381,"internal_node_id":"0.0-8.0-3.58","subject":"w3kjebc1eyhg5tf","sona":"8653"},{"rt":566.2799999990966,"stimulus":"<p>Bereit?</p>","key_press":32,"trial_type":"html-keyboard-response","trial_index":243,"time_elapsed":563961,"internal_node_id":"0.0-8.0-0.59","subject":"w3kjebc1eyhg5tf","sona":"8653"},{"rt":null,"stimulus":"<div style=\"font-size:60px;\">+</div>","key_press":null,"trial_type":"html-keyboard-response","trial_index":244,"time_elapsed":565964,"internal_node_id":"0.0-8.0-1.59","subject":"w3kjebc1eyhg5tf","sona":"8653"},{"trial_type":"turing-test","trial_index":245,"time_elapsed":571732,"internal_node_id":"0.0-8.0-2.59","subject":"w3kjebc1eyhg5tf","sona":"8653"},{"rt":421.15999999805354,"stimulus":"<p>Welche Sequenz haben Sie als natürlicher empfunden?</p>","key_press":74,"test_part":"response","test_stimulus":{"position":0,"left":"bvh/pass-bottle-training4-lines.txt","right":"bvh/vr_prediction_models/model(vcgpdm)-dataset(pass-bottle)-mode(ELBO)-parts(1)-dyn(30)-lvm(35)-hold(4)/final-lines.txt","att_check":false},"trial_type":"html-keyboard-response","trial_index":246,"time_elapsed":572166,"internal_node_id":"0.0-8.0-3.59","subject":"w3kjebc1eyhg5tf","sona":"8653"},{"rt":409.6149999968475,"stimulus":"<p>Bereit?</p>","key_press":32,"trial_type":"html-keyboard-response","trial_index":247,"time_elapsed":572586,"internal_node_id":"0.0-8.0-0.60","subject":"w3kjebc1eyhg5tf","sona":"8653"},{"rt":null,"stimulus":"<div style=\"font-size:60px;\">+</div>","key_press":null,"trial_type":"html-keyboard-response","trial_index":248,"time_elapsed":574592,"internal_node_id":"0.0-8.0-1.60","subject":"w3kjebc1eyhg5tf","sona":"8653"},{"trial_type":"turing-test","trial_index":249,"time_elapsed":578012,"internal_node_id":"0.0-8.0-2.60","subject":"w3kjebc1eyhg5tf","sona":"8653"},{"rt":341.83000000484753,"stimulus":"<p>Welche Sequenz haben Sie als natürlicher empfunden?</p>","key_press":74,"test_part":"response","test_stimulus":{"position":1,"left":"bvh/vr_prediction_models/model(dmp)-dataset(pass-bottle-hold)-npsi(10)-hold(0)/final-lines.txt","right":"bvh/pass-bottle-hold-training0-lines.txt","att_check":false},"trial_type":"html-keyboard-response","trial_index":250,"time_elapsed":578366,"internal_node_id":"0.0-8.0-3.60","subject":"w3kjebc1eyhg5tf","sona":"8653"},{"rt":287.2150000039255,"stimulus":"<p>Bereit?</p>","key_press":32,"trial_type":"html-keyboard-response","trial_index":251,"time_elapsed":578662,"internal_node_id":"0.0-8.0-0.61","subject":"w3kjebc1eyhg5tf","sona":"8653"},{"rt":null,"stimulus":"<div style=\"font-size:60px;\">+</div>","key_press":null,"trial_type":"html-keyboard-response","trial_index":252,"time_elapsed":580666,"internal_node_id":"0.0-8.0-1.61","subject":"w3kjebc1eyhg5tf","sona":"8653"},{"trial_type":"turing-test","trial_index":253,"time_elapsed":587640,"internal_node_id":"0.0-8.0-2.61","subject":"w3kjebc1eyhg5tf","sona":"8653"},{"rt":568.28000000678,"stimulus":"<p>Welche Sequenz haben Sie als natürlicher empfunden?</p>","key_press":70,"test_part":"response","test_stimulus":{"position":1,"left":"bvh/vr_prediction_models/model(vcgpdm)-dataset(return-bottle)-mode(MAP)-parts(3)-hold(2)/final-lines.txt","right":"bvh/return-bottle-training2-lines.txt","att_check":false},"trial_type":"html-keyboard-response","trial_index":254,"time_elapsed":588225,"internal_node_id":"0.0-8.0-3.61","subject":"w3kjebc1eyhg5tf","sona":"8653"},{"rt":396.7549999943003,"stimulus":"<p>Bereit?</p>","key_press":32,"trial_type":"html-keyboard-response","trial_index":255,"time_elapsed":588629,"internal_node_id":"0.0-8.0-0.62","subject":"w3kjebc1eyhg5tf","sona":"8653"},{"rt":null,"stimulus":"<div style=\"font-size:60px;\">+</div>","key_press":null,"trial_type":"html-keyboard-response","trial_index":256,"time_elapsed":590637,"internal_node_id":"0.0-8.0-1.62","subject":"w3kjebc1eyhg5tf","sona":"8653"},{"trial_type":"turing-test","trial_index":257,"time_elapsed":596819,"internal_node_id":"0.0-8.0-2.62","subject":"w3kjebc1eyhg5tf","sona":"8653"},{"rt":331.8699999945238,"stimulus":"<p>Welche Sequenz haben Sie als natürlicher empfunden?</p>","key_press":74,"test_part":"response","test_stimulus":{"position":1,"left":"bvh/vr_prediction_models/model(vcgpdm)-dataset(pass-bottle)-mode(ELBO)-parts(1)-dyn(35)-lvm(30)-hold(3)/final-lines.txt","right":"bvh/pass-bottle-training3-lines.txt","att_check":false},"trial_type":"html-keyboard-response","trial_index":258,"time_elapsed":597165,"internal_node_id":"0.0-8.0-3.62","subject":"w3kjebc1eyhg5tf","sona":"8653"},{"rt":323.76499999372754,"stimulus":"<p>Bereit?</p>","key_press":32,"trial_type":"html-keyboard-response","trial_index":259,"time_elapsed":597498,"internal_node_id":"0.0-8.0-0.63","subject":"w3kjebc1eyhg5tf","sona":"8653"},{"rt":null,"stimulus":"<div style=\"font-size:60px;\">+</div>","key_press":null,"trial_type":"html-keyboard-response","trial_index":260,"time_elapsed":599514,"internal_node_id":"0.0-8.0-1.63","subject":"w3kjebc1eyhg5tf","sona":"8653"},{"trial_type":"turing-test","trial_index":261,"time_elapsed":605447,"internal_node_id":"0.0-8.0-2.63","subject":"w3kjebc1eyhg5tf","sona":"8653"},{"rt":390.4200000106357,"stimulus":"<p>Welche Sequenz haben Sie als natürlicher empfunden?</p>","key_press":70,"test_part":"response","test_stimulus":{"position":0,"left":"bvh/pass-bottle-training3-lines.txt","right":"bvh/vr_prediction_models/model(dmp)-dataset(pass-bottle)-npsi(50)-hold(3)/final-lines.txt","att_check":false},"trial_type":"html-keyboard-response","trial_index":262,"time_elapsed":605855,"internal_node_id":"0.0-8.0-3.63","subject":"w3kjebc1eyhg5tf","sona":"8653"},{"rt":375.5950000049779,"stimulus":"<p>Bereit?</p>","key_press":32,"trial_type":"html-keyboard-response","trial_index":263,"time_elapsed":606240,"internal_node_id":"0.0-8.0-0.64","subject":"w3kjebc1eyhg5tf","sona":"8653"},{"rt":null,"stimulus":"<div style=\"font-size:60px;\">+</div>","key_press":null,"trial_type":"html-keyboard-response","trial_index":264,"time_elapsed":608248,"internal_node_id":"0.0-8.0-1.64","subject":"w3kjebc1eyhg5tf","sona":"8653"},{"trial_type":"turing-test","trial_index":265,"time_elapsed":612361,"internal_node_id":"0.0-8.0-2.64","subject":"w3kjebc1eyhg5tf","sona":"8653"},{"rt":163.9500000019325,"stimulus":"<p>Welche Sequenz haben Sie als natürlicher empfunden?</p>","key_press":70,"test_part":"response","test_stimulus":{"position":0,"left":"bvh/return-bottle-hold-training4-lines.txt","right":"bvh/vr_prediction_models/model(vcgpdm)-dataset(return-bottle-hold)-mode(ELBO)-parts(3)-dyn(20)-lvm(15)-hold(4)/final-lines.txt","att_check":false},"trial_type":"html-keyboard-response","trial_index":266,"time_elapsed":612541,"internal_node_id":"0.0-8.0-3.64","subject":"w3kjebc1eyhg5tf","sona":"8653"},{"rt":245.760000005248,"stimulus":"<p>Bereit?</p>","key_press":32,"trial_type":"html-keyboard-response","trial_index":267,"time_elapsed":612795,"internal_node_id":"0.0-8.0-0.65","subject":"w3kjebc1eyhg5tf","sona":"8653"},{"rt":null,"stimulus":"<div style=\"font-size:60px;\">+</div>","key_press":null,"trial_type":"html-keyboard-response","trial_index":268,"time_elapsed":614801,"internal_node_id":"0.0-8.0-1.65","subject":"w3kjebc1eyhg5tf","sona":"8653"},{"trial_type":"turing-test","trial_index":269,"time_elapsed":618229,"internal_node_id":"0.0-8.0-2.65","subject":"w3kjebc1eyhg5tf","sona":"8653"},{"rt":589.4750000006752,"stimulus":"<p>Welche Sequenz haben Sie als natürlicher empfunden?</p>","key_press":74,"test_part":"response","test_stimulus":{"position":1,"left":"bvh/vr_prediction_models/model(tmp)-dataset(return-bottle-hold)-numprim(12)-hold(1)/final-lines.txt","right":"bvh/return-bottle-hold-training1-lines.txt","att_check":false},"trial_type":"html-keyboard-response","trial_index":270,"time_elapsed":618832,"internal_node_id":"0.0-8.0-3.65","subject":"w3kjebc1eyhg5tf","sona":"8653"},{"rt":288.139999989653,"stimulus":"<p>Bereit?</p>","key_press":32,"trial_type":"html-keyboard-response","trial_index":271,"time_elapsed":619133,"internal_node_id":"0.0-8.0-0.66","subject":"w3kjebc1eyhg5tf","sona":"8653"},{"rt":null,"stimulus":"<div style=\"font-size:60px;\">+</div>","key_press":null,"trial_type":"html-keyboard-response","trial_index":272,"time_elapsed":621139,"internal_node_id":"0.0-8.0-1.66","subject":"w3kjebc1eyhg5tf","sona":"8653"},{"trial_type":"turing-test","trial_index":273,"time_elapsed":624782,"internal_node_id":"0.0-8.0-2.66","subject":"w3kjebc1eyhg5tf","sona":"8653"},{"rt":273.79500000097323,"stimulus":"<p>Welche Sequenz haben Sie als natürlicher empfunden?</p>","key_press":74,"test_part":"response","test_stimulus":{"position":1,"left":"bvh/vr_prediction_models/model(dmp)-dataset(return-bottle-hold)-npsi(90)-hold(3)/final-lines.txt","right":"bvh/return-bottle-hold-training3-lines.txt","att_check":false},"trial_type":"html-keyboard-response","trial_index":274,"time_elapsed":625066,"internal_node_id":"0.0-8.0-3.66","subject":"w3kjebc1eyhg5tf","sona":"8653"},{"rt":301.2799999996787,"stimulus":"<p>Bereit?</p>","key_press":32,"trial_type":"html-keyboard-response","trial_index":275,"time_elapsed":625385,"internal_node_id":"0.0-8.0-0.67","subject":"w3kjebc1eyhg5tf","sona":"8653"},{"rt":null,"stimulus":"<div style=\"font-size:60px;\">+</div>","key_press":null,"trial_type":"html-keyboard-response","trial_index":276,"time_elapsed":627396,"internal_node_id":"0.0-8.0-1.67","subject":"w3kjebc1eyhg5tf","sona":"8653"},{"trial_type":"turing-test","trial_index":277,"time_elapsed":631150,"internal_node_id":"0.0-8.0-2.67","subject":"w3kjebc1eyhg5tf","sona":"8653"},{"rt":257.5900000083493,"stimulus":"<p>Welche Sequenz haben Sie als natürlicher empfunden?</p>","key_press":70,"test_part":"response","test_stimulus":{"position":0,"left":"bvh/return-bottle-hold-training1-lines.txt","right":"bvh/vr_prediction_models/model(vcgpdm)-dataset(return-bottle-hold)-mode(ELBO)-parts(3)-dyn(15)-lvm(30)-hold(1)/final-lines.txt","att_check":false},"trial_type":"html-keyboard-response","trial_index":278,"time_elapsed":631420,"internal_node_id":"0.0-8.0-3.67","subject":"w3kjebc1eyhg5tf","sona":"8653"},{"rt":165.84999999031425,"stimulus":"<p>Bereit?</p>","key_press":32,"trial_type":"html-keyboard-response","trial_index":279,"time_elapsed":631597,"internal_node_id":"0.0-8.0-0.68","subject":"w3kjebc1eyhg5tf","sona":"8653"},{"rt":null,"stimulus":"<div style=\"font-size:60px;\">+</div>","key_press":null,"trial_type":"html-keyboard-response","trial_index":280,"time_elapsed":633618,"internal_node_id":"0.0-8.0-1.68","subject":"w3kjebc1eyhg5tf","sona":"8653"},{"trial_type":"turing-test","trial_index":281,"time_elapsed":637823,"internal_node_id":"0.0-8.0-2.68","subject":"w3kjebc1eyhg5tf","sona":"8653"},{"rt":75.68500000343192,"stimulus":"<p>Welche Sequenz haben Sie als natürlicher empfunden?</p>","key_press":74,"test_part":"response","test_stimulus":{"position":1,"left":"bvh/vr_prediction_models/model(vcgpdm)-dataset(pass-bottle-hold)-mode(ELBO)-parts(1)-dyn(10)-lvm(30)-hold(4)/final-lines.txt","right":"bvh/pass-bottle-hold-training4-lines.txt","att_check":false},"trial_type":"html-keyboard-response","trial_index":282,"time_elapsed":637910,"internal_node_id":"0.0-8.0-3.68","subject":"w3kjebc1eyhg5tf","sona":"8653"},{"rt":343.8650000025518,"stimulus":"<p>Bereit?</p>","key_press":32,"trial_type":"html-keyboard-response","trial_index":283,"time_elapsed":638264,"internal_node_id":"0.0-8.0-0.69","subject":"w3kjebc1eyhg5tf","sona":"8653"},{"rt":null,"stimulus":"<div style=\"font-size:60px;\">+</div>","key_press":null,"trial_type":"html-keyboard-response","trial_index":284,"time_elapsed":640283,"internal_node_id":"0.0-8.0-1.69","subject":"w3kjebc1eyhg5tf","sona":"8653"},{"trial_type":"turing-test","trial_index":285,"time_elapsed":643726,"internal_node_id":"0.0-8.0-2.69","subject":"w3kjebc1eyhg5tf","sona":"8653"},{"rt":298.8550000009127,"stimulus":"<p>Welche Sequenz haben Sie als natürlicher empfunden?</p>","key_press":70,"test_part":"response","test_stimulus":{"position":1,"left":"bvh/vr_prediction_models/model(dmp)-dataset(pass-bottle-hold)-npsi(40)-hold(2)/final-lines.txt","right":"bvh/pass-bottle-hold-training2-lines.txt","att_check":false},"trial_type":"html-keyboard-response","trial_index":286,"time_elapsed":644038,"internal_node_id":"0.0-8.0-3.69","subject":"w3kjebc1eyhg5tf","sona":"8653"},{"rt":318.42999999935273,"stimulus":"<p>Bereit?</p>","key_press":32,"trial_type":"html-keyboard-response","trial_index":287,"time_elapsed":644367,"internal_node_id":"0.0-8.0-0.70","subject":"w3kjebc1eyhg5tf","sona":"8653"},{"rt":null,"stimulus":"<div style=\"font-size:60px;\">+</div>","key_press":null,"trial_type":"html-keyboard-response","trial_index":288,"time_elapsed":646381,"internal_node_id":"0.0-8.0-1.70","subject":"w3kjebc1eyhg5tf","sona":"8653"},{"trial_type":"turing-test","trial_index":289,"time_elapsed":651739,"internal_node_id":"0.0-8.0-2.70","subject":"w3kjebc1eyhg5tf","sona":"8653"},{"rt":925.199999997858,"stimulus":"<p>Welche Sequenz haben Sie als natürlicher empfunden?</p>","key_press":70,"test_part":"response","test_stimulus":{"position":0,"left":"bvh/return-bottle-hold-training0-lines.txt","right":"bvh/vr_prediction_models/model(vcgpdm)-dataset(return-bottle-hold)-mode(ELBO)-parts(3)-dyn(10)-lvm(30)-hold(0)/final-lines.txt","att_check":false},"trial_type":"html-keyboard-response","trial_index":290,"time_elapsed":652677,"internal_node_id":"0.0-8.0-3.70","subject":"w3kjebc1eyhg5tf","sona":"8653"},{"rt":250.41500000224914,"stimulus":"<p>Bereit?</p>","key_press":32,"trial_type":"html-keyboard-response","trial_index":291,"time_elapsed":652934,"internal_node_id":"0.0-8.0-0.71","subject":"w3kjebc1eyhg5tf","sona":"8653"},{"rt":null,"stimulus":"<div style=\"font-size:60px;\">+</div>","key_press":null,"trial_type":"html-keyboard-response","trial_index":292,"time_elapsed":654944,"internal_node_id":"0.0-8.0-1.71","subject":"w3kjebc1eyhg5tf","sona":"8653"},{"trial_type":"turing-test","trial_index":293,"time_elapsed":661634,"internal_node_id":"0.0-8.0-2.71","subject":"w3kjebc1eyhg5tf","sona":"8653"},{"rt":386.289999994915,"stimulus":"<p>Welche Sequenz haben Sie als natürlicher empfunden?</p>","key_press":70,"test_part":"response","test_stimulus":{"position":1,"left":"bvh/vr_prediction_models/model(tmp)-dataset(return-bottle)-numprim(15)-hold(2)/final-lines.txt","right":"bvh/return-bottle-training2-lines.txt","att_check":false},"trial_type":"html-keyboard-response","trial_index":294,"time_elapsed":662029,"internal_node_id":"0.0-8.0-3.71","subject":"w3kjebc1eyhg5tf","sona":"8653"},{"rt":222.1399999980349,"stimulus":"<p>Bereit?</p>","key_press":32,"trial_type":"html-keyboard-response","trial_index":295,"time_elapsed":662268,"internal_node_id":"0.0-8.0-0.72","subject":"w3kjebc1eyhg5tf","sona":"8653"},{"rt":null,"stimulus":"<div style=\"font-size:60px;\">+</div>","key_press":null,"trial_type":"html-keyboard-response","trial_index":296,"time_elapsed":664286,"internal_node_id":"0.0-8.0-1.72","subject":"w3kjebc1eyhg5tf","sona":"8653"},{"trial_type":"turing-test","trial_index":297,"time_elapsed":668056,"internal_node_id":"0.0-8.0-2.72","subject":"w3kjebc1eyhg5tf","sona":"8653"},{"rt":226.97499999776483,"stimulus":"<p>Welche Sequenz haben Sie als natürlicher empfunden?</p>","key_press":74,"test_part":"response","test_stimulus":{"position":1,"left":"bvh/vr_prediction_models/model(vcgpdm)-dataset(return-bottle-hold)-mode(ELBO)-parts(3)-dyn(25)-lvm(25)-hold(1)/final-lines.txt","right":"bvh/return-bottle-hold-training1-lines.txt","att_check":false},"trial_type":"html-keyboard-response","trial_index":298,"time_elapsed":668288,"internal_node_id":"0.0-8.0-3.72","subject":"w3kjebc1eyhg5tf","sona":"8653"},{"rt":456.70500000414904,"stimulus":"<p>Bereit?</p>","key_press":32,"trial_type":"html-keyboard-response","trial_index":299,"time_elapsed":668755,"internal_node_id":"0.0-8.0-0.73","subject":"w3kjebc1eyhg5tf","sona":"8653"},{"rt":null,"stimulus":"<div style=\"font-size:60px;\">+</div>","key_press":null,"trial_type":"html-keyboard-response","trial_index":300,"time_elapsed":670772,"internal_node_id":"0.0-8.0-1.73","subject":"w3kjebc1eyhg5tf","sona":"8653"},{"trial_type":"turing-test","trial_index":301,"time_elapsed":677629,"internal_node_id":"0.0-8.0-2.73","subject":"w3kjebc1eyhg5tf","sona":"8653"},{"rt":191.86000000627246,"stimulus":"<p>Welche Sequenz haben Sie als natürlicher empfunden?</p>","key_press":70,"test_part":"response","test_stimulus":{"position":1,"left":"bvh/vr_prediction_models/model(dmp)-dataset(pass-bottle)-npsi(40)-hold(0)/final-lines.txt","right":"bvh/pass-bottle-training0-lines.txt","att_check":false},"trial_type":"html-keyboard-response","trial_index":302,"time_elapsed":677833,"internal_node_id":"0.0-8.0-3.73","subject":"w3kjebc1eyhg5tf","sona":"8653"},{"rt":424.1749999928288,"stimulus":"<p>Bereit?</p>","key_press":32,"trial_type":"html-keyboard-response","trial_index":303,"time_elapsed":678272,"internal_node_id":"0.0-8.0-0.74","subject":"w3kjebc1eyhg5tf","sona":"8653"},{"rt":null,"stimulus":"<div style=\"font-size:60px;\">+</div>","key_press":null,"trial_type":"html-keyboard-response","trial_index":304,"time_elapsed":680288,"internal_node_id":"0.0-8.0-1.74","subject":"w3kjebc1eyhg5tf","sona":"8653"},{"trial_type":"turing-test","trial_index":305,"time_elapsed":686093,"internal_node_id":"0.0-8.0-2.74","subject":"w3kjebc1eyhg5tf","sona":"8653"},{"rt":456.81499999773223,"stimulus":"<p>Welche Sequenz haben Sie als natürlicher empfunden?</p>","key_press":74,"test_part":"response","test_stimulus":{"position":1,"left":"bvh/vr_prediction_models/model(vcgpdm)-dataset(pass-bottle)-mode(ELBO)-parts(1)-dyn(30)-lvm(20)-hold(1)/final-lines.txt","right":"bvh/pass-bottle-training1-lines.txt","att_check":false},"trial_type":"html-keyboard-response","trial_index":306,"time_elapsed":686570,"internal_node_id":"0.0-8.0-3.74","subject":"w3kjebc1eyhg5tf","sona":"8653"},{"rt":583.0249999999069,"stimulus":"<p>Bereit?</p>","key_press":32,"trial_type":"html-keyboard-response","trial_index":307,"time_elapsed":687166,"internal_node_id":"0.0-8.0-0.75","subject":"w3kjebc1eyhg5tf","sona":"8653"},{"rt":null,"stimulus":"<div style=\"font-size:60px;\">+</div>","key_press":null,"trial_type":"html-keyboard-response","trial_index":308,"time_elapsed":689174,"internal_node_id":"0.0-8.0-1.75","subject":"w3kjebc1eyhg5tf","sona":"8653"},{"trial_type":"turing-test","trial_index":309,"time_elapsed":694314,"internal_node_id":"0.0-8.0-2.75","subject":"w3kjebc1eyhg5tf","sona":"8653"},{"rt":546.3400000007823,"stimulus":"<p>Welche Sequenz haben Sie als natürlicher empfunden?</p>","key_press":74,"test_part":"response","test_stimulus":{"position":0,"left":"bvh/return-bottle-hold-training0-lines.txt","right":"bvh/vr_prediction_models/model(vcgpdm)-dataset(return-bottle-hold)-mode(ELBO)-parts(3)-dyn(10)-lvm(30)-hold(0)/final-lines.txt","att_check":false},"trial_type":"html-keyboard-response","trial_index":310,"time_elapsed":694878,"internal_node_id":"0.0-8.0-3.75","subject":"w3kjebc1eyhg5tf","sona":"8653"},{"rt":314.10000000323635,"stimulus":"<p>Bereit?</p>","key_press":32,"trial_type":"html-keyboard-response","trial_index":311,"time_elapsed":695203,"internal_node_id":"0.0-8.0-0.76","subject":"w3kjebc1eyhg5tf","sona":"8653"},{"rt":null,"stimulus":"<div style=\"font-size:60px;\">+</div>","key_press":null,"trial_type":"html-keyboard-response","trial_index":312,"time_elapsed":697213,"internal_node_id":"0.0-8.0-1.76","subject":"w3kjebc1eyhg5tf","sona":"8653"},{"trial_type":"turing-test","trial_index":313,"time_elapsed":700866,"internal_node_id":"0.0-8.0-2.76","subject":"w3kjebc1eyhg5tf","sona":"8653"},{"rt":267.1399999962887,"stimulus":"<p>Welche Sequenz haben Sie als natürlicher empfunden?</p>","key_press":70,"test_part":"response","test_stimulus":{"position":0,"left":"bvh/return-bottle-hold-training3-lines.txt","right":"bvh/vr_prediction_models/model(vcgpdm)-dataset(return-bottle-hold)-mode(ELBO)-parts(1)-dyn(10)-lvm(25)-hold(3)/final-lines.txt","att_check":false},"trial_type":"html-keyboard-response","trial_index":314,"time_elapsed":701152,"internal_node_id":"0.0-8.0-3.76","subject":"w3kjebc1eyhg5tf","sona":"8653"},{"rt":224.6549999981653,"stimulus":"<p>Bereit?</p>","key_press":32,"trial_type":"html-keyboard-response","trial_index":315,"time_elapsed":701389,"internal_node_id":"0.0-8.0-0.77","subject":"w3kjebc1eyhg5tf","sona":"8653"},{"rt":null,"stimulus":"<div style=\"font-size:60px;\">+</div>","key_press":null,"trial_type":"html-keyboard-response","trial_index":316,"time_elapsed":703394,"internal_node_id":"0.0-8.0-1.77","subject":"w3kjebc1eyhg5tf","sona":"8653"},{"trial_type":"turing-test","trial_index":317,"time_elapsed":707193,"internal_node_id":"0.0-8.0-2.77","subject":"w3kjebc1eyhg5tf","sona":"8653"},{"rt":640.9200000052806,"stimulus":"<p>Welche Sequenz haben Sie als natürlicher empfunden?</p>","key_press":70,"test_part":"response","test_stimulus":{"position":1,"left":"bvh/vr_prediction_models/model(vcgpdm)-dataset(return-bottle-hold)-mode(ELBO)-parts(3)-dyn(35)-lvm(20)-hold(2)/final-lines.txt","right":"bvh/return-bottle-hold-training2-lines.txt","att_check":false},"trial_type":"html-keyboard-response","trial_index":318,"time_elapsed":707838,"internal_node_id":"0.0-8.0-3.77","subject":"w3kjebc1eyhg5tf","sona":"8653"},{"rt":372.36500000290107,"stimulus":"<p>Bereit?</p>","key_press":32,"trial_type":"html-keyboard-response","trial_index":319,"time_elapsed":708217,"internal_node_id":"0.0-8.0-0.78","subject":"w3kjebc1eyhg5tf","sona":"8653"},{"rt":null,"stimulus":"<div style=\"font-size:60px;\">+</div>","key_press":null,"trial_type":"html-keyboard-response","trial_index":320,"time_elapsed":710222,"internal_node_id":"0.0-8.0-1.78","subject":"w3kjebc1eyhg5tf","sona":"8653"},{"trial_type":"turing-test","trial_index":321,"time_elapsed":716415,"internal_node_id":"0.0-8.0-2.78","subject":"w3kjebc1eyhg5tf","sona":"8653"},{"rt":808.0550000013318,"stimulus":"<p>Welche Sequenz haben Sie als natürlicher empfunden?</p>","key_press":74,"test_part":"response","test_stimulus":{"position":1,"left":"bvh/vr_prediction_models/model(dmp)-dataset(pass-bottle)-npsi(90)-hold(2)/final-lines.txt","right":"bvh/pass-bottle-training2-lines.txt","att_check":false},"trial_type":"html-keyboard-response","trial_index":322,"time_elapsed":717243,"internal_node_id":"0.0-8.0-3.78","subject":"w3kjebc1eyhg5tf","sona":"8653"},{"rt":481.5400000079535,"stimulus":"<p>Bereit?</p>","key_press":32,"trial_type":"html-keyboard-response","trial_index":323,"time_elapsed":717732,"internal_node_id":"0.0-8.0-0.79","subject":"w3kjebc1eyhg5tf","sona":"8653"},{"rt":null,"stimulus":"<div style=\"font-size:60px;\">+</div>","key_press":null,"trial_type":"html-keyboard-response","trial_index":324,"time_elapsed":719741,"internal_node_id":"0.0-8.0-1.79","subject":"w3kjebc1eyhg5tf","sona":"8653"},{"trial_type":"turing-test","trial_index":325,"time_elapsed":723531,"internal_node_id":"0.0-8.0-2.79","subject":"w3kjebc1eyhg5tf","sona":"8653"},{"rt":246.354999995674,"stimulus":"<p>Welche Sequenz haben Sie als natürlicher empfunden?</p>","key_press":74,"test_part":"response","test_stimulus":{"position":0,"left":"bvh/pass-bottle-hold-training2-lines.txt","right":"bvh/vr_prediction_models/model(vcgpdm)-dataset(pass-bottle-hold)-mode(ELBO)-parts(1)-dyn(35)-lvm(10)-hold(2)/final-lines.txt","att_check":false},"trial_type":"html-keyboard-response","trial_index":326,"time_elapsed":723789,"internal_node_id":"0.0-8.0-3.79","subject":"w3kjebc1eyhg5tf","sona":"8653"},{"rt":8380.300000004354,"responses":"{\"age\":\"24\",\"gender\":\"weiblich\"}","trial_type":"survey-text","trial_index":327,"time_elapsed":732189,"internal_node_id":"0.0-10.0-0.0","subject":"w3kjebc1eyhg5tf","sona":"8653"},{"rt":86174.60500000743,"responses":"{\"area\":\"rechts\",\"Q1\":\"die Bewegungen waren weniger fließend\",\"Q2\":\"wenn die Bewegungen abgehakt oder stark verlangsamt waren\"}","trial_type":"survey-text","trial_index":328,"time_elapsed":818378,"internal_node_id":"0.0-10.0-1.0","subject":"w3kjebc1eyhg5tf","sona":"8653"}]