[{"rt":2813,"stimulus":"<p>Welcome!<br> Please choose your language to start the experiment in the chosen language.</p><p>Willkommen!<br> Bitte wählen Sie eine Sprache, um das Experiment in der ausgewählten Sprache zu starten</p>","button_pressed":"0","trial_type":"html-button-response","trial_index":0,"time_elapsed":2818,"internal_node_id":"0.0-0.0","subject":"99jg1vw0lh8nqbf","sona":"7660"},{"view_history":"[{\"page_index\":0,\"viewing_time\":4102},{\"page_index\":1,\"viewing_time\":3161},{\"page_index\":2,\"viewing_time\":4576},{\"page_index\":3,\"viewing_time\":4271},{\"page_index\":4,\"viewing_time\":1664}]","rt":17774,"trial_type":"instructions","trial_index":1,"time_elapsed":20594,"internal_node_id":"0.0-2.0-0.0","subject":"99jg1vw0lh8nqbf","sona":"7660"},{"rt":1151,"stimulus":"<p>Ready?</p>","key_press":32,"trial_type":"html-keyboard-response","trial_index":2,"time_elapsed":21747,"internal_node_id":"0.0-3.0","subject":"99jg1vw0lh8nqbf","sona":"7660"},{"rt":null,"stimulus":"<div style=\"font-size:60px;\">+</div>","key_press":null,"trial_type":"html-keyboard-response","trial_index":3,"time_elapsed":23748,"internal_node_id":"0.0-4.0","subject":"99jg1vw0lh8nqbf","sona":"7660"},{"trial_type":"training","trial_index":4,"time_elapsed":27090,"internal_node_id":"0.0-5.0","subject":"99jg1vw0lh8nqbf","sona":"7660"},{"rt":2157,"stimulus":"<p>Which sequence did you perceive as more natural?</p>","key_press":70,"trial_type":"html-keyboard-response","trial_index":5,"time_elapsed":29248,"internal_node_id":"0.0-6.0","subject":"99jg1vw0lh8nqbf","sona":"7660"},{"rt":3705,"stimulus":"<p>The experiment starts now.</p><p><small>Please click the button if you are ready.</small></p>","button_pressed":"0","trial_type":"html-button-response","trial_index":6,"time_elapsed":32954,"internal_node_id":"0.0-7.0","subject":"99jg1vw0lh8nqbf","sona":"7660"},{"rt":1484,"stimulus":"<p>Ready?</p>","key_press":32,"trial_type":"html-keyboard-response","trial_index":7,"time_elapsed":34439,"internal_node_id":"0.0-8.0-0.0","subject":"99jg1vw0lh8nqbf","sona":"7660"},{"rt":null,"stimulus":"<div style=\"font-size:60px;\">+</div>","key_press":null,"trial_type":"html-keyboard-response","trial_index":8,"time_elapsed":36442,"internal_node_id":"0.0-8.0-1.0","subject":"99jg1vw0lh8nqbf","sona":"7660"},{"trial_type":"turing-test","trial_index":9,"time_elapsed":41596,"internal_node_id":"0.0-8.0-2.0","subject":"99jg1vw0lh8nqbf","sona":"7660"},{"rt":955,"stimulus":"<p>Which sequence did you perceive as more natural?</p>","key_press":70,"test_part":"response","test_stimulus":{"position":1,"left":"bvh/vr_prediction_models/model(vcgpdm)-dataset(return-bottle-hold)-mode(ELBO)-parts(3)-dyn(35)-lvm(20)-hold(0)/final-lines.txt","right":"bvh/return-bottle-hold-training0-lines.txt","att_check":false},"trial_type":"html-keyboard-response","trial_index":10,"time_elapsed":42551,"internal_node_id":"0.0-8.0-3.0","subject":"99jg1vw0lh8nqbf","sona":"7660"},{"rt":1243,"stimulus":"<p>Ready?</p>","key_press":32,"trial_type":"html-keyboard-response","trial_index":11,"time_elapsed":43795,"internal_node_id":"0.0-8.0-0.1","subject":"99jg1vw0lh8nqbf","sona":"7660"},{"rt":null,"stimulus":"<div style=\"font-size:60px;\">+</div>","key_press":null,"trial_type":"html-keyboard-response","trial_index":12,"time_elapsed":45796,"internal_node_id":"0.0-8.0-1.1","subject":"99jg1vw0lh8nqbf","sona":"7660"},{"trial_type":"turing-test","trial_index":13,"time_elapsed":52505,"internal_node_id":"0.0-8.0-2.1","subject":"99jg1vw0lh8nqbf","sona":"7660"},{"rt":563,"stimulus":"<p>Which sequence did you perceive as more natural?</p>","key_press":74,"test_part":"response","test_stimulus":{"position":1,"left":"bvh/vr_prediction_models/model(dmp)-dataset(pass-bottle)-npsi(40)-hold(0)/final-lines.txt","right":"bvh/pass-bottle-training0-lines.txt","att_check":true},"trial_type":"html-keyboard-response","trial_index":14,"time_elapsed":53069,"internal_node_id":"0.0-8.0-3.1","subject":"99jg1vw0lh8nqbf","sona":"7660"},{"rt":3425,"stimulus":"<p>Ready?</p>","key_press":32,"trial_type":"html-keyboard-response","trial_index":15,"time_elapsed":56495,"internal_node_id":"0.0-8.0-0.2","subject":"99jg1vw0lh8nqbf","sona":"7660"},{"rt":null,"stimulus":"<div style=\"font-size:60px;\">+</div>","key_press":null,"trial_type":"html-keyboard-response","trial_index":16,"time_elapsed":58495,"internal_node_id":"0.0-8.0-1.2","subject":"99jg1vw0lh8nqbf","sona":"7660"},{"trial_type":"turing-test","trial_index":17,"time_elapsed":62193,"internal_node_id":"0.0-8.0-2.2","subject":"99jg1vw0lh8nqbf","sona":"7660"},{"rt":1996,"stimulus":"<p>Which sequence did you perceive as more natural?</p>","key_press":74,"test_part":"response","test_stimulus":{"position":1,"left":"bvh/vr_prediction_models/model(vcgpdm)-dataset(return-bottle-hold)-mode(ELBO)-parts(1)-dyn(25)-lvm(35)-hold(3)/final-lines.txt","right":"bvh/return-bottle-hold-training3-lines.txt","att_check":false},"trial_type":"html-keyboard-response","trial_index":18,"time_elapsed":64189,"internal_node_id":"0.0-8.0-3.2","subject":"99jg1vw0lh8nqbf","sona":"7660"},{"rt":1517,"stimulus":"<p>Ready?</p>","key_press":32,"trial_type":"html-keyboard-response","trial_index":19,"time_elapsed":65707,"internal_node_id":"0.0-8.0-0.3","subject":"99jg1vw0lh8nqbf","sona":"7660"},{"rt":null,"stimulus":"<div style=\"font-size:60px;\">+</div>","key_press":null,"trial_type":"html-keyboard-response","trial_index":20,"time_elapsed":67708,"internal_node_id":"0.0-8.0-1.3","subject":"99jg1vw0lh8nqbf","sona":"7660"},{"trial_type":"turing-test","trial_index":21,"time_elapsed":73881,"internal_node_id":"0.0-8.0-2.3","subject":"99jg1vw0lh8nqbf","sona":"7660"},{"rt":418,"stimulus":"<p>Which sequence did you perceive as more natural?</p>","key_press":70,"test_part":"response","test_stimulus":{"position":0,"left":"bvh/pass-bottle-training2-lines.txt","right":"bvh/vr_prediction_models/model(vcgpdm)-dataset(pass-bottle)-mode(ELBO)-parts(1)-dyn(15)-lvm(35)-hold(2)/final-lines.txt","att_check":false},"trial_type":"html-keyboard-response","trial_index":22,"time_elapsed":74301,"internal_node_id":"0.0-8.0-3.3","subject":"99jg1vw0lh8nqbf","sona":"7660"},{"rt":938,"stimulus":"<p>Ready?</p>","key_press":32,"trial_type":"html-keyboard-response","trial_index":23,"time_elapsed":75241,"internal_node_id":"0.0-8.0-0.4","subject":"99jg1vw0lh8nqbf","sona":"7660"},{"rt":null,"stimulus":"<div style=\"font-size:60px;\">+</div>","key_press":null,"trial_type":"html-keyboard-response","trial_index":24,"time_elapsed":77244,"internal_node_id":"0.0-8.0-1.4","subject":"99jg1vw0lh8nqbf","sona":"7660"},{"trial_type":"turing-test","trial_index":25,"time_elapsed":83764,"internal_node_id":"0.0-8.0-2.4","subject":"99jg1vw0lh8nqbf","sona":"7660"},{"rt":1723,"stimulus":"<p>Which sequence did you perceive as more natural?</p>","key_press":74,"test_part":"response","test_stimulus":{"position":1,"left":"bvh/vr_prediction_models/model(tmp)-dataset(return-bottle)-numprim(12)-hold(2)/final-lines.txt","right":"bvh/return-bottle-training2-lines.txt","att_check":false},"trial_type":"html-keyboard-response","trial_index":26,"time_elapsed":85489,"internal_node_id":"0.0-8.0-3.4","subject":"99jg1vw0lh8nqbf","sona":"7660"},{"rt":846,"stimulus":"<p>Ready?</p>","key_press":32,"trial_type":"html-keyboard-response","trial_index":27,"time_elapsed":86335,"internal_node_id":"0.0-8.0-0.5","subject":"99jg1vw0lh8nqbf","sona":"7660"},{"rt":null,"stimulus":"<div style=\"font-size:60px;\">+</div>","key_press":null,"trial_type":"html-keyboard-response","trial_index":28,"time_elapsed":88337,"internal_node_id":"0.0-8.0-1.5","subject":"99jg1vw0lh8nqbf","sona":"7660"},{"trial_type":"turing-test","trial_index":29,"time_elapsed":91949,"internal_node_id":"0.0-8.0-2.5","subject":"99jg1vw0lh8nqbf","sona":"7660"},{"rt":467,"stimulus":"<p>Which sequence did you perceive as more natural?</p>","key_press":70,"test_part":"response","test_stimulus":{"position":1,"left":"bvh/vr_prediction_models/model(vcgpdm)-dataset(pass-bottle-hold)-mode(ELBO)-parts(3)-dyn(10)-lvm(30)-hold(4)/final-lines.txt","right":"bvh/pass-bottle-hold-training4-lines.txt","att_check":false},"trial_type":"html-keyboard-response","trial_index":30,"time_elapsed":92417,"internal_node_id":"0.0-8.0-3.5","subject":"99jg1vw0lh8nqbf","sona":"7660"},{"rt":2335,"stimulus":"<p>Ready?</p>","key_press":32,"trial_type":"html-keyboard-response","trial_index":31,"time_elapsed":94752,"internal_node_id":"0.0-8.0-0.6","subject":"99jg1vw0lh8nqbf","sona":"7660"},{"rt":null,"stimulus":"<div style=\"font-size:60px;\">+</div>","key_press":null,"trial_type":"html-keyboard-response","trial_index":32,"time_elapsed":96753,"internal_node_id":"0.0-8.0-1.6","subject":"99jg1vw0lh8nqbf","sona":"7660"},{"trial_type":"turing-test","trial_index":33,"time_elapsed":102146,"internal_node_id":"0.0-8.0-2.6","subject":"99jg1vw0lh8nqbf","sona":"7660"},{"rt":405,"stimulus":"<p>Which sequence did you perceive as more natural?</p>","key_press":74,"test_part":"response","test_stimulus":{"position":1,"left":"bvh/vr_prediction_models/model(tmp)-dataset(pass-bottle)-numprim(3)-hold(1)/final-lines.txt","right":"bvh/pass-bottle-training1-lines.txt","att_check":false},"trial_type":"html-keyboard-response","trial_index":34,"time_elapsed":102552,"internal_node_id":"0.0-8.0-3.6","subject":"99jg1vw0lh8nqbf","sona":"7660"},{"rt":3055,"stimulus":"<p>Ready?</p>","key_press":32,"trial_type":"html-keyboard-response","trial_index":35,"time_elapsed":105608,"internal_node_id":"0.0-8.0-0.7","subject":"99jg1vw0lh8nqbf","sona":"7660"},{"rt":null,"stimulus":"<div style=\"font-size:60px;\">+</div>","key_press":null,"trial_type":"html-keyboard-response","trial_index":36,"time_elapsed":107610,"internal_node_id":"0.0-8.0-1.7","subject":"99jg1vw0lh8nqbf","sona":"7660"},{"trial_type":"turing-test","trial_index":37,"time_elapsed":112971,"internal_node_id":"0.0-8.0-2.7","subject":"99jg1vw0lh8nqbf","sona":"7660"},{"rt":1398,"stimulus":"<p>Which sequence did you perceive as more natural?</p>","key_press":74,"test_part":"response","test_stimulus":{"position":0,"left":"bvh/pass-bottle-training1-lines.txt","right":"bvh/vr_prediction_models/model(dmp)-dataset(pass-bottle)-npsi(20)-hold(1)/final-lines.txt","att_check":false},"trial_type":"html-keyboard-response","trial_index":38,"time_elapsed":114369,"internal_node_id":"0.0-8.0-3.7","subject":"99jg1vw0lh8nqbf","sona":"7660"},{"rt":1548,"stimulus":"<p>Ready?</p>","key_press":32,"trial_type":"html-keyboard-response","trial_index":39,"time_elapsed":115917,"internal_node_id":"0.0-8.0-0.8","subject":"99jg1vw0lh8nqbf","sona":"7660"},{"rt":null,"stimulus":"<div style=\"font-size:60px;\">+</div>","key_press":null,"trial_type":"html-keyboard-response","trial_index":40,"time_elapsed":117919,"internal_node_id":"0.0-8.0-1.8","subject":"99jg1vw0lh8nqbf","sona":"7660"},{"trial_type":"turing-test","trial_index":41,"time_elapsed":121446,"internal_node_id":"0.0-8.0-2.8","subject":"99jg1vw0lh8nqbf","sona":"7660"},{"rt":461,"stimulus":"<p>Which sequence did you perceive as more natural?</p>","key_press":70,"test_part":"response","test_stimulus":{"position":0,"left":"bvh/pass-bottle-hold-training4-lines.txt","right":"bvh/vr_prediction_models/model(dmp)-dataset(pass-bottle-hold)-npsi(40)-hold(4)/final-lines.txt","att_check":false},"trial_type":"html-keyboard-response","trial_index":42,"time_elapsed":121908,"internal_node_id":"0.0-8.0-3.8","subject":"99jg1vw0lh8nqbf","sona":"7660"},{"rt":1352,"stimulus":"<p>Ready?</p>","key_press":32,"trial_type":"html-keyboard-response","trial_index":43,"time_elapsed":123262,"internal_node_id":"0.0-8.0-0.9","subject":"99jg1vw0lh8nqbf","sona":"7660"},{"rt":null,"stimulus":"<div style=\"font-size:60px;\">+</div>","key_press":null,"trial_type":"html-keyboard-response","trial_index":44,"time_elapsed":125262,"internal_node_id":"0.0-8.0-1.9","subject":"99jg1vw0lh8nqbf","sona":"7660"},{"trial_type":"turing-test","trial_index":45,"time_elapsed":131846,"internal_node_id":"0.0-8.0-2.9","subject":"99jg1vw0lh8nqbf","sona":"7660"},{"rt":632,"stimulus":"<p>Which sequence did you perceive as more natural?</p>","key_press":74,"test_part":"response","test_stimulus":{"position":1,"left":"bvh/vr_prediction_models/model(vcgpdm)-dataset(return-bottle)-mode(ELBO)-parts(1)-dyn(10)-lvm(5)-hold(2)/final-lines.txt","right":"bvh/return-bottle-training2-lines.txt","att_check":false},"trial_type":"html-keyboard-response","trial_index":46,"time_elapsed":132478,"internal_node_id":"0.0-8.0-3.9","subject":"99jg1vw0lh8nqbf","sona":"7660"},{"rt":2246,"stimulus":"<p>Ready?</p>","key_press":32,"trial_type":"html-keyboard-response","trial_index":47,"time_elapsed":134726,"internal_node_id":"0.0-8.0-0.10","subject":"99jg1vw0lh8nqbf","sona":"7660"},{"rt":null,"stimulus":"<div style=\"font-size:60px;\">+</div>","key_press":null,"trial_type":"html-keyboard-response","trial_index":48,"time_elapsed":136729,"internal_node_id":"0.0-8.0-1.10","subject":"99jg1vw0lh8nqbf","sona":"7660"},{"trial_type":"turing-test","trial_index":49,"time_elapsed":141807,"internal_node_id":"0.0-8.0-2.10","subject":"99jg1vw0lh8nqbf","sona":"7660"},{"rt":485,"stimulus":"<p>Which sequence did you perceive as more natural?</p>","key_press":74,"test_part":"response","test_stimulus":{"position":0,"left":"bvh/return-bottle-hold-training0-lines.txt","right":"bvh/vr_prediction_models/model(dmp)-dataset(return-bottle-hold)-npsi(10)-hold(0)/final-lines.txt","att_check":false},"trial_type":"html-keyboard-response","trial_index":50,"time_elapsed":142293,"internal_node_id":"0.0-8.0-3.10","subject":"99jg1vw0lh8nqbf","sona":"7660"},{"rt":1008,"stimulus":"<p>Ready?</p>","key_press":32,"trial_type":"html-keyboard-response","trial_index":51,"time_elapsed":143301,"internal_node_id":"0.0-8.0-0.11","subject":"99jg1vw0lh8nqbf","sona":"7660"},{"rt":null,"stimulus":"<div style=\"font-size:60px;\">+</div>","key_press":null,"trial_type":"html-keyboard-response","trial_index":52,"time_elapsed":145303,"internal_node_id":"0.0-8.0-1.11","subject":"99jg1vw0lh8nqbf","sona":"7660"},{"trial_type":"turing-test","trial_index":53,"time_elapsed":148672,"internal_node_id":"0.0-8.0-2.11","subject":"99jg1vw0lh8nqbf","sona":"7660"}]