[{"rt":75650.85000000005,"stimulus":"<p>Welcome!<br> Please choose your language to start the experiment in the chosen language.</p><p>Willkommen!<br> Bitte wählen Sie eine Sprache um das Experiment in der ausgewählten Sprache zu starten</p>","button_pressed":"0","trial_type":"html-button-response","trial_index":0,"time_elapsed":75677,"internal_node_id":"0.0-0.0","subject":"2hean0fp2pp3trt"},{"view_history":"[{\"page_index\":0,\"viewing_time\":20212.734999999942},{\"page_index\":1,\"viewing_time\":9404.680000000095},{\"page_index\":2,\"viewing_time\":3589.475000000006},{\"page_index\":3,\"viewing_time\":2356.4099999999744}]","rt":35564.32500000004,"trial_type":"instructions","trial_index":1,"time_elapsed":111242,"internal_node_id":"0.0-2.0-0.0","subject":"2hean0fp2pp3trt"},{"rt":1301.5000000000437,"stimulus":"<p>Ready?</p>","button_pressed":"0","trial_type":"html-button-response","trial_index":2,"time_elapsed":112546,"internal_node_id":"0.0-3.0","subject":"2hean0fp2pp3trt"},{"rt":null,"stimulus":"<div style=\"font-size:60px;\">+</div>","key_press":null,"trial_type":"html-keyboard-response","trial_index":3,"time_elapsed":114547,"internal_node_id":"0.0-4.0","subject":"2hean0fp2pp3trt"},{"trial_type":"training","trial_index":4,"time_elapsed":117925,"internal_node_id":"0.0-5.0","subject":"2hean0fp2pp3trt"},{"rt":5137.59500000003,"stimulus":"<p>Which sequence did you perceive as more natural?</p>","button_pressed":"0","trial_type":"html-button-response","trial_index":5,"time_elapsed":123065,"internal_node_id":"0.0-6.0","subject":"2hean0fp2pp3trt"},{"rt":16380.41999999997,"stimulus":"<p>The experiment starts now.</p><p>Please click the button if you are ready.</p>","button_pressed":"0","trial_type":"html-button-response","trial_index":6,"time_elapsed":139447,"internal_node_id":"0.0-7.0","subject":"2hean0fp2pp3trt"},{"rt":1497.9399999999441,"stimulus":"<p>Ready?</p>","button_pressed":"0","trial_type":"html-button-response","trial_index":7,"time_elapsed":140948,"internal_node_id":"0.0-8.0-0.0","subject":"2hean0fp2pp3trt"},{"rt":null,"stimulus":"<div style=\"font-size:60px;\">+</div>","key_press":null,"trial_type":"html-keyboard-response","trial_index":8,"time_elapsed":142950,"internal_node_id":"0.0-8.0-1.0","subject":"2hean0fp2pp3trt"},{"trial_type":"turing-test","trial_index":9,"time_elapsed":162041,"internal_node_id":"0.0-8.0-2.0","subject":"2hean0fp2pp3trt"},{"rt":2544.655000000057,"stimulus":"<p>Which sequence did you perceive as more natural?</p>","button_pressed":"0","test_part":"response","test_stimulus":{"position":1,"left":"bvh/vr_prediction_models/model(tmp)-dataset(return-bottle-hold)-numprim(11)-hold(0)/final-lines.txt","right":"bvh/return-bottle-hold-training0-lines.txt","att_check":false},"trial_type":"html-button-response","trial_index":10,"time_elapsed":164588,"internal_node_id":"0.0-8.0-3.0","subject":"2hean0fp2pp3trt"},{"rt":742.6399999999558,"stimulus":"<p>Ready?</p>","button_pressed":"0","trial_type":"html-button-response","trial_index":11,"time_elapsed":165334,"internal_node_id":"0.0-8.0-0.1","subject":"2hean0fp2pp3trt"},{"rt":null,"stimulus":"<div style=\"font-size:60px;\">+</div>","key_press":null,"trial_type":"html-keyboard-response","trial_index":12,"time_elapsed":167336,"internal_node_id":"0.0-8.0-1.1","subject":"2hean0fp2pp3trt"},{"trial_type":"turing-test","trial_index":13,"time_elapsed":177877,"internal_node_id":"0.0-8.0-2.1","subject":"2hean0fp2pp3trt"}]