[{"rt":2179,"stimulus":"<p>Welcome!<br> Please choose your language to start the experiment in the chosen language.</p><p>Willkommen!<br> Bitte wählen Sie eine Sprache, um das Experiment in der ausgewählten Sprache zu starten</p>","button_pressed":"1","trial_type":"html-button-response","trial_index":0,"time_elapsed":2194,"internal_node_id":"0.0-0.0","subject":"nkr7v3eytq1l0q3","sona":"7624"},{"view_history":"[{\"page_index\":0,\"viewing_time\":671},{\"page_index\":1,\"viewing_time\":992},{\"page_index\":2,\"viewing_time\":498},{\"page_index\":3,\"viewing_time\":952},{\"page_index\":4,\"viewing_time\":1358}]","rt":4471,"trial_type":"instructions","trial_index":1,"time_elapsed":6667,"internal_node_id":"0.0-1.0-0.0","subject":"nkr7v3eytq1l0q3","sona":"7624"},{"rt":3118,"stimulus":"<p>Bereit?</p>","key_press":32,"trial_type":"html-keyboard-response","trial_index":2,"time_elapsed":9786,"internal_node_id":"0.0-3.0","subject":"nkr7v3eytq1l0q3","sona":"7624"},{"rt":null,"stimulus":"<div style=\"font-size:60px;\">+</div>","key_press":null,"trial_type":"html-keyboard-response","trial_index":3,"time_elapsed":11789,"internal_node_id":"0.0-4.0","subject":"nkr7v3eytq1l0q3","sona":"7624"},{"trial_type":"training","trial_index":4,"time_elapsed":15023,"internal_node_id":"0.0-5.0","subject":"nkr7v3eytq1l0q3","sona":"7624"},{"rt":1061,"stimulus":"<p>Welche Sequenz haben Sie als natürlicher empfunden?</p>","key_press":70,"trial_type":"html-keyboard-response","trial_index":5,"time_elapsed":16086,"internal_node_id":"0.0-6.0","subject":"nkr7v3eytq1l0q3","sona":"7624"},{"rt":1435,"stimulus":"<p>Das Experiment startet nun.</p><p><small>Bitte drücken Sie den Knopf, wenn Sie bereit sind.</small></p>","button_pressed":"0","trial_type":"html-button-response","trial_index":6,"time_elapsed":17522,"internal_node_id":"0.0-7.0","subject":"nkr7v3eytq1l0q3","sona":"7624"},{"rt":3469,"stimulus":"<p>Bereit?</p>","key_press":32,"trial_type":"html-keyboard-response","trial_index":7,"time_elapsed":20993,"internal_node_id":"0.0-8.0-0.0","subject":"nkr7v3eytq1l0q3","sona":"7624"},{"rt":null,"stimulus":"<div style=\"font-size:60px;\">+</div>","key_press":null,"trial_type":"html-keyboard-response","trial_index":8,"time_elapsed":22997,"internal_node_id":"0.0-8.0-1.0","subject":"nkr7v3eytq1l0q3","sona":"7624"},{"trial_type":"turing-test","trial_index":9,"time_elapsed":26809,"internal_node_id":"0.0-8.0-2.0","subject":"nkr7v3eytq1l0q3","sona":"7624"},{"rt":2028,"stimulus":"<p>Welche Sequenz haben Sie als natürlicher empfunden?</p>","key_press":74,"test_part":"response","test_stimulus":{"position":1,"left":"bvh/vr_prediction_models/model(vcgpdm)-dataset(pass-bottle-hold)-mode(ELBO)-parts(1)-dyn(20)-lvm(5)-hold(4)/final-lines.txt","right":"bvh/pass-bottle-hold-training4-lines.txt","att_check":false},"trial_type":"html-keyboard-response","trial_index":10,"time_elapsed":28839,"internal_node_id":"0.0-8.0-3.0","subject":"nkr7v3eytq1l0q3","sona":"7624"},{"rt":149,"stimulus":"<p>Bereit?</p>","key_press":32,"trial_type":"html-keyboard-response","trial_index":11,"time_elapsed":28990,"internal_node_id":"0.0-8.0-0.1","subject":"nkr7v3eytq1l0q3","sona":"7624"},{"rt":null,"stimulus":"<div style=\"font-size:60px;\">+</div>","key_press":null,"trial_type":"html-keyboard-response","trial_index":12,"time_elapsed":30997,"internal_node_id":"0.0-8.0-1.1","subject":"nkr7v3eytq1l0q3","sona":"7624"},{"trial_type":"turing-test","trial_index":13,"time_elapsed":34404,"internal_node_id":"0.0-8.0-2.1","subject":"nkr7v3eytq1l0q3","sona":"7624"},{"rt":3218,"stimulus":"<p>Welche Sequenz haben Sie als natürlicher empfunden?</p>","key_press":74,"test_part":"response","test_stimulus":{"position":0,"left":"bvh/return-bottle-hold-training2-lines.txt","right":"bvh/vr_prediction_models/model(tmp)-dataset(return-bottle-hold)-numprim(10)-hold(2)/final-lines.txt","att_check":false},"trial_type":"html-keyboard-response","trial_index":14,"time_elapsed":37622,"internal_node_id":"0.0-8.0-3.1","subject":"nkr7v3eytq1l0q3","sona":"7624"},{"rt":119,"stimulus":"<p>Bereit?</p>","key_press":32,"trial_type":"html-keyboard-response","trial_index":15,"time_elapsed":37742,"internal_node_id":"0.0-8.0-0.2","subject":"nkr7v3eytq1l0q3","sona":"7624"},{"rt":null,"stimulus":"<div style=\"font-size:60px;\">+</div>","key_press":null,"trial_type":"html-keyboard-response","trial_index":16,"time_elapsed":39745,"internal_node_id":"0.0-8.0-1.2","subject":"nkr7v3eytq1l0q3","sona":"7624"},{"trial_type":"turing-test","trial_index":17,"time_elapsed":43270,"internal_node_id":"0.0-8.0-2.2","subject":"nkr7v3eytq1l0q3","sona":"7624"},{"rt":368,"stimulus":"<p>Welche Sequenz haben Sie als natürlicher empfunden?</p>","key_press":74,"test_part":"response","test_stimulus":{"position":1,"left":"bvh/vr_prediction_models/model(vcgpdm)-dataset(return-bottle-hold)-mode(ELBO)-parts(3)-dyn(20)-lvm(15)-hold(3)/final-lines.txt","right":"bvh/return-bottle-hold-training3-lines.txt","att_check":false},"trial_type":"html-keyboard-response","trial_index":18,"time_elapsed":43639,"internal_node_id":"0.0-8.0-3.2","subject":"nkr7v3eytq1l0q3","sona":"7624"},{"rt":174,"stimulus":"<p>Bereit?</p>","key_press":32,"trial_type":"html-keyboard-response","trial_index":19,"time_elapsed":43814,"internal_node_id":"0.0-8.0-0.3","subject":"nkr7v3eytq1l0q3","sona":"7624"},{"rt":null,"stimulus":"<div style=\"font-size:60px;\">+</div>","key_press":null,"trial_type":"html-keyboard-response","trial_index":20,"time_elapsed":45821,"internal_node_id":"0.0-8.0-1.3","subject":"nkr7v3eytq1l0q3","sona":"7624"},{"trial_type":"turing-test","trial_index":21,"time_elapsed":52430,"internal_node_id":"0.0-8.0-2.3","subject":"nkr7v3eytq1l0q3","sona":"7624"},{"rt":448,"stimulus":"<p>Welche Sequenz haben Sie als natürlicher empfunden?</p>","key_press":70,"test_part":"response","test_stimulus":{"position":1,"left":"bvh/vr_prediction_models/model(vcgpdm)-dataset(pass-bottle)-mode(ELBO)-parts(3)-dyn(25)-lvm(25)-hold(0)/final-lines.txt","right":"bvh/pass-bottle-training0-lines.txt","att_check":false},"trial_type":"html-keyboard-response","trial_index":22,"time_elapsed":52880,"internal_node_id":"0.0-8.0-3.3","subject":"nkr7v3eytq1l0q3","sona":"7624"},{"rt":182,"stimulus":"<p>Bereit?</p>","key_press":32,"trial_type":"html-keyboard-response","trial_index":23,"time_elapsed":53063,"internal_node_id":"0.0-8.0-0.4","subject":"nkr7v3eytq1l0q3","sona":"7624"},{"rt":null,"stimulus":"<div style=\"font-size:60px;\">+</div>","key_press":null,"trial_type":"html-keyboard-response","trial_index":24,"time_elapsed":55066,"internal_node_id":"0.0-8.0-1.4","subject":"nkr7v3eytq1l0q3","sona":"7624"},{"trial_type":"turing-test","trial_index":25,"time_elapsed":61137,"internal_node_id":"0.0-8.0-2.4","subject":"nkr7v3eytq1l0q3","sona":"7624"},{"rt":421,"stimulus":"<p>Welche Sequenz haben Sie als natürlicher empfunden?</p>","key_press":70,"test_part":"response","test_stimulus":{"position":0,"left":"bvh/pass-bottle-training2-lines.txt","right":"bvh/vr_prediction_models/model(dmp)-dataset(pass-bottle)-npsi(30)-hold(2)/final-lines.txt","att_check":false},"trial_type":"html-keyboard-response","trial_index":26,"time_elapsed":61558,"internal_node_id":"0.0-8.0-3.4","subject":"nkr7v3eytq1l0q3","sona":"7624"},{"rt":319,"stimulus":"<p>Bereit?</p>","key_press":32,"trial_type":"html-keyboard-response","trial_index":27,"time_elapsed":61879,"internal_node_id":"0.0-8.0-0.5","subject":"nkr7v3eytq1l0q3","sona":"7624"},{"rt":null,"stimulus":"<div style=\"font-size:60px;\">+</div>","key_press":null,"trial_type":"html-keyboard-response","trial_index":28,"time_elapsed":63883,"internal_node_id":"0.0-8.0-1.5","subject":"nkr7v3eytq1l0q3","sona":"7624"},{"trial_type":"turing-test","trial_index":29,"time_elapsed":69899,"internal_node_id":"0.0-8.0-2.5","subject":"nkr7v3eytq1l0q3","sona":"7624"},{"rt":572,"stimulus":"<p>Welche Sequenz haben Sie als natürlicher empfunden?</p>","key_press":70,"test_part":"response","test_stimulus":{"position":0,"left":"bvh/return-bottle-training1-lines.txt","right":"bvh/vr_prediction_models/model(tmp)-dataset(return-bottle)-numprim(9)-hold(1)/final-lines.txt","att_check":false},"trial_type":"html-keyboard-response","trial_index":30,"time_elapsed":70472,"internal_node_id":"0.0-8.0-3.5","subject":"nkr7v3eytq1l0q3","sona":"7624"},{"rt":310,"stimulus":"<p>Bereit?</p>","key_press":32,"trial_type":"html-keyboard-response","trial_index":31,"time_elapsed":70783,"internal_node_id":"0.0-8.0-0.6","subject":"nkr7v3eytq1l0q3","sona":"7624"},{"rt":null,"stimulus":"<div style=\"font-size:60px;\">+</div>","key_press":null,"trial_type":"html-keyboard-response","trial_index":32,"time_elapsed":72788,"internal_node_id":"0.0-8.0-1.6","subject":"nkr7v3eytq1l0q3","sona":"7624"}]