[{"rt":6779.3599999859,"stimulus":"<p>Welcome!<br> Please choose your language to start the experiment in the chosen language.</p><p>Willkommen!<br> Bitte wählen Sie eine Sprache, um das Experiment in der ausgewählten Sprache zu starten</p>","button_pressed":"1","trial_type":"html-button-response","trial_index":0,"time_elapsed":6817,"internal_node_id":"0.0-0.0","subject":"c72et9h4ux2d8nj","sona":"8698"},{"view_history":"[{\"page_index\":0,\"viewing_time\":6955.210000043735},{\"page_index\":1,\"viewing_time\":4206.634999951348},{\"page_index\":2,\"viewing_time\":5199.350000009872},{\"page_index\":3,\"viewing_time\":8353.304999996908},{\"page_index\":4,\"viewing_time\":3385.2000000188127}]","rt":28100.62000004109,"trial_type":"instructions","trial_index":1,"time_elapsed":34918,"internal_node_id":"0.0-1.0-0.0","subject":"c72et9h4ux2d8nj","sona":"8698"},{"rt":1935.9150000382215,"stimulus":"<p>Bereit?</p>","key_press":32,"trial_type":"html-keyboard-response","trial_index":2,"time_elapsed":36856,"internal_node_id":"0.0-3.0","subject":"c72et9h4ux2d8nj","sona":"8698"},{"rt":null,"stimulus":"<div style=\"font-size:60px;\">+</div>","key_press":null,"trial_type":"html-keyboard-response","trial_index":3,"time_elapsed":38866,"internal_node_id":"0.0-4.0","subject":"c72et9h4ux2d8nj","sona":"8698"},{"trial_type":"training","trial_index":4,"time_elapsed":42765,"internal_node_id":"0.0-5.0","subject":"c72et9h4ux2d8nj","sona":"8698"},{"rt":399.9849999672733,"stimulus":"<p>Welche Sequenz haben Sie als natürlicher empfunden?</p>","key_press":70,"trial_type":"html-keyboard-response","trial_index":5,"time_elapsed":43168,"internal_node_id":"0.0-6.0","subject":"c72et9h4ux2d8nj","sona":"8698"},{"rt":3160.8649999834597,"stimulus":"<p>Das Experiment startet nun.</p><p><small>Bitte drücken Sie den Knopf, wenn Sie bereit sind.</small></p>","button_pressed":"0","trial_type":"html-button-response","trial_index":6,"time_elapsed":46331,"internal_node_id":"0.0-7.0","subject":"c72et9h4ux2d8nj","sona":"8698"},{"rt":2033.194999967236,"stimulus":"<p>Bereit?</p>","key_press":32,"trial_type":"html-keyboard-response","trial_index":7,"time_elapsed":48366,"internal_node_id":"0.0-8.0-0.0","subject":"c72et9h4ux2d8nj","sona":"8698"},{"rt":null,"stimulus":"<div style=\"font-size:60px;\">+</div>","key_press":null,"trial_type":"html-keyboard-response","trial_index":8,"time_elapsed":50375,"internal_node_id":"0.0-8.0-1.0","subject":"c72et9h4ux2d8nj","sona":"8698"},{"trial_type":"turing-test","trial_index":9,"time_elapsed":55179,"internal_node_id":"0.0-8.0-2.0","subject":"c72et9h4ux2d8nj","sona":"8698"},{"rt":1050.4799999762326,"stimulus":"<p>Welche Sequenz haben Sie als natürlicher empfunden?</p>","key_press":74,"test_part":"response","test_stimulus":{"position":0,"left":"bvh/pass-bottle-hold-training3-lines.txt","right":"bvh/vr_prediction_models/model(vcgpdm)-dataset(pass-bottle-hold)-mode(ELBO)-parts(1)-dyn(20)-lvm(5)-hold(3)/final-lines.txt","att_check":false},"trial_type":"html-keyboard-response","trial_index":10,"time_elapsed":56235,"internal_node_id":"0.0-8.0-3.0","subject":"c72et9h4ux2d8nj","sona":"8698"},{"rt":1292.0499999891035,"stimulus":"<p>Bereit?</p>","key_press":32,"trial_type":"html-keyboard-response","trial_index":11,"time_elapsed":57532,"internal_node_id":"0.0-8.0-0.1","subject":"c72et9h4ux2d8nj","sona":"8698"},{"rt":null,"stimulus":"<div style=\"font-size:60px;\">+</div>","key_press":null,"trial_type":"html-keyboard-response","trial_index":12,"time_elapsed":59544,"internal_node_id":"0.0-8.0-1.1","subject":"c72et9h4ux2d8nj","sona":"8698"},{"trial_type":"turing-test","trial_index":13,"time_elapsed":63268,"internal_node_id":"0.0-8.0-2.1","subject":"c72et9h4ux2d8nj","sona":"8698"},{"rt":987.0949999894947,"stimulus":"<p>Welche Sequenz haben Sie als natürlicher empfunden?</p>","key_press":70,"test_part":"response","test_stimulus":{"position":1,"left":"bvh/vr_prediction_models/model(tmp)-dataset(pass-bottle-hold)-numprim(13)-hold(4)/final-lines.txt","right":"bvh/pass-bottle-hold-training4-lines.txt","att_check":false},"trial_type":"html-keyboard-response","trial_index":14,"time_elapsed":64261,"internal_node_id":"0.0-8.0-3.1","subject":"c72et9h4ux2d8nj","sona":"8698"},{"rt":940.4099999810569,"stimulus":"<p>Bereit?</p>","key_press":32,"trial_type":"html-keyboard-response","trial_index":15,"time_elapsed":65205,"internal_node_id":"0.0-8.0-0.2","subject":"c72et9h4ux2d8nj","sona":"8698"},{"rt":null,"stimulus":"<div style=\"font-size:60px;\">+</div>","key_press":null,"trial_type":"html-keyboard-response","trial_index":16,"time_elapsed":67226,"internal_node_id":"0.0-8.0-1.2","subject":"c72et9h4ux2d8nj","sona":"8698"},{"trial_type":"turing-test","trial_index":17,"time_elapsed":73671,"internal_node_id":"0.0-8.0-2.2","subject":"c72et9h4ux2d8nj","sona":"8698"},{"rt":1492.1899999608286,"stimulus":"<p>Welche Sequenz haben Sie als natürlicher empfunden?</p>","key_press":70,"test_part":"response","test_stimulus":{"position":0,"left":"bvh/pass-bottle-training1-lines.txt","right":"bvh/vr_prediction_models/model(vcgpdm)-dataset(pass-bottle)-mode(ELBO)-parts(1)-dyn(20)-lvm(5)-hold(1)/final-lines.txt","att_check":false},"trial_type":"html-keyboard-response","trial_index":18,"time_elapsed":75169,"internal_node_id":"0.0-8.0-3.2","subject":"c72et9h4ux2d8nj","sona":"8698"},{"rt":2746.2499999674037,"stimulus":"<p>Bereit?</p>","key_press":32,"trial_type":"html-keyboard-response","trial_index":19,"time_elapsed":77919,"internal_node_id":"0.0-8.0-0.3","subject":"c72et9h4ux2d8nj","sona":"8698"},{"rt":null,"stimulus":"<div style=\"font-size:60px;\">+</div>","key_press":null,"trial_type":"html-keyboard-response","trial_index":20,"time_elapsed":79922,"internal_node_id":"0.0-8.0-1.3","subject":"c72et9h4ux2d8nj","sona":"8698"},{"trial_type":"turing-test","trial_index":21,"time_elapsed":87030,"internal_node_id":"0.0-8.0-2.3","subject":"c72et9h4ux2d8nj","sona":"8698"},{"rt":527.9800000134856,"stimulus":"<p>Welche Sequenz haben Sie als natürlicher empfunden?</p>","key_press":74,"test_part":"response","test_stimulus":{"position":1,"left":"bvh/vr_prediction_models/model(vcgpdm)-dataset(pass-bottle)-mode(ELBO)-parts(3)-dyn(10)-lvm(10)-hold(3)/final-lines.txt","right":"bvh/pass-bottle-training3-lines.txt","att_check":false},"trial_type":"html-keyboard-response","trial_index":22,"time_elapsed":87563,"internal_node_id":"0.0-8.0-3.3","subject":"c72et9h4ux2d8nj","sona":"8698"},{"rt":587.8350000130013,"stimulus":"<p>Bereit?</p>","key_press":32,"trial_type":"html-keyboard-response","trial_index":23,"time_elapsed":88156,"internal_node_id":"0.0-8.0-0.4","subject":"c72et9h4ux2d8nj","sona":"8698"},{"rt":null,"stimulus":"<div style=\"font-size:60px;\">+</div>","key_press":null,"trial_type":"html-keyboard-response","trial_index":24,"time_elapsed":90166,"internal_node_id":"0.0-8.0-1.4","subject":"c72et9h4ux2d8nj","sona":"8698"},{"trial_type":"turing-test","trial_index":25,"time_elapsed":98178,"internal_node_id":"0.0-8.0-2.4","subject":"c72et9h4ux2d8nj","sona":"8698"},{"rt":493.2050000061281,"stimulus":"<p>Welche Sequenz haben Sie als natürlicher empfunden?</p>","key_press":74,"test_part":"response","test_stimulus":{"position":1,"left":"bvh/vr_prediction_models/model(tmp)-dataset(return-bottle)-numprim(3)-hold(2)/final-lines.txt","right":"bvh/return-bottle-training2-lines.txt","att_check":false},"trial_type":"html-keyboard-response","trial_index":26,"time_elapsed":98677,"internal_node_id":"0.0-8.0-3.4","subject":"c72et9h4ux2d8nj","sona":"8698"},{"rt":1208.2099999533966,"stimulus":"<p>Bereit?</p>","key_press":32,"trial_type":"html-keyboard-response","trial_index":27,"time_elapsed":99890,"internal_node_id":"0.0-8.0-0.5","subject":"c72et9h4ux2d8nj","sona":"8698"},{"rt":null,"stimulus":"<div style=\"font-size:60px;\">+</div>","key_press":null,"trial_type":"html-keyboard-response","trial_index":28,"time_elapsed":101914,"internal_node_id":"0.0-8.0-1.5","subject":"c72et9h4ux2d8nj","sona":"8698"},{"trial_type":"turing-test","trial_index":29,"time_elapsed":108007,"internal_node_id":"0.0-8.0-2.5","subject":"c72et9h4ux2d8nj","sona":"8698"},{"rt":780.7349999784492,"stimulus":"<p>Welche Sequenz haben Sie als natürlicher empfunden?</p>","key_press":74,"test_part":"response","test_stimulus":{"position":1,"left":"bvh/vr_prediction_models/model(vcgpdm)-dataset(pass-bottle)-mode(ELBO)-parts(3)-dyn(25)-lvm(25)-hold(1)/final-lines.txt","right":"bvh/pass-bottle-training1-lines.txt","att_check":false},"trial_type":"html-keyboard-response","trial_index":30,"time_elapsed":108793,"internal_node_id":"0.0-8.0-3.5","subject":"c72et9h4ux2d8nj","sona":"8698"},{"rt":672.4299999768846,"stimulus":"<p>Bereit?</p>","key_press":32,"trial_type":"html-keyboard-response","trial_index":31,"time_elapsed":109470,"internal_node_id":"0.0-8.0-0.6","subject":"c72et9h4ux2d8nj","sona":"8698"},{"rt":null,"stimulus":"<div style=\"font-size:60px;\">+</div>","key_press":null,"trial_type":"html-keyboard-response","trial_index":32,"time_elapsed":111490,"internal_node_id":"0.0-8.0-1.6","subject":"c72et9h4ux2d8nj","sona":"8698"},{"trial_type":"turing-test","trial_index":33,"time_elapsed":118469,"internal_node_id":"0.0-8.0-2.6","subject":"c72et9h4ux2d8nj","sona":"8698"},{"rt":574.5200000237674,"stimulus":"<p>Welche Sequenz haben Sie als natürlicher empfunden?</p>","key_press":70,"test_part":"response","test_stimulus":{"position":0,"left":"bvh/pass-bottle-training3-lines.txt","right":"bvh/vr_prediction_models/model(tmp)-dataset(pass-bottle)-numprim(12)-hold(3)/final-lines.txt","att_check":false},"trial_type":"html-keyboard-response","trial_index":34,"time_elapsed":119050,"internal_node_id":"0.0-8.0-3.6","subject":"c72et9h4ux2d8nj","sona":"8698"},{"rt":592.1399999642745,"stimulus":"<p>Bereit?</p>","key_press":32,"trial_type":"html-keyboard-response","trial_index":35,"time_elapsed":119646,"internal_node_id":"0.0-8.0-0.7","subject":"c72et9h4ux2d8nj","sona":"8698"},{"rt":null,"stimulus":"<div style=\"font-size:60px;\">+</div>","key_press":null,"trial_type":"html-keyboard-response","trial_index":36,"time_elapsed":121657,"internal_node_id":"0.0-8.0-1.7","subject":"c72et9h4ux2d8nj","sona":"8698"},{"trial_type":"turing-test","trial_index":37,"time_elapsed":127944,"internal_node_id":"0.0-8.0-2.7","subject":"c72et9h4ux2d8nj","sona":"8698"},{"rt":761.3850000197999,"stimulus":"<p>Welche Sequenz haben Sie als natürlicher empfunden?</p>","key_press":70,"test_part":"response","test_stimulus":{"position":1,"left":"bvh/vr_prediction_models/model(tmp)-dataset(return-bottle)-numprim(12)-hold(0)/final-lines.txt","right":"bvh/return-bottle-training0-lines.txt","att_check":false},"trial_type":"html-keyboard-response","trial_index":38,"time_elapsed":128712,"internal_node_id":"0.0-8.0-3.7","subject":"c72et9h4ux2d8nj","sona":"8698"},{"rt":824.2099999915808,"stimulus":"<p>Bereit?</p>","key_press":32,"trial_type":"html-keyboard-response","trial_index":39,"time_elapsed":129539,"internal_node_id":"0.0-8.0-0.8","subject":"c72et9h4ux2d8nj","sona":"8698"},{"rt":null,"stimulus":"<div style=\"font-size:60px;\">+</div>","key_press":null,"trial_type":"html-keyboard-response","trial_index":40,"time_elapsed":131548,"internal_node_id":"0.0-8.0-1.8","subject":"c72et9h4ux2d8nj","sona":"8698"},{"trial_type":"turing-test","trial_index":41,"time_elapsed":138416,"internal_node_id":"0.0-8.0-2.8","subject":"c72et9h4ux2d8nj","sona":"8698"},{"rt":801.4350000303239,"stimulus":"<p>Welche Sequenz haben Sie als natürlicher empfunden?</p>","key_press":70,"test_part":"response","test_stimulus":{"position":1,"left":"bvh/vr_prediction_models/model(vcgpdm)-dataset(return-bottle)-mode(ELBO)-parts(1)-dyn(35)-lvm(10)-hold(2)/final-lines.txt","right":"bvh/return-bottle-training2-lines.txt","att_check":false},"trial_type":"html-keyboard-response","trial_index":42,"time_elapsed":139224,"internal_node_id":"0.0-8.0-3.8","subject":"c72et9h4ux2d8nj","sona":"8698"},{"rt":1312.6550000160933,"stimulus":"<p>Bereit?</p>","key_press":32,"trial_type":"html-keyboard-response","trial_index":43,"time_elapsed":140540,"internal_node_id":"0.0-8.0-0.9","subject":"c72et9h4ux2d8nj","sona":"8698"},{"rt":null,"stimulus":"<div style=\"font-size:60px;\">+</div>","key_press":null,"trial_type":"html-keyboard-response","trial_index":44,"time_elapsed":142556,"internal_node_id":"0.0-8.0-1.9","subject":"c72et9h4ux2d8nj","sona":"8698"},{"trial_type":"turing-test","trial_index":45,"time_elapsed":146262,"internal_node_id":"0.0-8.0-2.9","subject":"c72et9h4ux2d8nj","sona":"8698"},{"rt":532.2499999892898,"stimulus":"<p>Welche Sequenz haben Sie als natürlicher empfunden?</p>","key_press":74,"test_part":"response","test_stimulus":{"position":1,"left":"bvh/vr_prediction_models/model(vcgpdm)-dataset(pass-bottle-hold)-mode(MAP)-parts(3)-hold(2)/final-lines.txt","right":"bvh/pass-bottle-hold-training2-lines.txt","att_check":false},"trial_type":"html-keyboard-response","trial_index":46,"time_elapsed":146801,"internal_node_id":"0.0-8.0-3.9","subject":"c72et9h4ux2d8nj","sona":"8698"},{"rt":406.94999997504056,"stimulus":"<p>Bereit?</p>","key_press":32,"trial_type":"html-keyboard-response","trial_index":47,"time_elapsed":147212,"internal_node_id":"0.0-8.0-0.10","subject":"c72et9h4ux2d8nj","sona":"8698"},{"rt":null,"stimulus":"<div style=\"font-size:60px;\">+</div>","key_press":null,"trial_type":"html-keyboard-response","trial_index":48,"time_elapsed":149231,"internal_node_id":"0.0-8.0-1.10","subject":"c72et9h4ux2d8nj","sona":"8698"},{"trial_type":"turing-test","trial_index":49,"time_elapsed":156536,"internal_node_id":"0.0-8.0-2.10","subject":"c72et9h4ux2d8nj","sona":"8698"},{"rt":659.2499999678694,"stimulus":"<p>Welche Sequenz haben Sie als natürlicher empfunden?</p>","key_press":74,"test_part":"response","test_stimulus":{"position":0,"left":"bvh/pass-bottle-training0-lines.txt","right":"bvh/vr_prediction_models/model(vcgpdm)-dataset(pass-bottle)-mode(ELBO)-parts(1)-dyn(10)-lvm(25)-hold(0)/final-lines.txt","att_check":false},"trial_type":"html-keyboard-response","trial_index":50,"time_elapsed":157202,"internal_node_id":"0.0-8.0-3.10","subject":"c72et9h4ux2d8nj","sona":"8698"},{"rt":497.93499999213964,"stimulus":"<p>Bereit?</p>","key_press":32,"trial_type":"html-keyboard-response","trial_index":51,"time_elapsed":157703,"internal_node_id":"0.0-8.0-0.11","subject":"c72et9h4ux2d8nj","sona":"8698"},{"rt":null,"stimulus":"<div style=\"font-size:60px;\">+</div>","key_press":null,"trial_type":"html-keyboard-response","trial_index":52,"time_elapsed":159720,"internal_node_id":"0.0-8.0-1.11","subject":"c72et9h4ux2d8nj","sona":"8698"},{"trial_type":"turing-test","trial_index":53,"time_elapsed":164286,"internal_node_id":"0.0-8.0-2.11","subject":"c72et9h4ux2d8nj","sona":"8698"},{"rt":1044.6200000005774,"stimulus":"<p>Welche Sequenz haben Sie als natürlicher empfunden?</p>","key_press":74,"test_part":"response","test_stimulus":{"position":1,"left":"bvh/vr_prediction_models/model(tmp)-dataset(return-bottle-hold)-numprim(5)-hold(3)/final-lines.txt","right":"bvh/return-bottle-hold-training3-lines.txt","att_check":false},"trial_type":"html-keyboard-response","trial_index":54,"time_elapsed":165336,"internal_node_id":"0.0-8.0-3.11","subject":"c72et9h4ux2d8nj","sona":"8698"},{"rt":620.2049999847077,"stimulus":"<p>Bereit?</p>","key_press":32,"trial_type":"html-keyboard-response","trial_index":55,"time_elapsed":165960,"internal_node_id":"0.0-8.0-0.12","subject":"c72et9h4ux2d8nj","sona":"8698"},{"rt":null,"stimulus":"<div style=\"font-size:60px;\">+</div>","key_press":null,"trial_type":"html-keyboard-response","trial_index":56,"time_elapsed":167986,"internal_node_id":"0.0-8.0-1.12","subject":"c72et9h4ux2d8nj","sona":"8698"},{"trial_type":"turing-test","trial_index":57,"time_elapsed":171652,"internal_node_id":"0.0-8.0-2.12","subject":"c72et9h4ux2d8nj","sona":"8698"},{"rt":748.7550000078045,"stimulus":"<p>Welche Sequenz haben Sie als natürlicher empfunden?</p>","key_press":74,"test_part":"response","test_stimulus":{"position":1,"left":"bvh/vr_prediction_models/model(dmp)-dataset(return-bottle-hold)-npsi(40)-hold(3)/final-lines.txt","right":"bvh/return-bottle-hold-training3-lines.txt","att_check":false},"trial_type":"html-keyboard-response","trial_index":58,"time_elapsed":172408,"internal_node_id":"0.0-8.0-3.12","subject":"c72et9h4ux2d8nj","sona":"8698"},{"rt":340.09000001242384,"stimulus":"<p>Bereit?</p>","key_press":32,"trial_type":"html-keyboard-response","trial_index":59,"time_elapsed":172753,"internal_node_id":"0.0-8.0-0.13","subject":"c72et9h4ux2d8nj","sona":"8698"},{"rt":null,"stimulus":"<div style=\"font-size:60px;\">+</div>","key_press":null,"trial_type":"html-keyboard-response","trial_index":60,"time_elapsed":174775,"internal_node_id":"0.0-8.0-1.13","subject":"c72et9h4ux2d8nj","sona":"8698"},{"trial_type":"turing-test","trial_index":61,"time_elapsed":178251,"internal_node_id":"0.0-8.0-2.13","subject":"c72et9h4ux2d8nj","sona":"8698"},{"rt":922.2449999651872,"stimulus":"<p>Welche Sequenz haben Sie als natürlicher empfunden?</p>","key_press":70,"test_part":"response","test_stimulus":{"position":0,"left":"bvh/pass-bottle-hold-training1-lines.txt","right":"bvh/vr_prediction_models/model(vcgpdm)-dataset(pass-bottle-hold)-mode(ELBO)-parts(3)-dyn(20)-lvm(20)-hold(1)/final-lines.txt","att_check":false},"trial_type":"html-keyboard-response","trial_index":62,"time_elapsed":179182,"internal_node_id":"0.0-8.0-3.13","subject":"c72et9h4ux2d8nj","sona":"8698"},{"rt":480.11000000406057,"stimulus":"<p>Bereit?</p>","key_press":32,"trial_type":"html-keyboard-response","trial_index":63,"time_elapsed":179666,"internal_node_id":"0.0-8.0-0.14","subject":"c72et9h4ux2d8nj","sona":"8698"},{"rt":null,"stimulus":"<div style=\"font-size:60px;\">+</div>","key_press":null,"trial_type":"html-keyboard-response","trial_index":64,"time_elapsed":181685,"internal_node_id":"0.0-8.0-1.14","subject":"c72et9h4ux2d8nj","sona":"8698"},{"trial_type":"turing-test","trial_index":65,"time_elapsed":187589,"internal_node_id":"0.0-8.0-2.14","subject":"c72et9h4ux2d8nj","sona":"8698"},{"rt":848.4349999926053,"stimulus":"<p>Welche Sequenz haben Sie als natürlicher empfunden?</p>","key_press":70,"test_part":"response","test_stimulus":{"position":0,"left":"bvh/pass-bottle-training1-lines.txt","right":"bvh/vr_prediction_models/model(vcgpdm)-dataset(pass-bottle)-mode(MAP)-parts(3)-hold(1)/final-lines.txt","att_check":false},"trial_type":"html-keyboard-response","trial_index":66,"time_elapsed":188444,"internal_node_id":"0.0-8.0-3.14","subject":"c72et9h4ux2d8nj","sona":"8698"},{"rt":379.7500000218861,"stimulus":"<p>Bereit?</p>","key_press":32,"trial_type":"html-keyboard-response","trial_index":67,"time_elapsed":188828,"internal_node_id":"0.0-8.0-0.15","subject":"c72et9h4ux2d8nj","sona":"8698"},{"rt":null,"stimulus":"<div style=\"font-size:60px;\">+</div>","key_press":null,"trial_type":"html-keyboard-response","trial_index":68,"time_elapsed":190843,"internal_node_id":"0.0-8.0-1.15","subject":"c72et9h4ux2d8nj","sona":"8698"},{"trial_type":"turing-test","trial_index":69,"time_elapsed":196754,"internal_node_id":"0.0-8.0-2.15","subject":"c72et9h4ux2d8nj","sona":"8698"},{"rt":550.9949999977835,"stimulus":"<p>Welche Sequenz haben Sie als natürlicher empfunden?</p>","key_press":74,"test_part":"response","test_stimulus":{"position":1,"left":"bvh/vr_prediction_models/model(dmp)-dataset(pass-bottle)-npsi(20)-hold(4)/final-lines.txt","right":"bvh/pass-bottle-training4-lines.txt","att_check":false},"trial_type":"html-keyboard-response","trial_index":70,"time_elapsed":197312,"internal_node_id":"0.0-8.0-3.15","subject":"c72et9h4ux2d8nj","sona":"8698"},{"rt":319.8899999842979,"stimulus":"<p>Bereit?</p>","key_press":32,"trial_type":"html-keyboard-response","trial_index":71,"time_elapsed":197636,"internal_node_id":"0.0-8.0-0.16","subject":"c72et9h4ux2d8nj","sona":"8698"},{"rt":null,"stimulus":"<div style=\"font-size:60px;\">+</div>","key_press":null,"trial_type":"html-keyboard-response","trial_index":72,"time_elapsed":199653,"internal_node_id":"0.0-8.0-1.16","subject":"c72et9h4ux2d8nj","sona":"8698"},{"trial_type":"turing-test","trial_index":73,"time_elapsed":205176,"internal_node_id":"0.0-8.0-2.16","subject":"c72et9h4ux2d8nj","sona":"8698"},{"rt":483.5000000311993,"stimulus":"<p>Welche Sequenz haben Sie als natürlicher empfunden?</p>","key_press":74,"test_part":"response","test_stimulus":{"position":1,"left":"bvh/vr_prediction_models/model(dmp)-dataset(return-bottle)-npsi(70)-hold(0)/final-lines.txt","right":"bvh/return-bottle-training0-lines.txt","att_check":false},"trial_type":"html-keyboard-response","trial_index":74,"time_elapsed":205667,"internal_node_id":"0.0-8.0-3.16","subject":"c72et9h4ux2d8nj","sona":"8698"},{"rt":365.0599999818951,"stimulus":"<p>Bereit?</p>","key_press":32,"trial_type":"html-keyboard-response","trial_index":75,"time_elapsed":206037,"internal_node_id":"0.0-8.0-0.17","subject":"c72et9h4ux2d8nj","sona":"8698"},{"rt":null,"stimulus":"<div style=\"font-size:60px;\">+</div>","key_press":null,"trial_type":"html-keyboard-response","trial_index":76,"time_elapsed":208050,"internal_node_id":"0.0-8.0-1.17","subject":"c72et9h4ux2d8nj","sona":"8698"},{"trial_type":"turing-test","trial_index":77,"time_elapsed":211711,"internal_node_id":"0.0-8.0-2.17","subject":"c72et9h4ux2d8nj","sona":"8698"},{"rt":561.4499999792315,"stimulus":"<p>Welche Sequenz haben Sie als natürlicher empfunden?</p>","key_press":70,"test_part":"response","test_stimulus":{"position":0,"left":"bvh/return-bottle-hold-training2-lines.txt","right":"bvh/vr_prediction_models/model(tmp)-dataset(return-bottle-hold)-numprim(10)-hold(2)/final-lines.txt","att_check":false},"trial_type":"html-keyboard-response","trial_index":78,"time_elapsed":212279,"internal_node_id":"0.0-8.0-3.17","subject":"c72et9h4ux2d8nj","sona":"8698"},{"rt":491.6700000176206,"stimulus":"<p>Bereit?</p>","key_press":32,"trial_type":"html-keyboard-response","trial_index":79,"time_elapsed":212776,"internal_node_id":"0.0-8.0-0.18","subject":"c72et9h4ux2d8nj","sona":"8698"},{"rt":null,"stimulus":"<div style=\"font-size:60px;\">+</div>","key_press":null,"trial_type":"html-keyboard-response","trial_index":80,"time_elapsed":214797,"internal_node_id":"0.0-8.0-1.18","subject":"c72et9h4ux2d8nj","sona":"8698"},{"trial_type":"turing-test","trial_index":81,"time_elapsed":221505,"internal_node_id":"0.0-8.0-2.18","subject":"c72et9h4ux2d8nj","sona":"8698"},{"rt":429.15999999968335,"stimulus":"<p>Welche Sequenz haben Sie als natürlicher empfunden?</p>","key_press":70,"test_part":"response","test_stimulus":{"position":0,"left":"bvh/return-bottle-training2-lines.txt","right":"bvh/vr_prediction_models/model(tmp)-dataset(return-bottle)-numprim(5)-hold(2)/final-lines.txt","att_check":false},"trial_type":"html-keyboard-response","trial_index":82,"time_elapsed":221942,"internal_node_id":"0.0-8.0-3.18","subject":"c72et9h4ux2d8nj","sona":"8698"},{"rt":519.0500000026077,"stimulus":"<p>Bereit?</p>","key_press":32,"trial_type":"html-keyboard-response","trial_index":83,"time_elapsed":222469,"internal_node_id":"0.0-8.0-0.19","subject":"c72et9h4ux2d8nj","sona":"8698"},{"rt":null,"stimulus":"<div style=\"font-size:60px;\">+</div>","key_press":null,"trial_type":"html-keyboard-response","trial_index":84,"time_elapsed":224479,"internal_node_id":"0.0-8.0-1.19","subject":"c72et9h4ux2d8nj","sona":"8698"},{"trial_type":"turing-test","trial_index":85,"time_elapsed":228372,"internal_node_id":"0.0-8.0-2.19","subject":"c72et9h4ux2d8nj","sona":"8698"},{"rt":411.1549999797717,"stimulus":"<p>Welche Sequenz haben Sie als natürlicher empfunden?</p>","key_press":74,"test_part":"response","test_stimulus":{"position":0,"left":"bvh/return-bottle-hold-training3-lines.txt","right":"bvh/vr_prediction_models/model(vcgpdm)-dataset(return-bottle-hold)-mode(ELBO)-parts(3)-dyn(10)-lvm(10)-hold(3)/final-lines.txt","att_check":false},"trial_type":"html-keyboard-response","trial_index":86,"time_elapsed":228790,"internal_node_id":"0.0-8.0-3.19","subject":"c72et9h4ux2d8nj","sona":"8698"},{"rt":397.82500005094334,"stimulus":"<p>Bereit?</p>","key_press":32,"trial_type":"html-keyboard-response","trial_index":87,"time_elapsed":229193,"internal_node_id":"0.0-8.0-0.20","subject":"c72et9h4ux2d8nj","sona":"8698"},{"rt":null,"stimulus":"<div style=\"font-size:60px;\">+</div>","key_press":null,"trial_type":"html-keyboard-response","trial_index":88,"time_elapsed":231201,"internal_node_id":"0.0-8.0-1.20","subject":"c72et9h4ux2d8nj","sona":"8698"},{"trial_type":"turing-test","trial_index":89,"time_elapsed":234976,"internal_node_id":"0.0-8.0-2.20","subject":"c72et9h4ux2d8nj","sona":"8698"},{"rt":533.7599999620579,"stimulus":"<p>Welche Sequenz haben Sie als natürlicher empfunden?</p>","key_press":70,"test_part":"response","test_stimulus":{"position":1,"left":"bvh/vr_prediction_models/model(vcgpdm)-dataset(pass-bottle-hold)-mode(ELBO)-parts(1)-dyn(10)-lvm(25)-hold(3)/final-lines.txt","right":"bvh/pass-bottle-hold-training3-lines.txt","att_check":false},"trial_type":"html-keyboard-response","trial_index":90,"time_elapsed":235518,"internal_node_id":"0.0-8.0-3.20","subject":"c72et9h4ux2d8nj","sona":"8698"},{"rt":345.7150000031106,"stimulus":"<p>Bereit?</p>","key_press":32,"trial_type":"html-keyboard-response","trial_index":91,"time_elapsed":235868,"internal_node_id":"0.0-8.0-0.21","subject":"c72et9h4ux2d8nj","sona":"8698"},{"rt":null,"stimulus":"<div style=\"font-size:60px;\">+</div>","key_press":null,"trial_type":"html-keyboard-response","trial_index":92,"time_elapsed":237888,"internal_node_id":"0.0-8.0-1.21","subject":"c72et9h4ux2d8nj","sona":"8698"},{"trial_type":"turing-test","trial_index":93,"time_elapsed":243794,"internal_node_id":"0.0-8.0-2.21","subject":"c72et9h4ux2d8nj","sona":"8698"},{"rt":522.9849999886937,"stimulus":"<p>Welche Sequenz haben Sie als natürlicher empfunden?</p>","key_press":70,"test_part":"response","test_stimulus":{"position":0,"left":"bvh/return-bottle-training0-lines.txt","right":"bvh/vr_prediction_models/model(vcgpdm)-dataset(return-bottle)-mode(ELBO)-parts(1)-dyn(10)-lvm(30)-hold(0)/final-lines.txt","att_check":false},"trial_type":"html-keyboard-response","trial_index":94,"time_elapsed":244325,"internal_node_id":"0.0-8.0-3.21","subject":"c72et9h4ux2d8nj","sona":"8698"},{"rt":538.2399999652989,"stimulus":"<p>Bereit?</p>","key_press":32,"trial_type":"html-keyboard-response","trial_index":95,"time_elapsed":244868,"internal_node_id":"0.0-8.0-0.22","subject":"c72et9h4ux2d8nj","sona":"8698"},{"rt":null,"stimulus":"<div style=\"font-size:60px;\">+</div>","key_press":null,"trial_type":"html-keyboard-response","trial_index":96,"time_elapsed":246885,"internal_node_id":"0.0-8.0-1.22","subject":"c72et9h4ux2d8nj","sona":"8698"},{"trial_type":"turing-test","trial_index":97,"time_elapsed":250307,"internal_node_id":"0.0-8.0-2.22","subject":"c72et9h4ux2d8nj","sona":"8698"},{"rt":469.5599999977276,"stimulus":"<p>Welche Sequenz haben Sie als natürlicher empfunden?</p>","key_press":74,"test_part":"response","test_stimulus":{"position":1,"left":"bvh/vr_prediction_models/model(dmp)-dataset(pass-bottle-hold)-npsi(40)-hold(0)/final-lines.txt","right":"bvh/pass-bottle-hold-training0-lines.txt","att_check":false},"trial_type":"html-keyboard-response","trial_index":98,"time_elapsed":250784,"internal_node_id":"0.0-8.0-3.22","subject":"c72et9h4ux2d8nj","sona":"8698"},{"rt":278.664999990724,"stimulus":"<p>Bereit?</p>","key_press":32,"trial_type":"html-keyboard-response","trial_index":99,"time_elapsed":251067,"internal_node_id":"0.0-8.0-0.23","subject":"c72et9h4ux2d8nj","sona":"8698"},{"rt":null,"stimulus":"<div style=\"font-size:60px;\">+</div>","key_press":null,"trial_type":"html-keyboard-response","trial_index":100,"time_elapsed":253072,"internal_node_id":"0.0-8.0-1.23","subject":"c72et9h4ux2d8nj","sona":"8698"},{"trial_type":"turing-test","trial_index":101,"time_elapsed":258689,"internal_node_id":"0.0-8.0-2.23","subject":"c72et9h4ux2d8nj","sona":"8698"},{"rt":420.25500000454485,"stimulus":"<p>Welche Sequenz haben Sie als natürlicher empfunden?</p>","key_press":74,"test_part":"response","test_stimulus":{"position":1,"left":"bvh/vr_prediction_models/model(tmp)-dataset(pass-bottle)-numprim(12)-hold(1)/final-lines.txt","right":"bvh/pass-bottle-training1-lines.txt","att_check":false},"trial_type":"html-keyboard-response","trial_index":102,"time_elapsed":259117,"internal_node_id":"0.0-8.0-3.23","subject":"c72et9h4ux2d8nj","sona":"8698"},{"rt":257.3399999528192,"stimulus":"<p>Bereit?</p>","key_press":32,"trial_type":"html-keyboard-response","trial_index":103,"time_elapsed":259380,"internal_node_id":"0.0-8.0-0.24","subject":"c72et9h4ux2d8nj","sona":"8698"},{"rt":null,"stimulus":"<div style=\"font-size:60px;\">+</div>","key_press":null,"trial_type":"html-keyboard-response","trial_index":104,"time_elapsed":261397,"internal_node_id":"0.0-8.0-1.24","subject":"c72et9h4ux2d8nj","sona":"8698"},{"trial_type":"turing-test","trial_index":105,"time_elapsed":267244,"internal_node_id":"0.0-8.0-2.24","subject":"c72et9h4ux2d8nj","sona":"8698"},{"rt":445.9950000164099,"stimulus":"<p>Welche Sequenz haben Sie als natürlicher empfunden?</p>","key_press":74,"test_part":"response","test_stimulus":{"position":1,"left":"bvh/vr_prediction_models/model(tmp)-dataset(pass-bottle)-numprim(10)-hold(4)/final-lines.txt","right":"bvh/pass-bottle-training4-lines.txt","att_check":false},"trial_type":"html-keyboard-response","trial_index":106,"time_elapsed":267697,"internal_node_id":"0.0-8.0-3.24","subject":"c72et9h4ux2d8nj","sona":"8698"},{"rt":250.10499998461455,"stimulus":"<p>Bereit?</p>","key_press":32,"trial_type":"html-keyboard-response","trial_index":107,"time_elapsed":267954,"internal_node_id":"0.0-8.0-0.25","subject":"c72et9h4ux2d8nj","sona":"8698"},{"rt":null,"stimulus":"<div style=\"font-size:60px;\">+</div>","key_press":null,"trial_type":"html-keyboard-response","trial_index":108,"time_elapsed":269972,"internal_node_id":"0.0-8.0-1.25","subject":"c72et9h4ux2d8nj","sona":"8698"},{"trial_type":"turing-test","trial_index":109,"time_elapsed":274033,"internal_node_id":"0.0-8.0-2.25","subject":"c72et9h4ux2d8nj","sona":"8698"},{"rt":542.4599999678321,"stimulus":"<p>Welche Sequenz haben Sie als natürlicher empfunden?</p>","key_press":70,"test_part":"response","test_stimulus":{"position":1,"left":"bvh/vr_prediction_models/model(vcgpdm)-dataset(return-bottle-hold)-mode(ELBO)-parts(1)-dyn(35)-lvm(10)-hold(1)/final-lines.txt","right":"bvh/return-bottle-hold-training1-lines.txt","att_check":false},"trial_type":"html-keyboard-response","trial_index":110,"time_elapsed":274582,"internal_node_id":"0.0-8.0-3.25","subject":"c72et9h4ux2d8nj","sona":"8698"},{"rt":400.0400000368245,"stimulus":"<p>Bereit?</p>","key_press":32,"trial_type":"html-keyboard-response","trial_index":111,"time_elapsed":274987,"internal_node_id":"0.0-8.0-0.26","subject":"c72et9h4ux2d8nj","sona":"8698"},{"rt":null,"stimulus":"<div style=\"font-size:60px;\">+</div>","key_press":null,"trial_type":"html-keyboard-response","trial_index":112,"time_elapsed":277000,"internal_node_id":"0.0-8.0-1.26","subject":"c72et9h4ux2d8nj","sona":"8698"},{"trial_type":"turing-test","trial_index":113,"time_elapsed":280521,"internal_node_id":"0.0-8.0-2.26","subject":"c72et9h4ux2d8nj","sona":"8698"},{"rt":1895.0600000098348,"stimulus":"<p>Welche Sequenz haben Sie als natürlicher empfunden?</p>","key_press":74,"test_part":"response","test_stimulus":{"position":1,"left":"bvh/vr_prediction_models/model(dmp)-dataset(pass-bottle-hold)-npsi(90)-hold(1)/final-lines.txt","right":"bvh/pass-bottle-hold-training1-lines.txt","att_check":true},"trial_type":"html-keyboard-response","trial_index":114,"time_elapsed":282424,"internal_node_id":"0.0-8.0-3.26","subject":"c72et9h4ux2d8nj","sona":"8698"},{"rt":504.32499998714775,"stimulus":"<p>Bereit?</p>","key_press":32,"trial_type":"html-keyboard-response","trial_index":115,"time_elapsed":282934,"internal_node_id":"0.0-8.0-0.27","subject":"c72et9h4ux2d8nj","sona":"8698"},{"rt":null,"stimulus":"<div style=\"font-size:60px;\">+</div>","key_press":null,"trial_type":"html-keyboard-response","trial_index":116,"time_elapsed":284953,"internal_node_id":"0.0-8.0-1.27","subject":"c72et9h4ux2d8nj","sona":"8698"},{"trial_type":"turing-test","trial_index":117,"time_elapsed":290180,"internal_node_id":"0.0-8.0-2.27","subject":"c72et9h4ux2d8nj","sona":"8698"},{"rt":342.7600000286475,"stimulus":"<p>Welche Sequenz haben Sie als natürlicher empfunden?</p>","key_press":70,"test_part":"response","test_stimulus":{"position":0,"left":"bvh/return-bottle-hold-training0-lines.txt","right":"bvh/vr_prediction_models/model(tmp)-dataset(return-bottle-hold)-numprim(15)-hold(0)/final-lines.txt","att_check":false},"trial_type":"html-keyboard-response","trial_index":118,"time_elapsed":290530,"internal_node_id":"0.0-8.0-3.27","subject":"c72et9h4ux2d8nj","sona":"8698"},{"rt":351.95999999996275,"stimulus":"<p>Bereit?</p>","key_press":32,"trial_type":"html-keyboard-response","trial_index":119,"time_elapsed":290887,"internal_node_id":"0.0-8.0-0.28","subject":"c72et9h4ux2d8nj","sona":"8698"},{"rt":null,"stimulus":"<div style=\"font-size:60px;\">+</div>","key_press":null,"trial_type":"html-keyboard-response","trial_index":120,"time_elapsed":292906,"internal_node_id":"0.0-8.0-1.28","subject":"c72et9h4ux2d8nj","sona":"8698"},{"trial_type":"turing-test","trial_index":121,"time_elapsed":298403,"internal_node_id":"0.0-8.0-2.28","subject":"c72et9h4ux2d8nj","sona":"8698"},{"rt":584.1300000320189,"stimulus":"<p>Welche Sequenz haben Sie als natürlicher empfunden?</p>","key_press":70,"test_part":"response","test_stimulus":{"position":0,"left":"bvh/pass-bottle-training1-lines.txt","right":"bvh/vr_prediction_models/model(dmp)-dataset(pass-bottle)-npsi(70)-hold(1)/final-lines.txt","att_check":false},"trial_type":"html-keyboard-response","trial_index":122,"time_elapsed":298995,"internal_node_id":"0.0-8.0-3.28","subject":"c72et9h4ux2d8nj","sona":"8698"},{"rt":305.5949999834411,"stimulus":"<p>Bereit?</p>","key_press":32,"trial_type":"html-keyboard-response","trial_index":123,"time_elapsed":299306,"internal_node_id":"0.0-8.0-0.29","subject":"c72et9h4ux2d8nj","sona":"8698"},{"rt":null,"stimulus":"<div style=\"font-size:60px;\">+</div>","key_press":null,"trial_type":"html-keyboard-response","trial_index":124,"time_elapsed":301335,"internal_node_id":"0.0-8.0-1.29","subject":"c72et9h4ux2d8nj","sona":"8698"},{"trial_type":"turing-test","trial_index":125,"time_elapsed":305049,"internal_node_id":"0.0-8.0-2.29","subject":"c72et9h4ux2d8nj","sona":"8698"},{"rt":293.21500001242384,"stimulus":"<p>Welche Sequenz haben Sie als natürlicher empfunden?</p>","key_press":74,"test_part":"response","test_stimulus":{"position":1,"left":"bvh/vr_prediction_models/model(vcgpdm)-dataset(pass-bottle-hold)-mode(ELBO)-parts(1)-dyn(10)-lvm(5)-hold(0)/final-lines.txt","right":"bvh/pass-bottle-hold-training0-lines.txt","att_check":false},"trial_type":"html-keyboard-response","trial_index":126,"time_elapsed":305350,"internal_node_id":"0.0-8.0-3.29","subject":"c72et9h4ux2d8nj","sona":"8698"},{"rt":261.05499995173886,"stimulus":"<p>Bereit?</p>","key_press":32,"trial_type":"html-keyboard-response","trial_index":127,"time_elapsed":305617,"internal_node_id":"0.0-8.0-0.30","subject":"c72et9h4ux2d8nj","sona":"8698"},{"rt":null,"stimulus":"<div style=\"font-size:60px;\">+</div>","key_press":null,"trial_type":"html-keyboard-response","trial_index":128,"time_elapsed":307625,"internal_node_id":"0.0-8.0-1.30","subject":"c72et9h4ux2d8nj","sona":"8698"},{"trial_type":"turing-test","trial_index":129,"time_elapsed":313222,"internal_node_id":"0.0-8.0-2.30","subject":"c72et9h4ux2d8nj","sona":"8698"},{"rt":316.1850000033155,"stimulus":"<p>Welche Sequenz haben Sie als natürlicher empfunden?</p>","key_press":70,"test_part":"response","test_stimulus":{"position":1,"left":"bvh/vr_prediction_models/model(tmp)-dataset(return-bottle)-numprim(11)-hold(0)/final-lines.txt","right":"bvh/return-bottle-training0-lines.txt","att_check":false},"trial_type":"html-keyboard-response","trial_index":130,"time_elapsed":313546,"internal_node_id":"0.0-8.0-3.30","subject":"c72et9h4ux2d8nj","sona":"8698"},{"rt":266.4000000222586,"stimulus":"<p>Bereit?</p>","key_press":32,"trial_type":"html-keyboard-response","trial_index":131,"time_elapsed":313818,"internal_node_id":"0.0-8.0-0.31","subject":"c72et9h4ux2d8nj","sona":"8698"},{"rt":null,"stimulus":"<div style=\"font-size:60px;\">+</div>","key_press":null,"trial_type":"html-keyboard-response","trial_index":132,"time_elapsed":315833,"internal_node_id":"0.0-8.0-1.31","subject":"c72et9h4ux2d8nj","sona":"8698"},{"trial_type":"turing-test","trial_index":133,"time_elapsed":319239,"internal_node_id":"0.0-8.0-2.31","subject":"c72et9h4ux2d8nj","sona":"8698"},{"rt":430.5299999541603,"stimulus":"<p>Welche Sequenz haben Sie als natürlicher empfunden?</p>","key_press":74,"test_part":"response","test_stimulus":{"position":1,"left":"bvh/vr_prediction_models/model(tmp)-dataset(pass-bottle-hold)-numprim(14)-hold(0)/final-lines.txt","right":"bvh/pass-bottle-hold-training0-lines.txt","att_check":false},"trial_type":"html-keyboard-response","trial_index":134,"time_elapsed":319678,"internal_node_id":"0.0-8.0-3.31","subject":"c72et9h4ux2d8nj","sona":"8698"},{"rt":225.90999997919425,"stimulus":"<p>Bereit?</p>","key_press":32,"trial_type":"html-keyboard-response","trial_index":135,"time_elapsed":319910,"internal_node_id":"0.0-8.0-0.32","subject":"c72et9h4ux2d8nj","sona":"8698"},{"rt":null,"stimulus":"<div style=\"font-size:60px;\">+</div>","key_press":null,"trial_type":"html-keyboard-response","trial_index":136,"time_elapsed":321922,"internal_node_id":"0.0-8.0-1.32","subject":"c72et9h4ux2d8nj","sona":"8698"},{"trial_type":"turing-test","trial_index":137,"time_elapsed":328884,"internal_node_id":"0.0-8.0-2.32","subject":"c72et9h4ux2d8nj","sona":"8698"},{"rt":390.0349999894388,"stimulus":"<p>Welche Sequenz haben Sie als natürlicher empfunden?</p>","key_press":74,"test_part":"response","test_stimulus":{"position":1,"left":"bvh/vr_prediction_models/model(vcgpdm)-dataset(pass-bottle)-mode(ELBO)-parts(1)-dyn(35)-lvm(30)-hold(0)/final-lines.txt","right":"bvh/pass-bottle-training0-lines.txt","att_check":false},"trial_type":"html-keyboard-response","trial_index":138,"time_elapsed":329281,"internal_node_id":"0.0-8.0-3.32","subject":"c72et9h4ux2d8nj","sona":"8698"},{"rt":341.00499999476597,"stimulus":"<p>Bereit?</p>","key_press":32,"trial_type":"html-keyboard-response","trial_index":139,"time_elapsed":329628,"internal_node_id":"0.0-8.0-0.33","subject":"c72et9h4ux2d8nj","sona":"8698"},{"rt":null,"stimulus":"<div style=\"font-size:60px;\">+</div>","key_press":null,"trial_type":"html-keyboard-response","trial_index":140,"time_elapsed":331651,"internal_node_id":"0.0-8.0-1.33","subject":"c72et9h4ux2d8nj","sona":"8698"},{"trial_type":"turing-test","trial_index":141,"time_elapsed":337554,"internal_node_id":"0.0-8.0-2.33","subject":"c72et9h4ux2d8nj","sona":"8698"},{"rt":789.2549999523908,"stimulus":"<p>Welche Sequenz haben Sie als natürlicher empfunden?</p>","key_press":70,"test_part":"response","test_stimulus":{"position":1,"left":"bvh/vr_prediction_models/model(tmp)-dataset(pass-bottle)-numprim(13)-hold(3)/final-lines.txt","right":"bvh/pass-bottle-training3-lines.txt","att_check":false},"trial_type":"html-keyboard-response","trial_index":142,"time_elapsed":338351,"internal_node_id":"0.0-8.0-3.33","subject":"c72et9h4ux2d8nj","sona":"8698"},{"rt":495.07500004256144,"stimulus":"<p>Bereit?</p>","key_press":32,"trial_type":"html-keyboard-response","trial_index":143,"time_elapsed":338853,"internal_node_id":"0.0-8.0-0.34","subject":"c72et9h4ux2d8nj","sona":"8698"},{"rt":null,"stimulus":"<div style=\"font-size:60px;\">+</div>","key_press":null,"trial_type":"html-keyboard-response","trial_index":144,"time_elapsed":340875,"internal_node_id":"0.0-8.0-1.34","subject":"c72et9h4ux2d8nj","sona":"8698"},{"trial_type":"turing-test","trial_index":145,"time_elapsed":344426,"internal_node_id":"0.0-8.0-2.34","subject":"c72et9h4ux2d8nj","sona":"8698"},{"rt":534.4400000176392,"stimulus":"<p>Welche Sequenz haben Sie als natürlicher empfunden?</p>","key_press":74,"test_part":"response","test_stimulus":{"position":1,"left":"bvh/vr_prediction_models/model(dmp)-dataset(return-bottle-hold)-npsi(30)-hold(2)/final-lines.txt","right":"bvh/return-bottle-hold-training2-lines.txt","att_check":false},"trial_type":"html-keyboard-response","trial_index":146,"time_elapsed":344969,"internal_node_id":"0.0-8.0-3.34","subject":"c72et9h4ux2d8nj","sona":"8698"},{"rt":229.8249999876134,"stimulus":"<p>Bereit?</p>","key_press":32,"trial_type":"html-keyboard-response","trial_index":147,"time_elapsed":345205,"internal_node_id":"0.0-8.0-0.35","subject":"c72et9h4ux2d8nj","sona":"8698"},{"rt":null,"stimulus":"<div style=\"font-size:60px;\">+</div>","key_press":null,"trial_type":"html-keyboard-response","trial_index":148,"time_elapsed":347228,"internal_node_id":"0.0-8.0-1.35","subject":"c72et9h4ux2d8nj","sona":"8698"},{"trial_type":"turing-test","trial_index":149,"time_elapsed":353164,"internal_node_id":"0.0-8.0-2.35","subject":"c72et9h4ux2d8nj","sona":"8698"},{"rt":299.47999998694286,"stimulus":"<p>Welche Sequenz haben Sie als natürlicher empfunden?</p>","key_press":74,"test_part":"response","test_stimulus":{"position":1,"left":"bvh/vr_prediction_models/model(tmp)-dataset(pass-bottle)-numprim(15)-hold(3)/final-lines.txt","right":"bvh/pass-bottle-training3-lines.txt","att_check":false},"trial_type":"html-keyboard-response","trial_index":150,"time_elapsed":353474,"internal_node_id":"0.0-8.0-3.35","subject":"c72et9h4ux2d8nj","sona":"8698"},{"rt":393.9899999531917,"stimulus":"<p>Bereit?</p>","key_press":32,"trial_type":"html-keyboard-response","trial_index":151,"time_elapsed":353874,"internal_node_id":"0.0-8.0-0.36","subject":"c72et9h4ux2d8nj","sona":"8698"},{"rt":null,"stimulus":"<div style=\"font-size:60px;\">+</div>","key_press":null,"trial_type":"html-keyboard-response","trial_index":152,"time_elapsed":355895,"internal_node_id":"0.0-8.0-1.36","subject":"c72et9h4ux2d8nj","sona":"8698"},{"trial_type":"turing-test","trial_index":153,"time_elapsed":359267,"internal_node_id":"0.0-8.0-2.36","subject":"c72et9h4ux2d8nj","sona":"8698"},{"rt":358.69999998249114,"stimulus":"<p>Welche Sequenz haben Sie als natürlicher empfunden?</p>","key_press":70,"test_part":"response","test_stimulus":{"position":0,"left":"bvh/return-bottle-hold-training1-lines.txt","right":"bvh/vr_prediction_models/model(tmp)-dataset(return-bottle-hold)-numprim(5)-hold(1)/final-lines.txt","att_check":false},"trial_type":"html-keyboard-response","trial_index":154,"time_elapsed":359634,"internal_node_id":"0.0-8.0-3.36","subject":"c72et9h4ux2d8nj","sona":"8698"},{"rt":278.9599999669008,"stimulus":"<p>Bereit?</p>","key_press":32,"trial_type":"html-keyboard-response","trial_index":155,"time_elapsed":359918,"internal_node_id":"0.0-8.0-0.37","subject":"c72et9h4ux2d8nj","sona":"8698"},{"rt":null,"stimulus":"<div style=\"font-size:60px;\">+</div>","key_press":null,"trial_type":"html-keyboard-response","trial_index":156,"time_elapsed":361933,"internal_node_id":"0.0-8.0-1.37","subject":"c72et9h4ux2d8nj","sona":"8698"},{"trial_type":"turing-test","trial_index":157,"time_elapsed":365353,"internal_node_id":"0.0-8.0-2.37","subject":"c72et9h4ux2d8nj","sona":"8698"},{"rt":993.7999999965541,"stimulus":"<p>Welche Sequenz haben Sie als natürlicher empfunden?</p>","key_press":70,"test_part":"response","test_stimulus":{"position":0,"left":"bvh/pass-bottle-hold-training1-lines.txt","right":"bvh/vr_prediction_models/model(vcgpdm)-dataset(pass-bottle-hold)-mode(ELBO)-parts(3)-dyn(30)-lvm(15)-hold(1)/final-lines.txt","att_check":false},"trial_type":"html-keyboard-response","trial_index":158,"time_elapsed":366357,"internal_node_id":"0.0-8.0-3.37","subject":"c72et9h4ux2d8nj","sona":"8698"},{"rt":220.67000000970438,"stimulus":"<p>Bereit?</p>","key_press":32,"trial_type":"html-keyboard-response","trial_index":159,"time_elapsed":366584,"internal_node_id":"0.0-8.0-0.38","subject":"c72et9h4ux2d8nj","sona":"8698"},{"rt":null,"stimulus":"<div style=\"font-size:60px;\">+</div>","key_press":null,"trial_type":"html-keyboard-response","trial_index":160,"time_elapsed":368596,"internal_node_id":"0.0-8.0-1.38","subject":"c72et9h4ux2d8nj","sona":"8698"},{"trial_type":"turing-test","trial_index":161,"time_elapsed":374104,"internal_node_id":"0.0-8.0-2.38","subject":"c72et9h4ux2d8nj","sona":"8698"},{"rt":624.6800000080839,"stimulus":"<p>Welche Sequenz haben Sie als natürlicher empfunden?</p>","key_press":74,"test_part":"response","test_stimulus":{"position":1,"left":"bvh/vr_prediction_models/model(dmp)-dataset(return-bottle)-npsi(40)-hold(0)/final-lines.txt","right":"bvh/return-bottle-training0-lines.txt","att_check":false},"trial_type":"html-keyboard-response","trial_index":162,"time_elapsed":374741,"internal_node_id":"0.0-8.0-3.38","subject":"c72et9h4ux2d8nj","sona":"8698"},{"rt":222.23499999381602,"stimulus":"<p>Bereit?</p>","key_press":32,"trial_type":"html-keyboard-response","trial_index":163,"time_elapsed":374969,"internal_node_id":"0.0-8.0-0.39","subject":"c72et9h4ux2d8nj","sona":"8698"},{"rt":null,"stimulus":"<div style=\"font-size:60px;\">+</div>","key_press":null,"trial_type":"html-keyboard-response","trial_index":164,"time_elapsed":376987,"internal_node_id":"0.0-8.0-1.39","subject":"c72et9h4ux2d8nj","sona":"8698"},{"trial_type":"turing-test","trial_index":165,"time_elapsed":383852,"internal_node_id":"0.0-8.0-2.39","subject":"c72et9h4ux2d8nj","sona":"8698"},{"rt":708.4849999519065,"stimulus":"<p>Welche Sequenz haben Sie als natürlicher empfunden?</p>","key_press":70,"test_part":"response","test_stimulus":{"position":0,"left":"bvh/pass-bottle-training0-lines.txt","right":"bvh/vr_prediction_models/model(vcgpdm)-dataset(pass-bottle)-mode(ELBO)-parts(1)-dyn(20)-lvm(20)-hold(0)/final-lines.txt","att_check":false},"trial_type":"html-keyboard-response","trial_index":166,"time_elapsed":384572,"internal_node_id":"0.0-8.0-3.39","subject":"c72et9h4ux2d8nj","sona":"8698"},{"rt":585.5299999821,"stimulus":"<p>Bereit?</p>","key_press":32,"trial_type":"html-keyboard-response","trial_index":167,"time_elapsed":385165,"internal_node_id":"0.0-8.0-0.40","subject":"c72et9h4ux2d8nj","sona":"8698"},{"rt":null,"stimulus":"<div style=\"font-size:60px;\">+</div>","key_press":null,"trial_type":"html-keyboard-response","trial_index":168,"time_elapsed":387182,"internal_node_id":"0.0-8.0-1.40","subject":"c72et9h4ux2d8nj","sona":"8698"},{"trial_type":"turing-test","trial_index":169,"time_elapsed":393956,"internal_node_id":"0.0-8.0-2.40","subject":"c72et9h4ux2d8nj","sona":"8698"},{"rt":299.26500003784895,"stimulus":"<p>Welche Sequenz haben Sie als natürlicher empfunden?</p>","key_press":70,"test_part":"response","test_stimulus":{"position":0,"left":"bvh/pass-bottle-training0-lines.txt","right":"bvh/vr_prediction_models/model(tmp)-dataset(pass-bottle)-numprim(7)-hold(0)/final-lines.txt","att_check":false},"trial_type":"html-keyboard-response","trial_index":170,"time_elapsed":394264,"internal_node_id":"0.0-8.0-3.40","subject":"c72et9h4ux2d8nj","sona":"8698"},{"rt":256.215000001248,"stimulus":"<p>Bereit?</p>","key_press":32,"trial_type":"html-keyboard-response","trial_index":171,"time_elapsed":394530,"internal_node_id":"0.0-8.0-0.41","subject":"c72et9h4ux2d8nj","sona":"8698"},{"rt":null,"stimulus":"<div style=\"font-size:60px;\">+</div>","key_press":null,"trial_type":"html-keyboard-response","trial_index":172,"time_elapsed":396539,"internal_node_id":"0.0-8.0-1.41","subject":"c72et9h4ux2d8nj","sona":"8698"},{"trial_type":"turing-test","trial_index":173,"time_elapsed":402782,"internal_node_id":"0.0-8.0-2.41","subject":"c72et9h4ux2d8nj","sona":"8698"},{"rt":421.84999998426065,"stimulus":"<p>Welche Sequenz haben Sie als natürlicher empfunden?</p>","key_press":70,"test_part":"response","test_stimulus":{"position":0,"left":"bvh/pass-bottle-training2-lines.txt","right":"bvh/vr_prediction_models/model(tmp)-dataset(pass-bottle)-numprim(6)-hold(2)/final-lines.txt","att_check":false},"trial_type":"html-keyboard-response","trial_index":174,"time_elapsed":403216,"internal_node_id":"0.0-8.0-3.41","subject":"c72et9h4ux2d8nj","sona":"8698"},{"rt":305.33500004094094,"stimulus":"<p>Bereit?</p>","key_press":32,"trial_type":"html-keyboard-response","trial_index":175,"time_elapsed":403525,"internal_node_id":"0.0-8.0-0.42","subject":"c72et9h4ux2d8nj","sona":"8698"},{"rt":null,"stimulus":"<div style=\"font-size:60px;\">+</div>","key_press":null,"trial_type":"html-keyboard-response","trial_index":176,"time_elapsed":405544,"internal_node_id":"0.0-8.0-1.42","subject":"c72et9h4ux2d8nj","sona":"8698"},{"trial_type":"turing-test","trial_index":177,"time_elapsed":412309,"internal_node_id":"0.0-8.0-2.42","subject":"c72et9h4ux2d8nj","sona":"8698"},{"rt":444.45999996969476,"stimulus":"<p>Welche Sequenz haben Sie als natürlicher empfunden?</p>","key_press":70,"test_part":"response","test_stimulus":{"position":0,"left":"bvh/return-bottle-training2-lines.txt","right":"bvh/vr_prediction_models/model(vcgpdm)-dataset(return-bottle)-mode(ELBO)-parts(3)-dyn(10)-lvm(30)-hold(2)/final-lines.txt","att_check":false},"trial_type":"html-keyboard-response","trial_index":178,"time_elapsed":412766,"internal_node_id":"0.0-8.0-3.42","subject":"c72et9h4ux2d8nj","sona":"8698"},{"rt":227.56999998819083,"stimulus":"<p>Bereit?</p>","key_press":32,"trial_type":"html-keyboard-response","trial_index":179,"time_elapsed":413000,"internal_node_id":"0.0-8.0-0.43","subject":"c72et9h4ux2d8nj","sona":"8698"},{"rt":null,"stimulus":"<div style=\"font-size:60px;\">+</div>","key_press":null,"trial_type":"html-keyboard-response","trial_index":180,"time_elapsed":415020,"internal_node_id":"0.0-8.0-1.43","subject":"c72et9h4ux2d8nj","sona":"8698"},{"trial_type":"turing-test","trial_index":181,"time_elapsed":418542,"internal_node_id":"0.0-8.0-2.43","subject":"c72et9h4ux2d8nj","sona":"8698"},{"rt":544.5249999756925,"stimulus":"<p>Welche Sequenz haben Sie als natürlicher empfunden?</p>","key_press":70,"test_part":"response","test_stimulus":{"position":0,"left":"bvh/pass-bottle-hold-training0-lines.txt","right":"bvh/vr_prediction_models/model(vcgpdm)-dataset(pass-bottle-hold)-mode(ELBO)-parts(1)-dyn(10)-lvm(25)-hold(0)/final-lines.txt","att_check":false},"trial_type":"html-keyboard-response","trial_index":182,"time_elapsed":419095,"internal_node_id":"0.0-8.0-3.43","subject":"c72et9h4ux2d8nj","sona":"8698"},{"rt":242.8949999739416,"stimulus":"<p>Bereit?</p>","key_press":32,"trial_type":"html-keyboard-response","trial_index":183,"time_elapsed":419346,"internal_node_id":"0.0-8.0-0.44","subject":"c72et9h4ux2d8nj","sona":"8698"},{"rt":null,"stimulus":"<div style=\"font-size:60px;\">+</div>","key_press":null,"trial_type":"html-keyboard-response","trial_index":184,"time_elapsed":421354,"internal_node_id":"0.0-8.0-1.44","subject":"c72et9h4ux2d8nj","sona":"8698"},{"trial_type":"turing-test","trial_index":185,"time_elapsed":424888,"internal_node_id":"0.0-8.0-2.44","subject":"c72et9h4ux2d8nj","sona":"8698"},{"rt":302.2650000057183,"stimulus":"<p>Welche Sequenz haben Sie als natürlicher empfunden?</p>","key_press":74,"test_part":"response","test_stimulus":{"position":1,"left":"bvh/vr_prediction_models/model(vcgpdm)-dataset(return-bottle-hold)-mode(ELBO)-parts(1)-dyn(20)-lvm(20)-hold(1)/final-lines.txt","right":"bvh/return-bottle-hold-training1-lines.txt","att_check":false},"trial_type":"html-keyboard-response","trial_index":186,"time_elapsed":425199,"internal_node_id":"0.0-8.0-3.44","subject":"c72et9h4ux2d8nj","sona":"8698"},{"rt":161.40500002074987,"stimulus":"<p>Bereit?</p>","key_press":32,"trial_type":"html-keyboard-response","trial_index":187,"time_elapsed":425366,"internal_node_id":"0.0-8.0-0.45","subject":"c72et9h4ux2d8nj","sona":"8698"},{"rt":null,"stimulus":"<div style=\"font-size:60px;\">+</div>","key_press":null,"trial_type":"html-keyboard-response","trial_index":188,"time_elapsed":427384,"internal_node_id":"0.0-8.0-1.45","subject":"c72et9h4ux2d8nj","sona":"8698"},{"trial_type":"turing-test","trial_index":189,"time_elapsed":433582,"internal_node_id":"0.0-8.0-2.45","subject":"c72et9h4ux2d8nj","sona":"8698"},{"rt":336.6449999739416,"stimulus":"<p>Welche Sequenz haben Sie als natürlicher empfunden?</p>","key_press":70,"test_part":"response","test_stimulus":{"position":0,"left":"bvh/return-bottle-training1-lines.txt","right":"bvh/vr_prediction_models/model(dmp)-dataset(return-bottle)-npsi(50)-hold(1)/final-lines.txt","att_check":true},"trial_type":"html-keyboard-response","trial_index":190,"time_elapsed":433931,"internal_node_id":"0.0-8.0-3.45","subject":"c72et9h4ux2d8nj","sona":"8698"},{"rt":183.69999999413267,"stimulus":"<p>Bereit?</p>","key_press":32,"trial_type":"html-keyboard-response","trial_index":191,"time_elapsed":434121,"internal_node_id":"0.0-8.0-0.46","subject":"c72et9h4ux2d8nj","sona":"8698"},{"rt":null,"stimulus":"<div style=\"font-size:60px;\">+</div>","key_press":null,"trial_type":"html-keyboard-response","trial_index":192,"time_elapsed":436129,"internal_node_id":"0.0-8.0-1.46","subject":"c72et9h4ux2d8nj","sona":"8698"},{"trial_type":"turing-test","trial_index":193,"time_elapsed":442464,"internal_node_id":"0.0-8.0-2.46","subject":"c72et9h4ux2d8nj","sona":"8698"},{"rt":304.97499997727573,"stimulus":"<p>Welche Sequenz haben Sie als natürlicher empfunden?</p>","key_press":70,"test_part":"response","test_stimulus":{"position":1,"left":"bvh/vr_prediction_models/model(vcgpdm)-dataset(pass-bottle)-mode(ELBO)-parts(3)-dyn(25)-lvm(30)-hold(2)/final-lines.txt","right":"bvh/pass-bottle-training2-lines.txt","att_check":false},"trial_type":"html-keyboard-response","trial_index":194,"time_elapsed":442778,"internal_node_id":"0.0-8.0-3.46","subject":"c72et9h4ux2d8nj","sona":"8698"},{"rt":201.74500002758577,"stimulus":"<p>Bereit?</p>","key_press":32,"trial_type":"html-keyboard-response","trial_index":195,"time_elapsed":442987,"internal_node_id":"0.0-8.0-0.47","subject":"c72et9h4ux2d8nj","sona":"8698"},{"rt":null,"stimulus":"<div style=\"font-size:60px;\">+</div>","key_press":null,"trial_type":"html-keyboard-response","trial_index":196,"time_elapsed":444996,"internal_node_id":"0.0-8.0-1.47","subject":"c72et9h4ux2d8nj","sona":"8698"},{"trial_type":"turing-test","trial_index":197,"time_elapsed":450872,"internal_node_id":"0.0-8.0-2.47","subject":"c72et9h4ux2d8nj","sona":"8698"},{"rt":84.07500002067536,"stimulus":"<p>Welche Sequenz haben Sie als natürlicher empfunden?</p>","key_press":70,"test_part":"response","test_stimulus":{"position":0,"left":"bvh/return-bottle-training3-lines.txt","right":"bvh/vr_prediction_models/model(dmp)-dataset(return-bottle)-npsi(30)-hold(3)/final-lines.txt","att_check":false},"trial_type":"html-keyboard-response","trial_index":198,"time_elapsed":450969,"internal_node_id":"0.0-8.0-3.47","subject":"c72et9h4ux2d8nj","sona":"8698"},{"rt":173.20499999914318,"stimulus":"<p>Bereit?</p>","key_press":32,"trial_type":"html-keyboard-response","trial_index":199,"time_elapsed":451150,"internal_node_id":"0.0-8.0-0.48","subject":"c72et9h4ux2d8nj","sona":"8698"},{"rt":null,"stimulus":"<div style=\"font-size:60px;\">+</div>","key_press":null,"trial_type":"html-keyboard-response","trial_index":200,"time_elapsed":453160,"internal_node_id":"0.0-8.0-1.48","subject":"c72et9h4ux2d8nj","sona":"8698"},{"trial_type":"turing-test","trial_index":201,"time_elapsed":456923,"internal_node_id":"0.0-8.0-2.48","subject":"c72et9h4ux2d8nj","sona":"8698"},{"rt":344.37499998603016,"stimulus":"<p>Welche Sequenz haben Sie als natürlicher empfunden?</p>","key_press":74,"test_part":"response","test_stimulus":{"position":1,"left":"bvh/vr_prediction_models/model(vcgpdm)-dataset(pass-bottle-hold)-mode(MAP)-parts(1)-hold(3)/final-lines.txt","right":"bvh/pass-bottle-hold-training3-lines.txt","att_check":false},"trial_type":"html-keyboard-response","trial_index":202,"time_elapsed":457284,"internal_node_id":"0.0-8.0-3.48","subject":"c72et9h4ux2d8nj","sona":"8698"},{"rt":200.18000004347414,"stimulus":"<p>Bereit?</p>","key_press":32,"trial_type":"html-keyboard-response","trial_index":203,"time_elapsed":457492,"internal_node_id":"0.0-8.0-0.49","subject":"c72et9h4ux2d8nj","sona":"8698"},{"rt":null,"stimulus":"<div style=\"font-size:60px;\">+</div>","key_press":null,"trial_type":"html-keyboard-response","trial_index":204,"time_elapsed":459504,"internal_node_id":"0.0-8.0-1.49","subject":"c72et9h4ux2d8nj","sona":"8698"},{"trial_type":"turing-test","trial_index":205,"time_elapsed":465369,"internal_node_id":"0.0-8.0-2.49","subject":"c72et9h4ux2d8nj","sona":"8698"},{"rt":376.75999995553866,"stimulus":"<p>Welche Sequenz haben Sie als natürlicher empfunden?</p>","key_press":70,"test_part":"response","test_stimulus":{"position":0,"left":"bvh/return-bottle-training4-lines.txt","right":"bvh/vr_prediction_models/model(tmp)-dataset(return-bottle)-numprim(4)-hold(4)/final-lines.txt","att_check":false},"trial_type":"html-keyboard-response","trial_index":206,"time_elapsed":465756,"internal_node_id":"0.0-8.0-3.49","subject":"c72et9h4ux2d8nj","sona":"8698"},{"rt":234.22499996377155,"stimulus":"<p>Bereit?</p>","key_press":32,"trial_type":"html-keyboard-response","trial_index":207,"time_elapsed":466001,"internal_node_id":"0.0-8.0-0.50","subject":"c72et9h4ux2d8nj","sona":"8698"},{"rt":null,"stimulus":"<div style=\"font-size:60px;\">+</div>","key_press":null,"trial_type":"html-keyboard-response","trial_index":208,"time_elapsed":468022,"internal_node_id":"0.0-8.0-1.50","subject":"c72et9h4ux2d8nj","sona":"8698"},{"trial_type":"turing-test","trial_index":209,"time_elapsed":471570,"internal_node_id":"0.0-8.0-2.50","subject":"c72et9h4ux2d8nj","sona":"8698"},{"rt":347.0649999799207,"stimulus":"<p>Welche Sequenz haben Sie als natürlicher empfunden?</p>","key_press":70,"test_part":"response","test_stimulus":{"position":1,"left":"bvh/vr_prediction_models/model(vcgpdm)-dataset(pass-bottle-hold)-mode(ELBO)-parts(3)-dyn(15)-lvm(30)-hold(2)/final-lines.txt","right":"bvh/pass-bottle-hold-training2-lines.txt","att_check":false},"trial_type":"html-keyboard-response","trial_index":210,"time_elapsed":471928,"internal_node_id":"0.0-8.0-3.50","subject":"c72et9h4ux2d8nj","sona":"8698"},{"rt":176.1699999915436,"stimulus":"<p>Bereit?</p>","key_press":32,"trial_type":"html-keyboard-response","trial_index":211,"time_elapsed":472111,"internal_node_id":"0.0-8.0-0.51","subject":"c72et9h4ux2d8nj","sona":"8698"},{"rt":null,"stimulus":"<div style=\"font-size:60px;\">+</div>","key_press":null,"trial_type":"html-keyboard-response","trial_index":212,"time_elapsed":474122,"internal_node_id":"0.0-8.0-1.51","subject":"c72et9h4ux2d8nj","sona":"8698"},{"trial_type":"turing-test","trial_index":213,"time_elapsed":477703,"internal_node_id":"0.0-8.0-2.51","subject":"c72et9h4ux2d8nj","sona":"8698"},{"rt":487.30500001693144,"stimulus":"<p>Welche Sequenz haben Sie als natürlicher empfunden?</p>","key_press":74,"test_part":"response","test_stimulus":{"position":1,"left":"bvh/vr_prediction_models/model(vcgpdm)-dataset(return-bottle-hold)-mode(ELBO)-parts(3)-dyn(15)-lvm(30)-hold(1)/final-lines.txt","right":"bvh/return-bottle-hold-training1-lines.txt","att_check":false},"trial_type":"html-keyboard-response","trial_index":214,"time_elapsed":478202,"internal_node_id":"0.0-8.0-3.51","subject":"c72et9h4ux2d8nj","sona":"8698"},{"rt":204.02000000467524,"stimulus":"<p>Bereit?</p>","key_press":32,"trial_type":"html-keyboard-response","trial_index":215,"time_elapsed":478411,"internal_node_id":"0.0-8.0-0.52","subject":"c72et9h4ux2d8nj","sona":"8698"},{"rt":null,"stimulus":"<div style=\"font-size:60px;\">+</div>","key_press":null,"trial_type":"html-keyboard-response","trial_index":216,"time_elapsed":480422,"internal_node_id":"0.0-8.0-1.52","subject":"c72et9h4ux2d8nj","sona":"8698"},{"trial_type":"turing-test","trial_index":217,"time_elapsed":487515,"internal_node_id":"0.0-8.0-2.52","subject":"c72et9h4ux2d8nj","sona":"8698"},{"rt":145.1249999809079,"stimulus":"<p>Welche Sequenz haben Sie als natürlicher empfunden?</p>","key_press":70,"test_part":"response","test_stimulus":{"position":1,"left":"bvh/vr_prediction_models/model(dmp)-dataset(pass-bottle)-npsi(60)-hold(0)/final-lines.txt","right":"bvh/pass-bottle-training0-lines.txt","att_check":false},"trial_type":"html-keyboard-response","trial_index":218,"time_elapsed":487675,"internal_node_id":"0.0-8.0-3.52","subject":"c72et9h4ux2d8nj","sona":"8698"},{"rt":396.0300000035204,"stimulus":"<p>Bereit?</p>","key_press":32,"trial_type":"html-keyboard-response","trial_index":219,"time_elapsed":488080,"internal_node_id":"0.0-8.0-0.53","subject":"c72et9h4ux2d8nj","sona":"8698"},{"rt":null,"stimulus":"<div style=\"font-size:60px;\">+</div>","key_press":null,"trial_type":"html-keyboard-response","trial_index":220,"time_elapsed":490102,"internal_node_id":"0.0-8.0-1.53","subject":"c72et9h4ux2d8nj","sona":"8698"},{"trial_type":"turing-test","trial_index":221,"time_elapsed":493762,"internal_node_id":"0.0-8.0-2.53","subject":"c72et9h4ux2d8nj","sona":"8698"},{"rt":290.25499999988824,"stimulus":"<p>Welche Sequenz haben Sie als natürlicher empfunden?</p>","key_press":74,"test_part":"response","test_stimulus":{"position":1,"left":"bvh/vr_prediction_models/model(vcgpdm)-dataset(return-bottle-hold)-mode(ELBO)-parts(1)-dyn(20)-lvm(5)-hold(2)/final-lines.txt","right":"bvh/return-bottle-hold-training2-lines.txt","att_check":false},"trial_type":"html-keyboard-response","trial_index":222,"time_elapsed":494062,"internal_node_id":"0.0-8.0-3.53","subject":"c72et9h4ux2d8nj","sona":"8698"},{"rt":176.5049999812618,"stimulus":"<p>Bereit?</p>","key_press":32,"trial_type":"html-keyboard-response","trial_index":223,"time_elapsed":494245,"internal_node_id":"0.0-8.0-0.54","subject":"c72et9h4ux2d8nj","sona":"8698"},{"rt":null,"stimulus":"<div style=\"font-size:60px;\">+</div>","key_press":null,"trial_type":"html-keyboard-response","trial_index":224,"time_elapsed":496252,"internal_node_id":"0.0-8.0-1.54","subject":"c72et9h4ux2d8nj","sona":"8698"},{"trial_type":"turing-test","trial_index":225,"time_elapsed":502045,"internal_node_id":"0.0-8.0-2.54","subject":"c72et9h4ux2d8nj","sona":"8698"},{"rt":416.10000003129244,"stimulus":"<p>Welche Sequenz haben Sie als natürlicher empfunden?</p>","key_press":74,"test_part":"response","test_stimulus":{"position":1,"left":"bvh/vr_prediction_models/model(tmp)-dataset(return-bottle)-numprim(8)-hold(3)/final-lines.txt","right":"bvh/return-bottle-training3-lines.txt","att_check":false},"trial_type":"html-keyboard-response","trial_index":226,"time_elapsed":502472,"internal_node_id":"0.0-8.0-3.54","subject":"c72et9h4ux2d8nj","sona":"8698"},{"rt":145.67999995779246,"stimulus":"<p>Bereit?</p>","key_press":32,"trial_type":"html-keyboard-response","trial_index":227,"time_elapsed":502629,"internal_node_id":"0.0-8.0-0.55","subject":"c72et9h4ux2d8nj","sona":"8698"},{"rt":null,"stimulus":"<div style=\"font-size:60px;\">+</div>","key_press":null,"trial_type":"html-keyboard-response","trial_index":228,"time_elapsed":504646,"internal_node_id":"0.0-8.0-1.55","subject":"c72et9h4ux2d8nj","sona":"8698"},{"trial_type":"turing-test","trial_index":229,"time_elapsed":510649,"internal_node_id":"0.0-8.0-2.55","subject":"c72et9h4ux2d8nj","sona":"8698"},{"rt":375.15500001609325,"stimulus":"<p>Welche Sequenz haben Sie als natürlicher empfunden?</p>","key_press":70,"test_part":"response","test_stimulus":{"position":0,"left":"bvh/return-bottle-training4-lines.txt","right":"bvh/vr_prediction_models/model(vcgpdm)-dataset(return-bottle)-mode(ELBO)-parts(3)-dyn(35)-lvm(20)-hold(4)/final-lines.txt","att_check":false},"trial_type":"html-keyboard-response","trial_index":230,"time_elapsed":511035,"internal_node_id":"0.0-8.0-3.55","subject":"c72et9h4ux2d8nj","sona":"8698"},{"rt":255.12999994680285,"stimulus":"<p>Bereit?</p>","key_press":32,"trial_type":"html-keyboard-response","trial_index":231,"time_elapsed":511297,"internal_node_id":"0.0-8.0-0.56","subject":"c72et9h4ux2d8nj","sona":"8698"},{"rt":null,"stimulus":"<div style=\"font-size:60px;\">+</div>","key_press":null,"trial_type":"html-keyboard-response","trial_index":232,"time_elapsed":513311,"internal_node_id":"0.0-8.0-1.56","subject":"c72et9h4ux2d8nj","sona":"8698"},{"trial_type":"turing-test","trial_index":233,"time_elapsed":519920,"internal_node_id":"0.0-8.0-2.56","subject":"c72et9h4ux2d8nj","sona":"8698"},{"rt":474.3599999928847,"stimulus":"<p>Welche Sequenz haben Sie als natürlicher empfunden?</p>","key_press":74,"test_part":"response","test_stimulus":{"position":0,"left":"bvh/return-bottle-training2-lines.txt","right":"bvh/vr_prediction_models/model(dmp)-dataset(return-bottle)-npsi(90)-hold(2)/final-lines.txt","att_check":false},"trial_type":"html-keyboard-response","trial_index":234,"time_elapsed":520405,"internal_node_id":"0.0-8.0-3.56","subject":"c72et9h4ux2d8nj","sona":"8698"},{"rt":198.98500002454966,"stimulus":"<p>Bereit?</p>","key_press":32,"trial_type":"html-keyboard-response","trial_index":235,"time_elapsed":520610,"internal_node_id":"0.0-8.0-0.57","subject":"c72et9h4ux2d8nj","sona":"8698"},{"rt":null,"stimulus":"<div style=\"font-size:60px;\">+</div>","key_press":null,"trial_type":"html-keyboard-response","trial_index":236,"time_elapsed":522628,"internal_node_id":"0.0-8.0-1.57","subject":"c72et9h4ux2d8nj","sona":"8698"},{"trial_type":"turing-test","trial_index":237,"time_elapsed":526229,"internal_node_id":"0.0-8.0-2.57","subject":"c72et9h4ux2d8nj","sona":"8698"},{"rt":342.14999998221174,"stimulus":"<p>Welche Sequenz haben Sie als natürlicher empfunden?</p>","key_press":70,"test_part":"response","test_stimulus":{"position":0,"left":"bvh/pass-bottle-hold-training0-lines.txt","right":"bvh/vr_prediction_models/model(vcgpdm)-dataset(pass-bottle-hold)-mode(ELBO)-parts(3)-dyn(10)-lvm(10)-hold(0)/final-lines.txt","att_check":false},"trial_type":"html-keyboard-response","trial_index":238,"time_elapsed":526586,"internal_node_id":"0.0-8.0-3.57","subject":"c72et9h4ux2d8nj","sona":"8698"},{"rt":319.13499999791384,"stimulus":"<p>Bereit?</p>","key_press":32,"trial_type":"html-keyboard-response","trial_index":239,"time_elapsed":526914,"internal_node_id":"0.0-8.0-0.58","subject":"c72et9h4ux2d8nj","sona":"8698"},{"rt":null,"stimulus":"<div style=\"font-size:60px;\">+</div>","key_press":null,"trial_type":"html-keyboard-response","trial_index":240,"time_elapsed":528920,"internal_node_id":"0.0-8.0-1.58","subject":"c72et9h4ux2d8nj","sona":"8698"},{"trial_type":"turing-test","trial_index":241,"time_elapsed":532620,"internal_node_id":"0.0-8.0-2.58","subject":"c72et9h4ux2d8nj","sona":"8698"},{"rt":136.30000001285225,"stimulus":"<p>Welche Sequenz haben Sie als natürlicher empfunden?</p>","key_press":70,"test_part":"response","test_stimulus":{"position":1,"left":"bvh/vr_prediction_models/model(vcgpdm)-dataset(return-bottle-hold)-mode(ELBO)-parts(3)-dyn(25)-lvm(15)-hold(2)/final-lines.txt","right":"bvh/return-bottle-hold-training2-lines.txt","att_check":false},"trial_type":"html-keyboard-response","trial_index":242,"time_elapsed":532766,"internal_node_id":"0.0-8.0-3.58","subject":"c72et9h4ux2d8nj","sona":"8698"},{"rt":205.40499995695427,"stimulus":"<p>Bereit?</p>","key_press":32,"trial_type":"html-keyboard-response","trial_index":243,"time_elapsed":532981,"internal_node_id":"0.0-8.0-0.59","subject":"c72et9h4ux2d8nj","sona":"8698"},{"rt":null,"stimulus":"<div style=\"font-size:60px;\">+</div>","key_press":null,"trial_type":"html-keyboard-response","trial_index":244,"time_elapsed":534991,"internal_node_id":"0.0-8.0-1.59","subject":"c72et9h4ux2d8nj","sona":"8698"},{"trial_type":"turing-test","trial_index":245,"time_elapsed":540827,"internal_node_id":"0.0-8.0-2.59","subject":"c72et9h4ux2d8nj","sona":"8698"},{"rt":430.2049999823794,"stimulus":"<p>Welche Sequenz haben Sie als natürlicher empfunden?</p>","key_press":70,"test_part":"response","test_stimulus":{"position":0,"left":"bvh/pass-bottle-training3-lines.txt","right":"bvh/vr_prediction_models/model(dmp)-dataset(pass-bottle)-npsi(10)-hold(3)/final-lines.txt","att_check":true},"trial_type":"html-keyboard-response","trial_index":246,"time_elapsed":541271,"internal_node_id":"0.0-8.0-3.59","subject":"c72et9h4ux2d8nj","sona":"8698"},{"rt":200.98500000312924,"stimulus":"<p>Bereit?</p>","key_press":32,"trial_type":"html-keyboard-response","trial_index":247,"time_elapsed":541480,"internal_node_id":"0.0-8.0-0.60","subject":"c72et9h4ux2d8nj","sona":"8698"},{"rt":null,"stimulus":"<div style=\"font-size:60px;\">+</div>","key_press":null,"trial_type":"html-keyboard-response","trial_index":248,"time_elapsed":543509,"internal_node_id":"0.0-8.0-1.60","subject":"c72et9h4ux2d8nj","sona":"8698"},{"trial_type":"turing-test","trial_index":249,"time_elapsed":549521,"internal_node_id":"0.0-8.0-2.60","subject":"c72et9h4ux2d8nj","sona":"8698"},{"rt":344.0100000007078,"stimulus":"<p>Welche Sequenz haben Sie als natürlicher empfunden?</p>","key_press":70,"test_part":"response","test_stimulus":{"position":0,"left":"bvh/pass-bottle-training3-lines.txt","right":"bvh/vr_prediction_models/model(vcgpdm)-dataset(pass-bottle)-mode(ELBO)-parts(3)-dyn(20)-lvm(20)-hold(3)/final-lines.txt","att_check":false},"trial_type":"html-keyboard-response","trial_index":250,"time_elapsed":549875,"internal_node_id":"0.0-8.0-3.60","subject":"c72et9h4ux2d8nj","sona":"8698"},{"rt":173.3949999907054,"stimulus":"<p>Bereit?</p>","key_press":32,"trial_type":"html-keyboard-response","trial_index":251,"time_elapsed":550061,"internal_node_id":"0.0-8.0-0.61","subject":"c72et9h4ux2d8nj","sona":"8698"},{"rt":null,"stimulus":"<div style=\"font-size:60px;\">+</div>","key_press":null,"trial_type":"html-keyboard-response","trial_index":252,"time_elapsed":552075,"internal_node_id":"0.0-8.0-1.61","subject":"c72et9h4ux2d8nj","sona":"8698"},{"trial_type":"turing-test","trial_index":253,"time_elapsed":558914,"internal_node_id":"0.0-8.0-2.61","subject":"c72et9h4ux2d8nj","sona":"8698"},{"rt":442.73499998962507,"stimulus":"<p>Welche Sequenz haben Sie als natürlicher empfunden?</p>","key_press":74,"test_part":"response","test_stimulus":{"position":1,"left":"bvh/vr_prediction_models/model(vcgpdm)-dataset(return-bottle)-mode(ELBO)-parts(3)-dyn(20)-lvm(35)-hold(2)/final-lines.txt","right":"bvh/return-bottle-training2-lines.txt","att_check":false},"trial_type":"html-keyboard-response","trial_index":254,"time_elapsed":559375,"internal_node_id":"0.0-8.0-3.61","subject":"c72et9h4ux2d8nj","sona":"8698"},{"rt":175.13000004692003,"stimulus":"<p>Bereit?</p>","key_press":32,"trial_type":"html-keyboard-response","trial_index":255,"time_elapsed":559559,"internal_node_id":"0.0-8.0-0.62","subject":"c72et9h4ux2d8nj","sona":"8698"},{"rt":null,"stimulus":"<div style=\"font-size:60px;\">+</div>","key_press":null,"trial_type":"html-keyboard-response","trial_index":256,"time_elapsed":561578,"internal_node_id":"0.0-8.0-1.62","subject":"c72et9h4ux2d8nj","sona":"8698"},{"trial_type":"turing-test","trial_index":257,"time_elapsed":565481,"internal_node_id":"0.0-8.0-2.62","subject":"c72et9h4ux2d8nj","sona":"8698"},{"rt":440.8600000315346,"stimulus":"<p>Welche Sequenz haben Sie als natürlicher empfunden?</p>","key_press":74,"test_part":"response","test_stimulus":{"position":0,"left":"bvh/return-bottle-hold-training3-lines.txt","right":"bvh/vr_prediction_models/model(vcgpdm)-dataset(return-bottle-hold)-mode(ELBO)-parts(1)-dyn(25)-lvm(35)-hold(3)/final-lines.txt","att_check":false},"trial_type":"html-keyboard-response","trial_index":258,"time_elapsed":565935,"internal_node_id":"0.0-8.0-3.62","subject":"c72et9h4ux2d8nj","sona":"8698"},{"rt":255.59499999508262,"stimulus":"<p>Bereit?</p>","key_press":32,"trial_type":"html-keyboard-response","trial_index":259,"time_elapsed":566197,"internal_node_id":"0.0-8.0-0.63","subject":"c72et9h4ux2d8nj","sona":"8698"},{"rt":null,"stimulus":"<div style=\"font-size:60px;\">+</div>","key_press":null,"trial_type":"html-keyboard-response","trial_index":260,"time_elapsed":568207,"internal_node_id":"0.0-8.0-1.63","subject":"c72et9h4ux2d8nj","sona":"8698"},{"trial_type":"turing-test","trial_index":261,"time_elapsed":574952,"internal_node_id":"0.0-8.0-2.63","subject":"c72et9h4ux2d8nj","sona":"8698"},{"rt":395.65000002039596,"stimulus":"<p>Welche Sequenz haben Sie als natürlicher empfunden?</p>","key_press":70,"test_part":"response","test_stimulus":{"position":0,"left":"bvh/pass-bottle-training0-lines.txt","right":"bvh/vr_prediction_models/model(vcgpdm)-dataset(pass-bottle)-mode(ELBO)-parts(1)-dyn(10)-lvm(25)-hold(0)/final-lines.txt","att_check":false},"trial_type":"html-keyboard-response","trial_index":262,"time_elapsed":575358,"internal_node_id":"0.0-8.0-3.63","subject":"c72et9h4ux2d8nj","sona":"8698"},{"rt":235.13000004459172,"stimulus":"<p>Bereit?</p>","key_press":32,"trial_type":"html-keyboard-response","trial_index":263,"time_elapsed":575600,"internal_node_id":"0.0-8.0-0.64","subject":"c72et9h4ux2d8nj","sona":"8698"},{"rt":null,"stimulus":"<div style=\"font-size:60px;\">+</div>","key_press":null,"trial_type":"html-keyboard-response","trial_index":264,"time_elapsed":577613,"internal_node_id":"0.0-8.0-1.64","subject":"c72et9h4ux2d8nj","sona":"8698"},{"trial_type":"turing-test","trial_index":265,"time_elapsed":583903,"internal_node_id":"0.0-8.0-2.64","subject":"c72et9h4ux2d8nj","sona":"8698"},{"rt":338.83999998215586,"stimulus":"<p>Welche Sequenz haben Sie als natürlicher empfunden?</p>","key_press":70,"test_part":"response","test_stimulus":{"position":0,"left":"bvh/pass-bottle-training2-lines.txt","right":"bvh/vr_prediction_models/model(vcgpdm)-dataset(pass-bottle)-mode(ELBO)-parts(1)-dyn(25)-lvm(35)-hold(2)/final-lines.txt","att_check":false},"trial_type":"html-keyboard-response","trial_index":266,"time_elapsed":584256,"internal_node_id":"0.0-8.0-3.64","subject":"c72et9h4ux2d8nj","sona":"8698"},{"rt":207.77000003727153,"stimulus":"<p>Bereit?</p>","key_press":32,"trial_type":"html-keyboard-response","trial_index":267,"time_elapsed":584472,"internal_node_id":"0.0-8.0-0.65","subject":"c72et9h4ux2d8nj","sona":"8698"},{"rt":null,"stimulus":"<div style=\"font-size:60px;\">+</div>","key_press":null,"trial_type":"html-keyboard-response","trial_index":268,"time_elapsed":586482,"internal_node_id":"0.0-8.0-1.65","subject":"c72et9h4ux2d8nj","sona":"8698"},{"trial_type":"turing-test","trial_index":269,"time_elapsed":592522,"internal_node_id":"0.0-8.0-2.65","subject":"c72et9h4ux2d8nj","sona":"8698"},{"rt":271.07499999692664,"stimulus":"<p>Welche Sequenz haben Sie als natürlicher empfunden?</p>","key_press":74,"test_part":"response","test_stimulus":{"position":1,"left":"bvh/vr_prediction_models/model(vcgpdm)-dataset(pass-bottle)-mode(ELBO)-parts(3)-dyn(10)-lvm(30)-hold(4)/final-lines.txt","right":"bvh/pass-bottle-training4-lines.txt","att_check":false},"trial_type":"html-keyboard-response","trial_index":270,"time_elapsed":592806,"internal_node_id":"0.0-8.0-3.65","subject":"c72et9h4ux2d8nj","sona":"8698"},{"rt":229.86999998101965,"stimulus":"<p>Bereit?</p>","key_press":32,"trial_type":"html-keyboard-response","trial_index":271,"time_elapsed":593040,"internal_node_id":"0.0-8.0-0.66","subject":"c72et9h4ux2d8nj","sona":"8698"},{"rt":null,"stimulus":"<div style=\"font-size:60px;\">+</div>","key_press":null,"trial_type":"html-keyboard-response","trial_index":272,"time_elapsed":595061,"internal_node_id":"0.0-8.0-1.66","subject":"c72et9h4ux2d8nj","sona":"8698"},{"trial_type":"turing-test","trial_index":273,"time_elapsed":598488,"internal_node_id":"0.0-8.0-2.66","subject":"c72et9h4ux2d8nj","sona":"8698"},{"rt":254.89500002004206,"stimulus":"<p>Welche Sequenz haben Sie als natürlicher empfunden?</p>","key_press":70,"test_part":"response","test_stimulus":{"position":0,"left":"bvh/pass-bottle-hold-training0-lines.txt","right":"bvh/vr_prediction_models/model(tmp)-dataset(pass-bottle-hold)-numprim(4)-hold(0)/final-lines.txt","att_check":false},"trial_type":"html-keyboard-response","trial_index":274,"time_elapsed":598756,"internal_node_id":"0.0-8.0-3.66","subject":"c72et9h4ux2d8nj","sona":"8698"},{"rt":226.79499996593222,"stimulus":"<p>Bereit?</p>","key_press":32,"trial_type":"html-keyboard-response","trial_index":275,"time_elapsed":598990,"internal_node_id":"0.0-8.0-0.67","subject":"c72et9h4ux2d8nj","sona":"8698"},{"rt":null,"stimulus":"<div style=\"font-size:60px;\">+</div>","key_press":null,"trial_type":"html-keyboard-response","trial_index":276,"time_elapsed":601001,"internal_node_id":"0.0-8.0-1.67","subject":"c72et9h4ux2d8nj","sona":"8698"},{"trial_type":"turing-test","trial_index":277,"time_elapsed":607195,"internal_node_id":"0.0-8.0-2.67","subject":"c72et9h4ux2d8nj","sona":"8698"},{"rt":401.1049999971874,"stimulus":"<p>Welche Sequenz haben Sie als natürlicher empfunden?</p>","key_press":74,"test_part":"response","test_stimulus":{"position":1,"left":"bvh/vr_prediction_models/model(tmp)-dataset(pass-bottle)-numprim(4)-hold(2)/final-lines.txt","right":"bvh/pass-bottle-training2-lines.txt","att_check":false},"trial_type":"html-keyboard-response","trial_index":278,"time_elapsed":607612,"internal_node_id":"0.0-8.0-3.67","subject":"c72et9h4ux2d8nj","sona":"8698"},{"rt":246.5500000398606,"stimulus":"<p>Bereit?</p>","key_press":32,"trial_type":"html-keyboard-response","trial_index":279,"time_elapsed":607871,"internal_node_id":"0.0-8.0-0.68","subject":"c72et9h4ux2d8nj","sona":"8698"},{"rt":null,"stimulus":"<div style=\"font-size:60px;\">+</div>","key_press":null,"trial_type":"html-keyboard-response","trial_index":280,"time_elapsed":609884,"internal_node_id":"0.0-8.0-1.68","subject":"c72et9h4ux2d8nj","sona":"8698"},{"trial_type":"turing-test","trial_index":281,"time_elapsed":613701,"internal_node_id":"0.0-8.0-2.68","subject":"c72et9h4ux2d8nj","sona":"8698"},{"rt":486.8600000045262,"stimulus":"<p>Welche Sequenz haben Sie als natürlicher empfunden?</p>","key_press":74,"test_part":"response","test_stimulus":{"position":1,"left":"bvh/vr_prediction_models/model(vcgpdm)-dataset(pass-bottle-hold)-mode(ELBO)-parts(3)-dyn(30)-lvm(15)-hold(4)/final-lines.txt","right":"bvh/pass-bottle-hold-training4-lines.txt","att_check":false},"trial_type":"html-keyboard-response","trial_index":282,"time_elapsed":614202,"internal_node_id":"0.0-8.0-3.68","subject":"c72et9h4ux2d8nj","sona":"8698"},{"rt":243.6149999848567,"stimulus":"<p>Bereit?</p>","key_press":32,"trial_type":"html-keyboard-response","trial_index":283,"time_elapsed":614452,"internal_node_id":"0.0-8.0-0.69","subject":"c72et9h4ux2d8nj","sona":"8698"},{"rt":null,"stimulus":"<div style=\"font-size:60px;\">+</div>","key_press":null,"trial_type":"html-keyboard-response","trial_index":284,"time_elapsed":616470,"internal_node_id":"0.0-8.0-1.69","subject":"c72et9h4ux2d8nj","sona":"8698"},{"trial_type":"turing-test","trial_index":285,"time_elapsed":622467,"internal_node_id":"0.0-8.0-2.69","subject":"c72et9h4ux2d8nj","sona":"8698"},{"rt":335.15499997884035,"stimulus":"<p>Welche Sequenz haben Sie als natürlicher empfunden?</p>","key_press":74,"test_part":"response","test_stimulus":{"position":1,"left":"bvh/vr_prediction_models/model(vcgpdm)-dataset(pass-bottle)-mode(ELBO)-parts(1)-dyn(20)-lvm(5)-hold(4)/final-lines.txt","right":"bvh/pass-bottle-training4-lines.txt","att_check":false},"trial_type":"html-keyboard-response","trial_index":286,"time_elapsed":622815,"internal_node_id":"0.0-8.0-3.69","subject":"c72et9h4ux2d8nj","sona":"8698"},{"rt":228.20000001229346,"stimulus":"<p>Bereit?</p>","key_press":32,"trial_type":"html-keyboard-response","trial_index":287,"time_elapsed":623050,"internal_node_id":"0.0-8.0-0.70","subject":"c72et9h4ux2d8nj","sona":"8698"},{"rt":null,"stimulus":"<div style=\"font-size:60px;\">+</div>","key_press":null,"trial_type":"html-keyboard-response","trial_index":288,"time_elapsed":625066,"internal_node_id":"0.0-8.0-1.70","subject":"c72et9h4ux2d8nj","sona":"8698"},{"trial_type":"turing-test","trial_index":289,"time_elapsed":632060,"internal_node_id":"0.0-8.0-2.70","subject":"c72et9h4ux2d8nj","sona":"8698"},{"rt":359.23999996157363,"stimulus":"<p>Welche Sequenz haben Sie als natürlicher empfunden?</p>","key_press":70,"test_part":"response","test_stimulus":{"position":0,"left":"bvh/pass-bottle-training0-lines.txt","right":"bvh/vr_prediction_models/model(vcgpdm)-dataset(pass-bottle)-mode(ELBO)-parts(1)-dyn(30)-lvm(30)-hold(0)/final-lines.txt","att_check":false},"trial_type":"html-keyboard-response","trial_index":290,"time_elapsed":632430,"internal_node_id":"0.0-8.0-3.70","subject":"c72et9h4ux2d8nj","sona":"8698"},{"rt":206.0349999810569,"stimulus":"<p>Bereit?</p>","key_press":32,"trial_type":"html-keyboard-response","trial_index":291,"time_elapsed":632648,"internal_node_id":"0.0-8.0-0.71","subject":"c72et9h4ux2d8nj","sona":"8698"},{"rt":null,"stimulus":"<div style=\"font-size:60px;\">+</div>","key_press":null,"trial_type":"html-keyboard-response","trial_index":292,"time_elapsed":634661,"internal_node_id":"0.0-8.0-1.71","subject":"c72et9h4ux2d8nj","sona":"8698"},{"trial_type":"turing-test","trial_index":293,"time_elapsed":638226,"internal_node_id":"0.0-8.0-2.71","subject":"c72et9h4ux2d8nj","sona":"8698"},{"rt":630.3599999519065,"stimulus":"<p>Welche Sequenz haben Sie als natürlicher empfunden?</p>","key_press":70,"test_part":"response","test_stimulus":{"position":1,"left":"bvh/vr_prediction_models/model(dmp)-dataset(pass-bottle-hold)-npsi(20)-hold(3)/final-lines.txt","right":"bvh/pass-bottle-hold-training3-lines.txt","att_check":false},"trial_type":"html-keyboard-response","trial_index":294,"time_elapsed":638866,"internal_node_id":"0.0-8.0-3.71","subject":"c72et9h4ux2d8nj","sona":"8698"},{"rt":229.73500000080094,"stimulus":"<p>Bereit?</p>","key_press":32,"trial_type":"html-keyboard-response","trial_index":295,"time_elapsed":639106,"internal_node_id":"0.0-8.0-0.72","subject":"c72et9h4ux2d8nj","sona":"8698"},{"rt":null,"stimulus":"<div style=\"font-size:60px;\">+</div>","key_press":null,"trial_type":"html-keyboard-response","trial_index":296,"time_elapsed":641121,"internal_node_id":"0.0-8.0-1.72","subject":"c72et9h4ux2d8nj","sona":"8698"},{"trial_type":"turing-test","trial_index":297,"time_elapsed":647280,"internal_node_id":"0.0-8.0-2.72","subject":"c72et9h4ux2d8nj","sona":"8698"},{"rt":323.15999997081235,"stimulus":"<p>Welche Sequenz haben Sie als natürlicher empfunden?</p>","key_press":74,"test_part":"response","test_stimulus":{"position":1,"left":"bvh/vr_prediction_models/model(vcgpdm)-dataset(return-bottle)-mode(MAP)-parts(1)-hold(4)/final-lines.txt","right":"bvh/return-bottle-training4-lines.txt","att_check":false},"trial_type":"html-keyboard-response","trial_index":298,"time_elapsed":647614,"internal_node_id":"0.0-8.0-3.72","subject":"c72et9h4ux2d8nj","sona":"8698"},{"rt":229.80500000994653,"stimulus":"<p>Bereit?</p>","key_press":32,"trial_type":"html-keyboard-response","trial_index":299,"time_elapsed":647855,"internal_node_id":"0.0-8.0-0.73","subject":"c72et9h4ux2d8nj","sona":"8698"},{"rt":null,"stimulus":"<div style=\"font-size:60px;\">+</div>","key_press":null,"trial_type":"html-keyboard-response","trial_index":300,"time_elapsed":649864,"internal_node_id":"0.0-8.0-1.73","subject":"c72et9h4ux2d8nj","sona":"8698"},{"trial_type":"turing-test","trial_index":301,"time_elapsed":655725,"internal_node_id":"0.0-8.0-2.73","subject":"c72et9h4ux2d8nj","sona":"8698"},{"rt":340.35999997286126,"stimulus":"<p>Welche Sequenz haben Sie als natürlicher empfunden?</p>","key_press":70,"test_part":"response","test_stimulus":{"position":0,"left":"bvh/return-bottle-training4-lines.txt","right":"bvh/vr_prediction_models/model(tmp)-dataset(return-bottle)-numprim(7)-hold(4)/final-lines.txt","att_check":false},"trial_type":"html-keyboard-response","trial_index":302,"time_elapsed":656076,"internal_node_id":"0.0-8.0-3.73","subject":"c72et9h4ux2d8nj","sona":"8698"},{"rt":230.37499998463318,"stimulus":"<p>Bereit?</p>","key_press":32,"trial_type":"html-keyboard-response","trial_index":303,"time_elapsed":656317,"internal_node_id":"0.0-8.0-0.74","subject":"c72et9h4ux2d8nj","sona":"8698"},{"rt":null,"stimulus":"<div style=\"font-size:60px;\">+</div>","key_press":null,"trial_type":"html-keyboard-response","trial_index":304,"time_elapsed":658325,"internal_node_id":"0.0-8.0-1.74","subject":"c72et9h4ux2d8nj","sona":"8698"},{"trial_type":"turing-test","trial_index":305,"time_elapsed":661912,"internal_node_id":"0.0-8.0-2.74","subject":"c72et9h4ux2d8nj","sona":"8698"},{"rt":328.48999998532236,"stimulus":"<p>Welche Sequenz haben Sie als natürlicher empfunden?</p>","key_press":74,"test_part":"response","test_stimulus":{"position":1,"left":"bvh/vr_prediction_models/model(vcgpdm)-dataset(pass-bottle-hold)-mode(ELBO)-parts(3)-dyn(20)-lvm(20)-hold(0)/final-lines.txt","right":"bvh/pass-bottle-hold-training0-lines.txt","att_check":false},"trial_type":"html-keyboard-response","trial_index":306,"time_elapsed":662251,"internal_node_id":"0.0-8.0-3.74","subject":"c72et9h4ux2d8nj","sona":"8698"},{"rt":166.02000000420958,"stimulus":"<p>Bereit?</p>","key_press":32,"trial_type":"html-keyboard-response","trial_index":307,"time_elapsed":662425,"internal_node_id":"0.0-8.0-0.75","subject":"c72et9h4ux2d8nj","sona":"8698"},{"rt":null,"stimulus":"<div style=\"font-size:60px;\">+</div>","key_press":null,"trial_type":"html-keyboard-response","trial_index":308,"time_elapsed":664444,"internal_node_id":"0.0-8.0-1.75","subject":"c72et9h4ux2d8nj","sona":"8698"},{"trial_type":"turing-test","trial_index":309,"time_elapsed":667710,"internal_node_id":"0.0-8.0-2.75","subject":"c72et9h4ux2d8nj","sona":"8698"},{"rt":495.0249999528751,"stimulus":"<p>Welche Sequenz haben Sie als natürlicher empfunden?</p>","key_press":74,"test_part":"response","test_stimulus":{"position":0,"left":"bvh/pass-bottle-hold-training1-lines.txt","right":"bvh/vr_prediction_models/model(dmp)-dataset(pass-bottle-hold)-npsi(20)-hold(1)/final-lines.txt","att_check":false},"trial_type":"html-keyboard-response","trial_index":310,"time_elapsed":668218,"internal_node_id":"0.0-8.0-3.75","subject":"c72et9h4ux2d8nj","sona":"8698"},{"rt":622.0900000189431,"stimulus":"<p>Bereit?</p>","key_press":32,"trial_type":"html-keyboard-response","trial_index":311,"time_elapsed":668848,"internal_node_id":"0.0-8.0-0.76","subject":"c72et9h4ux2d8nj","sona":"8698"},{"rt":null,"stimulus":"<div style=\"font-size:60px;\">+</div>","key_press":null,"trial_type":"html-keyboard-response","trial_index":312,"time_elapsed":670860,"internal_node_id":"0.0-8.0-1.76","subject":"c72et9h4ux2d8nj","sona":"8698"},{"trial_type":"turing-test","trial_index":313,"time_elapsed":674564,"internal_node_id":"0.0-8.0-2.76","subject":"c72et9h4ux2d8nj","sona":"8698"},{"rt":322.1899999771267,"stimulus":"<p>Welche Sequenz haben Sie als natürlicher empfunden?</p>","key_press":74,"test_part":"response","test_stimulus":{"position":1,"left":"bvh/vr_prediction_models/model(tmp)-dataset(pass-bottle-hold)-numprim(9)-hold(4)/final-lines.txt","right":"bvh/pass-bottle-hold-training4-lines.txt","att_check":false},"trial_type":"html-keyboard-response","trial_index":314,"time_elapsed":674900,"internal_node_id":"0.0-8.0-3.76","subject":"c72et9h4ux2d8nj","sona":"8698"},{"rt":187.93499999446794,"stimulus":"<p>Bereit?</p>","key_press":32,"trial_type":"html-keyboard-response","trial_index":315,"time_elapsed":675098,"internal_node_id":"0.0-8.0-0.77","subject":"c72et9h4ux2d8nj","sona":"8698"},{"rt":null,"stimulus":"<div style=\"font-size:60px;\">+</div>","key_press":null,"trial_type":"html-keyboard-response","trial_index":316,"time_elapsed":677117,"internal_node_id":"0.0-8.0-1.77","subject":"c72et9h4ux2d8nj","sona":"8698"},{"trial_type":"turing-test","trial_index":317,"time_elapsed":680736,"internal_node_id":"0.0-8.0-2.77","subject":"c72et9h4ux2d8nj","sona":"8698"},{"rt":862.1699999785051,"stimulus":"<p>Welche Sequenz haben Sie als natürlicher empfunden?</p>","key_press":70,"test_part":"response","test_stimulus":{"position":1,"left":"bvh/vr_prediction_models/model(vcgpdm)-dataset(return-bottle-hold)-mode(ELBO)-parts(3)-dyn(25)-lvm(25)-hold(2)/final-lines.txt","right":"bvh/return-bottle-hold-training2-lines.txt","att_check":false},"trial_type":"html-keyboard-response","trial_index":318,"time_elapsed":681608,"internal_node_id":"0.0-8.0-3.77","subject":"c72et9h4ux2d8nj","sona":"8698"},{"rt":255.50000002840534,"stimulus":"<p>Bereit?</p>","key_press":32,"trial_type":"html-keyboard-response","trial_index":319,"time_elapsed":681871,"internal_node_id":"0.0-8.0-0.78","subject":"c72et9h4ux2d8nj","sona":"8698"},{"rt":null,"stimulus":"<div style=\"font-size:60px;\">+</div>","key_press":null,"trial_type":"html-keyboard-response","trial_index":320,"time_elapsed":683880,"internal_node_id":"0.0-8.0-1.78","subject":"c72et9h4ux2d8nj","sona":"8698"},{"trial_type":"turing-test","trial_index":321,"time_elapsed":687760,"internal_node_id":"0.0-8.0-2.78","subject":"c72et9h4ux2d8nj","sona":"8698"},{"rt":345.10500001488253,"stimulus":"<p>Welche Sequenz haben Sie als natürlicher empfunden?</p>","key_press":70,"test_part":"response","test_stimulus":{"position":0,"left":"bvh/return-bottle-hold-training4-lines.txt","right":"bvh/vr_prediction_models/model(dmp)-dataset(return-bottle-hold)-npsi(20)-hold(4)/final-lines.txt","att_check":false},"trial_type":"html-keyboard-response","trial_index":322,"time_elapsed":688118,"internal_node_id":"0.0-8.0-3.78","subject":"c72et9h4ux2d8nj","sona":"8698"},{"rt":166.7750000488013,"stimulus":"<p>Bereit?</p>","key_press":32,"trial_type":"html-keyboard-response","trial_index":323,"time_elapsed":688296,"internal_node_id":"0.0-8.0-0.79","subject":"c72et9h4ux2d8nj","sona":"8698"},{"rt":null,"stimulus":"<div style=\"font-size:60px;\">+</div>","key_press":null,"trial_type":"html-keyboard-response","trial_index":324,"time_elapsed":690312,"internal_node_id":"0.0-8.0-1.79","subject":"c72et9h4ux2d8nj","sona":"8698"},{"trial_type":"turing-test","trial_index":325,"time_elapsed":695743,"internal_node_id":"0.0-8.0-2.79","subject":"c72et9h4ux2d8nj","sona":"8698"},{"rt":365.894999995362,"stimulus":"<p>Welche Sequenz haben Sie als natürlicher empfunden?</p>","key_press":70,"test_part":"response","test_stimulus":{"position":0,"left":"bvh/return-bottle-training0-lines.txt","right":"bvh/vr_prediction_models/model(dmp)-dataset(return-bottle)-npsi(10)-hold(0)/final-lines.txt","att_check":false},"trial_type":"html-keyboard-response","trial_index":326,"time_elapsed":696120,"internal_node_id":"0.0-8.0-3.79","subject":"c72et9h4ux2d8nj","sona":"8698"},{"rt":12041.280000004917,"responses":"{\"age\":\" 26\",\"gender\":\"weiblich\"}","trial_type":"survey-text","trial_index":327,"time_elapsed":708190,"internal_node_id":"0.0-10.0-0.0","subject":"c72et9h4ux2d8nj","sona":"8698"},{"rt":52791.5750000393,"responses":"{\"area\":\"Auf den Rumpf und die Oberschenkel\",\"Q1\":\"Manche Bewegungen waren zu starr oder abgehackt\",\"Q2\":\"Das Drehen der Figur\"}","trial_type":"survey-text","trial_index":328,"time_elapsed":760998,"internal_node_id":"0.0-10.0-1.0","subject":"c72et9h4ux2d8nj","sona":"8698"}]