[{"rt":1869.7500000125729,"stimulus":"<p>Welcome!<br> Please choose your language to start the experiment in the chosen language.</p><p>Willkommen!<br> Bitte wählen Sie eine Sprache, um das Experiment in der ausgewählten Sprache zu starten</p>","button_pressed":"1","trial_type":"html-button-response","trial_index":0,"time_elapsed":1919,"internal_node_id":"0.0-0.0","subject":"o4qarrr1m5hpqyh","sona":"9580"},{"view_history":"[{\"page_index\":0,\"viewing_time\":2249.5799999742303},{\"page_index\":1,\"viewing_time\":1124.565000005532},{\"page_index\":2,\"viewing_time\":662.4850000080187},{\"page_index\":3,\"viewing_time\":1747.6599999936298},{\"page_index\":4,\"viewing_time\":1235.4050000139978}]","rt":7021.289999975124,"trial_type":"instructions","trial_index":1,"time_elapsed":8942,"internal_node_id":"0.0-1.0-0.0","subject":"o4qarrr1m5hpqyh","sona":"9580"},{"rt":1447.8799999924377,"stimulus":"<p>Bereit?</p>","key_press":32,"trial_type":"html-keyboard-response","trial_index":2,"time_elapsed":10392,"internal_node_id":"0.0-3.0","subject":"o4qarrr1m5hpqyh","sona":"9580"},{"rt":null,"stimulus":"<div style=\"font-size:60px;\">+</div>","key_press":null,"trial_type":"html-keyboard-response","trial_index":3,"time_elapsed":12402,"internal_node_id":"0.0-4.0","subject":"o4qarrr1m5hpqyh","sona":"9580"},{"trial_type":"training","trial_index":4,"time_elapsed":15679,"internal_node_id":"0.0-5.0","subject":"o4qarrr1m5hpqyh","sona":"9580"},{"rt":333.1449999823235,"stimulus":"<p>Welche Sequenz haben Sie als natürlicher empfunden?</p>","key_press":70,"trial_type":"html-keyboard-response","trial_index":5,"time_elapsed":16014,"internal_node_id":"0.0-6.0","subject":"o4qarrr1m5hpqyh","sona":"9580"},{"rt":3122.6299999980256,"stimulus":"<p>Das Experiment startet nun.</p><p><small>Bitte drücken Sie den Knopf, wenn Sie bereit sind.</small></p>","button_pressed":"0","trial_type":"html-button-response","trial_index":6,"time_elapsed":19139,"internal_node_id":"0.0-7.0","subject":"o4qarrr1m5hpqyh","sona":"9580"},{"rt":1808.3950000000186,"stimulus":"<p>Bereit?</p>","key_press":32,"trial_type":"html-keyboard-response","trial_index":7,"time_elapsed":20949,"internal_node_id":"0.0-8.0-0.0","subject":"o4qarrr1m5hpqyh","sona":"9580"},{"rt":null,"stimulus":"<div style=\"font-size:60px;\">+</div>","key_press":null,"trial_type":"html-keyboard-response","trial_index":8,"time_elapsed":22971,"internal_node_id":"0.0-8.0-1.0","subject":"o4qarrr1m5hpqyh","sona":"9580"},{"trial_type":"turing-test","trial_index":9,"time_elapsed":26417,"internal_node_id":"0.0-8.0-2.0","subject":"o4qarrr1m5hpqyh","sona":"9580"},{"rt":1157.1849999891128,"stimulus":"<p>Welche Sequenz haben Sie als natürlicher empfunden?</p>","key_press":74,"test_part":"response","test_stimulus":{"position":0,"left":"bvh/pass-bottle-hold-training1-lines.txt","right":"bvh/vr_prediction_models/model(vcgpdm)-dataset(pass-bottle-hold)-mode(MAP)-parts(1)-hold(1)/final-lines.txt","att_check":false},"trial_type":"html-keyboard-response","trial_index":10,"time_elapsed":27581,"internal_node_id":"0.0-8.0-3.0","subject":"o4qarrr1m5hpqyh","sona":"9580"},{"rt":412.11000000475906,"stimulus":"<p>Bereit?</p>","key_press":32,"trial_type":"html-keyboard-response","trial_index":11,"time_elapsed":27997,"internal_node_id":"0.0-8.0-0.1","subject":"o4qarrr1m5hpqyh","sona":"9580"},{"rt":null,"stimulus":"<div style=\"font-size:60px;\">+</div>","key_press":null,"trial_type":"html-keyboard-response","trial_index":12,"time_elapsed":30010,"internal_node_id":"0.0-8.0-1.1","subject":"o4qarrr1m5hpqyh","sona":"9580"},{"trial_type":"turing-test","trial_index":13,"time_elapsed":33634,"internal_node_id":"0.0-8.0-2.1","subject":"o4qarrr1m5hpqyh","sona":"9580"},{"rt":272.3849999892991,"stimulus":"<p>Welche Sequenz haben Sie als natürlicher empfunden?</p>","key_press":74,"test_part":"response","test_stimulus":{"position":1,"left":"bvh/vr_prediction_models/model(vcgpdm)-dataset(return-bottle-hold)-mode(ELBO)-parts(1)-dyn(20)-lvm(5)-hold(3)/final-lines.txt","right":"bvh/return-bottle-hold-training3-lines.txt","att_check":false},"trial_type":"html-keyboard-response","trial_index":14,"time_elapsed":33916,"internal_node_id":"0.0-8.0-3.1","subject":"o4qarrr1m5hpqyh","sona":"9580"},{"rt":431.80500000016764,"stimulus":"<p>Bereit?</p>","key_press":32,"trial_type":"html-keyboard-response","trial_index":15,"time_elapsed":34351,"internal_node_id":"0.0-8.0-0.2","subject":"o4qarrr1m5hpqyh","sona":"9580"},{"rt":null,"stimulus":"<div style=\"font-size:60px;\">+</div>","key_press":null,"trial_type":"html-keyboard-response","trial_index":16,"time_elapsed":36368,"internal_node_id":"0.0-8.0-1.2","subject":"o4qarrr1m5hpqyh","sona":"9580"},{"trial_type":"turing-test","trial_index":17,"time_elapsed":40394,"internal_node_id":"0.0-8.0-2.2","subject":"o4qarrr1m5hpqyh","sona":"9580"},{"rt":141.83499998762272,"stimulus":"<p>Welche Sequenz haben Sie als natürlicher empfunden?</p>","key_press":74,"test_part":"response","test_stimulus":{"position":1,"left":"bvh/vr_prediction_models/model(vcgpdm)-dataset(return-bottle-hold)-mode(ELBO)-parts(1)-dyn(35)-lvm(30)-hold(4)/final-lines.txt","right":"bvh/return-bottle-hold-training4-lines.txt","att_check":false},"trial_type":"html-keyboard-response","trial_index":18,"time_elapsed":40545,"internal_node_id":"0.0-8.0-3.2","subject":"o4qarrr1m5hpqyh","sona":"9580"},{"rt":513.4149999939837,"stimulus":"<p>Bereit?</p>","key_press":32,"trial_type":"html-keyboard-response","trial_index":19,"time_elapsed":41061,"internal_node_id":"0.0-8.0-0.3","subject":"o4qarrr1m5hpqyh","sona":"9580"},{"rt":null,"stimulus":"<div style=\"font-size:60px;\">+</div>","key_press":null,"trial_type":"html-keyboard-response","trial_index":20,"time_elapsed":43076,"internal_node_id":"0.0-8.0-1.3","subject":"o4qarrr1m5hpqyh","sona":"9580"},{"trial_type":"turing-test","trial_index":21,"time_elapsed":48473,"internal_node_id":"0.0-8.0-2.3","subject":"o4qarrr1m5hpqyh","sona":"9580"},{"rt":173.44499999308027,"stimulus":"<p>Welche Sequenz haben Sie als natürlicher empfunden?</p>","key_press":70,"test_part":"response","test_stimulus":{"position":1,"left":"bvh/vr_prediction_models/model(vcgpdm)-dataset(return-bottle-hold)-mode(ELBO)-parts(3)-dyn(35)-lvm(20)-hold(0)/final-lines.txt","right":"bvh/return-bottle-hold-training0-lines.txt","att_check":false},"trial_type":"html-keyboard-response","trial_index":22,"time_elapsed":48653,"internal_node_id":"0.0-8.0-3.3","subject":"o4qarrr1m5hpqyh","sona":"9580"},{"rt":354.33499998180196,"stimulus":"<p>Bereit?</p>","key_press":32,"trial_type":"html-keyboard-response","trial_index":23,"time_elapsed":49010,"internal_node_id":"0.0-8.0-0.4","subject":"o4qarrr1m5hpqyh","sona":"9580"},{"rt":null,"stimulus":"<div style=\"font-size:60px;\">+</div>","key_press":null,"trial_type":"html-keyboard-response","trial_index":24,"time_elapsed":51022,"internal_node_id":"0.0-8.0-1.4","subject":"o4qarrr1m5hpqyh","sona":"9580"},{"trial_type":"turing-test","trial_index":25,"time_elapsed":56669,"internal_node_id":"0.0-8.0-2.4","subject":"o4qarrr1m5hpqyh","sona":"9580"},{"rt":761.9600000034552,"stimulus":"<p>Welche Sequenz haben Sie als natürlicher empfunden?</p>","key_press":74,"test_part":"response","test_stimulus":{"position":1,"left":"bvh/vr_prediction_models/model(vcgpdm)-dataset(return-bottle)-mode(ELBO)-parts(1)-dyn(15)-lvm(35)-hold(0)/final-lines.txt","right":"bvh/return-bottle-training0-lines.txt","att_check":false},"trial_type":"html-keyboard-response","trial_index":26,"time_elapsed":57437,"internal_node_id":"0.0-8.0-3.4","subject":"o4qarrr1m5hpqyh","sona":"9580"},{"rt":557.3699999949895,"stimulus":"<p>Bereit?</p>","key_press":32,"trial_type":"html-keyboard-response","trial_index":27,"time_elapsed":57998,"internal_node_id":"0.0-8.0-0.5","subject":"o4qarrr1m5hpqyh","sona":"9580"},{"rt":null,"stimulus":"<div style=\"font-size:60px;\">+</div>","key_press":null,"trial_type":"html-keyboard-response","trial_index":28,"time_elapsed":60027,"internal_node_id":"0.0-8.0-1.5","subject":"o4qarrr1m5hpqyh","sona":"9580"},{"trial_type":"turing-test","trial_index":29,"time_elapsed":65424,"internal_node_id":"0.0-8.0-2.5","subject":"o4qarrr1m5hpqyh","sona":"9580"},{"rt":1632.27500001085,"stimulus":"<p>Welche Sequenz haben Sie als natürlicher empfunden?</p>","key_press":70,"test_part":"response","test_stimulus":{"position":1,"left":"bvh/vr_prediction_models/model(dmp)-dataset(return-bottle)-npsi(90)-hold(0)/final-lines.txt","right":"bvh/return-bottle-training0-lines.txt","att_check":false},"trial_type":"html-keyboard-response","trial_index":30,"time_elapsed":67063,"internal_node_id":"0.0-8.0-3.5","subject":"o4qarrr1m5hpqyh","sona":"9580"},{"rt":271.2900000042282,"stimulus":"<p>Bereit?</p>","key_press":32,"trial_type":"html-keyboard-response","trial_index":31,"time_elapsed":67338,"internal_node_id":"0.0-8.0-0.6","subject":"o4qarrr1m5hpqyh","sona":"9580"},{"rt":null,"stimulus":"<div style=\"font-size:60px;\">+</div>","key_press":null,"trial_type":"html-keyboard-response","trial_index":32,"time_elapsed":69353,"internal_node_id":"0.0-8.0-1.6","subject":"o4qarrr1m5hpqyh","sona":"9580"},{"trial_type":"turing-test","trial_index":33,"time_elapsed":72670,"internal_node_id":"0.0-8.0-2.6","subject":"o4qarrr1m5hpqyh","sona":"9580"},{"rt":442.4449999933131,"stimulus":"<p>Welche Sequenz haben Sie als natürlicher empfunden?</p>","key_press":74,"test_part":"response","test_stimulus":{"position":0,"left":"bvh/pass-bottle-hold-training0-lines.txt","right":"bvh/vr_prediction_models/model(vcgpdm)-dataset(pass-bottle-hold)-mode(ELBO)-parts(1)-dyn(25)-lvm(35)-hold(0)/final-lines.txt","att_check":false},"trial_type":"html-keyboard-response","trial_index":34,"time_elapsed":73118,"internal_node_id":"0.0-8.0-3.6","subject":"o4qarrr1m5hpqyh","sona":"9580"},{"rt":310.3650000120979,"stimulus":"<p>Bereit?</p>","key_press":32,"trial_type":"html-keyboard-response","trial_index":35,"time_elapsed":73432,"internal_node_id":"0.0-8.0-0.7","subject":"o4qarrr1m5hpqyh","sona":"9580"},{"rt":null,"stimulus":"<div style=\"font-size:60px;\">+</div>","key_press":null,"trial_type":"html-keyboard-response","trial_index":36,"time_elapsed":75447,"internal_node_id":"0.0-8.0-1.7","subject":"o4qarrr1m5hpqyh","sona":"9580"},{"trial_type":"turing-test","trial_index":37,"time_elapsed":81177,"internal_node_id":"0.0-8.0-2.7","subject":"o4qarrr1m5hpqyh","sona":"9580"},{"rt":356.3600000052247,"stimulus":"<p>Welche Sequenz haben Sie als natürlicher empfunden?</p>","key_press":74,"test_part":"response","test_stimulus":{"position":0,"left":"bvh/return-bottle-training3-lines.txt","right":"bvh/vr_prediction_models/model(dmp)-dataset(return-bottle)-npsi(30)-hold(3)/final-lines.txt","att_check":false},"trial_type":"html-keyboard-response","trial_index":38,"time_elapsed":81539,"internal_node_id":"0.0-8.0-3.7","subject":"o4qarrr1m5hpqyh","sona":"9580"},{"rt":321.76500000059605,"stimulus":"<p>Bereit?</p>","key_press":32,"trial_type":"html-keyboard-response","trial_index":39,"time_elapsed":81865,"internal_node_id":"0.0-8.0-0.8","subject":"o4qarrr1m5hpqyh","sona":"9580"},{"rt":null,"stimulus":"<div style=\"font-size:60px;\">+</div>","key_press":null,"trial_type":"html-keyboard-response","trial_index":40,"time_elapsed":83882,"internal_node_id":"0.0-8.0-1.8","subject":"o4qarrr1m5hpqyh","sona":"9580"},{"trial_type":"turing-test","trial_index":41,"time_elapsed":89660,"internal_node_id":"0.0-8.0-2.8","subject":"o4qarrr1m5hpqyh","sona":"9580"},{"rt":324.1799999959767,"stimulus":"<p>Welche Sequenz haben Sie als natürlicher empfunden?</p>","key_press":74,"test_part":"response","test_stimulus":{"position":1,"left":"bvh/vr_prediction_models/model(dmp)-dataset(return-bottle)-npsi(80)-hold(4)/final-lines.txt","right":"bvh/return-bottle-training4-lines.txt","att_check":false},"trial_type":"html-keyboard-response","trial_index":42,"time_elapsed":89988,"internal_node_id":"0.0-8.0-3.8","subject":"o4qarrr1m5hpqyh","sona":"9580"},{"rt":316.41999998828396,"stimulus":"<p>Bereit?</p>","key_press":32,"trial_type":"html-keyboard-response","trial_index":43,"time_elapsed":90307,"internal_node_id":"0.0-8.0-0.9","subject":"o4qarrr1m5hpqyh","sona":"9580"},{"rt":null,"stimulus":"<div style=\"font-size:60px;\">+</div>","key_press":null,"trial_type":"html-keyboard-response","trial_index":44,"time_elapsed":92338,"internal_node_id":"0.0-8.0-1.9","subject":"o4qarrr1m5hpqyh","sona":"9580"},{"trial_type":"turing-test","trial_index":45,"time_elapsed":95675,"internal_node_id":"0.0-8.0-2.9","subject":"o4qarrr1m5hpqyh","sona":"9580"},{"rt":436.51499997940846,"stimulus":"<p>Welche Sequenz haben Sie als natürlicher empfunden?</p>","key_press":74,"test_part":"response","test_stimulus":{"position":1,"left":"bvh/vr_prediction_models/model(tmp)-dataset(return-bottle-hold)-numprim(15)-hold(1)/final-lines.txt","right":"bvh/return-bottle-hold-training1-lines.txt","att_check":false},"trial_type":"html-keyboard-response","trial_index":46,"time_elapsed":96117,"internal_node_id":"0.0-8.0-3.9","subject":"o4qarrr1m5hpqyh","sona":"9580"},{"rt":265.3149999969173,"stimulus":"<p>Bereit?</p>","key_press":32,"trial_type":"html-keyboard-response","trial_index":47,"time_elapsed":96386,"internal_node_id":"0.0-8.0-0.10","subject":"o4qarrr1m5hpqyh","sona":"9580"},{"rt":null,"stimulus":"<div style=\"font-size:60px;\">+</div>","key_press":null,"trial_type":"html-keyboard-response","trial_index":48,"time_elapsed":98402,"internal_node_id":"0.0-8.0-1.10","subject":"o4qarrr1m5hpqyh","sona":"9580"},{"trial_type":"turing-test","trial_index":49,"time_elapsed":104168,"internal_node_id":"0.0-8.0-2.10","subject":"o4qarrr1m5hpqyh","sona":"9580"},{"rt":320.73499998659827,"stimulus":"<p>Welche Sequenz haben Sie als natürlicher empfunden?</p>","key_press":70,"test_part":"response","test_stimulus":{"position":0,"left":"bvh/return-bottle-training4-lines.txt","right":"bvh/vr_prediction_models/model(tmp)-dataset(return-bottle)-numprim(9)-hold(4)/final-lines.txt","att_check":false},"trial_type":"html-keyboard-response","trial_index":50,"time_elapsed":104494,"internal_node_id":"0.0-8.0-3.10","subject":"o4qarrr1m5hpqyh","sona":"9580"},{"rt":336.6450000030454,"stimulus":"<p>Bereit?</p>","key_press":32,"trial_type":"html-keyboard-response","trial_index":51,"time_elapsed":104835,"internal_node_id":"0.0-8.0-0.11","subject":"o4qarrr1m5hpqyh","sona":"9580"},{"rt":null,"stimulus":"<div style=\"font-size:60px;\">+</div>","key_press":null,"trial_type":"html-keyboard-response","trial_index":52,"time_elapsed":106852,"internal_node_id":"0.0-8.0-1.11","subject":"o4qarrr1m5hpqyh","sona":"9580"}]