[{"rt":10520,"stimulus":"<p>Welcome!<br> Please choose your language to start the experiment in the chosen language.</p><p>Willkommen!<br> Bitte wählen Sie eine Sprache, um das Experiment in der ausgewählten Sprache zu starten</p>","button_pressed":"1","trial_type":"html-button-response","trial_index":0,"time_elapsed":10530,"internal_node_id":"0.0-0.0","subject":"au3j3ncgvq3n9j8","sona":"9643"},{"view_history":"[{\"page_index\":0,\"viewing_time\":781},{\"page_index\":1,\"viewing_time\":840},{\"page_index\":2,\"viewing_time\":784},{\"page_index\":3,\"viewing_time\":960},{\"page_index\":4,\"viewing_time\":968}]","rt":4334,"trial_type":"instructions","trial_index":1,"time_elapsed":14867,"internal_node_id":"0.0-1.0-0.0","subject":"au3j3ncgvq3n9j8","sona":"9643"},{"rt":1559,"stimulus":"<p>Bereit?</p>","key_press":32,"trial_type":"html-keyboard-response","trial_index":2,"time_elapsed":16430,"internal_node_id":"0.0-3.0","subject":"au3j3ncgvq3n9j8","sona":"9643"},{"rt":null,"stimulus":"<div style=\"font-size:60px;\">+</div>","key_press":null,"trial_type":"html-keyboard-response","trial_index":3,"time_elapsed":18452,"internal_node_id":"0.0-4.0","subject":"au3j3ncgvq3n9j8","sona":"9643"},{"trial_type":"training","trial_index":4,"time_elapsed":21877,"internal_node_id":"0.0-5.0","subject":"au3j3ncgvq3n9j8","sona":"9643"},{"rt":390,"stimulus":"<p>Welche Sequenz haben Sie als natürlicher empfunden?</p>","key_press":70,"trial_type":"html-keyboard-response","trial_index":5,"time_elapsed":22271,"internal_node_id":"0.0-6.0","subject":"au3j3ncgvq3n9j8","sona":"9643"},{"rt":2241,"stimulus":"<p>Das Experiment startet nun.</p><p><small>Bitte drücken Sie den Knopf, wenn Sie bereit sind.</small></p>","button_pressed":"0","trial_type":"html-button-response","trial_index":6,"time_elapsed":24514,"internal_node_id":"0.0-7.0","subject":"au3j3ncgvq3n9j8","sona":"9643"},{"rt":3539,"stimulus":"<p>Bereit?</p>","key_press":32,"trial_type":"html-keyboard-response","trial_index":7,"time_elapsed":28057,"internal_node_id":"0.0-8.0-0.0","subject":"au3j3ncgvq3n9j8","sona":"9643"},{"rt":null,"stimulus":"<div style=\"font-size:60px;\">+</div>","key_press":null,"trial_type":"html-keyboard-response","trial_index":8,"time_elapsed":30086,"internal_node_id":"0.0-8.0-1.0","subject":"au3j3ncgvq3n9j8","sona":"9643"},{"trial_type":"turing-test","trial_index":9,"time_elapsed":36580,"internal_node_id":"0.0-8.0-2.0","subject":"au3j3ncgvq3n9j8","sona":"9643"},{"rt":632,"stimulus":"<p>Welche Sequenz haben Sie als natürlicher empfunden?</p>","key_press":74,"test_part":"response","test_stimulus":{"position":1,"left":"bvh/vr_prediction_models/model(tmp)-dataset(return-bottle)-numprim(8)-hold(2)/final-lines.txt","right":"bvh/return-bottle-training2-lines.txt","att_check":false},"trial_type":"html-keyboard-response","trial_index":10,"time_elapsed":37218,"internal_node_id":"0.0-8.0-3.0","subject":"au3j3ncgvq3n9j8","sona":"9643"},{"rt":230,"stimulus":"<p>Bereit?</p>","key_press":32,"trial_type":"html-keyboard-response","trial_index":11,"time_elapsed":37451,"internal_node_id":"0.0-8.0-0.1","subject":"au3j3ncgvq3n9j8","sona":"9643"},{"rt":null,"stimulus":"<div style=\"font-size:60px;\">+</div>","key_press":null,"trial_type":"html-keyboard-response","trial_index":12,"time_elapsed":39467,"internal_node_id":"0.0-8.0-1.1","subject":"au3j3ncgvq3n9j8","sona":"9643"},{"trial_type":"turing-test","trial_index":13,"time_elapsed":44607,"internal_node_id":"0.0-8.0-2.1","subject":"au3j3ncgvq3n9j8","sona":"9643"},{"rt":35,"stimulus":"<p>Welche Sequenz haben Sie als natürlicher empfunden?</p>","key_press":74,"test_part":"response","test_stimulus":{"position":1,"left":"bvh/vr_prediction_models/model(tmp)-dataset(return-bottle-hold)-numprim(7)-hold(0)/final-lines.txt","right":"bvh/return-bottle-hold-training0-lines.txt","att_check":false},"trial_type":"html-keyboard-response","trial_index":14,"time_elapsed":44646,"internal_node_id":"0.0-8.0-3.1","subject":"au3j3ncgvq3n9j8","sona":"9643"},{"rt":377,"stimulus":"<p>Bereit?</p>","key_press":32,"trial_type":"html-keyboard-response","trial_index":15,"time_elapsed":45027,"internal_node_id":"0.0-8.0-0.2","subject":"au3j3ncgvq3n9j8","sona":"9643"},{"rt":null,"stimulus":"<div style=\"font-size:60px;\">+</div>","key_press":null,"trial_type":"html-keyboard-response","trial_index":16,"time_elapsed":47050,"internal_node_id":"0.0-8.0-1.2","subject":"au3j3ncgvq3n9j8","sona":"9643"},{"trial_type":"turing-test","trial_index":17,"time_elapsed":50506,"internal_node_id":"0.0-8.0-2.2","subject":"au3j3ncgvq3n9j8","sona":"9643"},{"rt":1164,"stimulus":"<p>Welche Sequenz haben Sie als natürlicher empfunden?</p>","key_press":74,"test_part":"response","test_stimulus":{"position":1,"left":"bvh/vr_prediction_models/model(vcgpdm)-dataset(pass-bottle-hold)-mode(ELBO)-parts(1)-dyn(10)-lvm(30)-hold(1)/final-lines.txt","right":"bvh/pass-bottle-hold-training1-lines.txt","att_check":false},"trial_type":"html-keyboard-response","trial_index":18,"time_elapsed":51675,"internal_node_id":"0.0-8.0-3.2","subject":"au3j3ncgvq3n9j8","sona":"9643"},{"rt":134,"stimulus":"<p>Bereit?</p>","key_press":32,"trial_type":"html-keyboard-response","trial_index":19,"time_elapsed":51812,"internal_node_id":"0.0-8.0-0.3","subject":"au3j3ncgvq3n9j8","sona":"9643"},{"rt":null,"stimulus":"<div style=\"font-size:60px;\">+</div>","key_press":null,"trial_type":"html-keyboard-response","trial_index":20,"time_elapsed":53823,"internal_node_id":"0.0-8.0-1.3","subject":"au3j3ncgvq3n9j8","sona":"9643"},{"trial_type":"turing-test","trial_index":21,"time_elapsed":60168,"internal_node_id":"0.0-8.0-2.3","subject":"au3j3ncgvq3n9j8","sona":"9643"},{"rt":300,"stimulus":"<p>Welche Sequenz haben Sie als natürlicher empfunden?</p>","key_press":70,"test_part":"response","test_stimulus":{"position":0,"left":"bvh/return-bottle-training1-lines.txt","right":"bvh/vr_prediction_models/model(vcgpdm)-dataset(return-bottle)-mode(ELBO)-parts(3)-dyn(20)-lvm(15)-hold(1)/final-lines.txt","att_check":false},"trial_type":"html-keyboard-response","trial_index":22,"time_elapsed":60474,"internal_node_id":"0.0-8.0-3.3","subject":"au3j3ncgvq3n9j8","sona":"9643"},{"rt":317,"stimulus":"<p>Bereit?</p>","key_press":32,"trial_type":"html-keyboard-response","trial_index":23,"time_elapsed":60798,"internal_node_id":"0.0-8.0-0.4","subject":"au3j3ncgvq3n9j8","sona":"9643"},{"rt":null,"stimulus":"<div style=\"font-size:60px;\">+</div>","key_press":null,"trial_type":"html-keyboard-response","trial_index":24,"time_elapsed":62818,"internal_node_id":"0.0-8.0-1.4","subject":"au3j3ncgvq3n9j8","sona":"9643"},{"trial_type":"turing-test","trial_index":25,"time_elapsed":68556,"internal_node_id":"0.0-8.0-2.4","subject":"au3j3ncgvq3n9j8","sona":"9643"},{"rt":135,"stimulus":"<p>Welche Sequenz haben Sie als natürlicher empfunden?</p>","key_press":70,"test_part":"response","test_stimulus":{"position":0,"left":"bvh/return-bottle-training4-lines.txt","right":"bvh/vr_prediction_models/model(vcgpdm)-dataset(return-bottle)-mode(ELBO)-parts(3)-dyn(10)-lvm(10)-hold(4)/final-lines.txt","att_check":false},"trial_type":"html-keyboard-response","trial_index":26,"time_elapsed":68696,"internal_node_id":"0.0-8.0-3.4","subject":"au3j3ncgvq3n9j8","sona":"9643"},{"rt":726,"stimulus":"<p>Bereit?</p>","key_press":32,"trial_type":"html-keyboard-response","trial_index":27,"time_elapsed":69425,"internal_node_id":"0.0-8.0-0.5","subject":"au3j3ncgvq3n9j8","sona":"9643"},{"rt":null,"stimulus":"<div style=\"font-size:60px;\">+</div>","key_press":null,"trial_type":"html-keyboard-response","trial_index":28,"time_elapsed":71430,"internal_node_id":"0.0-8.0-1.5","subject":"au3j3ncgvq3n9j8","sona":"9643"},{"trial_type":"turing-test","trial_index":29,"time_elapsed":77633,"internal_node_id":"0.0-8.0-2.5","subject":"au3j3ncgvq3n9j8","sona":"9643"},{"rt":416,"stimulus":"<p>Welche Sequenz haben Sie als natürlicher empfunden?</p>","key_press":70,"test_part":"response","test_stimulus":{"position":0,"left":"bvh/pass-bottle-training2-lines.txt","right":"bvh/vr_prediction_models/model(tmp)-dataset(pass-bottle)-numprim(6)-hold(2)/final-lines.txt","att_check":false},"trial_type":"html-keyboard-response","trial_index":30,"time_elapsed":78054,"internal_node_id":"0.0-8.0-3.5","subject":"au3j3ncgvq3n9j8","sona":"9643"},{"rt":318,"stimulus":"<p>Bereit?</p>","key_press":32,"trial_type":"html-keyboard-response","trial_index":31,"time_elapsed":78375,"internal_node_id":"0.0-8.0-0.6","subject":"au3j3ncgvq3n9j8","sona":"9643"},{"rt":null,"stimulus":"<div style=\"font-size:60px;\">+</div>","key_press":null,"trial_type":"html-keyboard-response","trial_index":32,"time_elapsed":80390,"internal_node_id":"0.0-8.0-1.6","subject":"au3j3ncgvq3n9j8","sona":"9643"},{"trial_type":"turing-test","trial_index":33,"time_elapsed":87455,"internal_node_id":"0.0-8.0-2.6","subject":"au3j3ncgvq3n9j8","sona":"9643"},{"rt":334,"stimulus":"<p>Welche Sequenz haben Sie als natürlicher empfunden?</p>","key_press":70,"test_part":"response","test_stimulus":{"position":0,"left":"bvh/pass-bottle-training0-lines.txt","right":"bvh/vr_prediction_models/model(vcgpdm)-dataset(pass-bottle)-mode(MAP)-parts(1)-hold(0)/final-lines.txt","att_check":false},"trial_type":"html-keyboard-response","trial_index":34,"time_elapsed":87794,"internal_node_id":"0.0-8.0-3.6","subject":"au3j3ncgvq3n9j8","sona":"9643"},{"rt":318,"stimulus":"<p>Bereit?</p>","key_press":32,"trial_type":"html-keyboard-response","trial_index":35,"time_elapsed":88114,"internal_node_id":"0.0-8.0-0.7","subject":"au3j3ncgvq3n9j8","sona":"9643"},{"rt":null,"stimulus":"<div style=\"font-size:60px;\">+</div>","key_press":null,"trial_type":"html-keyboard-response","trial_index":36,"time_elapsed":90135,"internal_node_id":"0.0-8.0-1.7","subject":"au3j3ncgvq3n9j8","sona":"9643"},{"trial_type":"turing-test","trial_index":37,"time_elapsed":96276,"internal_node_id":"0.0-8.0-2.7","subject":"au3j3ncgvq3n9j8","sona":"9643"},{"rt":373,"stimulus":"<p>Welche Sequenz haben Sie als natürlicher empfunden?</p>","key_press":74,"test_part":"response","test_stimulus":{"position":0,"left":"bvh/return-bottle-training1-lines.txt","right":"bvh/vr_prediction_models/model(tmp)-dataset(return-bottle)-numprim(7)-hold(1)/final-lines.txt","att_check":false},"trial_type":"html-keyboard-response","trial_index":38,"time_elapsed":96653,"internal_node_id":"0.0-8.0-3.7","subject":"au3j3ncgvq3n9j8","sona":"9643"},{"rt":320,"stimulus":"<p>Bereit?</p>","key_press":32,"trial_type":"html-keyboard-response","trial_index":39,"time_elapsed":96977,"internal_node_id":"0.0-8.0-0.8","subject":"au3j3ncgvq3n9j8","sona":"9643"},{"rt":null,"stimulus":"<div style=\"font-size:60px;\">+</div>","key_press":null,"trial_type":"html-keyboard-response","trial_index":40,"time_elapsed":98997,"internal_node_id":"0.0-8.0-1.8","subject":"au3j3ncgvq3n9j8","sona":"9643"},{"trial_type":"turing-test","trial_index":41,"time_elapsed":104972,"internal_node_id":"0.0-8.0-2.8","subject":"au3j3ncgvq3n9j8","sona":"9643"},{"rt":253,"stimulus":"<p>Welche Sequenz haben Sie als natürlicher empfunden?</p>","key_press":70,"test_part":"response","test_stimulus":{"position":1,"left":"bvh/vr_prediction_models/model(dmp)-dataset(pass-bottle)-npsi(90)-hold(3)/final-lines.txt","right":"bvh/pass-bottle-training3-lines.txt","att_check":false},"trial_type":"html-keyboard-response","trial_index":42,"time_elapsed":105229,"internal_node_id":"0.0-8.0-3.8","subject":"au3j3ncgvq3n9j8","sona":"9643"},{"rt":1632,"stimulus":"<p>Bereit?</p>","key_press":32,"trial_type":"html-keyboard-response","trial_index":43,"time_elapsed":106863,"internal_node_id":"0.0-8.0-0.9","subject":"au3j3ncgvq3n9j8","sona":"9643"},{"rt":null,"stimulus":"<div style=\"font-size:60px;\">+</div>","key_press":null,"trial_type":"html-keyboard-response","trial_index":44,"time_elapsed":108880,"internal_node_id":"0.0-8.0-1.9","subject":"au3j3ncgvq3n9j8","sona":"9643"},{"trial_type":"turing-test","trial_index":45,"time_elapsed":115658,"internal_node_id":"0.0-8.0-2.9","subject":"au3j3ncgvq3n9j8","sona":"9643"},{"rt":453,"stimulus":"<p>Welche Sequenz haben Sie als natürlicher empfunden?</p>","key_press":70,"test_part":"response","test_stimulus":{"position":0,"left":"bvh/pass-bottle-training0-lines.txt","right":"bvh/vr_prediction_models/model(dmp)-dataset(pass-bottle)-npsi(40)-hold(0)/final-lines.txt","att_check":false},"trial_type":"html-keyboard-response","trial_index":46,"time_elapsed":116119,"internal_node_id":"0.0-8.0-3.9","subject":"au3j3ncgvq3n9j8","sona":"9643"},{"rt":1018,"stimulus":"<p>Bereit?</p>","key_press":32,"trial_type":"html-keyboard-response","trial_index":47,"time_elapsed":117142,"internal_node_id":"0.0-8.0-0.10","subject":"au3j3ncgvq3n9j8","sona":"9643"},{"rt":null,"stimulus":"<div style=\"font-size:60px;\">+</div>","key_press":null,"trial_type":"html-keyboard-response","trial_index":48,"time_elapsed":119151,"internal_node_id":"0.0-8.0-1.10","subject":"au3j3ncgvq3n9j8","sona":"9643"},{"trial_type":"turing-test","trial_index":49,"time_elapsed":123256,"internal_node_id":"0.0-8.0-2.10","subject":"au3j3ncgvq3n9j8","sona":"9643"},{"rt":790,"stimulus":"<p>Welche Sequenz haben Sie als natürlicher empfunden?</p>","key_press":70,"test_part":"response","test_stimulus":{"position":0,"left":"bvh/return-bottle-hold-training4-lines.txt","right":"bvh/vr_prediction_models/model(vcgpdm)-dataset(return-bottle-hold)-mode(ELBO)-parts(1)-dyn(20)-lvm(5)-hold(4)/final-lines.txt","att_check":false},"trial_type":"html-keyboard-response","trial_index":50,"time_elapsed":124051,"internal_node_id":"0.0-8.0-3.10","subject":"au3j3ncgvq3n9j8","sona":"9643"},{"rt":164,"stimulus":"<p>Bereit?</p>","key_press":32,"trial_type":"html-keyboard-response","trial_index":51,"time_elapsed":124217,"internal_node_id":"0.0-8.0-0.11","subject":"au3j3ncgvq3n9j8","sona":"9643"},{"rt":null,"stimulus":"<div style=\"font-size:60px;\">+</div>","key_press":null,"trial_type":"html-keyboard-response","trial_index":52,"time_elapsed":126237,"internal_node_id":"0.0-8.0-1.11","subject":"au3j3ncgvq3n9j8","sona":"9643"},{"trial_type":"turing-test","trial_index":53,"time_elapsed":130074,"internal_node_id":"0.0-8.0-2.11","subject":"au3j3ncgvq3n9j8","sona":"9643"}]