[{"rt":2553,"stimulus":"<p>Welcome!<br> Please choose your language to start the experiment in the chosen language.</p><p>Willkommen!<br> Bitte wählen Sie eine Sprache, um das Experiment in der ausgewählten Sprache zu starten</p>","button_pressed":"1","trial_type":"html-button-response","trial_index":0,"time_elapsed":2562,"internal_node_id":"0.0-0.0","subject":"fje9072vkytkd5j","sona":"9265"},{"view_history":"[{\"page_index\":0,\"viewing_time\":16354},{\"page_index\":1,\"viewing_time\":3083},{\"page_index\":2,\"viewing_time\":7819},{\"page_index\":3,\"viewing_time\":4882},{\"page_index\":4,\"viewing_time\":3296}]","rt":35435,"trial_type":"instructions","trial_index":1,"time_elapsed":38000,"internal_node_id":"0.0-1.0-0.0","subject":"fje9072vkytkd5j","sona":"9265"},{"rt":1708,"stimulus":"<p>Bereit?</p>","key_press":32,"trial_type":"html-keyboard-response","trial_index":2,"time_elapsed":39712,"internal_node_id":"0.0-3.0","subject":"fje9072vkytkd5j","sona":"9265"},{"rt":null,"stimulus":"<div style=\"font-size:60px;\">+</div>","key_press":null,"trial_type":"html-keyboard-response","trial_index":3,"time_elapsed":41735,"internal_node_id":"0.0-4.0","subject":"fje9072vkytkd5j","sona":"9265"},{"trial_type":"training","trial_index":4,"time_elapsed":45100,"internal_node_id":"0.0-5.0","subject":"fje9072vkytkd5j","sona":"9265"},{"rt":3337,"stimulus":"<p>Welche Sequenz haben Sie als natürlicher empfunden?</p>","key_press":70,"trial_type":"html-keyboard-response","trial_index":5,"time_elapsed":48440,"internal_node_id":"0.0-6.0","subject":"fje9072vkytkd5j","sona":"9265"},{"rt":2948,"stimulus":"<p>Das Experiment startet nun.</p><p><small>Bitte drücken Sie den Knopf, wenn Sie bereit sind.</small></p>","button_pressed":"0","trial_type":"html-button-response","trial_index":6,"time_elapsed":51390,"internal_node_id":"0.0-7.0","subject":"fje9072vkytkd5j","sona":"9265"},{"rt":3633,"stimulus":"<p>Bereit?</p>","key_press":32,"trial_type":"html-keyboard-response","trial_index":7,"time_elapsed":55025,"internal_node_id":"0.0-8.0-0.0","subject":"fje9072vkytkd5j","sona":"9265"},{"rt":null,"stimulus":"<div style=\"font-size:60px;\">+</div>","key_press":null,"trial_type":"html-keyboard-response","trial_index":8,"time_elapsed":57040,"internal_node_id":"0.0-8.0-1.0","subject":"fje9072vkytkd5j","sona":"9265"},{"trial_type":"turing-test","trial_index":9,"time_elapsed":62804,"internal_node_id":"0.0-8.0-2.0","subject":"fje9072vkytkd5j","sona":"9265"},{"rt":636,"stimulus":"<p>Welche Sequenz haben Sie als natürlicher empfunden?</p>","key_press":74,"test_part":"response","test_stimulus":{"position":1,"left":"bvh/vr_prediction_models/model(dmp)-dataset(return-bottle)-npsi(10)-hold(4)/final-lines.txt","right":"bvh/return-bottle-training4-lines.txt","att_check":false},"trial_type":"html-keyboard-response","trial_index":10,"time_elapsed":63443,"internal_node_id":"0.0-8.0-3.0","subject":"fje9072vkytkd5j","sona":"9265"},{"rt":790,"stimulus":"<p>Bereit?</p>","key_press":32,"trial_type":"html-keyboard-response","trial_index":11,"time_elapsed":64236,"internal_node_id":"0.0-8.0-0.1","subject":"fje9072vkytkd5j","sona":"9265"},{"rt":null,"stimulus":"<div style=\"font-size:60px;\">+</div>","key_press":null,"trial_type":"html-keyboard-response","trial_index":12,"time_elapsed":66253,"internal_node_id":"0.0-8.0-1.1","subject":"fje9072vkytkd5j","sona":"9265"},{"trial_type":"turing-test","trial_index":13,"time_elapsed":69683,"internal_node_id":"0.0-8.0-2.1","subject":"fje9072vkytkd5j","sona":"9265"},{"rt":440,"stimulus":"<p>Welche Sequenz haben Sie als natürlicher empfunden?</p>","key_press":70,"test_part":"response","test_stimulus":{"position":0,"left":"bvh/pass-bottle-hold-training0-lines.txt","right":"bvh/vr_prediction_models/model(vcgpdm)-dataset(pass-bottle-hold)-mode(ELBO)-parts(1)-dyn(20)-lvm(20)-hold(0)/final-lines.txt","att_check":false},"trial_type":"html-keyboard-response","trial_index":14,"time_elapsed":70125,"internal_node_id":"0.0-8.0-3.1","subject":"fje9072vkytkd5j","sona":"9265"},{"rt":515,"stimulus":"<p>Bereit?</p>","key_press":32,"trial_type":"html-keyboard-response","trial_index":15,"time_elapsed":70642,"internal_node_id":"0.0-8.0-0.2","subject":"fje9072vkytkd5j","sona":"9265"},{"rt":null,"stimulus":"<div style=\"font-size:60px;\">+</div>","key_press":null,"trial_type":"html-keyboard-response","trial_index":16,"time_elapsed":72658,"internal_node_id":"0.0-8.0-1.2","subject":"fje9072vkytkd5j","sona":"9265"},{"trial_type":"turing-test","trial_index":17,"time_elapsed":79577,"internal_node_id":"0.0-8.0-2.2","subject":"fje9072vkytkd5j","sona":"9265"},{"rt":248,"stimulus":"<p>Welche Sequenz haben Sie als natürlicher empfunden?</p>","key_press":70,"test_part":"response","test_stimulus":{"position":0,"left":"bvh/pass-bottle-training0-lines.txt","right":"bvh/vr_prediction_models/model(vcgpdm)-dataset(pass-bottle)-mode(ELBO)-parts(1)-dyn(30)-lvm(20)-hold(0)/final-lines.txt","att_check":false},"trial_type":"html-keyboard-response","trial_index":18,"time_elapsed":79828,"internal_node_id":"0.0-8.0-3.2","subject":"fje9072vkytkd5j","sona":"9265"},{"rt":385,"stimulus":"<p>Bereit?</p>","key_press":32,"trial_type":"html-keyboard-response","trial_index":19,"time_elapsed":80215,"internal_node_id":"0.0-8.0-0.3","subject":"fje9072vkytkd5j","sona":"9265"},{"rt":null,"stimulus":"<div style=\"font-size:60px;\">+</div>","key_press":null,"trial_type":"html-keyboard-response","trial_index":20,"time_elapsed":82228,"internal_node_id":"0.0-8.0-1.3","subject":"fje9072vkytkd5j","sona":"9265"},{"trial_type":"turing-test","trial_index":21,"time_elapsed":85796,"internal_node_id":"0.0-8.0-2.3","subject":"fje9072vkytkd5j","sona":"9265"},{"rt":501,"stimulus":"<p>Welche Sequenz haben Sie als natürlicher empfunden?</p>","key_press":74,"test_part":"response","test_stimulus":{"position":0,"left":"bvh/return-bottle-hold-training2-lines.txt","right":"bvh/vr_prediction_models/model(vcgpdm)-dataset(return-bottle-hold)-mode(ELBO)-parts(3)-dyn(20)-lvm(15)-hold(2)/final-lines.txt","att_check":false},"trial_type":"html-keyboard-response","trial_index":22,"time_elapsed":86299,"internal_node_id":"0.0-8.0-3.3","subject":"fje9072vkytkd5j","sona":"9265"},{"rt":555,"stimulus":"<p>Bereit?</p>","key_press":32,"trial_type":"html-keyboard-response","trial_index":23,"time_elapsed":86856,"internal_node_id":"0.0-8.0-0.4","subject":"fje9072vkytkd5j","sona":"9265"},{"rt":null,"stimulus":"<div style=\"font-size:60px;\">+</div>","key_press":null,"trial_type":"html-keyboard-response","trial_index":24,"time_elapsed":88882,"internal_node_id":"0.0-8.0-1.4","subject":"fje9072vkytkd5j","sona":"9265"},{"trial_type":"turing-test","trial_index":25,"time_elapsed":95678,"internal_node_id":"0.0-8.0-2.4","subject":"fje9072vkytkd5j","sona":"9265"},{"rt":327,"stimulus":"<p>Welche Sequenz haben Sie als natürlicher empfunden?</p>","key_press":70,"test_part":"response","test_stimulus":{"position":1,"left":"bvh/vr_prediction_models/model(vcgpdm)-dataset(pass-bottle)-mode(MAP)-parts(3)-hold(0)/final-lines.txt","right":"bvh/pass-bottle-training0-lines.txt","att_check":false},"trial_type":"html-keyboard-response","trial_index":26,"time_elapsed":96007,"internal_node_id":"0.0-8.0-3.4","subject":"fje9072vkytkd5j","sona":"9265"},{"rt":309,"stimulus":"<p>Bereit?</p>","key_press":32,"trial_type":"html-keyboard-response","trial_index":27,"time_elapsed":96318,"internal_node_id":"0.0-8.0-0.5","subject":"fje9072vkytkd5j","sona":"9265"},{"rt":null,"stimulus":"<div style=\"font-size:60px;\">+</div>","key_press":null,"trial_type":"html-keyboard-response","trial_index":28,"time_elapsed":98345,"internal_node_id":"0.0-8.0-1.5","subject":"fje9072vkytkd5j","sona":"9265"},{"trial_type":"turing-test","trial_index":29,"time_elapsed":104178,"internal_node_id":"0.0-8.0-2.5","subject":"fje9072vkytkd5j","sona":"9265"},{"rt":948,"stimulus":"<p>Welche Sequenz haben Sie als natürlicher empfunden?</p>","key_press":74,"test_part":"response","test_stimulus":{"position":0,"left":"bvh/pass-bottle-training3-lines.txt","right":"bvh/vr_prediction_models/model(tmp)-dataset(pass-bottle)-numprim(3)-hold(3)/final-lines.txt","att_check":false},"trial_type":"html-keyboard-response","trial_index":30,"time_elapsed":105128,"internal_node_id":"0.0-8.0-3.5","subject":"fje9072vkytkd5j","sona":"9265"},{"rt":305,"stimulus":"<p>Bereit?</p>","key_press":32,"trial_type":"html-keyboard-response","trial_index":31,"time_elapsed":105434,"internal_node_id":"0.0-8.0-0.6","subject":"fje9072vkytkd5j","sona":"9265"},{"rt":null,"stimulus":"<div style=\"font-size:60px;\">+</div>","key_press":null,"trial_type":"html-keyboard-response","trial_index":32,"time_elapsed":107453,"internal_node_id":"0.0-8.0-1.6","subject":"fje9072vkytkd5j","sona":"9265"},{"trial_type":"turing-test","trial_index":33,"time_elapsed":113365,"internal_node_id":"0.0-8.0-2.6","subject":"fje9072vkytkd5j","sona":"9265"},{"rt":475,"stimulus":"<p>Welche Sequenz haben Sie als natürlicher empfunden?</p>","key_press":74,"test_part":"response","test_stimulus":{"position":0,"left":"bvh/return-bottle-training3-lines.txt","right":"bvh/vr_prediction_models/model(vcgpdm)-dataset(return-bottle)-mode(ELBO)-parts(3)-dyn(10)-lvm(10)-hold(3)/final-lines.txt","att_check":false},"trial_type":"html-keyboard-response","trial_index":34,"time_elapsed":113842,"internal_node_id":"0.0-8.0-3.6","subject":"fje9072vkytkd5j","sona":"9265"},{"rt":269,"stimulus":"<p>Bereit?</p>","key_press":32,"trial_type":"html-keyboard-response","trial_index":35,"time_elapsed":114113,"internal_node_id":"0.0-8.0-0.7","subject":"fje9072vkytkd5j","sona":"9265"},{"rt":null,"stimulus":"<div style=\"font-size:60px;\">+</div>","key_press":null,"trial_type":"html-keyboard-response","trial_index":36,"time_elapsed":116134,"internal_node_id":"0.0-8.0-1.7","subject":"fje9072vkytkd5j","sona":"9265"},{"trial_type":"turing-test","trial_index":37,"time_elapsed":121595,"internal_node_id":"0.0-8.0-2.7","subject":"fje9072vkytkd5j","sona":"9265"},{"rt":413,"stimulus":"<p>Welche Sequenz haben Sie als natürlicher empfunden?</p>","key_press":74,"test_part":"response","test_stimulus":{"position":1,"left":"bvh/vr_prediction_models/model(tmp)-dataset(pass-bottle)-numprim(13)-hold(1)/final-lines.txt","right":"bvh/pass-bottle-training1-lines.txt","att_check":false},"trial_type":"html-keyboard-response","trial_index":38,"time_elapsed":122010,"internal_node_id":"0.0-8.0-3.7","subject":"fje9072vkytkd5j","sona":"9265"},{"rt":274,"stimulus":"<p>Bereit?</p>","key_press":32,"trial_type":"html-keyboard-response","trial_index":39,"time_elapsed":122285,"internal_node_id":"0.0-8.0-0.8","subject":"fje9072vkytkd5j","sona":"9265"},{"rt":null,"stimulus":"<div style=\"font-size:60px;\">+</div>","key_press":null,"trial_type":"html-keyboard-response","trial_index":40,"time_elapsed":124309,"internal_node_id":"0.0-8.0-1.8","subject":"fje9072vkytkd5j","sona":"9265"},{"trial_type":"turing-test","trial_index":41,"time_elapsed":129539,"internal_node_id":"0.0-8.0-2.8","subject":"fje9072vkytkd5j","sona":"9265"},{"rt":180,"stimulus":"<p>Welche Sequenz haben Sie als natürlicher empfunden?</p>","key_press":70,"test_part":"response","test_stimulus":{"position":0,"left":"bvh/return-bottle-hold-training0-lines.txt","right":"bvh/vr_prediction_models/model(vcgpdm)-dataset(return-bottle-hold)-mode(ELBO)-parts(1)-dyn(10)-lvm(5)-hold(0)/final-lines.txt","att_check":false},"trial_type":"html-keyboard-response","trial_index":42,"time_elapsed":129720,"internal_node_id":"0.0-8.0-3.8","subject":"fje9072vkytkd5j","sona":"9265"},{"rt":310,"stimulus":"<p>Bereit?</p>","key_press":32,"trial_type":"html-keyboard-response","trial_index":43,"time_elapsed":130032,"internal_node_id":"0.0-8.0-0.9","subject":"fje9072vkytkd5j","sona":"9265"},{"rt":null,"stimulus":"<div style=\"font-size:60px;\">+</div>","key_press":null,"trial_type":"html-keyboard-response","trial_index":44,"time_elapsed":132043,"internal_node_id":"0.0-8.0-1.9","subject":"fje9072vkytkd5j","sona":"9265"},{"trial_type":"turing-test","trial_index":45,"time_elapsed":135541,"internal_node_id":"0.0-8.0-2.9","subject":"fje9072vkytkd5j","sona":"9265"},{"rt":321,"stimulus":"<p>Welche Sequenz haben Sie als natürlicher empfunden?</p>","key_press":74,"test_part":"response","test_stimulus":{"position":1,"left":"bvh/vr_prediction_models/model(dmp)-dataset(return-bottle-hold)-npsi(50)-hold(2)/final-lines.txt","right":"bvh/return-bottle-hold-training2-lines.txt","att_check":true},"trial_type":"html-keyboard-response","trial_index":46,"time_elapsed":135864,"internal_node_id":"0.0-8.0-3.9","subject":"fje9072vkytkd5j","sona":"9265"},{"rt":314,"stimulus":"<p>Bereit?</p>","key_press":32,"trial_type":"html-keyboard-response","trial_index":47,"time_elapsed":136180,"internal_node_id":"0.0-8.0-0.10","subject":"fje9072vkytkd5j","sona":"9265"},{"rt":null,"stimulus":"<div style=\"font-size:60px;\">+</div>","key_press":null,"trial_type":"html-keyboard-response","trial_index":48,"time_elapsed":138204,"internal_node_id":"0.0-8.0-1.10","subject":"fje9072vkytkd5j","sona":"9265"},{"trial_type":"turing-test","trial_index":49,"time_elapsed":144914,"internal_node_id":"0.0-8.0-2.10","subject":"fje9072vkytkd5j","sona":"9265"},{"rt":426,"stimulus":"<p>Welche Sequenz haben Sie als natürlicher empfunden?</p>","key_press":74,"test_part":"response","test_stimulus":{"position":0,"left":"bvh/return-bottle-training2-lines.txt","right":"bvh/vr_prediction_models/model(vcgpdm)-dataset(return-bottle)-mode(MAP)-parts(1)-hold(2)/final-lines.txt","att_check":false},"trial_type":"html-keyboard-response","trial_index":50,"time_elapsed":145342,"internal_node_id":"0.0-8.0-3.10","subject":"fje9072vkytkd5j","sona":"9265"},{"rt":1820,"stimulus":"<p>Bereit?</p>","key_press":32,"trial_type":"html-keyboard-response","trial_index":51,"time_elapsed":147164,"internal_node_id":"0.0-8.0-0.11","subject":"fje9072vkytkd5j","sona":"9265"},{"rt":null,"stimulus":"<div style=\"font-size:60px;\">+</div>","key_press":null,"trial_type":"html-keyboard-response","trial_index":52,"time_elapsed":149179,"internal_node_id":"0.0-8.0-1.11","subject":"fje9072vkytkd5j","sona":"9265"},{"trial_type":"turing-test","trial_index":53,"time_elapsed":155874,"internal_node_id":"0.0-8.0-2.11","subject":"fje9072vkytkd5j","sona":"9265"}]