[{"rt":2391.874999999345,"stimulus":"<p>Welcome!<br> Please choose your language to start the experiment in the chosen language.</p><p>Willkommen!<br> Bitte wählen Sie eine Sprache, um das Experiment in der ausgewählten Sprache zu starten</p>","button_pressed":"1","trial_type":"html-button-response","trial_index":0,"time_elapsed":2401,"internal_node_id":"0.0-0.0","subject":"nmg0wgvfxm09our","sona":"9580"},{"view_history":"[{\"page_index\":0,\"viewing_time\":3448.2050000005984},{\"page_index\":1,\"viewing_time\":4513.86999999977},{\"page_index\":2,\"viewing_time\":1090.7900000001973},{\"page_index\":3,\"viewing_time\":1644.2999999999302},{\"page_index\":4,\"viewing_time\":1514.4249999993917}]","rt":12213.09999999994,"trial_type":"instructions","trial_index":1,"time_elapsed":14616,"internal_node_id":"0.0-1.0-0.0","subject":"nmg0wgvfxm09our","sona":"9580"},{"rt":1885.7299999999668,"stimulus":"<p>Bereit?</p>","key_press":32,"trial_type":"html-keyboard-response","trial_index":2,"time_elapsed":16506,"internal_node_id":"0.0-3.0","subject":"nmg0wgvfxm09our","sona":"9580"},{"rt":null,"stimulus":"<div style=\"font-size:60px;\">+</div>","key_press":null,"trial_type":"html-keyboard-response","trial_index":3,"time_elapsed":18523,"internal_node_id":"0.0-4.0","subject":"nmg0wgvfxm09our","sona":"9580"},{"trial_type":"training","trial_index":4,"time_elapsed":21834,"internal_node_id":"0.0-5.0","subject":"nmg0wgvfxm09our","sona":"9580"},{"rt":605.4299999996147,"stimulus":"<p>Welche Sequenz haben Sie als natürlicher empfunden?</p>","key_press":70,"trial_type":"html-keyboard-response","trial_index":5,"time_elapsed":22441,"internal_node_id":"0.0-6.0","subject":"nmg0wgvfxm09our","sona":"9580"},{"rt":2722.0700000007128,"stimulus":"<p>Das Experiment startet nun.</p><p><small>Bitte drücken Sie den Knopf, wenn Sie bereit sind.</small></p>","button_pressed":"0","trial_type":"html-button-response","trial_index":6,"time_elapsed":25165,"internal_node_id":"0.0-7.0","subject":"nmg0wgvfxm09our","sona":"9580"},{"rt":1173.8350000005084,"stimulus":"<p>Bereit?</p>","key_press":32,"trial_type":"html-keyboard-response","trial_index":7,"time_elapsed":26342,"internal_node_id":"0.0-8.0-0.0","subject":"nmg0wgvfxm09our","sona":"9580"},{"rt":null,"stimulus":"<div style=\"font-size:60px;\">+</div>","key_press":null,"trial_type":"html-keyboard-response","trial_index":8,"time_elapsed":28354,"internal_node_id":"0.0-8.0-1.0","subject":"nmg0wgvfxm09our","sona":"9580"},{"trial_type":"turing-test","trial_index":9,"time_elapsed":32048,"internal_node_id":"0.0-8.0-2.0","subject":"nmg0wgvfxm09our","sona":"9580"},{"rt":443.5750000002372,"stimulus":"<p>Welche Sequenz haben Sie als natürlicher empfunden?</p>","key_press":74,"test_part":"response","test_stimulus":{"position":0,"left":"bvh/pass-bottle-hold-training4-lines.txt","right":"bvh/vr_prediction_models/model(vcgpdm)-dataset(pass-bottle-hold)-mode(ELBO)-parts(3)-dyn(25)-lvm(30)-hold(4)/final-lines.txt","att_check":false},"trial_type":"html-keyboard-response","trial_index":10,"time_elapsed":32496,"internal_node_id":"0.0-8.0-3.0","subject":"nmg0wgvfxm09our","sona":"9580"},{"rt":375.18999999974767,"stimulus":"<p>Bereit?</p>","key_press":32,"trial_type":"html-keyboard-response","trial_index":11,"time_elapsed":32875,"internal_node_id":"0.0-8.0-0.1","subject":"nmg0wgvfxm09our","sona":"9580"},{"rt":null,"stimulus":"<div style=\"font-size:60px;\">+</div>","key_press":null,"trial_type":"html-keyboard-response","trial_index":12,"time_elapsed":34897,"internal_node_id":"0.0-8.0-1.1","subject":"nmg0wgvfxm09our","sona":"9580"},{"trial_type":"turing-test","trial_index":13,"time_elapsed":40554,"internal_node_id":"0.0-8.0-2.1","subject":"nmg0wgvfxm09our","sona":"9580"},{"rt":1411.2450000002354,"stimulus":"<p>Welche Sequenz haben Sie als natürlicher empfunden?</p>","key_press":70,"test_part":"response","test_stimulus":{"position":0,"left":"bvh/return-bottle-training3-lines.txt","right":"bvh/vr_prediction_models/model(tmp)-dataset(return-bottle)-numprim(13)-hold(3)/final-lines.txt","att_check":false},"trial_type":"html-keyboard-response","trial_index":14,"time_elapsed":41968,"internal_node_id":"0.0-8.0-3.1","subject":"nmg0wgvfxm09our","sona":"9580"},{"rt":385.76000000011845,"stimulus":"<p>Bereit?</p>","key_press":32,"trial_type":"html-keyboard-response","trial_index":15,"time_elapsed":42358,"internal_node_id":"0.0-8.0-0.2","subject":"nmg0wgvfxm09our","sona":"9580"},{"rt":null,"stimulus":"<div style=\"font-size:60px;\">+</div>","key_press":null,"trial_type":"html-keyboard-response","trial_index":16,"time_elapsed":44376,"internal_node_id":"0.0-8.0-1.2","subject":"nmg0wgvfxm09our","sona":"9580"},{"trial_type":"turing-test","trial_index":17,"time_elapsed":49818,"internal_node_id":"0.0-8.0-2.2","subject":"nmg0wgvfxm09our","sona":"9580"},{"rt":619.2950000004203,"stimulus":"<p>Welche Sequenz haben Sie als natürlicher empfunden?</p>","key_press":70,"test_part":"response","test_stimulus":{"position":0,"left":"bvh/pass-bottle-training1-lines.txt","right":"bvh/vr_prediction_models/model(dmp)-dataset(pass-bottle)-npsi(20)-hold(1)/final-lines.txt","att_check":false},"trial_type":"html-keyboard-response","trial_index":18,"time_elapsed":50441,"internal_node_id":"0.0-8.0-3.2","subject":"nmg0wgvfxm09our","sona":"9580"},{"rt":355.78499999974156,"stimulus":"<p>Bereit?</p>","key_press":32,"trial_type":"html-keyboard-response","trial_index":19,"time_elapsed":50801,"internal_node_id":"0.0-8.0-0.3","subject":"nmg0wgvfxm09our","sona":"9580"},{"rt":null,"stimulus":"<div style=\"font-size:60px;\">+</div>","key_press":null,"trial_type":"html-keyboard-response","trial_index":20,"time_elapsed":52817,"internal_node_id":"0.0-8.0-1.3","subject":"nmg0wgvfxm09our","sona":"9580"},{"trial_type":"turing-test","trial_index":21,"time_elapsed":56395,"internal_node_id":"0.0-8.0-2.3","subject":"nmg0wgvfxm09our","sona":"9580"},{"rt":456.16999999945983,"stimulus":"<p>Welche Sequenz haben Sie als natürlicher empfunden?</p>","key_press":70,"test_part":"response","test_stimulus":{"position":0,"left":"bvh/return-bottle-hold-training3-lines.txt","right":"bvh/vr_prediction_models/model(tmp)-dataset(return-bottle-hold)-numprim(8)-hold(3)/final-lines.txt","att_check":false},"trial_type":"html-keyboard-response","trial_index":22,"time_elapsed":56855,"internal_node_id":"0.0-8.0-3.3","subject":"nmg0wgvfxm09our","sona":"9580"},{"rt":346.1450000004261,"stimulus":"<p>Bereit?</p>","key_press":32,"trial_type":"html-keyboard-response","trial_index":23,"time_elapsed":57206,"internal_node_id":"0.0-8.0-0.4","subject":"nmg0wgvfxm09our","sona":"9580"},{"rt":null,"stimulus":"<div style=\"font-size:60px;\">+</div>","key_press":null,"trial_type":"html-keyboard-response","trial_index":24,"time_elapsed":59219,"internal_node_id":"0.0-8.0-1.4","subject":"nmg0wgvfxm09our","sona":"9580"},{"trial_type":"turing-test","trial_index":25,"time_elapsed":64248,"internal_node_id":"0.0-8.0-2.4","subject":"nmg0wgvfxm09our","sona":"9580"},{"rt":594.8349999998754,"stimulus":"<p>Welche Sequenz haben Sie als natürlicher empfunden?</p>","key_press":74,"test_part":"response","test_stimulus":{"position":1,"left":"bvh/vr_prediction_models/model(dmp)-dataset(return-bottle-hold)-npsi(70)-hold(0)/final-lines.txt","right":"bvh/return-bottle-hold-training0-lines.txt","att_check":false},"trial_type":"html-keyboard-response","trial_index":26,"time_elapsed":64846,"internal_node_id":"0.0-8.0-3.4","subject":"nmg0wgvfxm09our","sona":"9580"},{"rt":364.5799999994633,"stimulus":"<p>Bereit?</p>","key_press":32,"trial_type":"html-keyboard-response","trial_index":27,"time_elapsed":65217,"internal_node_id":"0.0-8.0-0.5","subject":"nmg0wgvfxm09our","sona":"9580"},{"rt":null,"stimulus":"<div style=\"font-size:60px;\">+</div>","key_press":null,"trial_type":"html-keyboard-response","trial_index":28,"time_elapsed":67224,"internal_node_id":"0.0-8.0-1.5","subject":"nmg0wgvfxm09our","sona":"9580"},{"trial_type":"turing-test","trial_index":29,"time_elapsed":73023,"internal_node_id":"0.0-8.0-2.5","subject":"nmg0wgvfxm09our","sona":"9580"},{"rt":560.21999999939,"stimulus":"<p>Welche Sequenz haben Sie als natürlicher empfunden?</p>","key_press":70,"test_part":"response","test_stimulus":{"position":0,"left":"bvh/pass-bottle-training4-lines.txt","right":"bvh/vr_prediction_models/model(vcgpdm)-dataset(pass-bottle)-mode(ELBO)-parts(1)-dyn(25)-lvm(35)-hold(4)/final-lines.txt","att_check":false},"trial_type":"html-keyboard-response","trial_index":30,"time_elapsed":73591,"internal_node_id":"0.0-8.0-3.5","subject":"nmg0wgvfxm09our","sona":"9580"},{"rt":363.8649999993504,"stimulus":"<p>Bereit?</p>","key_press":32,"trial_type":"html-keyboard-response","trial_index":31,"time_elapsed":73959,"internal_node_id":"0.0-8.0-0.6","subject":"nmg0wgvfxm09our","sona":"9580"},{"rt":null,"stimulus":"<div style=\"font-size:60px;\">+</div>","key_press":null,"trial_type":"html-keyboard-response","trial_index":32,"time_elapsed":75972,"internal_node_id":"0.0-8.0-1.6","subject":"nmg0wgvfxm09our","sona":"9580"},{"trial_type":"turing-test","trial_index":33,"time_elapsed":81835,"internal_node_id":"0.0-8.0-2.6","subject":"nmg0wgvfxm09our","sona":"9580"},{"rt":629.1450000007899,"stimulus":"<p>Welche Sequenz haben Sie als natürlicher empfunden?</p>","key_press":74,"test_part":"response","test_stimulus":{"position":1,"left":"bvh/vr_prediction_models/model(vcgpdm)-dataset(pass-bottle)-mode(ELBO)-parts(1)-dyn(30)-lvm(35)-hold(4)/final-lines.txt","right":"bvh/pass-bottle-training4-lines.txt","att_check":false},"trial_type":"html-keyboard-response","trial_index":34,"time_elapsed":82471,"internal_node_id":"0.0-8.0-3.6","subject":"nmg0wgvfxm09our","sona":"9580"},{"rt":317.079999999798,"stimulus":"<p>Bereit?</p>","key_press":32,"trial_type":"html-keyboard-response","trial_index":35,"time_elapsed":82791,"internal_node_id":"0.0-8.0-0.7","subject":"nmg0wgvfxm09our","sona":"9580"},{"rt":null,"stimulus":"<div style=\"font-size:60px;\">+</div>","key_press":null,"trial_type":"html-keyboard-response","trial_index":36,"time_elapsed":84805,"internal_node_id":"0.0-8.0-1.7","subject":"nmg0wgvfxm09our","sona":"9580"},{"trial_type":"turing-test","trial_index":37,"time_elapsed":90834,"internal_node_id":"0.0-8.0-2.7","subject":"nmg0wgvfxm09our","sona":"9580"},{"rt":480.4250000006432,"stimulus":"<p>Welche Sequenz haben Sie als natürlicher empfunden?</p>","key_press":70,"test_part":"response","test_stimulus":{"position":0,"left":"bvh/pass-bottle-training2-lines.txt","right":"bvh/vr_prediction_models/model(dmp)-dataset(pass-bottle)-npsi(20)-hold(2)/final-lines.txt","att_check":true},"trial_type":"html-keyboard-response","trial_index":38,"time_elapsed":91319,"internal_node_id":"0.0-8.0-3.7","subject":"nmg0wgvfxm09our","sona":"9580"},{"rt":358.189999999915,"stimulus":"<p>Bereit?</p>","key_press":32,"trial_type":"html-keyboard-response","trial_index":39,"time_elapsed":91683,"internal_node_id":"0.0-8.0-0.8","subject":"nmg0wgvfxm09our","sona":"9580"},{"rt":null,"stimulus":"<div style=\"font-size:60px;\">+</div>","key_press":null,"trial_type":"html-keyboard-response","trial_index":40,"time_elapsed":93708,"internal_node_id":"0.0-8.0-1.8","subject":"nmg0wgvfxm09our","sona":"9580"},{"trial_type":"turing-test","trial_index":41,"time_elapsed":97368,"internal_node_id":"0.0-8.0-2.8","subject":"nmg0wgvfxm09our","sona":"9580"},{"rt":347.1349999999802,"stimulus":"<p>Welche Sequenz haben Sie als natürlicher empfunden?</p>","key_press":70,"test_part":"response","test_stimulus":{"position":0,"left":"bvh/return-bottle-hold-training4-lines.txt","right":"bvh/vr_prediction_models/model(dmp)-dataset(return-bottle-hold)-npsi(30)-hold(4)/final-lines.txt","att_check":true},"trial_type":"html-keyboard-response","trial_index":42,"time_elapsed":97722,"internal_node_id":"0.0-8.0-3.8","subject":"nmg0wgvfxm09our","sona":"9580"},{"rt":341.37999999985914,"stimulus":"<p>Bereit?</p>","key_press":32,"trial_type":"html-keyboard-response","trial_index":43,"time_elapsed":98067,"internal_node_id":"0.0-8.0-0.9","subject":"nmg0wgvfxm09our","sona":"9580"},{"rt":null,"stimulus":"<div style=\"font-size:60px;\">+</div>","key_press":null,"trial_type":"html-keyboard-response","trial_index":44,"time_elapsed":100085,"internal_node_id":"0.0-8.0-1.9","subject":"nmg0wgvfxm09our","sona":"9580"},{"trial_type":"turing-test","trial_index":45,"time_elapsed":106813,"internal_node_id":"0.0-8.0-2.9","subject":"nmg0wgvfxm09our","sona":"9580"},{"rt":393.0950000003504,"stimulus":"<p>Welche Sequenz haben Sie als natürlicher empfunden?</p>","key_press":74,"test_part":"response","test_stimulus":{"position":0,"left":"bvh/pass-bottle-training0-lines.txt","right":"bvh/vr_prediction_models/model(tmp)-dataset(pass-bottle)-numprim(6)-hold(0)/final-lines.txt","att_check":false},"trial_type":"html-keyboard-response","trial_index":46,"time_elapsed":107204,"internal_node_id":"0.0-8.0-3.9","subject":"nmg0wgvfxm09our","sona":"9580"},{"rt":245.67000000024564,"stimulus":"<p>Bereit?</p>","key_press":32,"trial_type":"html-keyboard-response","trial_index":47,"time_elapsed":107453,"internal_node_id":"0.0-8.0-0.10","subject":"nmg0wgvfxm09our","sona":"9580"},{"rt":null,"stimulus":"<div style=\"font-size:60px;\">+</div>","key_press":null,"trial_type":"html-keyboard-response","trial_index":48,"time_elapsed":109472,"internal_node_id":"0.0-8.0-1.10","subject":"nmg0wgvfxm09our","sona":"9580"},{"trial_type":"turing-test","trial_index":49,"time_elapsed":114812,"internal_node_id":"0.0-8.0-2.10","subject":"nmg0wgvfxm09our","sona":"9580"},{"rt":503.9099999994505,"stimulus":"<p>Welche Sequenz haben Sie als natürlicher empfunden?</p>","key_press":70,"test_part":"response","test_stimulus":{"position":0,"left":"bvh/return-bottle-training0-lines.txt","right":"bvh/vr_prediction_models/model(dmp)-dataset(return-bottle)-npsi(80)-hold(0)/final-lines.txt","att_check":false},"trial_type":"html-keyboard-response","trial_index":50,"time_elapsed":115320,"internal_node_id":"0.0-8.0-3.10","subject":"nmg0wgvfxm09our","sona":"9580"},{"rt":362.37999999958265,"stimulus":"<p>Bereit?</p>","key_press":32,"trial_type":"html-keyboard-response","trial_index":51,"time_elapsed":115686,"internal_node_id":"0.0-8.0-0.11","subject":"nmg0wgvfxm09our","sona":"9580"},{"rt":null,"stimulus":"<div style=\"font-size:60px;\">+</div>","key_press":null,"trial_type":"html-keyboard-response","trial_index":52,"time_elapsed":117714,"internal_node_id":"0.0-8.0-1.11","subject":"nmg0wgvfxm09our","sona":"9580"},{"trial_type":"turing-test","trial_index":53,"time_elapsed":123452,"internal_node_id":"0.0-8.0-2.11","subject":"nmg0wgvfxm09our","sona":"9580"}]