[{"rt":1901.4449999958742,"stimulus":"<p>Welcome!<br> Please choose your language to start the experiment in the chosen language.</p><p>Willkommen!<br> Bitte wählen Sie eine Sprache, um das Experiment in der ausgewählten Sprache zu starten</p>","button_pressed":"1","trial_type":"html-button-response","trial_index":0,"time_elapsed":2074,"internal_node_id":"0.0-0.0","subject":"yta67m0870tgws4","sona":"7567"},{"view_history":"[{\"page_index\":0,\"viewing_time\":990.0449999986449},{\"page_index\":1,\"viewing_time\":1732.7400000067428},{\"page_index\":2,\"viewing_time\":10769.954999996116},{\"page_index\":3,\"viewing_time\":2500.865000009071},{\"page_index\":4,\"viewing_time\":2020.1899999956368}]","rt":18015.445000011823,"trial_type":"instructions","trial_index":1,"time_elapsed":20090,"internal_node_id":"0.0-1.0-0.0","subject":"yta67m0870tgws4","sona":"7567"},{"rt":1841.3850000069942,"stimulus":"<p>Bereit?</p>","key_press":32,"trial_type":"html-keyboard-response","trial_index":2,"time_elapsed":21933,"internal_node_id":"0.0-3.0","subject":"yta67m0870tgws4","sona":"7567"},{"rt":null,"stimulus":"<div style=\"font-size:60px;\">+</div>","key_press":null,"trial_type":"html-keyboard-response","trial_index":3,"time_elapsed":23953,"internal_node_id":"0.0-4.0","subject":"yta67m0870tgws4","sona":"7567"},{"trial_type":"training","trial_index":4,"time_elapsed":31458,"internal_node_id":"0.0-5.0","subject":"yta67m0870tgws4","sona":"7567"},{"rt":1452.4250000104075,"stimulus":"<p>Welche Sequenz haben Sie als natürlicher empfunden?</p>","key_press":74,"trial_type":"html-keyboard-response","trial_index":5,"time_elapsed":32911,"internal_node_id":"0.0-6.0","subject":"yta67m0870tgws4","sona":"7567"},{"rt":3386.8399999919347,"stimulus":"<p>Das Experiment startet nun.</p><p><small>Bitte drücken Sie den Knopf, wenn Sie bereit sind.</small></p>","button_pressed":"0","trial_type":"html-button-response","trial_index":6,"time_elapsed":36299,"internal_node_id":"0.0-7.0","subject":"yta67m0870tgws4","sona":"7567"},{"rt":3992.054999995162,"stimulus":"<p>Bereit?</p>","key_press":32,"trial_type":"html-keyboard-response","trial_index":7,"time_elapsed":40292,"internal_node_id":"0.0-8.0-0.0","subject":"yta67m0870tgws4","sona":"7567"},{"rt":null,"stimulus":"<div style=\"font-size:60px;\">+</div>","key_press":null,"trial_type":"html-keyboard-response","trial_index":8,"time_elapsed":42305,"internal_node_id":"0.0-8.0-1.0","subject":"yta67m0870tgws4","sona":"7567"},{"trial_type":"turing-test","trial_index":9,"time_elapsed":45918,"internal_node_id":"0.0-8.0-2.0","subject":"yta67m0870tgws4","sona":"7567"},{"rt":576.2849999882746,"stimulus":"<p>Welche Sequenz haben Sie als natürlicher empfunden?</p>","key_press":74,"test_part":"response","test_stimulus":{"position":0,"left":"bvh/pass-bottle-hold-training0-lines.txt","right":"bvh/vr_prediction_models/model(vcgpdm)-dataset(pass-bottle-hold)-mode(ELBO)-parts(1)-dyn(10)-lvm(25)-hold(0)/final-lines.txt","att_check":false},"trial_type":"html-keyboard-response","trial_index":10,"time_elapsed":46497,"internal_node_id":"0.0-8.0-3.0","subject":"yta67m0870tgws4","sona":"7567"},{"rt":2890.610000002198,"stimulus":"<p>Bereit?</p>","key_press":32,"trial_type":"html-keyboard-response","trial_index":11,"time_elapsed":49390,"internal_node_id":"0.0-8.0-0.1","subject":"yta67m0870tgws4","sona":"7567"},{"rt":null,"stimulus":"<div style=\"font-size:60px;\">+</div>","key_press":null,"trial_type":"html-keyboard-response","trial_index":12,"time_elapsed":51409,"internal_node_id":"0.0-8.0-1.1","subject":"yta67m0870tgws4","sona":"7567"},{"trial_type":"turing-test","trial_index":13,"time_elapsed":55466,"internal_node_id":"0.0-8.0-2.1","subject":"yta67m0870tgws4","sona":"7567"},{"rt":3995.085000002291,"stimulus":"<p>Welche Sequenz haben Sie als natürlicher empfunden?</p>","key_press":74,"test_part":"response","test_stimulus":{"position":1,"left":"bvh/vr_prediction_models/model(vcgpdm)-dataset(return-bottle-hold)-mode(ELBO)-parts(3)-dyn(15)-lvm(30)-hold(4)/final-lines.txt","right":"bvh/return-bottle-hold-training4-lines.txt","att_check":false},"trial_type":"html-keyboard-response","trial_index":14,"time_elapsed":59463,"internal_node_id":"0.0-8.0-3.1","subject":"yta67m0870tgws4","sona":"7567"},{"rt":2457.9850000009174,"stimulus":"<p>Bereit?</p>","key_press":32,"trial_type":"html-keyboard-response","trial_index":15,"time_elapsed":61923,"internal_node_id":"0.0-8.0-0.2","subject":"yta67m0870tgws4","sona":"7567"},{"rt":null,"stimulus":"<div style=\"font-size:60px;\">+</div>","key_press":null,"trial_type":"html-keyboard-response","trial_index":16,"time_elapsed":63934,"internal_node_id":"0.0-8.0-1.2","subject":"yta67m0870tgws4","sona":"7567"},{"trial_type":"turing-test","trial_index":17,"time_elapsed":67563,"internal_node_id":"0.0-8.0-2.2","subject":"yta67m0870tgws4","sona":"7567"},{"rt":2893.609999999171,"stimulus":"<p>Welche Sequenz haben Sie als natürlicher empfunden?</p>","key_press":74,"test_part":"response","test_stimulus":{"position":0,"left":"bvh/pass-bottle-hold-training3-lines.txt","right":"bvh/vr_prediction_models/model(dmp)-dataset(pass-bottle-hold)-npsi(50)-hold(3)/final-lines.txt","att_check":false},"trial_type":"html-keyboard-response","trial_index":18,"time_elapsed":70459,"internal_node_id":"0.0-8.0-3.2","subject":"yta67m0870tgws4","sona":"7567"},{"rt":1166.0000000119908,"stimulus":"<p>Bereit?</p>","key_press":32,"trial_type":"html-keyboard-response","trial_index":19,"time_elapsed":71627,"internal_node_id":"0.0-8.0-0.3","subject":"yta67m0870tgws4","sona":"7567"},{"rt":null,"stimulus":"<div style=\"font-size:60px;\">+</div>","key_press":null,"trial_type":"html-keyboard-response","trial_index":20,"time_elapsed":73649,"internal_node_id":"0.0-8.0-1.3","subject":"yta67m0870tgws4","sona":"7567"},{"trial_type":"turing-test","trial_index":21,"time_elapsed":79015,"internal_node_id":"0.0-8.0-2.3","subject":"yta67m0870tgws4","sona":"7567"},{"rt":322.5550000061048,"stimulus":"<p>Welche Sequenz haben Sie als natürlicher empfunden?</p>","key_press":74,"test_part":"response","test_stimulus":{"position":0,"left":"bvh/return-bottle-hold-training0-lines.txt","right":"bvh/vr_prediction_models/model(vcgpdm)-dataset(return-bottle-hold)-mode(ELBO)-parts(1)-dyn(20)-lvm(5)-hold(0)/final-lines.txt","att_check":false},"trial_type":"html-keyboard-response","trial_index":22,"time_elapsed":79340,"internal_node_id":"0.0-8.0-3.3","subject":"yta67m0870tgws4","sona":"7567"},{"rt":1183.8049999932991,"stimulus":"<p>Bereit?</p>","key_press":32,"trial_type":"html-keyboard-response","trial_index":23,"time_elapsed":80526,"internal_node_id":"0.0-8.0-0.4","subject":"yta67m0870tgws4","sona":"7567"},{"rt":null,"stimulus":"<div style=\"font-size:60px;\">+</div>","key_press":null,"trial_type":"html-keyboard-response","trial_index":24,"time_elapsed":82548,"internal_node_id":"0.0-8.0-1.4","subject":"yta67m0870tgws4","sona":"7567"},{"trial_type":"turing-test","trial_index":25,"time_elapsed":86320,"internal_node_id":"0.0-8.0-2.4","subject":"yta67m0870tgws4","sona":"7567"},{"rt":18.40499999525491,"stimulus":"<p>Welche Sequenz haben Sie als natürlicher empfunden?</p>","key_press":70,"test_part":"response","test_stimulus":{"position":1,"left":"bvh/vr_prediction_models/model(vcgpdm)-dataset(pass-bottle-hold)-mode(ELBO)-parts(3)-dyn(10)-lvm(10)-hold(3)/final-lines.txt","right":"bvh/pass-bottle-hold-training3-lines.txt","att_check":false},"trial_type":"html-keyboard-response","trial_index":26,"time_elapsed":86341,"internal_node_id":"0.0-8.0-3.4","subject":"yta67m0870tgws4","sona":"7567"},{"rt":1033.7849999923492,"stimulus":"<p>Bereit?</p>","key_press":32,"trial_type":"html-keyboard-response","trial_index":27,"time_elapsed":87377,"internal_node_id":"0.0-8.0-0.5","subject":"yta67m0870tgws4","sona":"7567"},{"rt":null,"stimulus":"<div style=\"font-size:60px;\">+</div>","key_press":null,"trial_type":"html-keyboard-response","trial_index":28,"time_elapsed":89398,"internal_node_id":"0.0-8.0-1.5","subject":"yta67m0870tgws4","sona":"7567"},{"trial_type":"turing-test","trial_index":29,"time_elapsed":95163,"internal_node_id":"0.0-8.0-2.5","subject":"yta67m0870tgws4","sona":"7567"},{"rt":349.94499999447726,"stimulus":"<p>Welche Sequenz haben Sie als natürlicher empfunden?</p>","key_press":74,"test_part":"response","test_stimulus":{"position":1,"left":"bvh/vr_prediction_models/model(dmp)-dataset(return-bottle)-npsi(90)-hold(3)/final-lines.txt","right":"bvh/return-bottle-training3-lines.txt","att_check":false},"trial_type":"html-keyboard-response","trial_index":30,"time_elapsed":95516,"internal_node_id":"0.0-8.0-3.5","subject":"yta67m0870tgws4","sona":"7567"},{"rt":707.5100000074599,"stimulus":"<p>Bereit?</p>","key_press":32,"trial_type":"html-keyboard-response","trial_index":31,"time_elapsed":96225,"internal_node_id":"0.0-8.0-0.6","subject":"yta67m0870tgws4","sona":"7567"},{"rt":null,"stimulus":"<div style=\"font-size:60px;\">+</div>","key_press":null,"trial_type":"html-keyboard-response","trial_index":32,"time_elapsed":98241,"internal_node_id":"0.0-8.0-1.6","subject":"yta67m0870tgws4","sona":"7567"},{"trial_type":"turing-test","trial_index":33,"time_elapsed":101653,"internal_node_id":"0.0-8.0-2.6","subject":"yta67m0870tgws4","sona":"7567"},{"rt":573.1599999999162,"stimulus":"<p>Welche Sequenz haben Sie als natürlicher empfunden?</p>","key_press":70,"test_part":"response","test_stimulus":{"position":1,"left":"bvh/vr_prediction_models/model(tmp)-dataset(pass-bottle-hold)-numprim(12)-hold(2)/final-lines.txt","right":"bvh/pass-bottle-hold-training2-lines.txt","att_check":false},"trial_type":"html-keyboard-response","trial_index":34,"time_elapsed":102229,"internal_node_id":"0.0-8.0-3.6","subject":"yta67m0870tgws4","sona":"7567"},{"rt":767.9000000061933,"stimulus":"<p>Bereit?</p>","key_press":32,"trial_type":"html-keyboard-response","trial_index":35,"time_elapsed":102998,"internal_node_id":"0.0-8.0-0.7","subject":"yta67m0870tgws4","sona":"7567"},{"rt":null,"stimulus":"<div style=\"font-size:60px;\">+</div>","key_press":null,"trial_type":"html-keyboard-response","trial_index":36,"time_elapsed":105032,"internal_node_id":"0.0-8.0-1.7","subject":"yta67m0870tgws4","sona":"7567"},{"trial_type":"turing-test","trial_index":37,"time_elapsed":108707,"internal_node_id":"0.0-8.0-2.7","subject":"yta67m0870tgws4","sona":"7567"},{"rt":718.059999999241,"stimulus":"<p>Welche Sequenz haben Sie als natürlicher empfunden?</p>","key_press":74,"test_part":"response","test_stimulus":{"position":0,"left":"bvh/pass-bottle-hold-training4-lines.txt","right":"bvh/vr_prediction_models/model(dmp)-dataset(pass-bottle-hold)-npsi(80)-hold(4)/final-lines.txt","att_check":false},"trial_type":"html-keyboard-response","trial_index":38,"time_elapsed":109428,"internal_node_id":"0.0-8.0-3.7","subject":"yta67m0870tgws4","sona":"7567"},{"rt":706.1599999869941,"stimulus":"<p>Bereit?</p>","key_press":32,"trial_type":"html-keyboard-response","trial_index":39,"time_elapsed":110136,"internal_node_id":"0.0-8.0-0.8","subject":"yta67m0870tgws4","sona":"7567"},{"rt":null,"stimulus":"<div style=\"font-size:60px;\">+</div>","key_press":null,"trial_type":"html-keyboard-response","trial_index":40,"time_elapsed":112159,"internal_node_id":"0.0-8.0-1.8","subject":"yta67m0870tgws4","sona":"7567"},{"trial_type":"turing-test","trial_index":41,"time_elapsed":117934,"internal_node_id":"0.0-8.0-2.8","subject":"yta67m0870tgws4","sona":"7567"},{"rt":2601.5449999977136,"stimulus":"<p>Welche Sequenz haben Sie als natürlicher empfunden?</p>","key_press":74,"test_part":"response","test_stimulus":{"position":0,"left":"bvh/return-bottle-training3-lines.txt","right":"bvh/vr_prediction_models/model(vcgpdm)-dataset(return-bottle)-mode(ELBO)-parts(1)-dyn(30)-lvm(35)-hold(3)/final-lines.txt","att_check":false},"trial_type":"html-keyboard-response","trial_index":42,"time_elapsed":120538,"internal_node_id":"0.0-8.0-3.8","subject":"yta67m0870tgws4","sona":"7567"},{"rt":1177.7650000003632,"stimulus":"<p>Bereit?</p>","key_press":32,"trial_type":"html-keyboard-response","trial_index":43,"time_elapsed":121718,"internal_node_id":"0.0-8.0-0.9","subject":"yta67m0870tgws4","sona":"7567"},{"rt":null,"stimulus":"<div style=\"font-size:60px;\">+</div>","key_press":null,"trial_type":"html-keyboard-response","trial_index":44,"time_elapsed":123723,"internal_node_id":"0.0-8.0-1.9","subject":"yta67m0870tgws4","sona":"7567"},{"trial_type":"turing-test","trial_index":45,"time_elapsed":129302,"internal_node_id":"0.0-8.0-2.9","subject":"yta67m0870tgws4","sona":"7567"},{"rt":342.05999999539927,"stimulus":"<p>Welche Sequenz haben Sie als natürlicher empfunden?</p>","key_press":70,"test_part":"response","test_stimulus":{"position":0,"left":"bvh/pass-bottle-training1-lines.txt","right":"bvh/vr_prediction_models/model(vcgpdm)-dataset(pass-bottle)-mode(ELBO)-parts(1)-dyn(10)-lvm(5)-hold(1)/final-lines.txt","att_check":false},"trial_type":"html-keyboard-response","trial_index":46,"time_elapsed":129647,"internal_node_id":"0.0-8.0-3.9","subject":"yta67m0870tgws4","sona":"7567"},{"rt":2548.3250000106636,"stimulus":"<p>Bereit?</p>","key_press":32,"trial_type":"html-keyboard-response","trial_index":47,"time_elapsed":132197,"internal_node_id":"0.0-8.0-0.10","subject":"yta67m0870tgws4","sona":"7567"},{"rt":null,"stimulus":"<div style=\"font-size:60px;\">+</div>","key_press":null,"trial_type":"html-keyboard-response","trial_index":48,"time_elapsed":134237,"internal_node_id":"0.0-8.0-1.10","subject":"yta67m0870tgws4","sona":"7567"},{"trial_type":"turing-test","trial_index":49,"time_elapsed":140610,"internal_node_id":"0.0-8.0-2.10","subject":"yta67m0870tgws4","sona":"7567"},{"rt":246.13500000850763,"stimulus":"<p>Welche Sequenz haben Sie als natürlicher empfunden?</p>","key_press":74,"test_part":"response","test_stimulus":{"position":1,"left":"bvh/vr_prediction_models/model(dmp)-dataset(return-bottle)-npsi(40)-hold(1)/final-lines.txt","right":"bvh/return-bottle-training1-lines.txt","att_check":false},"trial_type":"html-keyboard-response","trial_index":50,"time_elapsed":140859,"internal_node_id":"0.0-8.0-3.10","subject":"yta67m0870tgws4","sona":"7567"},{"rt":4364.37000001024,"stimulus":"<p>Bereit?</p>","key_press":32,"trial_type":"html-keyboard-response","trial_index":51,"time_elapsed":145225,"internal_node_id":"0.0-8.0-0.11","subject":"yta67m0870tgws4","sona":"7567"},{"rt":null,"stimulus":"<div style=\"font-size:60px;\">+</div>","key_press":null,"trial_type":"html-keyboard-response","trial_index":52,"time_elapsed":147239,"internal_node_id":"0.0-8.0-1.11","subject":"yta67m0870tgws4","sona":"7567"}]