[{"rt":7146,"stimulus":"<p>Welcome!<br> Please choose your language to start the experiment in the chosen language.</p><p>Willkommen!<br> Bitte wählen Sie eine Sprache, um das Experiment in der ausgewählten Sprache zu starten</p>","button_pressed":"1","trial_type":"html-button-response","trial_index":0,"time_elapsed":7163,"internal_node_id":"0.0-0.0","subject":"moaacjl5j2texa3","sona":"9160"},{"view_history":"[{\"page_index\":0,\"viewing_time\":1253},{\"page_index\":1,\"viewing_time\":2308},{\"page_index\":2,\"viewing_time\":1308},{\"page_index\":3,\"viewing_time\":1278},{\"page_index\":4,\"viewing_time\":1456}]","rt":7603,"trial_type":"instructions","trial_index":1,"time_elapsed":14769,"internal_node_id":"0.0-1.0-0.0","subject":"moaacjl5j2texa3","sona":"9160"},{"rt":1763,"stimulus":"<p>Bereit?</p>","key_press":32,"trial_type":"html-keyboard-response","trial_index":2,"time_elapsed":16535,"internal_node_id":"0.0-3.0","subject":"moaacjl5j2texa3","sona":"9160"},{"rt":null,"stimulus":"<div style=\"font-size:60px;\">+</div>","key_press":null,"trial_type":"html-keyboard-response","trial_index":3,"time_elapsed":18615,"internal_node_id":"0.0-4.0","subject":"moaacjl5j2texa3","sona":"9160"},{"trial_type":"training","trial_index":4,"time_elapsed":26889,"internal_node_id":"0.0-5.0","subject":"moaacjl5j2texa3","sona":"9160"},{"rt":6465,"stimulus":"<p>Welche Sequenz haben Sie als natürlicher empfunden?</p>","key_press":70,"trial_type":"html-keyboard-response","trial_index":5,"time_elapsed":33363,"internal_node_id":"0.0-6.0","subject":"moaacjl5j2texa3","sona":"9160"},{"rt":3868,"stimulus":"<p>Das Experiment startet nun.</p><p><small>Bitte drücken Sie den Knopf, wenn Sie bereit sind.</small></p>","button_pressed":"0","trial_type":"html-button-response","trial_index":6,"time_elapsed":37243,"internal_node_id":"0.0-7.0","subject":"moaacjl5j2texa3","sona":"9160"},{"rt":2130,"stimulus":"<p>Bereit?</p>","key_press":32,"trial_type":"html-keyboard-response","trial_index":7,"time_elapsed":39376,"internal_node_id":"0.0-8.0-0.0","subject":"moaacjl5j2texa3","sona":"9160"},{"rt":null,"stimulus":"<div style=\"font-size:60px;\">+</div>","key_press":null,"trial_type":"html-keyboard-response","trial_index":8,"time_elapsed":41394,"internal_node_id":"0.0-8.0-1.0","subject":"moaacjl5j2texa3","sona":"9160"},{"trial_type":"turing-test","trial_index":9,"time_elapsed":45670,"internal_node_id":"0.0-8.0-2.0","subject":"moaacjl5j2texa3","sona":"9160"},{"rt":1915,"stimulus":"<p>Welche Sequenz haben Sie als natürlicher empfunden?</p>","key_press":70,"test_part":"response","test_stimulus":{"position":1,"left":"bvh/vr_prediction_models/model(vcgpdm)-dataset(return-bottle-hold)-mode(ELBO)-parts(3)-dyn(20)-lvm(15)-hold(4)/final-lines.txt","right":"bvh/return-bottle-hold-training4-lines.txt","att_check":false},"trial_type":"html-keyboard-response","trial_index":10,"time_elapsed":47588,"internal_node_id":"0.0-8.0-3.0","subject":"moaacjl5j2texa3","sona":"9160"},{"rt":221,"stimulus":"<p>Bereit?</p>","key_press":32,"trial_type":"html-keyboard-response","trial_index":11,"time_elapsed":47812,"internal_node_id":"0.0-8.0-0.1","subject":"moaacjl5j2texa3","sona":"9160"},{"rt":null,"stimulus":"<div style=\"font-size:60px;\">+</div>","key_press":null,"trial_type":"html-keyboard-response","trial_index":12,"time_elapsed":49818,"internal_node_id":"0.0-8.0-1.1","subject":"moaacjl5j2texa3","sona":"9160"},{"trial_type":"turing-test","trial_index":13,"time_elapsed":53814,"internal_node_id":"0.0-8.0-2.1","subject":"moaacjl5j2texa3","sona":"9160"},{"rt":551,"stimulus":"<p>Welche Sequenz haben Sie als natürlicher empfunden?</p>","key_press":70,"test_part":"response","test_stimulus":{"position":0,"left":"bvh/return-bottle-hold-training4-lines.txt","right":"bvh/vr_prediction_models/model(vcgpdm)-dataset(return-bottle-hold)-mode(ELBO)-parts(1)-dyn(10)-lvm(30)-hold(4)/final-lines.txt","att_check":false},"trial_type":"html-keyboard-response","trial_index":14,"time_elapsed":54367,"internal_node_id":"0.0-8.0-3.1","subject":"moaacjl5j2texa3","sona":"9160"},{"rt":194,"stimulus":"<p>Bereit?</p>","key_press":32,"trial_type":"html-keyboard-response","trial_index":15,"time_elapsed":54562,"internal_node_id":"0.0-8.0-0.2","subject":"moaacjl5j2texa3","sona":"9160"},{"rt":null,"stimulus":"<div style=\"font-size:60px;\">+</div>","key_press":null,"trial_type":"html-keyboard-response","trial_index":16,"time_elapsed":56573,"internal_node_id":"0.0-8.0-1.2","subject":"moaacjl5j2texa3","sona":"9160"},{"trial_type":"turing-test","trial_index":17,"time_elapsed":62317,"internal_node_id":"0.0-8.0-2.2","subject":"moaacjl5j2texa3","sona":"9160"},{"rt":340,"stimulus":"<p>Welche Sequenz haben Sie als natürlicher empfunden?</p>","key_press":74,"test_part":"response","test_stimulus":{"position":1,"left":"bvh/vr_prediction_models/model(vcgpdm)-dataset(return-bottle)-mode(ELBO)-parts(3)-dyn(15)-lvm(30)-hold(0)/final-lines.txt","right":"bvh/return-bottle-training0-lines.txt","att_check":false},"trial_type":"html-keyboard-response","trial_index":18,"time_elapsed":62667,"internal_node_id":"0.0-8.0-3.2","subject":"moaacjl5j2texa3","sona":"9160"},{"rt":122,"stimulus":"<p>Bereit?</p>","key_press":32,"trial_type":"html-keyboard-response","trial_index":19,"time_elapsed":62796,"internal_node_id":"0.0-8.0-0.3","subject":"moaacjl5j2texa3","sona":"9160"},{"rt":null,"stimulus":"<div style=\"font-size:60px;\">+</div>","key_press":null,"trial_type":"html-keyboard-response","trial_index":20,"time_elapsed":64810,"internal_node_id":"0.0-8.0-1.3","subject":"moaacjl5j2texa3","sona":"9160"},{"trial_type":"turing-test","trial_index":21,"time_elapsed":72035,"internal_node_id":"0.0-8.0-2.3","subject":"moaacjl5j2texa3","sona":"9160"},{"rt":990,"stimulus":"<p>Welche Sequenz haben Sie als natürlicher empfunden?</p>","key_press":70,"test_part":"response","test_stimulus":{"position":0,"left":"bvh/pass-bottle-training0-lines.txt","right":"bvh/vr_prediction_models/model(vcgpdm)-dataset(pass-bottle)-mode(ELBO)-parts(1)-dyn(15)-lvm(35)-hold(0)/final-lines.txt","att_check":false},"trial_type":"html-keyboard-response","trial_index":22,"time_elapsed":73028,"internal_node_id":"0.0-8.0-3.3","subject":"moaacjl5j2texa3","sona":"9160"},{"rt":191,"stimulus":"<p>Bereit?</p>","key_press":32,"trial_type":"html-keyboard-response","trial_index":23,"time_elapsed":73224,"internal_node_id":"0.0-8.0-0.4","subject":"moaacjl5j2texa3","sona":"9160"},{"rt":null,"stimulus":"<div style=\"font-size:60px;\">+</div>","key_press":null,"trial_type":"html-keyboard-response","trial_index":24,"time_elapsed":75254,"internal_node_id":"0.0-8.0-1.4","subject":"moaacjl5j2texa3","sona":"9160"},{"trial_type":"turing-test","trial_index":25,"time_elapsed":79506,"internal_node_id":"0.0-8.0-2.4","subject":"moaacjl5j2texa3","sona":"9160"},{"rt":349,"stimulus":"<p>Welche Sequenz haben Sie als natürlicher empfunden?</p>","key_press":70,"test_part":"response","test_stimulus":{"position":1,"left":"bvh/vr_prediction_models/model(vcgpdm)-dataset(pass-bottle-hold)-mode(ELBO)-parts(1)-dyn(10)-lvm(25)-hold(3)/final-lines.txt","right":"bvh/pass-bottle-hold-training3-lines.txt","att_check":false},"trial_type":"html-keyboard-response","trial_index":26,"time_elapsed":79859,"internal_node_id":"0.0-8.0-3.4","subject":"moaacjl5j2texa3","sona":"9160"},{"rt":27218,"stimulus":"<p>Bereit?</p>","key_press":32,"trial_type":"html-keyboard-response","trial_index":27,"time_elapsed":107079,"internal_node_id":"0.0-8.0-0.5","subject":"moaacjl5j2texa3","sona":"9160"},{"rt":null,"stimulus":"<div style=\"font-size:60px;\">+</div>","key_press":null,"trial_type":"html-keyboard-response","trial_index":28,"time_elapsed":109098,"internal_node_id":"0.0-8.0-1.5","subject":"moaacjl5j2texa3","sona":"9160"},{"trial_type":"turing-test","trial_index":29,"time_elapsed":113024,"internal_node_id":"0.0-8.0-2.5","subject":"moaacjl5j2texa3","sona":"9160"},{"rt":548,"stimulus":"<p>Welche Sequenz haben Sie als natürlicher empfunden?</p>","key_press":74,"test_part":"response","test_stimulus":{"position":1,"left":"bvh/vr_prediction_models/model(dmp)-dataset(return-bottle-hold)-npsi(90)-hold(3)/final-lines.txt","right":"bvh/return-bottle-hold-training3-lines.txt","att_check":false},"trial_type":"html-keyboard-response","trial_index":30,"time_elapsed":113581,"internal_node_id":"0.0-8.0-3.5","subject":"moaacjl5j2texa3","sona":"9160"},{"rt":151,"stimulus":"<p>Bereit?</p>","key_press":32,"trial_type":"html-keyboard-response","trial_index":31,"time_elapsed":113741,"internal_node_id":"0.0-8.0-0.6","subject":"moaacjl5j2texa3","sona":"9160"},{"rt":null,"stimulus":"<div style=\"font-size:60px;\">+</div>","key_press":null,"trial_type":"html-keyboard-response","trial_index":32,"time_elapsed":115775,"internal_node_id":"0.0-8.0-1.6","subject":"moaacjl5j2texa3","sona":"9160"},{"trial_type":"turing-test","trial_index":33,"time_elapsed":121968,"internal_node_id":"0.0-8.0-2.6","subject":"moaacjl5j2texa3","sona":"9160"},{"rt":776,"stimulus":"<p>Welche Sequenz haben Sie als natürlicher empfunden?</p>","key_press":74,"test_part":"response","test_stimulus":{"position":1,"left":"bvh/vr_prediction_models/model(tmp)-dataset(pass-bottle)-numprim(13)-hold(3)/final-lines.txt","right":"bvh/pass-bottle-training3-lines.txt","att_check":false},"trial_type":"html-keyboard-response","trial_index":34,"time_elapsed":122750,"internal_node_id":"0.0-8.0-3.6","subject":"moaacjl5j2texa3","sona":"9160"},{"rt":153,"stimulus":"<p>Bereit?</p>","key_press":32,"trial_type":"html-keyboard-response","trial_index":35,"time_elapsed":122904,"internal_node_id":"0.0-8.0-0.7","subject":"moaacjl5j2texa3","sona":"9160"},{"rt":null,"stimulus":"<div style=\"font-size:60px;\">+</div>","key_press":null,"trial_type":"html-keyboard-response","trial_index":36,"time_elapsed":124925,"internal_node_id":"0.0-8.0-1.7","subject":"moaacjl5j2texa3","sona":"9160"},{"trial_type":"turing-test","trial_index":37,"time_elapsed":128680,"internal_node_id":"0.0-8.0-2.7","subject":"moaacjl5j2texa3","sona":"9160"},{"rt":353,"stimulus":"<p>Welche Sequenz haben Sie als natürlicher empfunden?</p>","key_press":70,"test_part":"response","test_stimulus":{"position":0,"left":"bvh/pass-bottle-hold-training3-lines.txt","right":"bvh/vr_prediction_models/model(tmp)-dataset(pass-bottle-hold)-numprim(4)-hold(3)/final-lines.txt","att_check":false},"trial_type":"html-keyboard-response","trial_index":38,"time_elapsed":129041,"internal_node_id":"0.0-8.0-3.7","subject":"moaacjl5j2texa3","sona":"9160"},{"rt":156,"stimulus":"<p>Bereit?</p>","key_press":32,"trial_type":"html-keyboard-response","trial_index":39,"time_elapsed":129204,"internal_node_id":"0.0-8.0-0.8","subject":"moaacjl5j2texa3","sona":"9160"},{"rt":null,"stimulus":"<div style=\"font-size:60px;\">+</div>","key_press":null,"trial_type":"html-keyboard-response","trial_index":40,"time_elapsed":131234,"internal_node_id":"0.0-8.0-1.8","subject":"moaacjl5j2texa3","sona":"9160"},{"trial_type":"turing-test","trial_index":41,"time_elapsed":137562,"internal_node_id":"0.0-8.0-2.8","subject":"moaacjl5j2texa3","sona":"9160"},{"rt":346,"stimulus":"<p>Welche Sequenz haben Sie als natürlicher empfunden?</p>","key_press":70,"test_part":"response","test_stimulus":{"position":0,"left":"bvh/return-bottle-training4-lines.txt","right":"bvh/vr_prediction_models/model(vcgpdm)-dataset(return-bottle)-mode(ELBO)-parts(3)-dyn(10)-lvm(10)-hold(4)/final-lines.txt","att_check":false},"trial_type":"html-keyboard-response","trial_index":42,"time_elapsed":137917,"internal_node_id":"0.0-8.0-3.8","subject":"moaacjl5j2texa3","sona":"9160"},{"rt":190,"stimulus":"<p>Bereit?</p>","key_press":32,"trial_type":"html-keyboard-response","trial_index":43,"time_elapsed":138115,"internal_node_id":"0.0-8.0-0.9","subject":"moaacjl5j2texa3","sona":"9160"},{"rt":null,"stimulus":"<div style=\"font-size:60px;\">+</div>","key_press":null,"trial_type":"html-keyboard-response","trial_index":44,"time_elapsed":140142,"internal_node_id":"0.0-8.0-1.9","subject":"moaacjl5j2texa3","sona":"9160"},{"trial_type":"turing-test","trial_index":45,"time_elapsed":144165,"internal_node_id":"0.0-8.0-2.9","subject":"moaacjl5j2texa3","sona":"9160"},{"rt":362,"stimulus":"<p>Welche Sequenz haben Sie als natürlicher empfunden?</p>","key_press":74,"test_part":"response","test_stimulus":{"position":1,"left":"bvh/vr_prediction_models/model(vcgpdm)-dataset(return-bottle-hold)-mode(ELBO)-parts(3)-dyn(20)-lvm(35)-hold(3)/final-lines.txt","right":"bvh/return-bottle-hold-training3-lines.txt","att_check":false},"trial_type":"html-keyboard-response","trial_index":46,"time_elapsed":144531,"internal_node_id":"0.0-8.0-3.9","subject":"moaacjl5j2texa3","sona":"9160"},{"rt":296,"stimulus":"<p>Bereit?</p>","key_press":32,"trial_type":"html-keyboard-response","trial_index":47,"time_elapsed":144835,"internal_node_id":"0.0-8.0-0.10","subject":"moaacjl5j2texa3","sona":"9160"},{"rt":null,"stimulus":"<div style=\"font-size:60px;\">+</div>","key_press":null,"trial_type":"html-keyboard-response","trial_index":48,"time_elapsed":146864,"internal_node_id":"0.0-8.0-1.10","subject":"moaacjl5j2texa3","sona":"9160"},{"trial_type":"turing-test","trial_index":49,"time_elapsed":150831,"internal_node_id":"0.0-8.0-2.10","subject":"moaacjl5j2texa3","sona":"9160"},{"rt":638,"stimulus":"<p>Welche Sequenz haben Sie als natürlicher empfunden?</p>","key_press":74,"test_part":"response","test_stimulus":{"position":1,"left":"bvh/vr_prediction_models/model(vcgpdm)-dataset(return-bottle-hold)-mode(ELBO)-parts(1)-dyn(25)-lvm(35)-hold(3)/final-lines.txt","right":"bvh/return-bottle-hold-training3-lines.txt","att_check":false},"trial_type":"html-keyboard-response","trial_index":50,"time_elapsed":151475,"internal_node_id":"0.0-8.0-3.10","subject":"moaacjl5j2texa3","sona":"9160"},{"rt":1345,"stimulus":"<p>Bereit?</p>","key_press":32,"trial_type":"html-keyboard-response","trial_index":51,"time_elapsed":152827,"internal_node_id":"0.0-8.0-0.11","subject":"moaacjl5j2texa3","sona":"9160"},{"rt":null,"stimulus":"<div style=\"font-size:60px;\">+</div>","key_press":null,"trial_type":"html-keyboard-response","trial_index":52,"time_elapsed":154860,"internal_node_id":"0.0-8.0-1.11","subject":"moaacjl5j2texa3","sona":"9160"},{"trial_type":"turing-test","trial_index":53,"time_elapsed":158568,"internal_node_id":"0.0-8.0-2.11","subject":"moaacjl5j2texa3","sona":"9160"},{"rt":1052,"stimulus":"<p>Welche Sequenz haben Sie als natürlicher empfunden?</p>","key_press":74,"test_part":"response","test_stimulus":{"position":1,"left":"bvh/vr_prediction_models/model(vcgpdm)-dataset(pass-bottle-hold)-mode(ELBO)-parts(1)-dyn(5)-lvm(5)-hold(0)/final-lines.txt","right":"bvh/pass-bottle-hold-training0-lines.txt","att_check":false},"trial_type":"html-keyboard-response","trial_index":54,"time_elapsed":159627,"internal_node_id":"0.0-8.0-3.11","subject":"moaacjl5j2texa3","sona":"9160"},{"rt":285,"stimulus":"<p>Bereit?</p>","key_press":32,"trial_type":"html-keyboard-response","trial_index":55,"time_elapsed":159919,"internal_node_id":"0.0-8.0-0.12","subject":"moaacjl5j2texa3","sona":"9160"},{"rt":null,"stimulus":"<div style=\"font-size:60px;\">+</div>","key_press":null,"trial_type":"html-keyboard-response","trial_index":56,"time_elapsed":161948,"internal_node_id":"0.0-8.0-1.12","subject":"moaacjl5j2texa3","sona":"9160"},{"trial_type":"turing-test","trial_index":57,"time_elapsed":165433,"internal_node_id":"0.0-8.0-2.12","subject":"moaacjl5j2texa3","sona":"9160"},{"rt":1021,"stimulus":"<p>Welche Sequenz haben Sie als natürlicher empfunden?</p>","key_press":70,"test_part":"response","test_stimulus":{"position":1,"left":"bvh/vr_prediction_models/model(tmp)-dataset(pass-bottle-hold)-numprim(14)-hold(0)/final-lines.txt","right":"bvh/pass-bottle-hold-training0-lines.txt","att_check":false},"trial_type":"html-keyboard-response","trial_index":58,"time_elapsed":166463,"internal_node_id":"0.0-8.0-3.12","subject":"moaacjl5j2texa3","sona":"9160"},{"rt":233,"stimulus":"<p>Bereit?</p>","key_press":32,"trial_type":"html-keyboard-response","trial_index":59,"time_elapsed":166702,"internal_node_id":"0.0-8.0-0.13","subject":"moaacjl5j2texa3","sona":"9160"},{"rt":null,"stimulus":"<div style=\"font-size:60px;\">+</div>","key_press":null,"trial_type":"html-keyboard-response","trial_index":60,"time_elapsed":168725,"internal_node_id":"0.0-8.0-1.13","subject":"moaacjl5j2texa3","sona":"9160"},{"trial_type":"turing-test","trial_index":61,"time_elapsed":174705,"internal_node_id":"0.0-8.0-2.13","subject":"moaacjl5j2texa3","sona":"9160"},{"rt":264,"stimulus":"<p>Welche Sequenz haben Sie als natürlicher empfunden?</p>","key_press":74,"test_part":"response","test_stimulus":{"position":1,"left":"bvh/vr_prediction_models/model(dmp)-dataset(pass-bottle)-npsi(70)-hold(3)/final-lines.txt","right":"bvh/pass-bottle-training3-lines.txt","att_check":true},"trial_type":"html-keyboard-response","trial_index":62,"time_elapsed":174976,"internal_node_id":"0.0-8.0-3.13","subject":"moaacjl5j2texa3","sona":"9160"},{"rt":332,"stimulus":"<p>Bereit?</p>","key_press":32,"trial_type":"html-keyboard-response","trial_index":63,"time_elapsed":175312,"internal_node_id":"0.0-8.0-0.14","subject":"moaacjl5j2texa3","sona":"9160"},{"rt":null,"stimulus":"<div style=\"font-size:60px;\">+</div>","key_press":null,"trial_type":"html-keyboard-response","trial_index":64,"time_elapsed":177335,"internal_node_id":"0.0-8.0-1.14","subject":"moaacjl5j2texa3","sona":"9160"},{"trial_type":"turing-test","trial_index":65,"time_elapsed":181024,"internal_node_id":"0.0-8.0-2.14","subject":"moaacjl5j2texa3","sona":"9160"},{"rt":493,"stimulus":"<p>Welche Sequenz haben Sie als natürlicher empfunden?</p>","key_press":70,"test_part":"response","test_stimulus":{"position":1,"left":"bvh/vr_prediction_models/model(dmp)-dataset(pass-bottle-hold)-npsi(90)-hold(2)/final-lines.txt","right":"bvh/pass-bottle-hold-training2-lines.txt","att_check":false},"trial_type":"html-keyboard-response","trial_index":66,"time_elapsed":181524,"internal_node_id":"0.0-8.0-3.14","subject":"moaacjl5j2texa3","sona":"9160"},{"rt":322,"stimulus":"<p>Bereit?</p>","key_press":32,"trial_type":"html-keyboard-response","trial_index":67,"time_elapsed":181853,"internal_node_id":"0.0-8.0-0.15","subject":"moaacjl5j2texa3","sona":"9160"},{"rt":null,"stimulus":"<div style=\"font-size:60px;\">+</div>","key_press":null,"trial_type":"html-keyboard-response","trial_index":68,"time_elapsed":183871,"internal_node_id":"0.0-8.0-1.15","subject":"moaacjl5j2texa3","sona":"9160"},{"trial_type":"turing-test","trial_index":69,"time_elapsed":187153,"internal_node_id":"0.0-8.0-2.15","subject":"moaacjl5j2texa3","sona":"9160"},{"rt":1267,"stimulus":"<p>Welche Sequenz haben Sie als natürlicher empfunden?</p>","key_press":74,"test_part":"response","test_stimulus":{"position":0,"left":"bvh/pass-bottle-hold-training2-lines.txt","right":"bvh/vr_prediction_models/model(dmp)-dataset(pass-bottle-hold)-npsi(90)-hold(2)/final-lines.txt","att_check":false},"trial_type":"html-keyboard-response","trial_index":70,"time_elapsed":188426,"internal_node_id":"0.0-8.0-3.15","subject":"moaacjl5j2texa3","sona":"9160"},{"rt":227,"stimulus":"<p>Bereit?</p>","key_press":32,"trial_type":"html-keyboard-response","trial_index":71,"time_elapsed":188659,"internal_node_id":"0.0-8.0-0.16","subject":"moaacjl5j2texa3","sona":"9160"},{"rt":null,"stimulus":"<div style=\"font-size:60px;\">+</div>","key_press":null,"trial_type":"html-keyboard-response","trial_index":72,"time_elapsed":190678,"internal_node_id":"0.0-8.0-1.16","subject":"moaacjl5j2texa3","sona":"9160"},{"trial_type":"turing-test","trial_index":73,"time_elapsed":196319,"internal_node_id":"0.0-8.0-2.16","subject":"moaacjl5j2texa3","sona":"9160"},{"rt":3,"stimulus":"<p>Welche Sequenz haben Sie als natürlicher empfunden?</p>","key_press":74,"test_part":"response","test_stimulus":{"position":1,"left":"bvh/vr_prediction_models/model(dmp)-dataset(return-bottle)-npsi(60)-hold(0)/final-lines.txt","right":"bvh/return-bottle-training0-lines.txt","att_check":false},"trial_type":"html-keyboard-response","trial_index":74,"time_elapsed":196329,"internal_node_id":"0.0-8.0-3.16","subject":"moaacjl5j2texa3","sona":"9160"},{"rt":327,"stimulus":"<p>Bereit?</p>","key_press":32,"trial_type":"html-keyboard-response","trial_index":75,"time_elapsed":196666,"internal_node_id":"0.0-8.0-0.17","subject":"moaacjl5j2texa3","sona":"9160"},{"rt":null,"stimulus":"<div style=\"font-size:60px;\">+</div>","key_press":null,"trial_type":"html-keyboard-response","trial_index":76,"time_elapsed":198700,"internal_node_id":"0.0-8.0-1.17","subject":"moaacjl5j2texa3","sona":"9160"},{"trial_type":"turing-test","trial_index":77,"time_elapsed":202382,"internal_node_id":"0.0-8.0-2.17","subject":"moaacjl5j2texa3","sona":"9160"},{"rt":769,"stimulus":"<p>Welche Sequenz haben Sie als natürlicher empfunden?</p>","key_press":70,"test_part":"response","test_stimulus":{"position":0,"left":"bvh/pass-bottle-hold-training0-lines.txt","right":"bvh/vr_prediction_models/model(vcgpdm)-dataset(pass-bottle-hold)-mode(ELBO)-parts(3)-dyn(30)-lvm(15)-hold(0)/final-lines.txt","att_check":false},"trial_type":"html-keyboard-response","trial_index":78,"time_elapsed":203158,"internal_node_id":"0.0-8.0-3.17","subject":"moaacjl5j2texa3","sona":"9160"},{"rt":200,"stimulus":"<p>Bereit?</p>","key_press":32,"trial_type":"html-keyboard-response","trial_index":79,"time_elapsed":203362,"internal_node_id":"0.0-8.0-0.18","subject":"moaacjl5j2texa3","sona":"9160"},{"rt":null,"stimulus":"<div style=\"font-size:60px;\">+</div>","key_press":null,"trial_type":"html-keyboard-response","trial_index":80,"time_elapsed":205393,"internal_node_id":"0.0-8.0-1.18","subject":"moaacjl5j2texa3","sona":"9160"},{"trial_type":"turing-test","trial_index":81,"time_elapsed":208893,"internal_node_id":"0.0-8.0-2.18","subject":"moaacjl5j2texa3","sona":"9160"},{"rt":1090,"stimulus":"<p>Welche Sequenz haben Sie als natürlicher empfunden?</p>","key_press":70,"test_part":"response","test_stimulus":{"position":1,"left":"bvh/vr_prediction_models/model(dmp)-dataset(pass-bottle-hold)-npsi(100)-hold(2)/final-lines.txt","right":"bvh/pass-bottle-hold-training2-lines.txt","att_check":false},"trial_type":"html-keyboard-response","trial_index":82,"time_elapsed":209989,"internal_node_id":"0.0-8.0-3.18","subject":"moaacjl5j2texa3","sona":"9160"},{"rt":175,"stimulus":"<p>Bereit?</p>","key_press":32,"trial_type":"html-keyboard-response","trial_index":83,"time_elapsed":210168,"internal_node_id":"0.0-8.0-0.19","subject":"moaacjl5j2texa3","sona":"9160"},{"rt":null,"stimulus":"<div style=\"font-size:60px;\">+</div>","key_press":null,"trial_type":"html-keyboard-response","trial_index":84,"time_elapsed":212191,"internal_node_id":"0.0-8.0-1.19","subject":"moaacjl5j2texa3","sona":"9160"},{"trial_type":"turing-test","trial_index":85,"time_elapsed":215614,"internal_node_id":"0.0-8.0-2.19","subject":"moaacjl5j2texa3","sona":"9160"},{"rt":876,"stimulus":"<p>Welche Sequenz haben Sie als natürlicher empfunden?</p>","key_press":70,"test_part":"response","test_stimulus":{"position":0,"left":"bvh/pass-bottle-hold-training2-lines.txt","right":"bvh/vr_prediction_models/model(tmp)-dataset(pass-bottle-hold)-numprim(14)-hold(2)/final-lines.txt","att_check":false},"trial_type":"html-keyboard-response","trial_index":86,"time_elapsed":216498,"internal_node_id":"0.0-8.0-3.19","subject":"moaacjl5j2texa3","sona":"9160"},{"rt":196,"stimulus":"<p>Bereit?</p>","key_press":32,"trial_type":"html-keyboard-response","trial_index":87,"time_elapsed":216701,"internal_node_id":"0.0-8.0-0.20","subject":"moaacjl5j2texa3","sona":"9160"},{"rt":null,"stimulus":"<div style=\"font-size:60px;\">+</div>","key_press":null,"trial_type":"html-keyboard-response","trial_index":88,"time_elapsed":218733,"internal_node_id":"0.0-8.0-1.20","subject":"moaacjl5j2texa3","sona":"9160"},{"trial_type":"turing-test","trial_index":89,"time_elapsed":225756,"internal_node_id":"0.0-8.0-2.20","subject":"moaacjl5j2texa3","sona":"9160"},{"rt":258,"stimulus":"<p>Welche Sequenz haben Sie als natürlicher empfunden?</p>","key_press":74,"test_part":"response","test_stimulus":{"position":1,"left":"bvh/vr_prediction_models/model(vcgpdm)-dataset(return-bottle)-mode(ELBO)-parts(3)-dyn(20)-lvm(20)-hold(2)/final-lines.txt","right":"bvh/return-bottle-training2-lines.txt","att_check":false},"trial_type":"html-keyboard-response","trial_index":90,"time_elapsed":226022,"internal_node_id":"0.0-8.0-3.20","subject":"moaacjl5j2texa3","sona":"9160"},{"rt":2932,"stimulus":"<p>Bereit?</p>","key_press":32,"trial_type":"html-keyboard-response","trial_index":91,"time_elapsed":228962,"internal_node_id":"0.0-8.0-0.21","subject":"moaacjl5j2texa3","sona":"9160"},{"rt":null,"stimulus":"<div style=\"font-size:60px;\">+</div>","key_press":null,"trial_type":"html-keyboard-response","trial_index":92,"time_elapsed":230982,"internal_node_id":"0.0-8.0-1.21","subject":"moaacjl5j2texa3","sona":"9160"},{"trial_type":"turing-test","trial_index":93,"time_elapsed":234784,"internal_node_id":"0.0-8.0-2.21","subject":"moaacjl5j2texa3","sona":"9160"},{"rt":805,"stimulus":"<p>Welche Sequenz haben Sie als natürlicher empfunden?</p>","key_press":70,"test_part":"response","test_stimulus":{"position":0,"left":"bvh/pass-bottle-hold-training1-lines.txt","right":"bvh/vr_prediction_models/model(tmp)-dataset(pass-bottle-hold)-numprim(5)-hold(1)/final-lines.txt","att_check":false},"trial_type":"html-keyboard-response","trial_index":94,"time_elapsed":235593,"internal_node_id":"0.0-8.0-3.21","subject":"moaacjl5j2texa3","sona":"9160"},{"rt":485,"stimulus":"<p>Bereit?</p>","key_press":32,"trial_type":"html-keyboard-response","trial_index":95,"time_elapsed":236087,"internal_node_id":"0.0-8.0-0.22","subject":"moaacjl5j2texa3","sona":"9160"},{"rt":null,"stimulus":"<div style=\"font-size:60px;\">+</div>","key_press":null,"trial_type":"html-keyboard-response","trial_index":96,"time_elapsed":238115,"internal_node_id":"0.0-8.0-1.22","subject":"moaacjl5j2texa3","sona":"9160"},{"trial_type":"turing-test","trial_index":97,"time_elapsed":241837,"internal_node_id":"0.0-8.0-2.22","subject":"moaacjl5j2texa3","sona":"9160"},{"rt":2315,"stimulus":"<p>Welche Sequenz haben Sie als natürlicher empfunden?</p>","key_press":70,"test_part":"response","test_stimulus":{"position":1,"left":"bvh/vr_prediction_models/model(vcgpdm)-dataset(pass-bottle-hold)-mode(ELBO)-parts(3)-dyn(15)-lvm(30)-hold(2)/final-lines.txt","right":"bvh/pass-bottle-hold-training2-lines.txt","att_check":false},"trial_type":"html-keyboard-response","trial_index":98,"time_elapsed":244161,"internal_node_id":"0.0-8.0-3.22","subject":"moaacjl5j2texa3","sona":"9160"},{"rt":204,"stimulus":"<p>Bereit?</p>","key_press":32,"trial_type":"html-keyboard-response","trial_index":99,"time_elapsed":244376,"internal_node_id":"0.0-8.0-0.23","subject":"moaacjl5j2texa3","sona":"9160"},{"rt":null,"stimulus":"<div style=\"font-size:60px;\">+</div>","key_press":null,"trial_type":"html-keyboard-response","trial_index":100,"time_elapsed":246416,"internal_node_id":"0.0-8.0-1.23","subject":"moaacjl5j2texa3","sona":"9160"},{"trial_type":"turing-test","trial_index":101,"time_elapsed":250177,"internal_node_id":"0.0-8.0-2.23","subject":"moaacjl5j2texa3","sona":"9160"},{"rt":2060,"stimulus":"<p>Welche Sequenz haben Sie als natürlicher empfunden?</p>","key_press":74,"test_part":"response","test_stimulus":{"position":1,"left":"bvh/vr_prediction_models/model(vcgpdm)-dataset(pass-bottle-hold)-mode(ELBO)-parts(3)-dyn(20)-lvm(15)-hold(2)/final-lines.txt","right":"bvh/pass-bottle-hold-training2-lines.txt","att_check":false},"trial_type":"html-keyboard-response","trial_index":102,"time_elapsed":252243,"internal_node_id":"0.0-8.0-3.23","subject":"moaacjl5j2texa3","sona":"9160"},{"rt":367,"stimulus":"<p>Bereit?</p>","key_press":32,"trial_type":"html-keyboard-response","trial_index":103,"time_elapsed":252618,"internal_node_id":"0.0-8.0-0.24","subject":"moaacjl5j2texa3","sona":"9160"},{"rt":null,"stimulus":"<div style=\"font-size:60px;\">+</div>","key_press":null,"trial_type":"html-keyboard-response","trial_index":104,"time_elapsed":254627,"internal_node_id":"0.0-8.0-1.24","subject":"moaacjl5j2texa3","sona":"9160"},{"trial_type":"turing-test","trial_index":105,"time_elapsed":260841,"internal_node_id":"0.0-8.0-2.24","subject":"moaacjl5j2texa3","sona":"9160"},{"rt":258,"stimulus":"<p>Welche Sequenz haben Sie als natürlicher empfunden?</p>","key_press":74,"test_part":"response","test_stimulus":{"position":1,"left":"bvh/vr_prediction_models/model(vcgpdm)-dataset(pass-bottle)-mode(ELBO)-parts(3)-dyn(35)-lvm(20)-hold(3)/final-lines.txt","right":"bvh/pass-bottle-training3-lines.txt","att_check":false},"trial_type":"html-keyboard-response","trial_index":106,"time_elapsed":261111,"internal_node_id":"0.0-8.0-3.24","subject":"moaacjl5j2texa3","sona":"9160"},{"rt":257,"stimulus":"<p>Bereit?</p>","key_press":32,"trial_type":"html-keyboard-response","trial_index":107,"time_elapsed":261376,"internal_node_id":"0.0-8.0-0.25","subject":"moaacjl5j2texa3","sona":"9160"},{"rt":null,"stimulus":"<div style=\"font-size:60px;\">+</div>","key_press":null,"trial_type":"html-keyboard-response","trial_index":108,"time_elapsed":263411,"internal_node_id":"0.0-8.0-1.25","subject":"moaacjl5j2texa3","sona":"9160"},{"trial_type":"turing-test","trial_index":109,"time_elapsed":266816,"internal_node_id":"0.0-8.0-2.25","subject":"moaacjl5j2texa3","sona":"9160"},{"rt":581,"stimulus":"<p>Welche Sequenz haben Sie als natürlicher empfunden?</p>","key_press":70,"test_part":"response","test_stimulus":{"position":1,"left":"bvh/vr_prediction_models/model(tmp)-dataset(pass-bottle-hold)-numprim(6)-hold(1)/final-lines.txt","right":"bvh/pass-bottle-hold-training1-lines.txt","att_check":false},"trial_type":"html-keyboard-response","trial_index":110,"time_elapsed":267408,"internal_node_id":"0.0-8.0-3.25","subject":"moaacjl5j2texa3","sona":"9160"},{"rt":290,"stimulus":"<p>Bereit?</p>","key_press":32,"trial_type":"html-keyboard-response","trial_index":111,"time_elapsed":267708,"internal_node_id":"0.0-8.0-0.26","subject":"moaacjl5j2texa3","sona":"9160"},{"rt":null,"stimulus":"<div style=\"font-size:60px;\">+</div>","key_press":null,"trial_type":"html-keyboard-response","trial_index":112,"time_elapsed":269746,"internal_node_id":"0.0-8.0-1.26","subject":"moaacjl5j2texa3","sona":"9160"},{"trial_type":"turing-test","trial_index":113,"time_elapsed":273445,"internal_node_id":"0.0-8.0-2.26","subject":"moaacjl5j2texa3","sona":"9160"},{"rt":3047,"stimulus":"<p>Welche Sequenz haben Sie als natürlicher empfunden?</p>","key_press":74,"test_part":"response","test_stimulus":{"position":1,"left":"bvh/vr_prediction_models/model(vcgpdm)-dataset(pass-bottle-hold)-mode(ELBO)-parts(1)-dyn(30)-lvm(30)-hold(2)/final-lines.txt","right":"bvh/pass-bottle-hold-training2-lines.txt","att_check":false},"trial_type":"html-keyboard-response","trial_index":114,"time_elapsed":276501,"internal_node_id":"0.0-8.0-3.26","subject":"moaacjl5j2texa3","sona":"9160"},{"rt":239,"stimulus":"<p>Bereit?</p>","key_press":32,"trial_type":"html-keyboard-response","trial_index":115,"time_elapsed":276751,"internal_node_id":"0.0-8.0-0.27","subject":"moaacjl5j2texa3","sona":"9160"},{"rt":null,"stimulus":"<div style=\"font-size:60px;\">+</div>","key_press":null,"trial_type":"html-keyboard-response","trial_index":116,"time_elapsed":278765,"internal_node_id":"0.0-8.0-1.27","subject":"moaacjl5j2texa3","sona":"9160"},{"trial_type":"turing-test","trial_index":117,"time_elapsed":282724,"internal_node_id":"0.0-8.0-2.27","subject":"moaacjl5j2texa3","sona":"9160"},{"rt":303,"stimulus":"<p>Welche Sequenz haben Sie als natürlicher empfunden?</p>","key_press":70,"test_part":"response","test_stimulus":{"position":0,"left":"bvh/return-bottle-hold-training4-lines.txt","right":"bvh/vr_prediction_models/model(tmp)-dataset(return-bottle-hold)-numprim(6)-hold(4)/final-lines.txt","att_check":false},"trial_type":"html-keyboard-response","trial_index":118,"time_elapsed":283036,"internal_node_id":"0.0-8.0-3.27","subject":"moaacjl5j2texa3","sona":"9160"},{"rt":264,"stimulus":"<p>Bereit?</p>","key_press":32,"trial_type":"html-keyboard-response","trial_index":119,"time_elapsed":283313,"internal_node_id":"0.0-8.0-0.28","subject":"moaacjl5j2texa3","sona":"9160"},{"rt":null,"stimulus":"<div style=\"font-size:60px;\">+</div>","key_press":null,"trial_type":"html-keyboard-response","trial_index":120,"time_elapsed":285324,"internal_node_id":"0.0-8.0-1.28","subject":"moaacjl5j2texa3","sona":"9160"},{"trial_type":"turing-test","trial_index":121,"time_elapsed":291376,"internal_node_id":"0.0-8.0-2.28","subject":"moaacjl5j2texa3","sona":"9160"},{"rt":286,"stimulus":"<p>Welche Sequenz haben Sie als natürlicher empfunden?</p>","key_press":70,"test_part":"response","test_stimulus":{"position":0,"left":"bvh/return-bottle-training4-lines.txt","right":"bvh/vr_prediction_models/model(vcgpdm)-dataset(return-bottle)-mode(ELBO)-parts(1)-dyn(20)-lvm(20)-hold(4)/final-lines.txt","att_check":false},"trial_type":"html-keyboard-response","trial_index":122,"time_elapsed":291673,"internal_node_id":"0.0-8.0-3.28","subject":"moaacjl5j2texa3","sona":"9160"},{"rt":239,"stimulus":"<p>Bereit?</p>","key_press":32,"trial_type":"html-keyboard-response","trial_index":123,"time_elapsed":291922,"internal_node_id":"0.0-8.0-0.29","subject":"moaacjl5j2texa3","sona":"9160"},{"rt":null,"stimulus":"<div style=\"font-size:60px;\">+</div>","key_press":null,"trial_type":"html-keyboard-response","trial_index":124,"time_elapsed":293942,"internal_node_id":"0.0-8.0-1.29","subject":"moaacjl5j2texa3","sona":"9160"},{"trial_type":"turing-test","trial_index":125,"time_elapsed":297419,"internal_node_id":"0.0-8.0-2.29","subject":"moaacjl5j2texa3","sona":"9160"},{"rt":426,"stimulus":"<p>Welche Sequenz haben Sie als natürlicher empfunden?</p>","key_press":70,"test_part":"response","test_stimulus":{"position":0,"left":"bvh/return-bottle-hold-training1-lines.txt","right":"bvh/vr_prediction_models/model(dmp)-dataset(return-bottle-hold)-npsi(80)-hold(1)/final-lines.txt","att_check":false},"trial_type":"html-keyboard-response","trial_index":126,"time_elapsed":297856,"internal_node_id":"0.0-8.0-3.29","subject":"moaacjl5j2texa3","sona":"9160"},{"rt":298,"stimulus":"<p>Bereit?</p>","key_press":32,"trial_type":"html-keyboard-response","trial_index":127,"time_elapsed":298164,"internal_node_id":"0.0-8.0-0.30","subject":"moaacjl5j2texa3","sona":"9160"},{"rt":null,"stimulus":"<div style=\"font-size:60px;\">+</div>","key_press":null,"trial_type":"html-keyboard-response","trial_index":128,"time_elapsed":300189,"internal_node_id":"0.0-8.0-1.30","subject":"moaacjl5j2texa3","sona":"9160"},{"trial_type":"turing-test","trial_index":129,"time_elapsed":306085,"internal_node_id":"0.0-8.0-2.30","subject":"moaacjl5j2texa3","sona":"9160"},{"rt":319,"stimulus":"<p>Welche Sequenz haben Sie als natürlicher empfunden?</p>","key_press":70,"test_part":"response","test_stimulus":{"position":0,"left":"bvh/pass-bottle-training3-lines.txt","right":"bvh/vr_prediction_models/model(tmp)-dataset(pass-bottle)-numprim(11)-hold(3)/final-lines.txt","att_check":false},"trial_type":"html-keyboard-response","trial_index":130,"time_elapsed":306417,"internal_node_id":"0.0-8.0-3.30","subject":"moaacjl5j2texa3","sona":"9160"},{"rt":263,"stimulus":"<p>Bereit?</p>","key_press":32,"trial_type":"html-keyboard-response","trial_index":131,"time_elapsed":306689,"internal_node_id":"0.0-8.0-0.31","subject":"moaacjl5j2texa3","sona":"9160"},{"rt":null,"stimulus":"<div style=\"font-size:60px;\">+</div>","key_press":null,"trial_type":"html-keyboard-response","trial_index":132,"time_elapsed":308714,"internal_node_id":"0.0-8.0-1.31","subject":"moaacjl5j2texa3","sona":"9160"},{"trial_type":"turing-test","trial_index":133,"time_elapsed":315298,"internal_node_id":"0.0-8.0-2.31","subject":"moaacjl5j2texa3","sona":"9160"},{"rt":275,"stimulus":"<p>Welche Sequenz haben Sie als natürlicher empfunden?</p>","key_press":70,"test_part":"response","test_stimulus":{"position":0,"left":"bvh/pass-bottle-training2-lines.txt","right":"bvh/vr_prediction_models/model(vcgpdm)-dataset(pass-bottle)-mode(ELBO)-parts(1)-dyn(20)-lvm(20)-hold(2)/final-lines.txt","att_check":false},"trial_type":"html-keyboard-response","trial_index":134,"time_elapsed":315581,"internal_node_id":"0.0-8.0-3.31","subject":"moaacjl5j2texa3","sona":"9160"},{"rt":277,"stimulus":"<p>Bereit?</p>","key_press":32,"trial_type":"html-keyboard-response","trial_index":135,"time_elapsed":315865,"internal_node_id":"0.0-8.0-0.32","subject":"moaacjl5j2texa3","sona":"9160"},{"rt":null,"stimulus":"<div style=\"font-size:60px;\">+</div>","key_press":null,"trial_type":"html-keyboard-response","trial_index":136,"time_elapsed":317887,"internal_node_id":"0.0-8.0-1.32","subject":"moaacjl5j2texa3","sona":"9160"},{"trial_type":"turing-test","trial_index":137,"time_elapsed":323813,"internal_node_id":"0.0-8.0-2.32","subject":"moaacjl5j2texa3","sona":"9160"},{"rt":251,"stimulus":"<p>Welche Sequenz haben Sie als natürlicher empfunden?</p>","key_press":70,"test_part":"response","test_stimulus":{"position":0,"left":"bvh/return-bottle-training4-lines.txt","right":"bvh/vr_prediction_models/model(dmp)-dataset(return-bottle)-npsi(20)-hold(4)/final-lines.txt","att_check":false},"trial_type":"html-keyboard-response","trial_index":138,"time_elapsed":324070,"internal_node_id":"0.0-8.0-3.32","subject":"moaacjl5j2texa3","sona":"9160"},{"rt":183,"stimulus":"<p>Bereit?</p>","key_press":32,"trial_type":"html-keyboard-response","trial_index":139,"time_elapsed":324263,"internal_node_id":"0.0-8.0-0.33","subject":"moaacjl5j2texa3","sona":"9160"},{"rt":null,"stimulus":"<div style=\"font-size:60px;\">+</div>","key_press":null,"trial_type":"html-keyboard-response","trial_index":140,"time_elapsed":326294,"internal_node_id":"0.0-8.0-1.33","subject":"moaacjl5j2texa3","sona":"9160"},{"trial_type":"turing-test","trial_index":141,"time_elapsed":332016,"internal_node_id":"0.0-8.0-2.33","subject":"moaacjl5j2texa3","sona":"9160"},{"rt":267,"stimulus":"<p>Welche Sequenz haben Sie als natürlicher empfunden?</p>","key_press":70,"test_part":"response","test_stimulus":{"position":0,"left":"bvh/pass-bottle-training1-lines.txt","right":"bvh/vr_prediction_models/model(tmp)-dataset(pass-bottle)-numprim(9)-hold(1)/final-lines.txt","att_check":false},"trial_type":"html-keyboard-response","trial_index":142,"time_elapsed":332294,"internal_node_id":"0.0-8.0-3.33","subject":"moaacjl5j2texa3","sona":"9160"},{"rt":289,"stimulus":"<p>Bereit?</p>","key_press":32,"trial_type":"html-keyboard-response","trial_index":143,"time_elapsed":332591,"internal_node_id":"0.0-8.0-0.34","subject":"moaacjl5j2texa3","sona":"9160"},{"rt":null,"stimulus":"<div style=\"font-size:60px;\">+</div>","key_press":null,"trial_type":"html-keyboard-response","trial_index":144,"time_elapsed":334616,"internal_node_id":"0.0-8.0-1.34","subject":"moaacjl5j2texa3","sona":"9160"},{"trial_type":"turing-test","trial_index":145,"time_elapsed":340273,"internal_node_id":"0.0-8.0-2.34","subject":"moaacjl5j2texa3","sona":"9160"},{"rt":1078,"stimulus":"<p>Welche Sequenz haben Sie als natürlicher empfunden?</p>","key_press":70,"test_part":"response","test_stimulus":{"position":0,"left":"bvh/return-bottle-hold-training0-lines.txt","right":"bvh/vr_prediction_models/model(vcgpdm)-dataset(return-bottle-hold)-mode(ELBO)-parts(1)-dyn(35)-lvm(30)-hold(0)/final-lines.txt","att_check":false},"trial_type":"html-keyboard-response","trial_index":146,"time_elapsed":341360,"internal_node_id":"0.0-8.0-3.34","subject":"moaacjl5j2texa3","sona":"9160"},{"rt":231,"stimulus":"<p>Bereit?</p>","key_press":32,"trial_type":"html-keyboard-response","trial_index":147,"time_elapsed":341600,"internal_node_id":"0.0-8.0-0.35","subject":"moaacjl5j2texa3","sona":"9160"},{"rt":null,"stimulus":"<div style=\"font-size:60px;\">+</div>","key_press":null,"trial_type":"html-keyboard-response","trial_index":148,"time_elapsed":343623,"internal_node_id":"0.0-8.0-1.35","subject":"moaacjl5j2texa3","sona":"9160"},{"trial_type":"turing-test","trial_index":149,"time_elapsed":347520,"internal_node_id":"0.0-8.0-2.35","subject":"moaacjl5j2texa3","sona":"9160"},{"rt":237,"stimulus":"<p>Welche Sequenz haben Sie als natürlicher empfunden?</p>","key_press":74,"test_part":"response","test_stimulus":{"position":1,"left":"bvh/vr_prediction_models/model(tmp)-dataset(pass-bottle-hold)-numprim(11)-hold(4)/final-lines.txt","right":"bvh/pass-bottle-hold-training4-lines.txt","att_check":false},"trial_type":"html-keyboard-response","trial_index":150,"time_elapsed":347765,"internal_node_id":"0.0-8.0-3.35","subject":"moaacjl5j2texa3","sona":"9160"},{"rt":228,"stimulus":"<p>Bereit?</p>","key_press":32,"trial_type":"html-keyboard-response","trial_index":151,"time_elapsed":348003,"internal_node_id":"0.0-8.0-0.36","subject":"moaacjl5j2texa3","sona":"9160"},{"rt":null,"stimulus":"<div style=\"font-size:60px;\">+</div>","key_press":null,"trial_type":"html-keyboard-response","trial_index":152,"time_elapsed":350020,"internal_node_id":"0.0-8.0-1.36","subject":"moaacjl5j2texa3","sona":"9160"},{"trial_type":"turing-test","trial_index":153,"time_elapsed":356482,"internal_node_id":"0.0-8.0-2.36","subject":"moaacjl5j2texa3","sona":"9160"},{"rt":264,"stimulus":"<p>Welche Sequenz haben Sie als natürlicher empfunden?</p>","key_press":74,"test_part":"response","test_stimulus":{"position":1,"left":"bvh/vr_prediction_models/model(vcgpdm)-dataset(return-bottle)-mode(ELBO)-parts(3)-dyn(10)-lvm(10)-hold(1)/final-lines.txt","right":"bvh/return-bottle-training1-lines.txt","att_check":false},"trial_type":"html-keyboard-response","trial_index":154,"time_elapsed":356757,"internal_node_id":"0.0-8.0-3.36","subject":"moaacjl5j2texa3","sona":"9160"},{"rt":183,"stimulus":"<p>Bereit?</p>","key_press":32,"trial_type":"html-keyboard-response","trial_index":155,"time_elapsed":356951,"internal_node_id":"0.0-8.0-0.37","subject":"moaacjl5j2texa3","sona":"9160"},{"rt":null,"stimulus":"<div style=\"font-size:60px;\">+</div>","key_press":null,"trial_type":"html-keyboard-response","trial_index":156,"time_elapsed":358982,"internal_node_id":"0.0-8.0-1.37","subject":"moaacjl5j2texa3","sona":"9160"},{"trial_type":"turing-test","trial_index":157,"time_elapsed":362341,"internal_node_id":"0.0-8.0-2.37","subject":"moaacjl5j2texa3","sona":"9160"},{"rt":497,"stimulus":"<p>Welche Sequenz haben Sie als natürlicher empfunden?</p>","key_press":70,"test_part":"response","test_stimulus":{"position":1,"left":"bvh/vr_prediction_models/model(tmp)-dataset(return-bottle-hold)-numprim(3)-hold(1)/final-lines.txt","right":"bvh/return-bottle-hold-training1-lines.txt","att_check":false},"trial_type":"html-keyboard-response","trial_index":158,"time_elapsed":362843,"internal_node_id":"0.0-8.0-3.37","subject":"moaacjl5j2texa3","sona":"9160"},{"rt":277,"stimulus":"<p>Bereit?</p>","key_press":32,"trial_type":"html-keyboard-response","trial_index":159,"time_elapsed":363125,"internal_node_id":"0.0-8.0-0.38","subject":"moaacjl5j2texa3","sona":"9160"},{"rt":null,"stimulus":"<div style=\"font-size:60px;\">+</div>","key_press":null,"trial_type":"html-keyboard-response","trial_index":160,"time_elapsed":365159,"internal_node_id":"0.0-8.0-1.38","subject":"moaacjl5j2texa3","sona":"9160"},{"trial_type":"turing-test","trial_index":161,"time_elapsed":370406,"internal_node_id":"0.0-8.0-2.38","subject":"moaacjl5j2texa3","sona":"9160"},{"rt":410,"stimulus":"<p>Welche Sequenz haben Sie als natürlicher empfunden?</p>","key_press":74,"test_part":"response","test_stimulus":{"position":1,"left":"bvh/vr_prediction_models/model(tmp)-dataset(return-bottle-hold)-numprim(3)-hold(0)/final-lines.txt","right":"bvh/return-bottle-hold-training0-lines.txt","att_check":false},"trial_type":"html-keyboard-response","trial_index":162,"time_elapsed":370824,"internal_node_id":"0.0-8.0-3.38","subject":"moaacjl5j2texa3","sona":"9160"},{"rt":174,"stimulus":"<p>Bereit?</p>","key_press":32,"trial_type":"html-keyboard-response","trial_index":163,"time_elapsed":371007,"internal_node_id":"0.0-8.0-0.39","subject":"moaacjl5j2texa3","sona":"9160"},{"rt":null,"stimulus":"<div style=\"font-size:60px;\">+</div>","key_press":null,"trial_type":"html-keyboard-response","trial_index":164,"time_elapsed":373035,"internal_node_id":"0.0-8.0-1.39","subject":"moaacjl5j2texa3","sona":"9160"},{"trial_type":"turing-test","trial_index":165,"time_elapsed":376469,"internal_node_id":"0.0-8.0-2.39","subject":"moaacjl5j2texa3","sona":"9160"},{"rt":408,"stimulus":"<p>Welche Sequenz haben Sie als natürlicher empfunden?</p>","key_press":70,"test_part":"response","test_stimulus":{"position":0,"left":"bvh/return-bottle-hold-training1-lines.txt","right":"bvh/vr_prediction_models/model(tmp)-dataset(return-bottle-hold)-numprim(11)-hold(1)/final-lines.txt","att_check":false},"trial_type":"html-keyboard-response","trial_index":166,"time_elapsed":376886,"internal_node_id":"0.0-8.0-3.39","subject":"moaacjl5j2texa3","sona":"9160"},{"rt":209,"stimulus":"<p>Bereit?</p>","key_press":32,"trial_type":"html-keyboard-response","trial_index":167,"time_elapsed":377103,"internal_node_id":"0.0-8.0-0.40","subject":"moaacjl5j2texa3","sona":"9160"},{"rt":null,"stimulus":"<div style=\"font-size:60px;\">+</div>","key_press":null,"trial_type":"html-keyboard-response","trial_index":168,"time_elapsed":379138,"internal_node_id":"0.0-8.0-1.40","subject":"moaacjl5j2texa3","sona":"9160"},{"trial_type":"turing-test","trial_index":169,"time_elapsed":385647,"internal_node_id":"0.0-8.0-2.40","subject":"moaacjl5j2texa3","sona":"9160"},{"rt":485,"stimulus":"<p>Welche Sequenz haben Sie als natürlicher empfunden?</p>","key_press":70,"test_part":"response","test_stimulus":{"position":0,"left":"bvh/pass-bottle-training2-lines.txt","right":"bvh/vr_prediction_models/model(vcgpdm)-dataset(pass-bottle)-mode(ELBO)-parts(1)-dyn(35)-lvm(10)-hold(2)/final-lines.txt","att_check":false},"trial_type":"html-keyboard-response","trial_index":170,"time_elapsed":386143,"internal_node_id":"0.0-8.0-3.40","subject":"moaacjl5j2texa3","sona":"9160"},{"rt":240,"stimulus":"<p>Bereit?</p>","key_press":32,"trial_type":"html-keyboard-response","trial_index":171,"time_elapsed":386391,"internal_node_id":"0.0-8.0-0.41","subject":"moaacjl5j2texa3","sona":"9160"},{"rt":null,"stimulus":"<div style=\"font-size:60px;\">+</div>","key_press":null,"trial_type":"html-keyboard-response","trial_index":172,"time_elapsed":388428,"internal_node_id":"0.0-8.0-1.41","subject":"moaacjl5j2texa3","sona":"9160"},{"trial_type":"turing-test","trial_index":173,"time_elapsed":392071,"internal_node_id":"0.0-8.0-2.41","subject":"moaacjl5j2texa3","sona":"9160"},{"rt":339,"stimulus":"<p>Welche Sequenz haben Sie als natürlicher empfunden?</p>","key_press":70,"test_part":"response","test_stimulus":{"position":0,"left":"bvh/pass-bottle-hold-training1-lines.txt","right":"bvh/vr_prediction_models/model(vcgpdm)-dataset(pass-bottle-hold)-mode(ELBO)-parts(1)-dyn(5)-lvm(5)-hold(1)/final-lines.txt","att_check":false},"trial_type":"html-keyboard-response","trial_index":174,"time_elapsed":392421,"internal_node_id":"0.0-8.0-3.41","subject":"moaacjl5j2texa3","sona":"9160"},{"rt":158,"stimulus":"<p>Bereit?</p>","key_press":32,"trial_type":"html-keyboard-response","trial_index":175,"time_elapsed":392588,"internal_node_id":"0.0-8.0-0.42","subject":"moaacjl5j2texa3","sona":"9160"},{"rt":null,"stimulus":"<div style=\"font-size:60px;\">+</div>","key_press":null,"trial_type":"html-keyboard-response","trial_index":176,"time_elapsed":394611,"internal_node_id":"0.0-8.0-1.42","subject":"moaacjl5j2texa3","sona":"9160"},{"trial_type":"turing-test","trial_index":177,"time_elapsed":398420,"internal_node_id":"0.0-8.0-2.42","subject":"moaacjl5j2texa3","sona":"9160"},{"rt":317,"stimulus":"<p>Welche Sequenz haben Sie als natürlicher empfunden?</p>","key_press":70,"test_part":"response","test_stimulus":{"position":1,"left":"bvh/vr_prediction_models/model(vcgpdm)-dataset(return-bottle-hold)-mode(ELBO)-parts(1)-dyn(30)-lvm(30)-hold(1)/final-lines.txt","right":"bvh/return-bottle-hold-training1-lines.txt","att_check":false},"trial_type":"html-keyboard-response","trial_index":178,"time_elapsed":398747,"internal_node_id":"0.0-8.0-3.42","subject":"moaacjl5j2texa3","sona":"9160"},{"rt":183,"stimulus":"<p>Bereit?</p>","key_press":32,"trial_type":"html-keyboard-response","trial_index":179,"time_elapsed":398938,"internal_node_id":"0.0-8.0-0.43","subject":"moaacjl5j2texa3","sona":"9160"},{"rt":null,"stimulus":"<div style=\"font-size:60px;\">+</div>","key_press":null,"trial_type":"html-keyboard-response","trial_index":180,"time_elapsed":400961,"internal_node_id":"0.0-8.0-1.43","subject":"moaacjl5j2texa3","sona":"9160"},{"trial_type":"turing-test","trial_index":181,"time_elapsed":404709,"internal_node_id":"0.0-8.0-2.43","subject":"moaacjl5j2texa3","sona":"9160"},{"rt":502,"stimulus":"<p>Welche Sequenz haben Sie als natürlicher empfunden?</p>","key_press":70,"test_part":"response","test_stimulus":{"position":0,"left":"bvh/return-bottle-hold-training3-lines.txt","right":"bvh/vr_prediction_models/model(dmp)-dataset(return-bottle-hold)-npsi(20)-hold(3)/final-lines.txt","att_check":false},"trial_type":"html-keyboard-response","trial_index":182,"time_elapsed":405219,"internal_node_id":"0.0-8.0-3.43","subject":"moaacjl5j2texa3","sona":"9160"},{"rt":266,"stimulus":"<p>Bereit?</p>","key_press":32,"trial_type":"html-keyboard-response","trial_index":183,"time_elapsed":405489,"internal_node_id":"0.0-8.0-0.44","subject":"moaacjl5j2texa3","sona":"9160"},{"rt":null,"stimulus":"<div style=\"font-size:60px;\">+</div>","key_press":null,"trial_type":"html-keyboard-response","trial_index":184,"time_elapsed":407519,"internal_node_id":"0.0-8.0-1.44","subject":"moaacjl5j2texa3","sona":"9160"},{"trial_type":"turing-test","trial_index":185,"time_elapsed":411370,"internal_node_id":"0.0-8.0-2.44","subject":"moaacjl5j2texa3","sona":"9160"},{"rt":272,"stimulus":"<p>Welche Sequenz haben Sie als natürlicher empfunden?</p>","key_press":70,"test_part":"response","test_stimulus":{"position":0,"left":"bvh/return-bottle-hold-training2-lines.txt","right":"bvh/vr_prediction_models/model(vcgpdm)-dataset(return-bottle-hold)-mode(ELBO)-parts(3)-dyn(20)-lvm(15)-hold(2)/final-lines.txt","att_check":false},"trial_type":"html-keyboard-response","trial_index":186,"time_elapsed":411651,"internal_node_id":"0.0-8.0-3.44","subject":"moaacjl5j2texa3","sona":"9160"},{"rt":236,"stimulus":"<p>Bereit?</p>","key_press":32,"trial_type":"html-keyboard-response","trial_index":187,"time_elapsed":411894,"internal_node_id":"0.0-8.0-0.45","subject":"moaacjl5j2texa3","sona":"9160"},{"rt":null,"stimulus":"<div style=\"font-size:60px;\">+</div>","key_press":null,"trial_type":"html-keyboard-response","trial_index":188,"time_elapsed":413931,"internal_node_id":"0.0-8.0-1.45","subject":"moaacjl5j2texa3","sona":"9160"},{"trial_type":"turing-test","trial_index":189,"time_elapsed":417542,"internal_node_id":"0.0-8.0-2.45","subject":"moaacjl5j2texa3","sona":"9160"},{"rt":430,"stimulus":"<p>Welche Sequenz haben Sie als natürlicher empfunden?</p>","key_press":74,"test_part":"response","test_stimulus":{"position":1,"left":"bvh/vr_prediction_models/model(vcgpdm)-dataset(return-bottle-hold)-mode(ELBO)-parts(1)-dyn(25)-lvm(35)-hold(3)/final-lines.txt","right":"bvh/return-bottle-hold-training3-lines.txt","att_check":false},"trial_type":"html-keyboard-response","trial_index":190,"time_elapsed":417979,"internal_node_id":"0.0-8.0-3.45","subject":"moaacjl5j2texa3","sona":"9160"},{"rt":322,"stimulus":"<p>Bereit?</p>","key_press":32,"trial_type":"html-keyboard-response","trial_index":191,"time_elapsed":418316,"internal_node_id":"0.0-8.0-0.46","subject":"moaacjl5j2texa3","sona":"9160"},{"rt":null,"stimulus":"<div style=\"font-size:60px;\">+</div>","key_press":null,"trial_type":"html-keyboard-response","trial_index":192,"time_elapsed":420344,"internal_node_id":"0.0-8.0-1.46","subject":"moaacjl5j2texa3","sona":"9160"},{"trial_type":"turing-test","trial_index":193,"time_elapsed":423955,"internal_node_id":"0.0-8.0-2.46","subject":"moaacjl5j2texa3","sona":"9160"},{"rt":1357,"stimulus":"<p>Welche Sequenz haben Sie als natürlicher empfunden?</p>","key_press":70,"test_part":"response","test_stimulus":{"position":1,"left":"bvh/vr_prediction_models/model(tmp)-dataset(return-bottle-hold)-numprim(8)-hold(2)/final-lines.txt","right":"bvh/return-bottle-hold-training2-lines.txt","att_check":false},"trial_type":"html-keyboard-response","trial_index":194,"time_elapsed":425322,"internal_node_id":"0.0-8.0-3.46","subject":"moaacjl5j2texa3","sona":"9160"},{"rt":247,"stimulus":"<p>Bereit?</p>","key_press":32,"trial_type":"html-keyboard-response","trial_index":195,"time_elapsed":425575,"internal_node_id":"0.0-8.0-0.47","subject":"moaacjl5j2texa3","sona":"9160"},{"rt":null,"stimulus":"<div style=\"font-size:60px;\">+</div>","key_press":null,"trial_type":"html-keyboard-response","trial_index":196,"time_elapsed":427586,"internal_node_id":"0.0-8.0-1.47","subject":"moaacjl5j2texa3","sona":"9160"},{"trial_type":"turing-test","trial_index":197,"time_elapsed":433594,"internal_node_id":"0.0-8.0-2.47","subject":"moaacjl5j2texa3","sona":"9160"},{"rt":52,"stimulus":"<p>Welche Sequenz haben Sie als natürlicher empfunden?</p>","key_press":74,"test_part":"response","test_stimulus":{"position":1,"left":"bvh/vr_prediction_models/model(dmp)-dataset(return-bottle)-npsi(40)-hold(4)/final-lines.txt","right":"bvh/return-bottle-training4-lines.txt","att_check":false},"trial_type":"html-keyboard-response","trial_index":198,"time_elapsed":433657,"internal_node_id":"0.0-8.0-3.47","subject":"moaacjl5j2texa3","sona":"9160"},{"rt":506,"stimulus":"<p>Bereit?</p>","key_press":32,"trial_type":"html-keyboard-response","trial_index":199,"time_elapsed":434166,"internal_node_id":"0.0-8.0-0.48","subject":"moaacjl5j2texa3","sona":"9160"},{"rt":null,"stimulus":"<div style=\"font-size:60px;\">+</div>","key_press":null,"trial_type":"html-keyboard-response","trial_index":200,"time_elapsed":436203,"internal_node_id":"0.0-8.0-1.48","subject":"moaacjl5j2texa3","sona":"9160"},{"trial_type":"turing-test","trial_index":201,"time_elapsed":441931,"internal_node_id":"0.0-8.0-2.48","subject":"moaacjl5j2texa3","sona":"9160"},{"rt":305,"stimulus":"<p>Welche Sequenz haben Sie als natürlicher empfunden?</p>","key_press":74,"test_part":"response","test_stimulus":{"position":1,"left":"bvh/vr_prediction_models/model(vcgpdm)-dataset(pass-bottle)-mode(MAP)-parts(1)-hold(1)/final-lines.txt","right":"bvh/pass-bottle-training1-lines.txt","att_check":false},"trial_type":"html-keyboard-response","trial_index":202,"time_elapsed":442251,"internal_node_id":"0.0-8.0-3.48","subject":"moaacjl5j2texa3","sona":"9160"},{"rt":191,"stimulus":"<p>Bereit?</p>","key_press":32,"trial_type":"html-keyboard-response","trial_index":203,"time_elapsed":442456,"internal_node_id":"0.0-8.0-0.49","subject":"moaacjl5j2texa3","sona":"9160"},{"rt":null,"stimulus":"<div style=\"font-size:60px;\">+</div>","key_press":null,"trial_type":"html-keyboard-response","trial_index":204,"time_elapsed":444487,"internal_node_id":"0.0-8.0-1.49","subject":"moaacjl5j2texa3","sona":"9160"},{"trial_type":"turing-test","trial_index":205,"time_elapsed":451235,"internal_node_id":"0.0-8.0-2.49","subject":"moaacjl5j2texa3","sona":"9160"},{"rt":283,"stimulus":"<p>Welche Sequenz haben Sie als natürlicher empfunden?</p>","key_press":74,"test_part":"response","test_stimulus":{"position":1,"left":"bvh/vr_prediction_models/model(tmp)-dataset(return-bottle)-numprim(6)-hold(2)/final-lines.txt","right":"bvh/return-bottle-training2-lines.txt","att_check":false},"trial_type":"html-keyboard-response","trial_index":206,"time_elapsed":451527,"internal_node_id":"0.0-8.0-3.49","subject":"moaacjl5j2texa3","sona":"9160"},{"rt":181,"stimulus":"<p>Bereit?</p>","key_press":32,"trial_type":"html-keyboard-response","trial_index":207,"time_elapsed":451717,"internal_node_id":"0.0-8.0-0.50","subject":"moaacjl5j2texa3","sona":"9160"},{"rt":null,"stimulus":"<div style=\"font-size:60px;\">+</div>","key_press":null,"trial_type":"html-keyboard-response","trial_index":208,"time_elapsed":453743,"internal_node_id":"0.0-8.0-1.50","subject":"moaacjl5j2texa3","sona":"9160"},{"trial_type":"turing-test","trial_index":209,"time_elapsed":460639,"internal_node_id":"0.0-8.0-2.50","subject":"moaacjl5j2texa3","sona":"9160"},{"rt":235,"stimulus":"<p>Welche Sequenz haben Sie als natürlicher empfunden?</p>","key_press":70,"test_part":"response","test_stimulus":{"position":0,"left":"bvh/return-bottle-training2-lines.txt","right":"bvh/vr_prediction_models/model(vcgpdm)-dataset(return-bottle)-mode(ELBO)-parts(1)-dyn(30)-lvm(30)-hold(2)/final-lines.txt","att_check":false},"trial_type":"html-keyboard-response","trial_index":210,"time_elapsed":460884,"internal_node_id":"0.0-8.0-3.50","subject":"moaacjl5j2texa3","sona":"9160"},{"rt":106,"stimulus":"<p>Bereit?</p>","key_press":32,"trial_type":"html-keyboard-response","trial_index":211,"time_elapsed":460998,"internal_node_id":"0.0-8.0-0.51","subject":"moaacjl5j2texa3","sona":"9160"},{"rt":null,"stimulus":"<div style=\"font-size:60px;\">+</div>","key_press":null,"trial_type":"html-keyboard-response","trial_index":212,"time_elapsed":463009,"internal_node_id":"0.0-8.0-1.51","subject":"moaacjl5j2texa3","sona":"9160"},{"trial_type":"turing-test","trial_index":213,"time_elapsed":466873,"internal_node_id":"0.0-8.0-2.51","subject":"moaacjl5j2texa3","sona":"9160"},{"rt":77,"stimulus":"<p>Welche Sequenz haben Sie als natürlicher empfunden?</p>","key_press":70,"test_part":"response","test_stimulus":{"position":0,"left":"bvh/pass-bottle-hold-training4-lines.txt","right":"bvh/vr_prediction_models/model(vcgpdm)-dataset(pass-bottle-hold)-mode(MAP)-parts(1)-hold(4)/final-lines.txt","att_check":false},"trial_type":"html-keyboard-response","trial_index":214,"time_elapsed":466961,"internal_node_id":"0.0-8.0-3.51","subject":"moaacjl5j2texa3","sona":"9160"},{"rt":341,"stimulus":"<p>Bereit?</p>","key_press":32,"trial_type":"html-keyboard-response","trial_index":215,"time_elapsed":467315,"internal_node_id":"0.0-8.0-0.52","subject":"moaacjl5j2texa3","sona":"9160"},{"rt":null,"stimulus":"<div style=\"font-size:60px;\">+</div>","key_press":null,"trial_type":"html-keyboard-response","trial_index":216,"time_elapsed":469336,"internal_node_id":"0.0-8.0-1.52","subject":"moaacjl5j2texa3","sona":"9160"},{"trial_type":"turing-test","trial_index":217,"time_elapsed":473023,"internal_node_id":"0.0-8.0-2.52","subject":"moaacjl5j2texa3","sona":"9160"},{"rt":1514,"stimulus":"<p>Welche Sequenz haben Sie als natürlicher empfunden?</p>","key_press":74,"test_part":"response","test_stimulus":{"position":1,"left":"bvh/vr_prediction_models/model(dmp)-dataset(pass-bottle-hold)-npsi(10)-hold(3)/final-lines.txt","right":"bvh/pass-bottle-hold-training3-lines.txt","att_check":true},"trial_type":"html-keyboard-response","trial_index":218,"time_elapsed":474547,"internal_node_id":"0.0-8.0-3.52","subject":"moaacjl5j2texa3","sona":"9160"},{"rt":105,"stimulus":"<p>Bereit?</p>","key_press":32,"trial_type":"html-keyboard-response","trial_index":219,"time_elapsed":474659,"internal_node_id":"0.0-8.0-0.53","subject":"moaacjl5j2texa3","sona":"9160"},{"rt":null,"stimulus":"<div style=\"font-size:60px;\">+</div>","key_press":null,"trial_type":"html-keyboard-response","trial_index":220,"time_elapsed":476673,"internal_node_id":"0.0-8.0-1.53","subject":"moaacjl5j2texa3","sona":"9160"},{"trial_type":"turing-test","trial_index":221,"time_elapsed":482685,"internal_node_id":"0.0-8.0-2.53","subject":"moaacjl5j2texa3","sona":"9160"},{"rt":292,"stimulus":"<p>Welche Sequenz haben Sie als natürlicher empfunden?</p>","key_press":70,"test_part":"response","test_stimulus":{"position":0,"left":"bvh/return-bottle-training3-lines.txt","right":"bvh/vr_prediction_models/model(dmp)-dataset(return-bottle)-npsi(100)-hold(3)/final-lines.txt","att_check":false},"trial_type":"html-keyboard-response","trial_index":222,"time_elapsed":482983,"internal_node_id":"0.0-8.0-3.53","subject":"moaacjl5j2texa3","sona":"9160"},{"rt":189,"stimulus":"<p>Bereit?</p>","key_press":32,"trial_type":"html-keyboard-response","trial_index":223,"time_elapsed":483178,"internal_node_id":"0.0-8.0-0.54","subject":"moaacjl5j2texa3","sona":"9160"},{"rt":null,"stimulus":"<div style=\"font-size:60px;\">+</div>","key_press":null,"trial_type":"html-keyboard-response","trial_index":224,"time_elapsed":485183,"internal_node_id":"0.0-8.0-1.54","subject":"moaacjl5j2texa3","sona":"9160"},{"trial_type":"turing-test","trial_index":225,"time_elapsed":491221,"internal_node_id":"0.0-8.0-2.54","subject":"moaacjl5j2texa3","sona":"9160"},{"rt":760,"stimulus":"<p>Welche Sequenz haben Sie als natürlicher empfunden?</p>","key_press":74,"test_part":"response","test_stimulus":{"position":1,"left":"bvh/vr_prediction_models/model(vcgpdm)-dataset(return-bottle)-mode(ELBO)-parts(3)-dyn(20)-lvm(15)-hold(4)/final-lines.txt","right":"bvh/return-bottle-training4-lines.txt","att_check":false},"trial_type":"html-keyboard-response","trial_index":226,"time_elapsed":491985,"internal_node_id":"0.0-8.0-3.54","subject":"moaacjl5j2texa3","sona":"9160"},{"rt":145,"stimulus":"<p>Bereit?</p>","key_press":32,"trial_type":"html-keyboard-response","trial_index":227,"time_elapsed":492133,"internal_node_id":"0.0-8.0-0.55","subject":"moaacjl5j2texa3","sona":"9160"},{"rt":null,"stimulus":"<div style=\"font-size:60px;\">+</div>","key_press":null,"trial_type":"html-keyboard-response","trial_index":228,"time_elapsed":494156,"internal_node_id":"0.0-8.0-1.55","subject":"moaacjl5j2texa3","sona":"9160"},{"trial_type":"turing-test","trial_index":229,"time_elapsed":499991,"internal_node_id":"0.0-8.0-2.55","subject":"moaacjl5j2texa3","sona":"9160"},{"rt":292,"stimulus":"<p>Welche Sequenz haben Sie als natürlicher empfunden?</p>","key_press":74,"test_part":"response","test_stimulus":{"position":1,"left":"bvh/vr_prediction_models/model(tmp)-dataset(return-bottle)-numprim(4)-hold(0)/final-lines.txt","right":"bvh/return-bottle-training0-lines.txt","att_check":false},"trial_type":"html-keyboard-response","trial_index":230,"time_elapsed":500288,"internal_node_id":"0.0-8.0-3.55","subject":"moaacjl5j2texa3","sona":"9160"},{"rt":183,"stimulus":"<p>Bereit?</p>","key_press":32,"trial_type":"html-keyboard-response","trial_index":231,"time_elapsed":500474,"internal_node_id":"0.0-8.0-0.56","subject":"moaacjl5j2texa3","sona":"9160"},{"rt":null,"stimulus":"<div style=\"font-size:60px;\">+</div>","key_press":null,"trial_type":"html-keyboard-response","trial_index":232,"time_elapsed":502493,"internal_node_id":"0.0-8.0-1.56","subject":"moaacjl5j2texa3","sona":"9160"},{"trial_type":"turing-test","trial_index":233,"time_elapsed":506159,"internal_node_id":"0.0-8.0-2.56","subject":"moaacjl5j2texa3","sona":"9160"},{"rt":1704,"stimulus":"<p>Welche Sequenz haben Sie als natürlicher empfunden?</p>","key_press":74,"test_part":"response","test_stimulus":{"position":1,"left":"bvh/vr_prediction_models/model(tmp)-dataset(pass-bottle-hold)-numprim(8)-hold(4)/final-lines.txt","right":"bvh/pass-bottle-hold-training4-lines.txt","att_check":false},"trial_type":"html-keyboard-response","trial_index":234,"time_elapsed":507869,"internal_node_id":"0.0-8.0-3.56","subject":"moaacjl5j2texa3","sona":"9160"},{"rt":233,"stimulus":"<p>Bereit?</p>","key_press":32,"trial_type":"html-keyboard-response","trial_index":235,"time_elapsed":508111,"internal_node_id":"0.0-8.0-0.57","subject":"moaacjl5j2texa3","sona":"9160"},{"rt":null,"stimulus":"<div style=\"font-size:60px;\">+</div>","key_press":null,"trial_type":"html-keyboard-response","trial_index":236,"time_elapsed":510139,"internal_node_id":"0.0-8.0-1.57","subject":"moaacjl5j2texa3","sona":"9160"},{"trial_type":"turing-test","trial_index":237,"time_elapsed":515655,"internal_node_id":"0.0-8.0-2.57","subject":"moaacjl5j2texa3","sona":"9160"},{"rt":29,"stimulus":"<p>Welche Sequenz haben Sie als natürlicher empfunden?</p>","key_press":70,"test_part":"response","test_stimulus":{"position":0,"left":"bvh/return-bottle-hold-training0-lines.txt","right":"bvh/vr_prediction_models/model(vcgpdm)-dataset(return-bottle-hold)-mode(MAP)-parts(1)-hold(0)/final-lines.txt","att_check":false},"trial_type":"html-keyboard-response","trial_index":238,"time_elapsed":515693,"internal_node_id":"0.0-8.0-3.57","subject":"moaacjl5j2texa3","sona":"9160"},{"rt":224,"stimulus":"<p>Bereit?</p>","key_press":32,"trial_type":"html-keyboard-response","trial_index":239,"time_elapsed":515935,"internal_node_id":"0.0-8.0-0.58","subject":"moaacjl5j2texa3","sona":"9160"},{"rt":null,"stimulus":"<div style=\"font-size:60px;\">+</div>","key_press":null,"trial_type":"html-keyboard-response","trial_index":240,"time_elapsed":517975,"internal_node_id":"0.0-8.0-1.58","subject":"moaacjl5j2texa3","sona":"9160"},{"trial_type":"turing-test","trial_index":241,"time_elapsed":524894,"internal_node_id":"0.0-8.0-2.58","subject":"moaacjl5j2texa3","sona":"9160"},{"rt":332,"stimulus":"<p>Welche Sequenz haben Sie als natürlicher empfunden?</p>","key_press":70,"test_part":"response","test_stimulus":{"position":0,"left":"bvh/pass-bottle-training0-lines.txt","right":"bvh/vr_prediction_models/model(vcgpdm)-dataset(pass-bottle)-mode(ELBO)-parts(3)-dyn(20)-lvm(35)-hold(0)/final-lines.txt","att_check":false},"trial_type":"html-keyboard-response","trial_index":242,"time_elapsed":525230,"internal_node_id":"0.0-8.0-3.58","subject":"moaacjl5j2texa3","sona":"9160"},{"rt":203,"stimulus":"<p>Bereit?</p>","key_press":32,"trial_type":"html-keyboard-response","trial_index":243,"time_elapsed":525438,"internal_node_id":"0.0-8.0-0.59","subject":"moaacjl5j2texa3","sona":"9160"},{"rt":null,"stimulus":"<div style=\"font-size:60px;\">+</div>","key_press":null,"trial_type":"html-keyboard-response","trial_index":244,"time_elapsed":527474,"internal_node_id":"0.0-8.0-1.59","subject":"moaacjl5j2texa3","sona":"9160"},{"trial_type":"turing-test","trial_index":245,"time_elapsed":530921,"internal_node_id":"0.0-8.0-2.59","subject":"moaacjl5j2texa3","sona":"9160"},{"rt":1392,"stimulus":"<p>Welche Sequenz haben Sie als natürlicher empfunden?</p>","key_press":74,"test_part":"response","test_stimulus":{"position":1,"left":"bvh/vr_prediction_models/model(vcgpdm)-dataset(pass-bottle-hold)-mode(ELBO)-parts(3)-dyn(35)-lvm(20)-hold(1)/final-lines.txt","right":"bvh/pass-bottle-hold-training1-lines.txt","att_check":false},"trial_type":"html-keyboard-response","trial_index":246,"time_elapsed":532325,"internal_node_id":"0.0-8.0-3.59","subject":"moaacjl5j2texa3","sona":"9160"},{"rt":84,"stimulus":"<p>Bereit?</p>","key_press":32,"trial_type":"html-keyboard-response","trial_index":247,"time_elapsed":532421,"internal_node_id":"0.0-8.0-0.60","subject":"moaacjl5j2texa3","sona":"9160"},{"rt":null,"stimulus":"<div style=\"font-size:60px;\">+</div>","key_press":null,"trial_type":"html-keyboard-response","trial_index":248,"time_elapsed":534442,"internal_node_id":"0.0-8.0-1.60","subject":"moaacjl5j2texa3","sona":"9160"},{"trial_type":"turing-test","trial_index":249,"time_elapsed":540834,"internal_node_id":"0.0-8.0-2.60","subject":"moaacjl5j2texa3","sona":"9160"},{"rt":251,"stimulus":"<p>Welche Sequenz haben Sie als natürlicher empfunden?</p>","key_press":70,"test_part":"response","test_stimulus":{"position":0,"left":"bvh/pass-bottle-training4-lines.txt","right":"bvh/vr_prediction_models/model(dmp)-dataset(pass-bottle)-npsi(10)-hold(4)/final-lines.txt","att_check":false},"trial_type":"html-keyboard-response","trial_index":250,"time_elapsed":541089,"internal_node_id":"0.0-8.0-3.60","subject":"moaacjl5j2texa3","sona":"9160"},{"rt":267,"stimulus":"<p>Bereit?</p>","key_press":32,"trial_type":"html-keyboard-response","trial_index":251,"time_elapsed":541366,"internal_node_id":"0.0-8.0-0.61","subject":"moaacjl5j2texa3","sona":"9160"},{"rt":null,"stimulus":"<div style=\"font-size:60px;\">+</div>","key_press":null,"trial_type":"html-keyboard-response","trial_index":252,"time_elapsed":543381,"internal_node_id":"0.0-8.0-1.61","subject":"moaacjl5j2texa3","sona":"9160"},{"trial_type":"turing-test","trial_index":253,"time_elapsed":549278,"internal_node_id":"0.0-8.0-2.61","subject":"moaacjl5j2texa3","sona":"9160"},{"rt":295,"stimulus":"<p>Welche Sequenz haben Sie als natürlicher empfunden?</p>","key_press":74,"test_part":"response","test_stimulus":{"position":1,"left":"bvh/vr_prediction_models/model(vcgpdm)-dataset(return-bottle)-mode(ELBO)-parts(3)-dyn(15)-lvm(30)-hold(4)/final-lines.txt","right":"bvh/return-bottle-training4-lines.txt","att_check":false},"trial_type":"html-keyboard-response","trial_index":254,"time_elapsed":549582,"internal_node_id":"0.0-8.0-3.61","subject":"moaacjl5j2texa3","sona":"9160"},{"rt":28,"stimulus":"<p>Bereit?</p>","key_press":32,"trial_type":"html-keyboard-response","trial_index":255,"time_elapsed":549620,"internal_node_id":"0.0-8.0-0.62","subject":"moaacjl5j2texa3","sona":"9160"},{"rt":null,"stimulus":"<div style=\"font-size:60px;\">+</div>","key_press":null,"trial_type":"html-keyboard-response","trial_index":256,"time_elapsed":551656,"internal_node_id":"0.0-8.0-1.62","subject":"moaacjl5j2texa3","sona":"9160"},{"trial_type":"turing-test","trial_index":257,"time_elapsed":557515,"internal_node_id":"0.0-8.0-2.62","subject":"moaacjl5j2texa3","sona":"9160"},{"rt":249,"stimulus":"<p>Welche Sequenz haben Sie als natürlicher empfunden?</p>","key_press":74,"test_part":"response","test_stimulus":{"position":1,"left":"bvh/vr_prediction_models/model(dmp)-dataset(pass-bottle)-npsi(30)-hold(3)/final-lines.txt","right":"bvh/pass-bottle-training3-lines.txt","att_check":true},"trial_type":"html-keyboard-response","trial_index":258,"time_elapsed":557774,"internal_node_id":"0.0-8.0-3.62","subject":"moaacjl5j2texa3","sona":"9160"},{"rt":91,"stimulus":"<p>Bereit?</p>","key_press":32,"trial_type":"html-keyboard-response","trial_index":259,"time_elapsed":557874,"internal_node_id":"0.0-8.0-0.63","subject":"moaacjl5j2texa3","sona":"9160"},{"rt":null,"stimulus":"<div style=\"font-size:60px;\">+</div>","key_press":null,"trial_type":"html-keyboard-response","trial_index":260,"time_elapsed":559905,"internal_node_id":"0.0-8.0-1.63","subject":"moaacjl5j2texa3","sona":"9160"},{"trial_type":"turing-test","trial_index":261,"time_elapsed":565935,"internal_node_id":"0.0-8.0-2.63","subject":"moaacjl5j2texa3","sona":"9160"},{"rt":301,"stimulus":"<p>Welche Sequenz haben Sie als natürlicher empfunden?</p>","key_press":70,"test_part":"response","test_stimulus":{"position":0,"left":"bvh/pass-bottle-training4-lines.txt","right":"bvh/vr_prediction_models/model(vcgpdm)-dataset(pass-bottle)-mode(ELBO)-parts(1)-dyn(30)-lvm(35)-hold(4)/final-lines.txt","att_check":false},"trial_type":"html-keyboard-response","trial_index":262,"time_elapsed":566244,"internal_node_id":"0.0-8.0-3.63","subject":"moaacjl5j2texa3","sona":"9160"},{"rt":167,"stimulus":"<p>Bereit?</p>","key_press":32,"trial_type":"html-keyboard-response","trial_index":263,"time_elapsed":566421,"internal_node_id":"0.0-8.0-0.64","subject":"moaacjl5j2texa3","sona":"9160"},{"rt":null,"stimulus":"<div style=\"font-size:60px;\">+</div>","key_press":null,"trial_type":"html-keyboard-response","trial_index":264,"time_elapsed":568446,"internal_node_id":"0.0-8.0-1.64","subject":"moaacjl5j2texa3","sona":"9160"},{"trial_type":"turing-test","trial_index":265,"time_elapsed":572538,"internal_node_id":"0.0-8.0-2.64","subject":"moaacjl5j2texa3","sona":"9160"},{"rt":426,"stimulus":"<p>Welche Sequenz haben Sie als natürlicher empfunden?</p>","key_press":74,"test_part":"response","test_stimulus":{"position":0,"left":"bvh/return-bottle-hold-training3-lines.txt","right":"bvh/vr_prediction_models/model(vcgpdm)-dataset(return-bottle-hold)-mode(ELBO)-parts(3)-dyn(10)-lvm(30)-hold(3)/final-lines.txt","att_check":false},"trial_type":"html-keyboard-response","trial_index":266,"time_elapsed":572976,"internal_node_id":"0.0-8.0-3.64","subject":"moaacjl5j2texa3","sona":"9160"},{"rt":157,"stimulus":"<p>Bereit?</p>","key_press":32,"trial_type":"html-keyboard-response","trial_index":267,"time_elapsed":573144,"internal_node_id":"0.0-8.0-0.65","subject":"moaacjl5j2texa3","sona":"9160"},{"rt":null,"stimulus":"<div style=\"font-size:60px;\">+</div>","key_press":null,"trial_type":"html-keyboard-response","trial_index":268,"time_elapsed":575174,"internal_node_id":"0.0-8.0-1.65","subject":"moaacjl5j2texa3","sona":"9160"},{"trial_type":"turing-test","trial_index":269,"time_elapsed":580861,"internal_node_id":"0.0-8.0-2.65","subject":"moaacjl5j2texa3","sona":"9160"},{"rt":309,"stimulus":"<p>Welche Sequenz haben Sie als natürlicher empfunden?</p>","key_press":74,"test_part":"response","test_stimulus":{"position":1,"left":"bvh/vr_prediction_models/model(vcgpdm)-dataset(pass-bottle)-mode(ELBO)-parts(1)-dyn(25)-lvm(35)-hold(1)/final-lines.txt","right":"bvh/pass-bottle-training1-lines.txt","att_check":false},"trial_type":"html-keyboard-response","trial_index":270,"time_elapsed":581183,"internal_node_id":"0.0-8.0-3.65","subject":"moaacjl5j2texa3","sona":"9160"},{"rt":72,"stimulus":"<p>Bereit?</p>","key_press":32,"trial_type":"html-keyboard-response","trial_index":271,"time_elapsed":581274,"internal_node_id":"0.0-8.0-0.66","subject":"moaacjl5j2texa3","sona":"9160"},{"rt":null,"stimulus":"<div style=\"font-size:60px;\">+</div>","key_press":null,"trial_type":"html-keyboard-response","trial_index":272,"time_elapsed":583291,"internal_node_id":"0.0-8.0-1.66","subject":"moaacjl5j2texa3","sona":"9160"},{"trial_type":"turing-test","trial_index":273,"time_elapsed":589894,"internal_node_id":"0.0-8.0-2.66","subject":"moaacjl5j2texa3","sona":"9160"},{"rt":293,"stimulus":"<p>Welche Sequenz haben Sie als natürlicher empfunden?</p>","key_press":74,"test_part":"response","test_stimulus":{"position":1,"left":"bvh/vr_prediction_models/model(vcgpdm)-dataset(return-bottle)-mode(ELBO)-parts(1)-dyn(35)-lvm(10)-hold(1)/final-lines.txt","right":"bvh/return-bottle-training1-lines.txt","att_check":false},"trial_type":"html-keyboard-response","trial_index":274,"time_elapsed":590200,"internal_node_id":"0.0-8.0-3.66","subject":"moaacjl5j2texa3","sona":"9160"},{"rt":398,"stimulus":"<p>Bereit?</p>","key_press":32,"trial_type":"html-keyboard-response","trial_index":275,"time_elapsed":590608,"internal_node_id":"0.0-8.0-0.67","subject":"moaacjl5j2texa3","sona":"9160"},{"rt":null,"stimulus":"<div style=\"font-size:60px;\">+</div>","key_press":null,"trial_type":"html-keyboard-response","trial_index":276,"time_elapsed":592634,"internal_node_id":"0.0-8.0-1.67","subject":"moaacjl5j2texa3","sona":"9160"},{"trial_type":"turing-test","trial_index":277,"time_elapsed":596557,"internal_node_id":"0.0-8.0-2.67","subject":"moaacjl5j2texa3","sona":"9160"},{"rt":499,"stimulus":"<p>Welche Sequenz haben Sie als natürlicher empfunden?</p>","key_press":74,"test_part":"response","test_stimulus":{"position":1,"left":"bvh/vr_prediction_models/model(vcgpdm)-dataset(pass-bottle-hold)-mode(ELBO)-parts(1)-dyn(10)-lvm(25)-hold(4)/final-lines.txt","right":"bvh/pass-bottle-hold-training4-lines.txt","att_check":false},"trial_type":"html-keyboard-response","trial_index":278,"time_elapsed":597066,"internal_node_id":"0.0-8.0-3.67","subject":"moaacjl5j2texa3","sona":"9160"},{"rt":182,"stimulus":"<p>Bereit?</p>","key_press":32,"trial_type":"html-keyboard-response","trial_index":279,"time_elapsed":597261,"internal_node_id":"0.0-8.0-0.68","subject":"moaacjl5j2texa3","sona":"9160"},{"rt":null,"stimulus":"<div style=\"font-size:60px;\">+</div>","key_press":null,"trial_type":"html-keyboard-response","trial_index":280,"time_elapsed":599283,"internal_node_id":"0.0-8.0-1.68","subject":"moaacjl5j2texa3","sona":"9160"},{"trial_type":"turing-test","trial_index":281,"time_elapsed":604829,"internal_node_id":"0.0-8.0-2.68","subject":"moaacjl5j2texa3","sona":"9160"},{"rt":173,"stimulus":"<p>Welche Sequenz haben Sie als natürlicher empfunden?</p>","key_press":74,"test_part":"response","test_stimulus":{"position":0,"left":"bvh/return-bottle-hold-training0-lines.txt","right":"bvh/vr_prediction_models/model(vcgpdm)-dataset(return-bottle-hold)-mode(ELBO)-parts(1)-dyn(30)-lvm(35)-hold(0)/final-lines.txt","att_check":false},"trial_type":"html-keyboard-response","trial_index":282,"time_elapsed":605005,"internal_node_id":"0.0-8.0-3.68","subject":"moaacjl5j2texa3","sona":"9160"},{"rt":132,"stimulus":"<p>Bereit?</p>","key_press":32,"trial_type":"html-keyboard-response","trial_index":283,"time_elapsed":605149,"internal_node_id":"0.0-8.0-0.69","subject":"moaacjl5j2texa3","sona":"9160"},{"rt":null,"stimulus":"<div style=\"font-size:60px;\">+</div>","key_press":null,"trial_type":"html-keyboard-response","trial_index":284,"time_elapsed":607176,"internal_node_id":"0.0-8.0-1.69","subject":"moaacjl5j2texa3","sona":"9160"},{"trial_type":"turing-test","trial_index":285,"time_elapsed":613245,"internal_node_id":"0.0-8.0-2.69","subject":"moaacjl5j2texa3","sona":"9160"},{"rt":248,"stimulus":"<p>Welche Sequenz haben Sie als natürlicher empfunden?</p>","key_press":74,"test_part":"response","test_stimulus":{"position":1,"left":"bvh/vr_prediction_models/model(dmp)-dataset(pass-bottle)-npsi(50)-hold(4)/final-lines.txt","right":"bvh/pass-bottle-training4-lines.txt","att_check":false},"trial_type":"html-keyboard-response","trial_index":286,"time_elapsed":613505,"internal_node_id":"0.0-8.0-3.69","subject":"moaacjl5j2texa3","sona":"9160"},{"rt":83,"stimulus":"<p>Bereit?</p>","key_press":32,"trial_type":"html-keyboard-response","trial_index":287,"time_elapsed":613599,"internal_node_id":"0.0-8.0-0.70","subject":"moaacjl5j2texa3","sona":"9160"},{"rt":null,"stimulus":"<div style=\"font-size:60px;\">+</div>","key_press":null,"trial_type":"html-keyboard-response","trial_index":288,"time_elapsed":615626,"internal_node_id":"0.0-8.0-1.70","subject":"moaacjl5j2texa3","sona":"9160"},{"trial_type":"turing-test","trial_index":289,"time_elapsed":619946,"internal_node_id":"0.0-8.0-2.70","subject":"moaacjl5j2texa3","sona":"9160"},{"rt":247,"stimulus":"<p>Welche Sequenz haben Sie als natürlicher empfunden?</p>","key_press":70,"test_part":"response","test_stimulus":{"position":0,"left":"bvh/return-bottle-hold-training4-lines.txt","right":"bvh/vr_prediction_models/model(vcgpdm)-dataset(return-bottle-hold)-mode(ELBO)-parts(1)-dyn(10)-lvm(5)-hold(4)/final-lines.txt","att_check":false},"trial_type":"html-keyboard-response","trial_index":290,"time_elapsed":620205,"internal_node_id":"0.0-8.0-3.70","subject":"moaacjl5j2texa3","sona":"9160"},{"rt":240,"stimulus":"<p>Bereit?</p>","key_press":32,"trial_type":"html-keyboard-response","trial_index":291,"time_elapsed":620459,"internal_node_id":"0.0-8.0-0.71","subject":"moaacjl5j2texa3","sona":"9160"},{"rt":null,"stimulus":"<div style=\"font-size:60px;\">+</div>","key_press":null,"trial_type":"html-keyboard-response","trial_index":292,"time_elapsed":622486,"internal_node_id":"0.0-8.0-1.71","subject":"moaacjl5j2texa3","sona":"9160"},{"trial_type":"turing-test","trial_index":293,"time_elapsed":627691,"internal_node_id":"0.0-8.0-2.71","subject":"moaacjl5j2texa3","sona":"9160"},{"rt":375,"stimulus":"<p>Welche Sequenz haben Sie als natürlicher empfunden?</p>","key_press":74,"test_part":"response","test_stimulus":{"position":1,"left":"bvh/vr_prediction_models/model(dmp)-dataset(return-bottle-hold)-npsi(30)-hold(0)/final-lines.txt","right":"bvh/return-bottle-hold-training0-lines.txt","att_check":false},"trial_type":"html-keyboard-response","trial_index":294,"time_elapsed":628077,"internal_node_id":"0.0-8.0-3.71","subject":"moaacjl5j2texa3","sona":"9160"},{"rt":69,"stimulus":"<p>Bereit?</p>","key_press":32,"trial_type":"html-keyboard-response","trial_index":295,"time_elapsed":628157,"internal_node_id":"0.0-8.0-0.72","subject":"moaacjl5j2texa3","sona":"9160"},{"rt":null,"stimulus":"<div style=\"font-size:60px;\">+</div>","key_press":null,"trial_type":"html-keyboard-response","trial_index":296,"time_elapsed":630171,"internal_node_id":"0.0-8.0-1.72","subject":"moaacjl5j2texa3","sona":"9160"},{"trial_type":"turing-test","trial_index":297,"time_elapsed":635806,"internal_node_id":"0.0-8.0-2.72","subject":"moaacjl5j2texa3","sona":"9160"},{"rt":300,"stimulus":"<p>Welche Sequenz haben Sie als natürlicher empfunden?</p>","key_press":70,"test_part":"response","test_stimulus":{"position":0,"left":"bvh/pass-bottle-training1-lines.txt","right":"bvh/vr_prediction_models/model(dmp)-dataset(pass-bottle)-npsi(100)-hold(1)/final-lines.txt","att_check":false},"trial_type":"html-keyboard-response","trial_index":298,"time_elapsed":636120,"internal_node_id":"0.0-8.0-3.72","subject":"moaacjl5j2texa3","sona":"9160"},{"rt":192,"stimulus":"<p>Bereit?</p>","key_press":32,"trial_type":"html-keyboard-response","trial_index":299,"time_elapsed":636323,"internal_node_id":"0.0-8.0-0.73","subject":"moaacjl5j2texa3","sona":"9160"},{"rt":null,"stimulus":"<div style=\"font-size:60px;\">+</div>","key_press":null,"trial_type":"html-keyboard-response","trial_index":300,"time_elapsed":638356,"internal_node_id":"0.0-8.0-1.73","subject":"moaacjl5j2texa3","sona":"9160"},{"trial_type":"turing-test","trial_index":301,"time_elapsed":641714,"internal_node_id":"0.0-8.0-2.73","subject":"moaacjl5j2texa3","sona":"9160"},{"rt":1305,"stimulus":"<p>Welche Sequenz haben Sie als natürlicher empfunden?</p>","key_press":74,"test_part":"response","test_stimulus":{"position":1,"left":"bvh/vr_prediction_models/model(tmp)-dataset(pass-bottle-hold)-numprim(4)-hold(2)/final-lines.txt","right":"bvh/pass-bottle-hold-training2-lines.txt","att_check":false},"trial_type":"html-keyboard-response","trial_index":302,"time_elapsed":643032,"internal_node_id":"0.0-8.0-3.73","subject":"moaacjl5j2texa3","sona":"9160"},{"rt":79,"stimulus":"<p>Bereit?</p>","key_press":32,"trial_type":"html-keyboard-response","trial_index":303,"time_elapsed":643123,"internal_node_id":"0.0-8.0-0.74","subject":"moaacjl5j2texa3","sona":"9160"},{"rt":null,"stimulus":"<div style=\"font-size:60px;\">+</div>","key_press":null,"trial_type":"html-keyboard-response","trial_index":304,"time_elapsed":645145,"internal_node_id":"0.0-8.0-1.74","subject":"moaacjl5j2texa3","sona":"9160"},{"trial_type":"turing-test","trial_index":305,"time_elapsed":649318,"internal_node_id":"0.0-8.0-2.74","subject":"moaacjl5j2texa3","sona":"9160"},{"rt":495,"stimulus":"<p>Welche Sequenz haben Sie als natürlicher empfunden?</p>","key_press":74,"test_part":"response","test_stimulus":{"position":1,"left":"bvh/vr_prediction_models/model(vcgpdm)-dataset(return-bottle-hold)-mode(ELBO)-parts(1)-dyn(30)-lvm(35)-hold(4)/final-lines.txt","right":"bvh/return-bottle-hold-training4-lines.txt","att_check":false},"trial_type":"html-keyboard-response","trial_index":306,"time_elapsed":649829,"internal_node_id":"0.0-8.0-3.74","subject":"moaacjl5j2texa3","sona":"9160"},{"rt":230,"stimulus":"<p>Bereit?</p>","key_press":32,"trial_type":"html-keyboard-response","trial_index":307,"time_elapsed":650067,"internal_node_id":"0.0-8.0-0.75","subject":"moaacjl5j2texa3","sona":"9160"},{"rt":null,"stimulus":"<div style=\"font-size:60px;\">+</div>","key_press":null,"trial_type":"html-keyboard-response","trial_index":308,"time_elapsed":652089,"internal_node_id":"0.0-8.0-1.75","subject":"moaacjl5j2texa3","sona":"9160"},{"trial_type":"turing-test","trial_index":309,"time_elapsed":656396,"internal_node_id":"0.0-8.0-2.75","subject":"moaacjl5j2texa3","sona":"9160"},{"rt":432,"stimulus":"<p>Welche Sequenz haben Sie als natürlicher empfunden?</p>","key_press":74,"test_part":"response","test_stimulus":{"position":1,"left":"bvh/vr_prediction_models/model(vcgpdm)-dataset(return-bottle-hold)-mode(ELBO)-parts(3)-dyn(10)-lvm(25)-hold(1)/final-lines.txt","right":"bvh/return-bottle-hold-training1-lines.txt","att_check":false},"trial_type":"html-keyboard-response","trial_index":310,"time_elapsed":656840,"internal_node_id":"0.0-8.0-3.75","subject":"moaacjl5j2texa3","sona":"9160"},{"rt":597,"stimulus":"<p>Bereit?</p>","key_press":32,"trial_type":"html-keyboard-response","trial_index":311,"time_elapsed":657451,"internal_node_id":"0.0-8.0-0.76","subject":"moaacjl5j2texa3","sona":"9160"},{"rt":null,"stimulus":"<div style=\"font-size:60px;\">+</div>","key_press":null,"trial_type":"html-keyboard-response","trial_index":312,"time_elapsed":659466,"internal_node_id":"0.0-8.0-1.76","subject":"moaacjl5j2texa3","sona":"9160"},{"trial_type":"turing-test","trial_index":313,"time_elapsed":666521,"internal_node_id":"0.0-8.0-2.76","subject":"moaacjl5j2texa3","sona":"9160"},{"rt":4416,"stimulus":"<p>Welche Sequenz haben Sie als natürlicher empfunden?</p>","key_press":74,"test_part":"response","test_stimulus":{"position":1,"left":"bvh/vr_prediction_models/model(vcgpdm)-dataset(return-bottle)-mode(ELBO)-parts(1)-dyn(10)-lvm(25)-hold(2)/final-lines.txt","right":"bvh/return-bottle-training2-lines.txt","att_check":false},"trial_type":"html-keyboard-response","trial_index":314,"time_elapsed":670952,"internal_node_id":"0.0-8.0-3.76","subject":"moaacjl5j2texa3","sona":"9160"},{"rt":138,"stimulus":"<p>Bereit?</p>","key_press":32,"trial_type":"html-keyboard-response","trial_index":315,"time_elapsed":671103,"internal_node_id":"0.0-8.0-0.77","subject":"moaacjl5j2texa3","sona":"9160"},{"rt":null,"stimulus":"<div style=\"font-size:60px;\">+</div>","key_press":null,"trial_type":"html-keyboard-response","trial_index":316,"time_elapsed":673141,"internal_node_id":"0.0-8.0-1.77","subject":"moaacjl5j2texa3","sona":"9160"},{"trial_type":"turing-test","trial_index":317,"time_elapsed":677101,"internal_node_id":"0.0-8.0-2.77","subject":"moaacjl5j2texa3","sona":"9160"},{"rt":306,"stimulus":"<p>Welche Sequenz haben Sie als natürlicher empfunden?</p>","key_press":70,"test_part":"response","test_stimulus":{"position":0,"left":"bvh/pass-bottle-hold-training3-lines.txt","right":"bvh/vr_prediction_models/model(vcgpdm)-dataset(pass-bottle-hold)-mode(ELBO)-parts(1)-dyn(20)-lvm(5)-hold(3)/final-lines.txt","att_check":false},"trial_type":"html-keyboard-response","trial_index":318,"time_elapsed":677421,"internal_node_id":"0.0-8.0-3.77","subject":"moaacjl5j2texa3","sona":"9160"},{"rt":194,"stimulus":"<p>Bereit?</p>","key_press":32,"trial_type":"html-keyboard-response","trial_index":319,"time_elapsed":677627,"internal_node_id":"0.0-8.0-0.78","subject":"moaacjl5j2texa3","sona":"9160"},{"rt":null,"stimulus":"<div style=\"font-size:60px;\">+</div>","key_press":null,"trial_type":"html-keyboard-response","trial_index":320,"time_elapsed":679651,"internal_node_id":"0.0-8.0-1.78","subject":"moaacjl5j2texa3","sona":"9160"},{"trial_type":"turing-test","trial_index":321,"time_elapsed":683681,"internal_node_id":"0.0-8.0-2.78","subject":"moaacjl5j2texa3","sona":"9160"},{"rt":1448,"stimulus":"<p>Welche Sequenz haben Sie als natürlicher empfunden?</p>","key_press":74,"test_part":"response","test_stimulus":{"position":1,"left":"bvh/vr_prediction_models/model(tmp)-dataset(pass-bottle-hold)-numprim(7)-hold(1)/final-lines.txt","right":"bvh/pass-bottle-hold-training1-lines.txt","att_check":false},"trial_type":"html-keyboard-response","trial_index":322,"time_elapsed":685142,"internal_node_id":"0.0-8.0-3.78","subject":"moaacjl5j2texa3","sona":"9160"},{"rt":163,"stimulus":"<p>Bereit?</p>","key_press":32,"trial_type":"html-keyboard-response","trial_index":323,"time_elapsed":685318,"internal_node_id":"0.0-8.0-0.79","subject":"moaacjl5j2texa3","sona":"9160"},{"rt":null,"stimulus":"<div style=\"font-size:60px;\">+</div>","key_press":null,"trial_type":"html-keyboard-response","trial_index":324,"time_elapsed":687350,"internal_node_id":"0.0-8.0-1.79","subject":"moaacjl5j2texa3","sona":"9160"},{"trial_type":"turing-test","trial_index":325,"time_elapsed":693508,"internal_node_id":"0.0-8.0-2.79","subject":"moaacjl5j2texa3","sona":"9160"},{"rt":339,"stimulus":"<p>Welche Sequenz haben Sie als natürlicher empfunden?</p>","key_press":74,"test_part":"response","test_stimulus":{"position":1,"left":"bvh/vr_prediction_models/model(vcgpdm)-dataset(return-bottle)-mode(ELBO)-parts(3)-dyn(10)-lvm(10)-hold(3)/final-lines.txt","right":"bvh/return-bottle-training3-lines.txt","att_check":false},"trial_type":"html-keyboard-response","trial_index":326,"time_elapsed":693861,"internal_node_id":"0.0-8.0-3.79","subject":"moaacjl5j2texa3","sona":"9160"},{"rt":7103,"responses":"{\"age\":\" 21\",\"gender\":\"weiblich\"}","trial_type":"survey-text","trial_index":327,"time_elapsed":701007,"internal_node_id":"0.0-10.0-0.0","subject":"moaacjl5j2texa3","sona":"9160"},{"rt":144666,"responses":"{\"area\":\"Wirbelsäule und Arme\",\"Q1\":\"wenn die Arm- und Wirbelsäulbewegung nicht zueinander passte: zu steif waren;\\nbei zu schnellen Bewegungen, wenn der Arm unnatürlich durch die Luft wedelte; wenn das Strichmännchen sich im sitzen drehte\",\"Q2\":\"wenn das Strichmännchen auf dem Bildschirm unnatürlich nach oben oder nach untern verschoben wurde oder gedreht wurde\"}","trial_type":"survey-text","trial_index":328,"time_elapsed":845694,"internal_node_id":"0.0-10.0-1.0","subject":"moaacjl5j2texa3","sona":"9160"}]