[{"rt":1213,"stimulus":"<p>Welcome!<br> Please choose your language to start the experiment in the chosen language.</p><p>Willkommen!<br> Bitte wählen Sie eine Sprache, um das Experiment in der ausgewählten Sprache zu starten</p>","button_pressed":"1","trial_type":"html-button-response","trial_index":0,"time_elapsed":1219,"internal_node_id":"0.0-0.0","subject":"79z2three1mj14c","sona":"9265"},{"view_history":"[{\"page_index\":0,\"viewing_time\":728},{\"page_index\":1,\"viewing_time\":810},{\"page_index\":2,\"viewing_time\":575},{\"page_index\":3,\"viewing_time\":719},{\"page_index\":4,\"viewing_time\":506}]","rt":3339,"trial_type":"instructions","trial_index":1,"time_elapsed":4559,"internal_node_id":"0.0-1.0-0.0","subject":"79z2three1mj14c","sona":"9265"},{"rt":938,"stimulus":"<p>Bereit?</p>","key_press":32,"trial_type":"html-keyboard-response","trial_index":2,"time_elapsed":5500,"internal_node_id":"0.0-3.0","subject":"79z2three1mj14c","sona":"9265"},{"rt":null,"stimulus":"<div style=\"font-size:60px;\">+</div>","key_press":null,"trial_type":"html-keyboard-response","trial_index":3,"time_elapsed":7522,"internal_node_id":"0.0-4.0","subject":"79z2three1mj14c","sona":"9265"},{"trial_type":"training","trial_index":4,"time_elapsed":10803,"internal_node_id":"0.0-5.0","subject":"79z2three1mj14c","sona":"9265"},{"rt":306,"stimulus":"<p>Welche Sequenz haben Sie als natürlicher empfunden?</p>","key_press":70,"trial_type":"html-keyboard-response","trial_index":5,"time_elapsed":11111,"internal_node_id":"0.0-6.0","subject":"79z2three1mj14c","sona":"9265"},{"rt":2552,"stimulus":"<p>Das Experiment startet nun.</p><p><small>Bitte drücken Sie den Knopf, wenn Sie bereit sind.</small></p>","button_pressed":"0","trial_type":"html-button-response","trial_index":6,"time_elapsed":13665,"internal_node_id":"0.0-7.0","subject":"79z2three1mj14c","sona":"9265"},{"rt":2277,"stimulus":"<p>Bereit?</p>","key_press":32,"trial_type":"html-keyboard-response","trial_index":7,"time_elapsed":15947,"internal_node_id":"0.0-8.0-0.0","subject":"79z2three1mj14c","sona":"9265"},{"rt":null,"stimulus":"<div style=\"font-size:60px;\">+</div>","key_press":null,"trial_type":"html-keyboard-response","trial_index":8,"time_elapsed":17957,"internal_node_id":"0.0-8.0-1.0","subject":"79z2three1mj14c","sona":"9265"},{"trial_type":"turing-test","trial_index":9,"time_elapsed":24049,"internal_node_id":"0.0-8.0-2.0","subject":"79z2three1mj14c","sona":"9265"},{"rt":315,"stimulus":"<p>Welche Sequenz haben Sie als natürlicher empfunden?</p>","key_press":74,"test_part":"response","test_stimulus":{"position":1,"left":"bvh/vr_prediction_models/model(dmp)-dataset(pass-bottle)-npsi(100)-hold(2)/final-lines.txt","right":"bvh/pass-bottle-training2-lines.txt","att_check":false},"trial_type":"html-keyboard-response","trial_index":10,"time_elapsed":24367,"internal_node_id":"0.0-8.0-3.0","subject":"79z2three1mj14c","sona":"9265"},{"rt":469,"stimulus":"<p>Bereit?</p>","key_press":32,"trial_type":"html-keyboard-response","trial_index":11,"time_elapsed":24839,"internal_node_id":"0.0-8.0-0.1","subject":"79z2three1mj14c","sona":"9265"},{"rt":null,"stimulus":"<div style=\"font-size:60px;\">+</div>","key_press":null,"trial_type":"html-keyboard-response","trial_index":12,"time_elapsed":26866,"internal_node_id":"0.0-8.0-1.1","subject":"79z2three1mj14c","sona":"9265"},{"trial_type":"turing-test","trial_index":13,"time_elapsed":30364,"internal_node_id":"0.0-8.0-2.1","subject":"79z2three1mj14c","sona":"9265"},{"rt":420,"stimulus":"<p>Welche Sequenz haben Sie als natürlicher empfunden?</p>","key_press":74,"test_part":"response","test_stimulus":{"position":0,"left":"bvh/pass-bottle-hold-training3-lines.txt","right":"bvh/vr_prediction_models/model(dmp)-dataset(pass-bottle-hold)-npsi(90)-hold(3)/final-lines.txt","att_check":false},"trial_type":"html-keyboard-response","trial_index":14,"time_elapsed":30786,"internal_node_id":"0.0-8.0-3.1","subject":"79z2three1mj14c","sona":"9265"},{"rt":190,"stimulus":"<p>Bereit?</p>","key_press":32,"trial_type":"html-keyboard-response","trial_index":15,"time_elapsed":30977,"internal_node_id":"0.0-8.0-0.2","subject":"79z2three1mj14c","sona":"9265"},{"rt":null,"stimulus":"<div style=\"font-size:60px;\">+</div>","key_press":null,"trial_type":"html-keyboard-response","trial_index":16,"time_elapsed":32992,"internal_node_id":"0.0-8.0-1.2","subject":"79z2three1mj14c","sona":"9265"},{"trial_type":"turing-test","trial_index":17,"time_elapsed":38742,"internal_node_id":"0.0-8.0-2.2","subject":"79z2three1mj14c","sona":"9265"},{"rt":368,"stimulus":"<p>Welche Sequenz haben Sie als natürlicher empfunden?</p>","key_press":74,"test_part":"response","test_stimulus":{"position":1,"left":"bvh/vr_prediction_models/model(vcgpdm)-dataset(pass-bottle)-mode(ELBO)-parts(1)-dyn(15)-lvm(35)-hold(3)/final-lines.txt","right":"bvh/pass-bottle-training3-lines.txt","att_check":false},"trial_type":"html-keyboard-response","trial_index":18,"time_elapsed":39111,"internal_node_id":"0.0-8.0-3.2","subject":"79z2three1mj14c","sona":"9265"},{"rt":100,"stimulus":"<p>Bereit?</p>","key_press":32,"trial_type":"html-keyboard-response","trial_index":19,"time_elapsed":39211,"internal_node_id":"0.0-8.0-0.3","subject":"79z2three1mj14c","sona":"9265"},{"rt":null,"stimulus":"<div style=\"font-size:60px;\">+</div>","key_press":null,"trial_type":"html-keyboard-response","trial_index":20,"time_elapsed":41229,"internal_node_id":"0.0-8.0-1.3","subject":"79z2three1mj14c","sona":"9265"},{"trial_type":"turing-test","trial_index":21,"time_elapsed":47143,"internal_node_id":"0.0-8.0-2.3","subject":"79z2three1mj14c","sona":"9265"},{"rt":285,"stimulus":"<p>Welche Sequenz haben Sie als natürlicher empfunden?</p>","key_press":74,"test_part":"response","test_stimulus":{"position":1,"left":"bvh/vr_prediction_models/model(vcgpdm)-dataset(pass-bottle)-mode(ELBO)-parts(1)-dyn(10)-lvm(25)-hold(3)/final-lines.txt","right":"bvh/pass-bottle-training3-lines.txt","att_check":false},"trial_type":"html-keyboard-response","trial_index":22,"time_elapsed":47431,"internal_node_id":"0.0-8.0-3.3","subject":"79z2three1mj14c","sona":"9265"},{"rt":89,"stimulus":"<p>Bereit?</p>","key_press":32,"trial_type":"html-keyboard-response","trial_index":23,"time_elapsed":47524,"internal_node_id":"0.0-8.0-0.4","subject":"79z2three1mj14c","sona":"9265"},{"rt":null,"stimulus":"<div style=\"font-size:60px;\">+</div>","key_press":null,"trial_type":"html-keyboard-response","trial_index":24,"time_elapsed":49538,"internal_node_id":"0.0-8.0-1.4","subject":"79z2three1mj14c","sona":"9265"},{"trial_type":"turing-test","trial_index":25,"time_elapsed":52807,"internal_node_id":"0.0-8.0-2.4","subject":"79z2three1mj14c","sona":"9265"},{"rt":348,"stimulus":"<p>Welche Sequenz haben Sie als natürlicher empfunden?</p>","key_press":70,"test_part":"response","test_stimulus":{"position":0,"left":"bvh/return-bottle-hold-training1-lines.txt","right":"bvh/vr_prediction_models/model(dmp)-dataset(return-bottle-hold)-npsi(60)-hold(1)/final-lines.txt","att_check":false},"trial_type":"html-keyboard-response","trial_index":26,"time_elapsed":53156,"internal_node_id":"0.0-8.0-3.4","subject":"79z2three1mj14c","sona":"9265"},{"rt":18,"stimulus":"<p>Bereit?</p>","key_press":32,"trial_type":"html-keyboard-response","trial_index":27,"time_elapsed":53176,"internal_node_id":"0.0-8.0-0.5","subject":"79z2three1mj14c","sona":"9265"},{"rt":null,"stimulus":"<div style=\"font-size:60px;\">+</div>","key_press":null,"trial_type":"html-keyboard-response","trial_index":28,"time_elapsed":55188,"internal_node_id":"0.0-8.0-1.5","subject":"79z2three1mj14c","sona":"9265"},{"trial_type":"turing-test","trial_index":29,"time_elapsed":60823,"internal_node_id":"0.0-8.0-2.5","subject":"79z2three1mj14c","sona":"9265"},{"rt":351,"stimulus":"<p>Welche Sequenz haben Sie als natürlicher empfunden?</p>","key_press":74,"test_part":"response","test_stimulus":{"position":1,"left":"bvh/vr_prediction_models/model(tmp)-dataset(return-bottle)-numprim(3)-hold(3)/final-lines.txt","right":"bvh/return-bottle-training3-lines.txt","att_check":false},"trial_type":"html-keyboard-response","trial_index":30,"time_elapsed":61176,"internal_node_id":"0.0-8.0-3.5","subject":"79z2three1mj14c","sona":"9265"},{"rt":94,"stimulus":"<p>Bereit?</p>","key_press":32,"trial_type":"html-keyboard-response","trial_index":31,"time_elapsed":61270,"internal_node_id":"0.0-8.0-0.6","subject":"79z2three1mj14c","sona":"9265"},{"rt":null,"stimulus":"<div style=\"font-size:60px;\">+</div>","key_press":null,"trial_type":"html-keyboard-response","trial_index":32,"time_elapsed":63272,"internal_node_id":"0.0-8.0-1.6","subject":"79z2three1mj14c","sona":"9265"},{"trial_type":"turing-test","trial_index":33,"time_elapsed":70013,"internal_node_id":"0.0-8.0-2.6","subject":"79z2three1mj14c","sona":"9265"},{"rt":324,"stimulus":"<p>Welche Sequenz haben Sie als natürlicher empfunden?</p>","key_press":74,"test_part":"response","test_stimulus":{"position":1,"left":"bvh/vr_prediction_models/model(dmp)-dataset(pass-bottle)-npsi(80)-hold(0)/final-lines.txt","right":"bvh/pass-bottle-training0-lines.txt","att_check":false},"trial_type":"html-keyboard-response","trial_index":34,"time_elapsed":70338,"internal_node_id":"0.0-8.0-3.6","subject":"79z2three1mj14c","sona":"9265"},{"rt":119,"stimulus":"<p>Bereit?</p>","key_press":32,"trial_type":"html-keyboard-response","trial_index":35,"time_elapsed":70460,"internal_node_id":"0.0-8.0-0.7","subject":"79z2three1mj14c","sona":"9265"},{"rt":null,"stimulus":"<div style=\"font-size:60px;\">+</div>","key_press":null,"trial_type":"html-keyboard-response","trial_index":36,"time_elapsed":72472,"internal_node_id":"0.0-8.0-1.7","subject":"79z2three1mj14c","sona":"9265"},{"trial_type":"turing-test","trial_index":37,"time_elapsed":78236,"internal_node_id":"0.0-8.0-2.7","subject":"79z2three1mj14c","sona":"9265"},{"rt":305,"stimulus":"<p>Welche Sequenz haben Sie als natürlicher empfunden?</p>","key_press":74,"test_part":"response","test_stimulus":{"position":1,"left":"bvh/vr_prediction_models/model(dmp)-dataset(pass-bottle)-npsi(70)-hold(4)/final-lines.txt","right":"bvh/pass-bottle-training4-lines.txt","att_check":false},"trial_type":"html-keyboard-response","trial_index":38,"time_elapsed":78546,"internal_node_id":"0.0-8.0-3.7","subject":"79z2three1mj14c","sona":"9265"},{"rt":127,"stimulus":"<p>Bereit?</p>","key_press":32,"trial_type":"html-keyboard-response","trial_index":39,"time_elapsed":78676,"internal_node_id":"0.0-8.0-0.8","subject":"79z2three1mj14c","sona":"9265"},{"rt":null,"stimulus":"<div style=\"font-size:60px;\">+</div>","key_press":null,"trial_type":"html-keyboard-response","trial_index":40,"time_elapsed":80687,"internal_node_id":"0.0-8.0-1.8","subject":"79z2three1mj14c","sona":"9265"},{"trial_type":"turing-test","trial_index":41,"time_elapsed":86483,"internal_node_id":"0.0-8.0-2.8","subject":"79z2three1mj14c","sona":"9265"},{"rt":323,"stimulus":"<p>Welche Sequenz haben Sie als natürlicher empfunden?</p>","key_press":70,"test_part":"response","test_stimulus":{"position":0,"left":"bvh/pass-bottle-training4-lines.txt","right":"bvh/vr_prediction_models/model(vcgpdm)-dataset(pass-bottle)-mode(ELBO)-parts(1)-dyn(35)-lvm(30)-hold(4)/final-lines.txt","att_check":false},"trial_type":"html-keyboard-response","trial_index":42,"time_elapsed":86809,"internal_node_id":"0.0-8.0-3.8","subject":"79z2three1mj14c","sona":"9265"},{"rt":89,"stimulus":"<p>Bereit?</p>","key_press":32,"trial_type":"html-keyboard-response","trial_index":43,"time_elapsed":86900,"internal_node_id":"0.0-8.0-0.9","subject":"79z2three1mj14c","sona":"9265"},{"rt":null,"stimulus":"<div style=\"font-size:60px;\">+</div>","key_press":null,"trial_type":"html-keyboard-response","trial_index":44,"time_elapsed":88908,"internal_node_id":"0.0-8.0-1.9","subject":"79z2three1mj14c","sona":"9265"},{"trial_type":"turing-test","trial_index":45,"time_elapsed":92165,"internal_node_id":"0.0-8.0-2.9","subject":"79z2three1mj14c","sona":"9265"},{"rt":347,"stimulus":"<p>Welche Sequenz haben Sie als natürlicher empfunden?</p>","key_press":70,"test_part":"response","test_stimulus":{"position":0,"left":"bvh/pass-bottle-hold-training2-lines.txt","right":"bvh/vr_prediction_models/model(tmp)-dataset(pass-bottle-hold)-numprim(3)-hold(2)/final-lines.txt","att_check":false},"trial_type":"html-keyboard-response","trial_index":46,"time_elapsed":92516,"internal_node_id":"0.0-8.0-3.9","subject":"79z2three1mj14c","sona":"9265"},{"rt":132,"stimulus":"<p>Bereit?</p>","key_press":32,"trial_type":"html-keyboard-response","trial_index":47,"time_elapsed":92650,"internal_node_id":"0.0-8.0-0.10","subject":"79z2three1mj14c","sona":"9265"},{"rt":null,"stimulus":"<div style=\"font-size:60px;\">+</div>","key_press":null,"trial_type":"html-keyboard-response","trial_index":48,"time_elapsed":94664,"internal_node_id":"0.0-8.0-1.10","subject":"79z2three1mj14c","sona":"9265"},{"trial_type":"turing-test","trial_index":49,"time_elapsed":98345,"internal_node_id":"0.0-8.0-2.10","subject":"79z2three1mj14c","sona":"9265"},{"rt":354,"stimulus":"<p>Welche Sequenz haben Sie als natürlicher empfunden?</p>","key_press":70,"test_part":"response","test_stimulus":{"position":0,"left":"bvh/return-bottle-hold-training4-lines.txt","right":"bvh/vr_prediction_models/model(vcgpdm)-dataset(return-bottle-hold)-mode(ELBO)-parts(3)-dyn(15)-lvm(30)-hold(4)/final-lines.txt","att_check":false},"trial_type":"html-keyboard-response","trial_index":50,"time_elapsed":98700,"internal_node_id":"0.0-8.0-3.10","subject":"79z2three1mj14c","sona":"9265"},{"rt":129,"stimulus":"<p>Bereit?</p>","key_press":32,"trial_type":"html-keyboard-response","trial_index":51,"time_elapsed":98831,"internal_node_id":"0.0-8.0-0.11","subject":"79z2three1mj14c","sona":"9265"},{"rt":null,"stimulus":"<div style=\"font-size:60px;\">+</div>","key_press":null,"trial_type":"html-keyboard-response","trial_index":52,"time_elapsed":100845,"internal_node_id":"0.0-8.0-1.11","subject":"79z2three1mj14c","sona":"9265"},{"trial_type":"turing-test","trial_index":53,"time_elapsed":106829,"internal_node_id":"0.0-8.0-2.11","subject":"79z2three1mj14c","sona":"9265"}]