[{"rt":23486,"stimulus":"<p>Welcome!<br> Please choose your language to start the experiment in the chosen language.</p><p>Willkommen!<br> Bitte wählen Sie eine Sprache, um das Experiment in der ausgewählten Sprache zu starten</p>","button_pressed":"1","trial_type":"html-button-response","trial_index":0,"time_elapsed":23493,"internal_node_id":"0.0-0.0","subject":"nmbmpvu63gdf2cn","sona":"9265"},{"view_history":"[{\"page_index\":0,\"viewing_time\":1090},{\"page_index\":1,\"viewing_time\":787},{\"page_index\":2,\"viewing_time\":968},{\"page_index\":3,\"viewing_time\":1788},{\"page_index\":4,\"viewing_time\":922}]","rt":5555,"trial_type":"instructions","trial_index":1,"time_elapsed":29050,"internal_node_id":"0.0-1.0-0.0","subject":"nmbmpvu63gdf2cn","sona":"9265"},{"rt":1548,"stimulus":"<p>Bereit?</p>","key_press":32,"trial_type":"html-keyboard-response","trial_index":2,"time_elapsed":30601,"internal_node_id":"0.0-3.0","subject":"nmbmpvu63gdf2cn","sona":"9265"},{"rt":null,"stimulus":"<div style=\"font-size:60px;\">+</div>","key_press":null,"trial_type":"html-keyboard-response","trial_index":3,"time_elapsed":32629,"internal_node_id":"0.0-4.0","subject":"nmbmpvu63gdf2cn","sona":"9265"},{"trial_type":"training","trial_index":4,"time_elapsed":36113,"internal_node_id":"0.0-5.0","subject":"nmbmpvu63gdf2cn","sona":"9265"},{"rt":781,"stimulus":"<p>Welche Sequenz haben Sie als natürlicher empfunden?</p>","key_press":70,"trial_type":"html-keyboard-response","trial_index":5,"time_elapsed":36896,"internal_node_id":"0.0-6.0","subject":"nmbmpvu63gdf2cn","sona":"9265"},{"rt":7205,"stimulus":"<p>Das Experiment startet nun.</p><p><small>Bitte drücken Sie den Knopf, wenn Sie bereit sind.</small></p>","button_pressed":"0","trial_type":"html-button-response","trial_index":6,"time_elapsed":44103,"internal_node_id":"0.0-7.0","subject":"nmbmpvu63gdf2cn","sona":"9265"},{"rt":1919,"stimulus":"<p>Bereit?</p>","key_press":32,"trial_type":"html-keyboard-response","trial_index":7,"time_elapsed":46024,"internal_node_id":"0.0-8.0-0.0","subject":"nmbmpvu63gdf2cn","sona":"9265"},{"rt":null,"stimulus":"<div style=\"font-size:60px;\">+</div>","key_press":null,"trial_type":"html-keyboard-response","trial_index":8,"time_elapsed":48063,"internal_node_id":"0.0-8.0-1.0","subject":"nmbmpvu63gdf2cn","sona":"9265"},{"trial_type":"turing-test","trial_index":9,"time_elapsed":51639,"internal_node_id":"0.0-8.0-2.0","subject":"nmbmpvu63gdf2cn","sona":"9265"},{"rt":268,"stimulus":"<p>Welche Sequenz haben Sie als natürlicher empfunden?</p>","key_press":70,"test_part":"response","test_stimulus":{"position":0,"left":"bvh/pass-bottle-hold-training3-lines.txt","right":"bvh/vr_prediction_models/model(tmp)-dataset(pass-bottle-hold)-numprim(11)-hold(3)/final-lines.txt","att_check":false},"trial_type":"html-keyboard-response","trial_index":10,"time_elapsed":51910,"internal_node_id":"0.0-8.0-3.0","subject":"nmbmpvu63gdf2cn","sona":"9265"},{"rt":835,"stimulus":"<p>Bereit?</p>","key_press":32,"trial_type":"html-keyboard-response","trial_index":11,"time_elapsed":52748,"internal_node_id":"0.0-8.0-0.1","subject":"nmbmpvu63gdf2cn","sona":"9265"},{"rt":null,"stimulus":"<div style=\"font-size:60px;\">+</div>","key_press":null,"trial_type":"html-keyboard-response","trial_index":12,"time_elapsed":54770,"internal_node_id":"0.0-8.0-1.1","subject":"nmbmpvu63gdf2cn","sona":"9265"},{"trial_type":"turing-test","trial_index":13,"time_elapsed":58151,"internal_node_id":"0.0-8.0-2.1","subject":"nmbmpvu63gdf2cn","sona":"9265"},{"rt":110,"stimulus":"<p>Welche Sequenz haben Sie als natürlicher empfunden?</p>","key_press":70,"test_part":"response","test_stimulus":{"position":0,"left":"bvh/return-bottle-hold-training1-lines.txt","right":"bvh/vr_prediction_models/model(dmp)-dataset(return-bottle-hold)-npsi(50)-hold(1)/final-lines.txt","att_check":false},"trial_type":"html-keyboard-response","trial_index":14,"time_elapsed":58264,"internal_node_id":"0.0-8.0-3.1","subject":"nmbmpvu63gdf2cn","sona":"9265"},{"rt":500,"stimulus":"<p>Bereit?</p>","key_press":32,"trial_type":"html-keyboard-response","trial_index":15,"time_elapsed":58766,"internal_node_id":"0.0-8.0-0.2","subject":"nmbmpvu63gdf2cn","sona":"9265"},{"rt":null,"stimulus":"<div style=\"font-size:60px;\">+</div>","key_press":null,"trial_type":"html-keyboard-response","trial_index":16,"time_elapsed":60791,"internal_node_id":"0.0-8.0-1.2","subject":"nmbmpvu63gdf2cn","sona":"9265"},{"trial_type":"turing-test","trial_index":17,"time_elapsed":66450,"internal_node_id":"0.0-8.0-2.2","subject":"nmbmpvu63gdf2cn","sona":"9265"},{"rt":120,"stimulus":"<p>Welche Sequenz haben Sie als natürlicher empfunden?</p>","key_press":70,"test_part":"response","test_stimulus":{"position":0,"left":"bvh/return-bottle-training0-lines.txt","right":"bvh/vr_prediction_models/model(vcgpdm)-dataset(return-bottle)-mode(ELBO)-parts(1)-dyn(15)-lvm(35)-hold(0)/final-lines.txt","att_check":false},"trial_type":"html-keyboard-response","trial_index":18,"time_elapsed":66572,"internal_node_id":"0.0-8.0-3.2","subject":"nmbmpvu63gdf2cn","sona":"9265"},{"rt":242,"stimulus":"<p>Bereit?</p>","key_press":32,"trial_type":"html-keyboard-response","trial_index":19,"time_elapsed":66817,"internal_node_id":"0.0-8.0-0.3","subject":"nmbmpvu63gdf2cn","sona":"9265"},{"rt":null,"stimulus":"<div style=\"font-size:60px;\">+</div>","key_press":null,"trial_type":"html-keyboard-response","trial_index":20,"time_elapsed":68850,"internal_node_id":"0.0-8.0-1.3","subject":"nmbmpvu63gdf2cn","sona":"9265"},{"trial_type":"turing-test","trial_index":21,"time_elapsed":74401,"internal_node_id":"0.0-8.0-2.3","subject":"nmbmpvu63gdf2cn","sona":"9265"},{"rt":201,"stimulus":"<p>Welche Sequenz haben Sie als natürlicher empfunden?</p>","key_press":70,"test_part":"response","test_stimulus":{"position":0,"left":"bvh/return-bottle-training0-lines.txt","right":"bvh/vr_prediction_models/model(vcgpdm)-dataset(return-bottle)-mode(ELBO)-parts(1)-dyn(35)-lvm(30)-hold(0)/final-lines.txt","att_check":false},"trial_type":"html-keyboard-response","trial_index":22,"time_elapsed":74606,"internal_node_id":"0.0-8.0-3.3","subject":"nmbmpvu63gdf2cn","sona":"9265"},{"rt":359,"stimulus":"<p>Bereit?</p>","key_press":32,"trial_type":"html-keyboard-response","trial_index":23,"time_elapsed":74968,"internal_node_id":"0.0-8.0-0.4","subject":"nmbmpvu63gdf2cn","sona":"9265"},{"rt":null,"stimulus":"<div style=\"font-size:60px;\">+</div>","key_press":null,"trial_type":"html-keyboard-response","trial_index":24,"time_elapsed":76991,"internal_node_id":"0.0-8.0-1.4","subject":"nmbmpvu63gdf2cn","sona":"9265"},{"trial_type":"turing-test","trial_index":25,"time_elapsed":83101,"internal_node_id":"0.0-8.0-2.4","subject":"nmbmpvu63gdf2cn","sona":"9265"},{"rt":215,"stimulus":"<p>Welche Sequenz haben Sie als natürlicher empfunden?</p>","key_press":70,"test_part":"response","test_stimulus":{"position":0,"left":"bvh/pass-bottle-training4-lines.txt","right":"bvh/vr_prediction_models/model(vcgpdm)-dataset(pass-bottle)-mode(ELBO)-parts(1)-dyn(35)-lvm(30)-hold(4)/final-lines.txt","att_check":false},"trial_type":"html-keyboard-response","trial_index":26,"time_elapsed":83318,"internal_node_id":"0.0-8.0-3.4","subject":"nmbmpvu63gdf2cn","sona":"9265"},{"rt":340,"stimulus":"<p>Bereit?</p>","key_press":32,"trial_type":"html-keyboard-response","trial_index":27,"time_elapsed":83659,"internal_node_id":"0.0-8.0-0.5","subject":"nmbmpvu63gdf2cn","sona":"9265"},{"rt":null,"stimulus":"<div style=\"font-size:60px;\">+</div>","key_press":null,"trial_type":"html-keyboard-response","trial_index":28,"time_elapsed":85677,"internal_node_id":"0.0-8.0-1.5","subject":"nmbmpvu63gdf2cn","sona":"9265"},{"trial_type":"turing-test","trial_index":29,"time_elapsed":91468,"internal_node_id":"0.0-8.0-2.5","subject":"nmbmpvu63gdf2cn","sona":"9265"},{"rt":184,"stimulus":"<p>Welche Sequenz haben Sie als natürlicher empfunden?</p>","key_press":74,"test_part":"response","test_stimulus":{"position":0,"left":"bvh/return-bottle-training3-lines.txt","right":"bvh/vr_prediction_models/model(tmp)-dataset(return-bottle)-numprim(4)-hold(3)/final-lines.txt","att_check":false},"trial_type":"html-keyboard-response","trial_index":30,"time_elapsed":91655,"internal_node_id":"0.0-8.0-3.5","subject":"nmbmpvu63gdf2cn","sona":"9265"},{"rt":309,"stimulus":"<p>Bereit?</p>","key_press":32,"trial_type":"html-keyboard-response","trial_index":31,"time_elapsed":91967,"internal_node_id":"0.0-8.0-0.6","subject":"nmbmpvu63gdf2cn","sona":"9265"},{"rt":null,"stimulus":"<div style=\"font-size:60px;\">+</div>","key_press":null,"trial_type":"html-keyboard-response","trial_index":32,"time_elapsed":93988,"internal_node_id":"0.0-8.0-1.6","subject":"nmbmpvu63gdf2cn","sona":"9265"},{"trial_type":"turing-test","trial_index":33,"time_elapsed":99846,"internal_node_id":"0.0-8.0-2.6","subject":"nmbmpvu63gdf2cn","sona":"9265"},{"rt":164,"stimulus":"<p>Welche Sequenz haben Sie als natürlicher empfunden?</p>","key_press":74,"test_part":"response","test_stimulus":{"position":1,"left":"bvh/vr_prediction_models/model(dmp)-dataset(pass-bottle)-npsi(80)-hold(3)/final-lines.txt","right":"bvh/pass-bottle-training3-lines.txt","att_check":false},"trial_type":"html-keyboard-response","trial_index":34,"time_elapsed":100013,"internal_node_id":"0.0-8.0-3.6","subject":"nmbmpvu63gdf2cn","sona":"9265"},{"rt":299,"stimulus":"<p>Bereit?</p>","key_press":32,"trial_type":"html-keyboard-response","trial_index":35,"time_elapsed":100314,"internal_node_id":"0.0-8.0-0.7","subject":"nmbmpvu63gdf2cn","sona":"9265"},{"rt":null,"stimulus":"<div style=\"font-size:60px;\">+</div>","key_press":null,"trial_type":"html-keyboard-response","trial_index":36,"time_elapsed":102347,"internal_node_id":"0.0-8.0-1.7","subject":"nmbmpvu63gdf2cn","sona":"9265"},{"trial_type":"turing-test","trial_index":37,"time_elapsed":105948,"internal_node_id":"0.0-8.0-2.7","subject":"nmbmpvu63gdf2cn","sona":"9265"},{"rt":237,"stimulus":"<p>Welche Sequenz haben Sie als natürlicher empfunden?</p>","key_press":70,"test_part":"response","test_stimulus":{"position":0,"left":"bvh/pass-bottle-hold-training1-lines.txt","right":"bvh/vr_prediction_models/model(vcgpdm)-dataset(pass-bottle-hold)-mode(ELBO)-parts(3)-dyn(25)-lvm(25)-hold(1)/final-lines.txt","att_check":false},"trial_type":"html-keyboard-response","trial_index":38,"time_elapsed":106188,"internal_node_id":"0.0-8.0-3.7","subject":"nmbmpvu63gdf2cn","sona":"9265"},{"rt":490,"stimulus":"<p>Bereit?</p>","key_press":32,"trial_type":"html-keyboard-response","trial_index":39,"time_elapsed":106679,"internal_node_id":"0.0-8.0-0.8","subject":"nmbmpvu63gdf2cn","sona":"9265"},{"rt":null,"stimulus":"<div style=\"font-size:60px;\">+</div>","key_press":null,"trial_type":"html-keyboard-response","trial_index":40,"time_elapsed":108707,"internal_node_id":"0.0-8.0-1.8","subject":"nmbmpvu63gdf2cn","sona":"9265"},{"trial_type":"turing-test","trial_index":41,"time_elapsed":114180,"internal_node_id":"0.0-8.0-2.8","subject":"nmbmpvu63gdf2cn","sona":"9265"},{"rt":25,"stimulus":"<p>Welche Sequenz haben Sie als natürlicher empfunden?</p>","key_press":74,"test_part":"response","test_stimulus":{"position":1,"left":"bvh/vr_prediction_models/model(tmp)-dataset(return-bottle)-numprim(3)-hold(0)/final-lines.txt","right":"bvh/return-bottle-training0-lines.txt","att_check":false},"trial_type":"html-keyboard-response","trial_index":42,"time_elapsed":114210,"internal_node_id":"0.0-8.0-3.8","subject":"nmbmpvu63gdf2cn","sona":"9265"},{"rt":426,"stimulus":"<p>Bereit?</p>","key_press":32,"trial_type":"html-keyboard-response","trial_index":43,"time_elapsed":114638,"internal_node_id":"0.0-8.0-0.9","subject":"nmbmpvu63gdf2cn","sona":"9265"},{"rt":null,"stimulus":"<div style=\"font-size:60px;\">+</div>","key_press":null,"trial_type":"html-keyboard-response","trial_index":44,"time_elapsed":116661,"internal_node_id":"0.0-8.0-1.9","subject":"nmbmpvu63gdf2cn","sona":"9265"},{"trial_type":"turing-test","trial_index":45,"time_elapsed":120572,"internal_node_id":"0.0-8.0-2.9","subject":"nmbmpvu63gdf2cn","sona":"9265"},{"rt":142,"stimulus":"<p>Welche Sequenz haben Sie als natürlicher empfunden?</p>","key_press":74,"test_part":"response","test_stimulus":{"position":1,"left":"bvh/vr_prediction_models/model(vcgpdm)-dataset(return-bottle-hold)-mode(ELBO)-parts(3)-dyn(10)-lvm(25)-hold(4)/final-lines.txt","right":"bvh/return-bottle-hold-training4-lines.txt","att_check":false},"trial_type":"html-keyboard-response","trial_index":46,"time_elapsed":120716,"internal_node_id":"0.0-8.0-3.9","subject":"nmbmpvu63gdf2cn","sona":"9265"},{"rt":283,"stimulus":"<p>Bereit?</p>","key_press":32,"trial_type":"html-keyboard-response","trial_index":47,"time_elapsed":121001,"internal_node_id":"0.0-8.0-0.10","subject":"nmbmpvu63gdf2cn","sona":"9265"},{"rt":null,"stimulus":"<div style=\"font-size:60px;\">+</div>","key_press":null,"trial_type":"html-keyboard-response","trial_index":48,"time_elapsed":123031,"internal_node_id":"0.0-8.0-1.10","subject":"nmbmpvu63gdf2cn","sona":"9265"},{"trial_type":"turing-test","trial_index":49,"time_elapsed":128694,"internal_node_id":"0.0-8.0-2.10","subject":"nmbmpvu63gdf2cn","sona":"9265"},{"rt":206,"stimulus":"<p>Welche Sequenz haben Sie als natürlicher empfunden?</p>","key_press":74,"test_part":"response","test_stimulus":{"position":0,"left":"bvh/pass-bottle-training1-lines.txt","right":"bvh/vr_prediction_models/model(vcgpdm)-dataset(pass-bottle)-mode(ELBO)-parts(1)-dyn(30)-lvm(20)-hold(1)/final-lines.txt","att_check":false},"trial_type":"html-keyboard-response","trial_index":50,"time_elapsed":128903,"internal_node_id":"0.0-8.0-3.10","subject":"nmbmpvu63gdf2cn","sona":"9265"},{"rt":218,"stimulus":"<p>Bereit?</p>","key_press":32,"trial_type":"html-keyboard-response","trial_index":51,"time_elapsed":129124,"internal_node_id":"0.0-8.0-0.11","subject":"nmbmpvu63gdf2cn","sona":"9265"},{"rt":null,"stimulus":"<div style=\"font-size:60px;\">+</div>","key_press":null,"trial_type":"html-keyboard-response","trial_index":52,"time_elapsed":131153,"internal_node_id":"0.0-8.0-1.11","subject":"nmbmpvu63gdf2cn","sona":"9265"},{"trial_type":"turing-test","trial_index":53,"time_elapsed":137256,"internal_node_id":"0.0-8.0-2.11","subject":"nmbmpvu63gdf2cn","sona":"9265"}]