[{"rt":5001,"stimulus":"<p>Welcome!<br> Please choose your language to start the experiment in the chosen language.</p><p>Willkommen!<br> Bitte wählen Sie eine Sprache, um das Experiment in der ausgewählten Sprache zu starten</p>","button_pressed":"1","trial_type":"html-button-response","trial_index":0,"time_elapsed":5020,"internal_node_id":"0.0-0.0","subject":"fslypb6od2z7a51","sona":"5572"},{"view_history":"[{\"page_index\":0,\"viewing_time\":1410},{\"page_index\":1,\"viewing_time\":1282},{\"page_index\":2,\"viewing_time\":1196},{\"page_index\":3,\"viewing_time\":1294},{\"page_index\":4,\"viewing_time\":1418}]","rt":6601,"trial_type":"instructions","trial_index":1,"time_elapsed":11624,"internal_node_id":"0.0-1.0-0.0","subject":"fslypb6od2z7a51","sona":"5572"},{"rt":1342,"stimulus":"<p>Bereit?</p>","key_press":32,"trial_type":"html-keyboard-response","trial_index":2,"time_elapsed":12968,"internal_node_id":"0.0-3.0","subject":"fslypb6od2z7a51","sona":"5572"},{"rt":null,"stimulus":"<div style=\"font-size:60px;\">+</div>","key_press":null,"trial_type":"html-keyboard-response","trial_index":3,"time_elapsed":14971,"internal_node_id":"0.0-4.0","subject":"fslypb6od2z7a51","sona":"5572"},{"trial_type":"training","trial_index":4,"time_elapsed":18544,"internal_node_id":"0.0-5.0","subject":"fslypb6od2z7a51","sona":"5572"},{"rt":741,"stimulus":"<p>Welche Sequenz haben Sie als natürlicher empfunden?</p>","key_press":74,"trial_type":"html-keyboard-response","trial_index":5,"time_elapsed":19286,"internal_node_id":"0.0-6.0","subject":"fslypb6od2z7a51","sona":"5572"},{"rt":3628,"stimulus":"<p>Das Experiment startet nun.</p><p><small>Bitte drücken Sie den Knopf, wenn Sie bereit sind.</small></p>","button_pressed":"0","trial_type":"html-button-response","trial_index":6,"time_elapsed":22915,"internal_node_id":"0.0-7.0","subject":"fslypb6od2z7a51","sona":"5572"},{"rt":1194,"stimulus":"<p>Bereit?</p>","key_press":32,"trial_type":"html-keyboard-response","trial_index":7,"time_elapsed":24110,"internal_node_id":"0.0-8.0-0.0","subject":"fslypb6od2z7a51","sona":"5572"},{"rt":null,"stimulus":"<div style=\"font-size:60px;\">+</div>","key_press":null,"trial_type":"html-keyboard-response","trial_index":8,"time_elapsed":26113,"internal_node_id":"0.0-8.0-1.0","subject":"fslypb6od2z7a51","sona":"5572"},{"trial_type":"turing-test","trial_index":9,"time_elapsed":32867,"internal_node_id":"0.0-8.0-2.0","subject":"fslypb6od2z7a51","sona":"5572"},{"rt":1742,"stimulus":"<p>Welche Sequenz haben Sie als natürlicher empfunden?</p>","key_press":74,"test_part":"response","test_stimulus":{"position":0,"left":"bvh/pass-bottle-training4-lines.txt","right":"bvh/vr_prediction_models/model(dmp)-dataset(pass-bottle)-npsi(60)-hold(4)/final-lines.txt","att_check":false},"trial_type":"html-keyboard-response","trial_index":10,"time_elapsed":34611,"internal_node_id":"0.0-8.0-3.0","subject":"fslypb6od2z7a51","sona":"5572"},{"rt":894,"stimulus":"<p>Bereit?</p>","key_press":32,"trial_type":"html-keyboard-response","trial_index":11,"time_elapsed":35506,"internal_node_id":"0.0-8.0-0.1","subject":"fslypb6od2z7a51","sona":"5572"},{"rt":null,"stimulus":"<div style=\"font-size:60px;\">+</div>","key_press":null,"trial_type":"html-keyboard-response","trial_index":12,"time_elapsed":37510,"internal_node_id":"0.0-8.0-1.1","subject":"fslypb6od2z7a51","sona":"5572"},{"trial_type":"turing-test","trial_index":13,"time_elapsed":45345,"internal_node_id":"0.0-8.0-2.1","subject":"fslypb6od2z7a51","sona":"5572"},{"rt":4735,"stimulus":"<p>Welche Sequenz haben Sie als natürlicher empfunden?</p>","key_press":74,"test_part":"response","test_stimulus":{"position":1,"left":"bvh/vr_prediction_models/model(vcgpdm)-dataset(pass-bottle)-mode(ELBO)-parts(3)-dyn(10)-lvm(10)-hold(0)/final-lines.txt","right":"bvh/pass-bottle-training0-lines.txt","att_check":false},"trial_type":"html-keyboard-response","trial_index":14,"time_elapsed":50081,"internal_node_id":"0.0-8.0-3.1","subject":"fslypb6od2z7a51","sona":"5572"},{"rt":238,"stimulus":"<p>Bereit?</p>","key_press":32,"trial_type":"html-keyboard-response","trial_index":15,"time_elapsed":50320,"internal_node_id":"0.0-8.0-0.2","subject":"fslypb6od2z7a51","sona":"5572"},{"rt":null,"stimulus":"<div style=\"font-size:60px;\">+</div>","key_press":null,"trial_type":"html-keyboard-response","trial_index":16,"time_elapsed":52323,"internal_node_id":"0.0-8.0-1.2","subject":"fslypb6od2z7a51","sona":"5572"},{"trial_type":"turing-test","trial_index":17,"time_elapsed":58762,"internal_node_id":"0.0-8.0-2.2","subject":"fslypb6od2z7a51","sona":"5572"},{"rt":941.0000000000073,"stimulus":"<p>Welche Sequenz haben Sie als natürlicher empfunden?</p>","key_press":74,"test_part":"response","test_stimulus":{"position":1,"left":"bvh/vr_prediction_models/model(tmp)-dataset(return-bottle)-numprim(8)-hold(1)/final-lines.txt","right":"bvh/return-bottle-training1-lines.txt","att_check":false},"trial_type":"html-keyboard-response","trial_index":18,"time_elapsed":59704,"internal_node_id":"0.0-8.0-3.2","subject":"fslypb6od2z7a51","sona":"5572"},{"rt":326,"stimulus":"<p>Bereit?</p>","key_press":32,"trial_type":"html-keyboard-response","trial_index":19,"time_elapsed":60031,"internal_node_id":"0.0-8.0-0.3","subject":"fslypb6od2z7a51","sona":"5572"},{"rt":null,"stimulus":"<div style=\"font-size:60px;\">+</div>","key_press":null,"trial_type":"html-keyboard-response","trial_index":20,"time_elapsed":62034,"internal_node_id":"0.0-8.0-1.3","subject":"fslypb6od2z7a51","sona":"5572"},{"trial_type":"turing-test","trial_index":21,"time_elapsed":67284,"internal_node_id":"0.0-8.0-2.3","subject":"fslypb6od2z7a51","sona":"5572"},{"rt":1122,"stimulus":"<p>Welche Sequenz haben Sie als natürlicher empfunden?</p>","key_press":74,"test_part":"response","test_stimulus":{"position":1,"left":"bvh/vr_prediction_models/model(vcgpdm)-dataset(return-bottle-hold)-mode(ELBO)-parts(1)-dyn(25)-lvm(35)-hold(1)/final-lines.txt","right":"bvh/return-bottle-hold-training1-lines.txt","att_check":false},"trial_type":"html-keyboard-response","trial_index":22,"time_elapsed":68407,"internal_node_id":"0.0-8.0-3.3","subject":"fslypb6od2z7a51","sona":"5572"},{"rt":326,"stimulus":"<p>Bereit?</p>","key_press":32,"trial_type":"html-keyboard-response","trial_index":23,"time_elapsed":68735,"internal_node_id":"0.0-8.0-0.4","subject":"fslypb6od2z7a51","sona":"5572"},{"rt":null,"stimulus":"<div style=\"font-size:60px;\">+</div>","key_press":null,"trial_type":"html-keyboard-response","trial_index":24,"time_elapsed":70738,"internal_node_id":"0.0-8.0-1.4","subject":"fslypb6od2z7a51","sona":"5572"},{"trial_type":"turing-test","trial_index":25,"time_elapsed":77372,"internal_node_id":"0.0-8.0-2.4","subject":"fslypb6od2z7a51","sona":"5572"},{"rt":1761.0000000000146,"stimulus":"<p>Welche Sequenz haben Sie als natürlicher empfunden?</p>","key_press":74,"test_part":"response","test_stimulus":{"position":0,"left":"bvh/return-bottle-training4-lines.txt","right":"bvh/vr_prediction_models/model(tmp)-dataset(return-bottle)-numprim(4)-hold(4)/final-lines.txt","att_check":false},"trial_type":"html-keyboard-response","trial_index":26,"time_elapsed":79135,"internal_node_id":"0.0-8.0-3.4","subject":"fslypb6od2z7a51","sona":"5572"},{"rt":191,"stimulus":"<p>Bereit?</p>","key_press":32,"trial_type":"html-keyboard-response","trial_index":27,"time_elapsed":79327,"internal_node_id":"0.0-8.0-0.5","subject":"fslypb6od2z7a51","sona":"5572"},{"rt":null,"stimulus":"<div style=\"font-size:60px;\">+</div>","key_press":null,"trial_type":"html-keyboard-response","trial_index":28,"time_elapsed":81330,"internal_node_id":"0.0-8.0-1.5","subject":"fslypb6od2z7a51","sona":"5572"},{"trial_type":"turing-test","trial_index":29,"time_elapsed":88096,"internal_node_id":"0.0-8.0-2.5","subject":"fslypb6od2z7a51","sona":"5572"},{"rt":532,"stimulus":"<p>Welche Sequenz haben Sie als natürlicher empfunden?</p>","key_press":70,"test_part":"response","test_stimulus":{"position":1,"left":"bvh/vr_prediction_models/model(tmp)-dataset(pass-bottle)-numprim(10)-hold(0)/final-lines.txt","right":"bvh/pass-bottle-training0-lines.txt","att_check":false},"trial_type":"html-keyboard-response","trial_index":30,"time_elapsed":88631,"internal_node_id":"0.0-8.0-3.5","subject":"fslypb6od2z7a51","sona":"5572"},{"rt":206,"stimulus":"<p>Bereit?</p>","key_press":32,"trial_type":"html-keyboard-response","trial_index":31,"time_elapsed":88838,"internal_node_id":"0.0-8.0-0.6","subject":"fslypb6od2z7a51","sona":"5572"},{"rt":null,"stimulus":"<div style=\"font-size:60px;\">+</div>","key_press":null,"trial_type":"html-keyboard-response","trial_index":32,"time_elapsed":90841,"internal_node_id":"0.0-8.0-1.6","subject":"fslypb6od2z7a51","sona":"5572"},{"trial_type":"turing-test","trial_index":33,"time_elapsed":97429,"internal_node_id":"0.0-8.0-2.6","subject":"fslypb6od2z7a51","sona":"5572"},{"rt":431,"stimulus":"<p>Welche Sequenz haben Sie als natürlicher empfunden?</p>","key_press":74,"test_part":"response","test_stimulus":{"position":0,"left":"bvh/pass-bottle-training0-lines.txt","right":"bvh/vr_prediction_models/model(vcgpdm)-dataset(pass-bottle)-mode(MAP)-parts(1)-hold(0)/final-lines.txt","att_check":false},"trial_type":"html-keyboard-response","trial_index":34,"time_elapsed":97862,"internal_node_id":"0.0-8.0-3.6","subject":"fslypb6od2z7a51","sona":"5572"},{"rt":542,"stimulus":"<p>Bereit?</p>","key_press":32,"trial_type":"html-keyboard-response","trial_index":35,"time_elapsed":98406,"internal_node_id":"0.0-8.0-0.7","subject":"fslypb6od2z7a51","sona":"5572"},{"rt":null,"stimulus":"<div style=\"font-size:60px;\">+</div>","key_press":null,"trial_type":"html-keyboard-response","trial_index":36,"time_elapsed":100409,"internal_node_id":"0.0-8.0-1.7","subject":"fslypb6od2z7a51","sona":"5572"},{"trial_type":"turing-test","trial_index":37,"time_elapsed":107418,"internal_node_id":"0.0-8.0-2.7","subject":"fslypb6od2z7a51","sona":"5572"},{"rt":1370,"stimulus":"<p>Welche Sequenz haben Sie als natürlicher empfunden?</p>","key_press":74,"test_part":"response","test_stimulus":{"position":1,"left":"bvh/vr_prediction_models/model(vcgpdm)-dataset(pass-bottle)-mode(ELBO)-parts(1)-dyn(20)-lvm(30)-hold(4)/final-lines.txt","right":"bvh/pass-bottle-training4-lines.txt","att_check":false},"trial_type":"html-keyboard-response","trial_index":38,"time_elapsed":108790,"internal_node_id":"0.0-8.0-3.7","subject":"fslypb6od2z7a51","sona":"5572"},{"rt":205.00000000001455,"stimulus":"<p>Bereit?</p>","key_press":32,"trial_type":"html-keyboard-response","trial_index":39,"time_elapsed":108997,"internal_node_id":"0.0-8.0-0.8","subject":"fslypb6od2z7a51","sona":"5572"},{"rt":null,"stimulus":"<div style=\"font-size:60px;\">+</div>","key_press":null,"trial_type":"html-keyboard-response","trial_index":40,"time_elapsed":111000,"internal_node_id":"0.0-8.0-1.8","subject":"fslypb6od2z7a51","sona":"5572"},{"trial_type":"turing-test","trial_index":41,"time_elapsed":114658,"internal_node_id":"0.0-8.0-2.8","subject":"fslypb6od2z7a51","sona":"5572"},{"rt":777,"stimulus":"<p>Welche Sequenz haben Sie als natürlicher empfunden?</p>","key_press":70,"test_part":"response","test_stimulus":{"position":0,"left":"bvh/pass-bottle-hold-training4-lines.txt","right":"bvh/vr_prediction_models/model(dmp)-dataset(pass-bottle-hold)-npsi(50)-hold(4)/final-lines.txt","att_check":false},"trial_type":"html-keyboard-response","trial_index":42,"time_elapsed":115438,"internal_node_id":"0.0-8.0-3.8","subject":"fslypb6od2z7a51","sona":"5572"},{"rt":206.00000000001455,"stimulus":"<p>Bereit?</p>","key_press":32,"trial_type":"html-keyboard-response","trial_index":43,"time_elapsed":115646,"internal_node_id":"0.0-8.0-0.9","subject":"fslypb6od2z7a51","sona":"5572"},{"rt":null,"stimulus":"<div style=\"font-size:60px;\">+</div>","key_press":null,"trial_type":"html-keyboard-response","trial_index":44,"time_elapsed":117649,"internal_node_id":"0.0-8.0-1.9","subject":"fslypb6od2z7a51","sona":"5572"},{"trial_type":"turing-test","trial_index":45,"time_elapsed":124754,"internal_node_id":"0.0-8.0-2.9","subject":"fslypb6od2z7a51","sona":"5572"},{"rt":753,"stimulus":"<p>Welche Sequenz haben Sie als natürlicher empfunden?</p>","key_press":70,"test_part":"response","test_stimulus":{"position":0,"left":"bvh/return-bottle-training2-lines.txt","right":"bvh/vr_prediction_models/model(dmp)-dataset(return-bottle)-npsi(80)-hold(2)/final-lines.txt","att_check":false},"trial_type":"html-keyboard-response","trial_index":46,"time_elapsed":125510,"internal_node_id":"0.0-8.0-3.9","subject":"fslypb6od2z7a51","sona":"5572"},{"rt":165.9999999999709,"stimulus":"<p>Bereit?</p>","key_press":32,"trial_type":"html-keyboard-response","trial_index":47,"time_elapsed":125677,"internal_node_id":"0.0-8.0-0.10","subject":"fslypb6od2z7a51","sona":"5572"},{"rt":null,"stimulus":"<div style=\"font-size:60px;\">+</div>","key_press":null,"trial_type":"html-keyboard-response","trial_index":48,"time_elapsed":127680,"internal_node_id":"0.0-8.0-1.10","subject":"fslypb6od2z7a51","sona":"5572"},{"trial_type":"turing-test","trial_index":49,"time_elapsed":131943,"internal_node_id":"0.0-8.0-2.10","subject":"fslypb6od2z7a51","sona":"5572"},{"rt":524,"stimulus":"<p>Welche Sequenz haben Sie als natürlicher empfunden?</p>","key_press":70,"test_part":"response","test_stimulus":{"position":0,"left":"bvh/pass-bottle-hold-training0-lines.txt","right":"bvh/vr_prediction_models/model(vcgpdm)-dataset(pass-bottle-hold)-mode(ELBO)-parts(3)-dyn(25)-lvm(30)-hold(0)/final-lines.txt","att_check":false},"trial_type":"html-keyboard-response","trial_index":50,"time_elapsed":132471,"internal_node_id":"0.0-8.0-3.10","subject":"fslypb6od2z7a51","sona":"5572"},{"rt":293,"stimulus":"<p>Bereit?</p>","key_press":32,"trial_type":"html-keyboard-response","trial_index":51,"time_elapsed":132765,"internal_node_id":"0.0-8.0-0.11","subject":"fslypb6od2z7a51","sona":"5572"},{"rt":null,"stimulus":"<div style=\"font-size:60px;\">+</div>","key_press":null,"trial_type":"html-keyboard-response","trial_index":52,"time_elapsed":134768,"internal_node_id":"0.0-8.0-1.11","subject":"fslypb6od2z7a51","sona":"5572"},{"trial_type":"turing-test","trial_index":53,"time_elapsed":139722,"internal_node_id":"0.0-8.0-2.11","subject":"fslypb6od2z7a51","sona":"5572"}]