[{"rt":1093,"stimulus":"<p>Welcome!<br> Please choose your language to start the experiment in the chosen language.</p><p>Willkommen!<br> Bitte wählen Sie eine Sprache um das Experiment in der ausgewählten Sprache zu starten</p>","button_pressed":"1","trial_type":"html-button-response","trial_index":0,"time_elapsed":1097,"internal_node_id":"0.0-0.0","subject":"u583przy59093lb"},{"view_history":"[{\"page_index\":0,\"viewing_time\":272.00000000000045},{\"page_index\":1,\"viewing_time\":695.0000000000005},{\"page_index\":2,\"viewing_time\":547.9999999999991},{\"page_index\":3,\"viewing_time\":316}]","rt":1831,"trial_type":"instructions","trial_index":1,"time_elapsed":2930,"internal_node_id":"0.0-1.0-0.0","subject":"u583przy59093lb"},{"rt":616,"stimulus":"<p>Bereit?</p>","button_pressed":"0","trial_type":"html-button-response","trial_index":2,"time_elapsed":3546,"internal_node_id":"0.0-3.0","subject":"u583przy59093lb"},{"rt":null,"stimulus":"<div style=\"font-size:60px;\">+</div>","key_press":null,"trial_type":"html-keyboard-response","trial_index":3,"time_elapsed":5548,"internal_node_id":"0.0-4.0","subject":"u583przy59093lb"},{"trial_type":"training","trial_index":4,"time_elapsed":8738,"internal_node_id":"0.0-5.0","subject":"u583przy59093lb"},{"rt":1379.0000000000018,"stimulus":"<p>Welche Sequenz haben Sie als natürlicher empfunden?</p>","button_pressed":"0","trial_type":"html-button-response","trial_index":5,"time_elapsed":10118,"internal_node_id":"0.0-6.0","subject":"u583przy59093lb"},{"rt":579.0000000000018,"stimulus":"<p>Das Experiment startet nun.</p><p> Bitte drücken Sie den Knopf, wenn Sie bereit sind.</p>","button_pressed":"0","trial_type":"html-button-response","trial_index":6,"time_elapsed":10698,"internal_node_id":"0.0-7.0","subject":"u583przy59093lb"},{"rt":994,"stimulus":"<p>Bereit?</p>","button_pressed":"0","trial_type":"html-button-response","trial_index":7,"time_elapsed":11693,"internal_node_id":"0.0-8.0-0.0","subject":"u583przy59093lb"},{"rt":null,"stimulus":"<div style=\"font-size:60px;\">+</div>","key_press":null,"trial_type":"html-keyboard-response","trial_index":8,"time_elapsed":13697,"internal_node_id":"0.0-8.0-1.0","subject":"u583przy59093lb"},{"trial_type":"turing-test","trial_index":9,"time_elapsed":16779,"internal_node_id":"0.0-8.0-2.0","subject":"u583przy59093lb"},{"rt":20853.999999999996,"stimulus":"<p>Welche Sequenz haben Sie als natürlicher empfunden?</p>","button_pressed":"0","test_part":"response","test_stimulus":{"position":0,"left":"bvh/pass-bottle-hold-training1-lines.txt","right":"bvh/vr_prediction_models/model(vcgpdm)-dataset(pass-bottle-hold)-mode(ELBO)-parts(1)-dyn(10)-lvm(30)-hold(1)/final-lines.txt","att_check":false},"trial_type":"html-button-response","trial_index":10,"time_elapsed":37637,"internal_node_id":"0.0-8.0-3.0","subject":"u583przy59093lb"},{"rt":617,"stimulus":"<p>Bereit?</p>","button_pressed":"0","trial_type":"html-button-response","trial_index":11,"time_elapsed":38258,"internal_node_id":"0.0-8.0-0.1","subject":"u583przy59093lb"},{"rt":null,"stimulus":"<div style=\"font-size:60px;\">+</div>","key_press":null,"trial_type":"html-keyboard-response","trial_index":12,"time_elapsed":40259,"internal_node_id":"0.0-8.0-1.1","subject":"u583przy59093lb"},{"trial_type":"turing-test","trial_index":13,"time_elapsed":46386,"internal_node_id":"0.0-8.0-2.1","subject":"u583przy59093lb"}]