[{"rt":1522,"stimulus":"<p>Welcome!<br> Please choose your language to start the experiment in the chosen language.</p><p>Willkommen!<br> Bitte wählen Sie eine Sprache, um das Experiment in der ausgewählten Sprache zu starten</p>","button_pressed":"1","trial_type":"html-button-response","trial_index":0,"time_elapsed":1545,"internal_node_id":"0.0-0.0","subject":"wvjaj87fes7qsro","sona":"5572"},{"view_history":"[{\"page_index\":0,\"viewing_time\":672.9999999999998},{\"page_index\":1,\"viewing_time\":1422},{\"page_index\":2,\"viewing_time\":598},{\"page_index\":3,\"viewing_time\":948},{\"page_index\":4,\"viewing_time\":796}]","rt":4438,"trial_type":"instructions","trial_index":1,"time_elapsed":5984,"internal_node_id":"0.0-1.0-0.0","subject":"wvjaj87fes7qsro","sona":"5572"},{"rt":1181,"stimulus":"<p>Bereit?</p>","key_press":32,"trial_type":"html-keyboard-response","trial_index":2,"time_elapsed":7167,"internal_node_id":"0.0-3.0","subject":"wvjaj87fes7qsro","sona":"5572"},{"rt":null,"stimulus":"<div style=\"font-size:60px;\">+</div>","key_press":null,"trial_type":"html-keyboard-response","trial_index":3,"time_elapsed":9170,"internal_node_id":"0.0-4.0","subject":"wvjaj87fes7qsro","sona":"5572"},{"trial_type":"training","trial_index":4,"time_elapsed":12387,"internal_node_id":"0.0-5.0","subject":"wvjaj87fes7qsro","sona":"5572"},{"rt":2490,"stimulus":"<p>Welche Sequenz haben Sie als natürlicher empfunden?</p>","key_press":70,"trial_type":"html-keyboard-response","trial_index":5,"time_elapsed":14879,"internal_node_id":"0.0-6.0","subject":"wvjaj87fes7qsro","sona":"5572"},{"rt":2890,"stimulus":"<p>Das Experiment startet nun.</p><p><small>Bitte drücken Sie den Knopf, wenn Sie bereit sind.</small></p>","button_pressed":"0","trial_type":"html-button-response","trial_index":6,"time_elapsed":17769,"internal_node_id":"0.0-7.0","subject":"wvjaj87fes7qsro","sona":"5572"},{"rt":940,"stimulus":"<p>Bereit?</p>","key_press":32,"trial_type":"html-keyboard-response","trial_index":7,"time_elapsed":18710,"internal_node_id":"0.0-8.0-0.0","subject":"wvjaj87fes7qsro","sona":"5572"},{"rt":null,"stimulus":"<div style=\"font-size:60px;\">+</div>","key_press":null,"trial_type":"html-keyboard-response","trial_index":8,"time_elapsed":20714,"internal_node_id":"0.0-8.0-1.0","subject":"wvjaj87fes7qsro","sona":"5572"},{"trial_type":"turing-test","trial_index":9,"time_elapsed":25789,"internal_node_id":"0.0-8.0-2.0","subject":"wvjaj87fes7qsro","sona":"5572"},{"rt":1803,"stimulus":"<p>Welche Sequenz haben Sie als natürlicher empfunden?</p>","key_press":70,"test_part":"response","test_stimulus":{"position":0,"left":"bvh/return-bottle-hold-training0-lines.txt","right":"bvh/vr_prediction_models/model(tmp)-dataset(return-bottle-hold)-numprim(12)-hold(0)/final-lines.txt","att_check":false},"trial_type":"html-keyboard-response","trial_index":10,"time_elapsed":27595,"internal_node_id":"0.0-8.0-3.0","subject":"wvjaj87fes7qsro","sona":"5572"},{"rt":125.99999999999636,"stimulus":"<p>Bereit?</p>","key_press":32,"trial_type":"html-keyboard-response","trial_index":11,"time_elapsed":27722,"internal_node_id":"0.0-8.0-0.1","subject":"wvjaj87fes7qsro","sona":"5572"},{"rt":null,"stimulus":"<div style=\"font-size:60px;\">+</div>","key_press":null,"trial_type":"html-keyboard-response","trial_index":12,"time_elapsed":29724,"internal_node_id":"0.0-8.0-1.1","subject":"wvjaj87fes7qsro","sona":"5572"},{"trial_type":"turing-test","trial_index":13,"time_elapsed":35399,"internal_node_id":"0.0-8.0-2.1","subject":"wvjaj87fes7qsro","sona":"5572"},{"rt":2057.0000000000073,"stimulus":"<p>Welche Sequenz haben Sie als natürlicher empfunden?</p>","key_press":74,"test_part":"response","test_stimulus":{"position":1,"left":"bvh/vr_prediction_models/model(vcgpdm)-dataset(pass-bottle)-mode(MAP)-parts(3)-hold(3)/final-lines.txt","right":"bvh/pass-bottle-training3-lines.txt","att_check":false},"trial_type":"html-keyboard-response","trial_index":14,"time_elapsed":37458,"internal_node_id":"0.0-8.0-3.1","subject":"wvjaj87fes7qsro","sona":"5572"},{"rt":334,"stimulus":"<p>Bereit?</p>","key_press":32,"trial_type":"html-keyboard-response","trial_index":15,"time_elapsed":37794,"internal_node_id":"0.0-8.0-0.2","subject":"wvjaj87fes7qsro","sona":"5572"},{"rt":null,"stimulus":"<div style=\"font-size:60px;\">+</div>","key_press":null,"trial_type":"html-keyboard-response","trial_index":16,"time_elapsed":39796,"internal_node_id":"0.0-8.0-1.2","subject":"wvjaj87fes7qsro","sona":"5572"},{"trial_type":"turing-test","trial_index":17,"time_elapsed":46342,"internal_node_id":"0.0-8.0-2.2","subject":"wvjaj87fes7qsro","sona":"5572"},{"rt":1291,"stimulus":"<p>Welche Sequenz haben Sie als natürlicher empfunden?</p>","key_press":70,"test_part":"response","test_stimulus":{"position":0,"left":"bvh/return-bottle-training2-lines.txt","right":"bvh/vr_prediction_models/model(tmp)-dataset(return-bottle)-numprim(8)-hold(2)/final-lines.txt","att_check":false},"trial_type":"html-keyboard-response","trial_index":18,"time_elapsed":47635,"internal_node_id":"0.0-8.0-3.2","subject":"wvjaj87fes7qsro","sona":"5572"},{"rt":190.00000000000728,"stimulus":"<p>Bereit?</p>","key_press":32,"trial_type":"html-keyboard-response","trial_index":19,"time_elapsed":47827,"internal_node_id":"0.0-8.0-0.3","subject":"wvjaj87fes7qsro","sona":"5572"},{"rt":null,"stimulus":"<div style=\"font-size:60px;\">+</div>","key_press":null,"trial_type":"html-keyboard-response","trial_index":20,"time_elapsed":49830,"internal_node_id":"0.0-8.0-1.3","subject":"wvjaj87fes7qsro","sona":"5572"},{"trial_type":"turing-test","trial_index":21,"time_elapsed":55658,"internal_node_id":"0.0-8.0-2.3","subject":"wvjaj87fes7qsro","sona":"5572"},{"rt":397,"stimulus":"<p>Welche Sequenz haben Sie als natürlicher empfunden?</p>","key_press":74,"test_part":"response","test_stimulus":{"position":1,"left":"bvh/vr_prediction_models/model(vcgpdm)-dataset(pass-bottle)-mode(ELBO)-parts(1)-dyn(20)-lvm(20)-hold(4)/final-lines.txt","right":"bvh/pass-bottle-training4-lines.txt","att_check":false},"trial_type":"html-keyboard-response","trial_index":22,"time_elapsed":56056,"internal_node_id":"0.0-8.0-3.3","subject":"wvjaj87fes7qsro","sona":"5572"},{"rt":214.00000000000728,"stimulus":"<p>Bereit?</p>","key_press":32,"trial_type":"html-keyboard-response","trial_index":23,"time_elapsed":56272,"internal_node_id":"0.0-8.0-0.4","subject":"wvjaj87fes7qsro","sona":"5572"},{"rt":null,"stimulus":"<div style=\"font-size:60px;\">+</div>","key_press":null,"trial_type":"html-keyboard-response","trial_index":24,"time_elapsed":58275,"internal_node_id":"0.0-8.0-1.4","subject":"wvjaj87fes7qsro","sona":"5572"},{"trial_type":"turing-test","trial_index":25,"time_elapsed":61761,"internal_node_id":"0.0-8.0-2.4","subject":"wvjaj87fes7qsro","sona":"5572"},{"rt":111.99999999999272,"stimulus":"<p>Welche Sequenz haben Sie als natürlicher empfunden?</p>","key_press":70,"test_part":"response","test_stimulus":{"position":0,"left":"bvh/return-bottle-hold-training3-lines.txt","right":"bvh/vr_prediction_models/model(dmp)-dataset(return-bottle-hold)-npsi(80)-hold(3)/final-lines.txt","att_check":false},"trial_type":"html-keyboard-response","trial_index":26,"time_elapsed":61875,"internal_node_id":"0.0-8.0-3.4","subject":"wvjaj87fes7qsro","sona":"5572"},{"rt":262,"stimulus":"<p>Bereit?</p>","key_press":32,"trial_type":"html-keyboard-response","trial_index":27,"time_elapsed":62139,"internal_node_id":"0.0-8.0-0.5","subject":"wvjaj87fes7qsro","sona":"5572"},{"rt":null,"stimulus":"<div style=\"font-size:60px;\">+</div>","key_press":null,"trial_type":"html-keyboard-response","trial_index":28,"time_elapsed":64142,"internal_node_id":"0.0-8.0-1.5","subject":"wvjaj87fes7qsro","sona":"5572"},{"trial_type":"turing-test","trial_index":29,"time_elapsed":67632,"internal_node_id":"0.0-8.0-2.5","subject":"wvjaj87fes7qsro","sona":"5572"},{"rt":489.00000000001455,"stimulus":"<p>Welche Sequenz haben Sie als natürlicher empfunden?</p>","key_press":70,"test_part":"response","test_stimulus":{"position":0,"left":"bvh/pass-bottle-hold-training0-lines.txt","right":"bvh/vr_prediction_models/model(vcgpdm)-dataset(pass-bottle-hold)-mode(ELBO)-parts(3)-dyn(25)-lvm(25)-hold(0)/final-lines.txt","att_check":false},"trial_type":"html-keyboard-response","trial_index":30,"time_elapsed":68123,"internal_node_id":"0.0-8.0-3.5","subject":"wvjaj87fes7qsro","sona":"5572"},{"rt":742,"stimulus":"<p>Bereit?</p>","key_press":32,"trial_type":"html-keyboard-response","trial_index":31,"time_elapsed":68866,"internal_node_id":"0.0-8.0-0.6","subject":"wvjaj87fes7qsro","sona":"5572"},{"rt":null,"stimulus":"<div style=\"font-size:60px;\">+</div>","key_press":null,"trial_type":"html-keyboard-response","trial_index":32,"time_elapsed":70869,"internal_node_id":"0.0-8.0-1.6","subject":"wvjaj87fes7qsro","sona":"5572"},{"trial_type":"turing-test","trial_index":33,"time_elapsed":74185,"internal_node_id":"0.0-8.0-2.6","subject":"wvjaj87fes7qsro","sona":"5572"},{"rt":831,"stimulus":"<p>Welche Sequenz haben Sie als natürlicher empfunden?</p>","key_press":74,"test_part":"response","test_stimulus":{"position":1,"left":"bvh/vr_prediction_models/model(dmp)-dataset(return-bottle-hold)-npsi(60)-hold(2)/final-lines.txt","right":"bvh/return-bottle-hold-training2-lines.txt","att_check":false},"trial_type":"html-keyboard-response","trial_index":34,"time_elapsed":75019,"internal_node_id":"0.0-8.0-3.6","subject":"wvjaj87fes7qsro","sona":"5572"},{"rt":213,"stimulus":"<p>Bereit?</p>","key_press":32,"trial_type":"html-keyboard-response","trial_index":35,"time_elapsed":75234,"internal_node_id":"0.0-8.0-0.7","subject":"wvjaj87fes7qsro","sona":"5572"},{"rt":null,"stimulus":"<div style=\"font-size:60px;\">+</div>","key_press":null,"trial_type":"html-keyboard-response","trial_index":36,"time_elapsed":77237,"internal_node_id":"0.0-8.0-1.7","subject":"wvjaj87fes7qsro","sona":"5572"},{"trial_type":"turing-test","trial_index":37,"time_elapsed":83181,"internal_node_id":"0.0-8.0-2.7","subject":"wvjaj87fes7qsro","sona":"5572"},{"rt":483,"stimulus":"<p>Welche Sequenz haben Sie als natürlicher empfunden?</p>","key_press":74,"test_part":"response","test_stimulus":{"position":1,"left":"bvh/vr_prediction_models/model(tmp)-dataset(pass-bottle)-numprim(4)-hold(2)/final-lines.txt","right":"bvh/pass-bottle-training2-lines.txt","att_check":false},"trial_type":"html-keyboard-response","trial_index":38,"time_elapsed":83665,"internal_node_id":"0.0-8.0-3.7","subject":"wvjaj87fes7qsro","sona":"5572"},{"rt":126,"stimulus":"<p>Bereit?</p>","key_press":32,"trial_type":"html-keyboard-response","trial_index":39,"time_elapsed":83793,"internal_node_id":"0.0-8.0-0.8","subject":"wvjaj87fes7qsro","sona":"5572"},{"rt":null,"stimulus":"<div style=\"font-size:60px;\">+</div>","key_press":null,"trial_type":"html-keyboard-response","trial_index":40,"time_elapsed":85796,"internal_node_id":"0.0-8.0-1.8","subject":"wvjaj87fes7qsro","sona":"5572"},{"trial_type":"turing-test","trial_index":41,"time_elapsed":92022,"internal_node_id":"0.0-8.0-2.8","subject":"wvjaj87fes7qsro","sona":"5572"},{"rt":3434,"stimulus":"<p>Welche Sequenz haben Sie als natürlicher empfunden?</p>","key_press":74,"test_part":"response","test_stimulus":{"position":1,"left":"bvh/vr_prediction_models/model(vcgpdm)-dataset(pass-bottle)-mode(ELBO)-parts(3)-dyn(10)-lvm(25)-hold(2)/final-lines.txt","right":"bvh/pass-bottle-training2-lines.txt","att_check":false},"trial_type":"html-keyboard-response","trial_index":42,"time_elapsed":95457,"internal_node_id":"0.0-8.0-3.8","subject":"wvjaj87fes7qsro","sona":"5572"},{"rt":190.00000000001455,"stimulus":"<p>Bereit?</p>","key_press":32,"trial_type":"html-keyboard-response","trial_index":43,"time_elapsed":95649,"internal_node_id":"0.0-8.0-0.9","subject":"wvjaj87fes7qsro","sona":"5572"},{"rt":null,"stimulus":"<div style=\"font-size:60px;\">+</div>","key_press":null,"trial_type":"html-keyboard-response","trial_index":44,"time_elapsed":97652,"internal_node_id":"0.0-8.0-1.9","subject":"wvjaj87fes7qsro","sona":"5572"},{"trial_type":"turing-test","trial_index":45,"time_elapsed":101002,"internal_node_id":"0.0-8.0-2.9","subject":"wvjaj87fes7qsro","sona":"5572"},{"rt":3866,"stimulus":"<p>Welche Sequenz haben Sie als natürlicher empfunden?</p>","key_press":74,"test_part":"response","test_stimulus":{"position":1,"left":"bvh/vr_prediction_models/model(vcgpdm)-dataset(pass-bottle-hold)-mode(ELBO)-parts(3)-dyn(10)-lvm(25)-hold(1)/final-lines.txt","right":"bvh/pass-bottle-hold-training1-lines.txt","att_check":false},"trial_type":"html-keyboard-response","trial_index":46,"time_elapsed":104870,"internal_node_id":"0.0-8.0-3.9","subject":"wvjaj87fes7qsro","sona":"5572"},{"rt":100.99999999998545,"stimulus":"<p>Bereit?</p>","key_press":32,"trial_type":"html-keyboard-response","trial_index":47,"time_elapsed":104974,"internal_node_id":"0.0-8.0-0.10","subject":"wvjaj87fes7qsro","sona":"5572"},{"rt":null,"stimulus":"<div style=\"font-size:60px;\">+</div>","key_press":null,"trial_type":"html-keyboard-response","trial_index":48,"time_elapsed":106977,"internal_node_id":"0.0-8.0-1.10","subject":"wvjaj87fes7qsro","sona":"5572"},{"trial_type":"turing-test","trial_index":49,"time_elapsed":112466,"internal_node_id":"0.0-8.0-2.10","subject":"wvjaj87fes7qsro","sona":"5572"},{"rt":425.00000000001455,"stimulus":"<p>Welche Sequenz haben Sie als natürlicher empfunden?</p>","key_press":74,"test_part":"response","test_stimulus":{"position":1,"left":"bvh/vr_prediction_models/model(vcgpdm)-dataset(return-bottle)-mode(ELBO)-parts(3)-dyn(30)-lvm(15)-hold(0)/final-lines.txt","right":"bvh/return-bottle-training0-lines.txt","att_check":false},"trial_type":"html-keyboard-response","trial_index":50,"time_elapsed":112893,"internal_node_id":"0.0-8.0-3.10","subject":"wvjaj87fes7qsro","sona":"5572"},{"rt":206,"stimulus":"<p>Bereit?</p>","key_press":32,"trial_type":"html-keyboard-response","trial_index":51,"time_elapsed":113101,"internal_node_id":"0.0-8.0-0.11","subject":"wvjaj87fes7qsro","sona":"5572"},{"rt":null,"stimulus":"<div style=\"font-size:60px;\">+</div>","key_press":null,"trial_type":"html-keyboard-response","trial_index":52,"time_elapsed":115104,"internal_node_id":"0.0-8.0-1.11","subject":"wvjaj87fes7qsro","sona":"5572"},{"trial_type":"turing-test","trial_index":53,"time_elapsed":120347,"internal_node_id":"0.0-8.0-2.11","subject":"wvjaj87fes7qsro","sona":"5572"}]