[{"rt":2075.2600000123493,"stimulus":"<p>Welcome!<br> Please choose your language to start the experiment in the chosen language.</p><p>Willkommen!<br> Bitte wählen Sie eine Sprache, um das Experiment in der ausgewählten Sprache zu starten</p>","button_pressed":"1","trial_type":"html-button-response","trial_index":0,"time_elapsed":2096,"internal_node_id":"0.0-0.0","subject":"ew267u1m5kk38ty","sona":"7033"},{"view_history":"[{\"page_index\":0,\"viewing_time\":4990.445000003092},{\"page_index\":1,\"viewing_time\":2683.6749999929452},{\"page_index\":2,\"viewing_time\":173193.11999999627},{\"page_index\":3,\"viewing_time\":6810.325000013108},{\"page_index\":4,\"viewing_time\":2317.989999995916}]","rt":189996.32500000007,"trial_type":"instructions","trial_index":1,"time_elapsed":192093,"internal_node_id":"0.0-1.0-0.0","subject":"ew267u1m5kk38ty","sona":"7033"},{"rt":2682.7199999970617,"stimulus":"<p>Bereit?</p>","key_press":32,"trial_type":"html-keyboard-response","trial_index":2,"time_elapsed":194778,"internal_node_id":"0.0-3.0","subject":"ew267u1m5kk38ty","sona":"7033"},{"rt":null,"stimulus":"<div style=\"font-size:60px;\">+</div>","key_press":null,"trial_type":"html-keyboard-response","trial_index":3,"time_elapsed":196780,"internal_node_id":"0.0-4.0","subject":"ew267u1m5kk38ty","sona":"7033"},{"trial_type":"training","trial_index":4,"time_elapsed":200122,"internal_node_id":"0.0-5.0","subject":"ew267u1m5kk38ty","sona":"7033"},{"rt":1521.7699999921024,"stimulus":"<p>Welche Sequenz haben Sie als natürlicher empfunden?</p>","key_press":70,"trial_type":"html-keyboard-response","trial_index":5,"time_elapsed":201647,"internal_node_id":"0.0-6.0","subject":"ew267u1m5kk38ty","sona":"7033"},{"rt":3446.7449999938253,"stimulus":"<p>Das Experiment startet nun.</p><p><small>Bitte drücken Sie den Knopf, wenn Sie bereit sind.</small></p>","button_pressed":"0","trial_type":"html-button-response","trial_index":6,"time_elapsed":205095,"internal_node_id":"0.0-7.0","subject":"ew267u1m5kk38ty","sona":"7033"},{"rt":1971.5149999974528,"stimulus":"<p>Bereit?</p>","key_press":32,"trial_type":"html-keyboard-response","trial_index":7,"time_elapsed":207068,"internal_node_id":"0.0-8.0-0.0","subject":"ew267u1m5kk38ty","sona":"7033"},{"rt":null,"stimulus":"<div style=\"font-size:60px;\">+</div>","key_press":null,"trial_type":"html-keyboard-response","trial_index":8,"time_elapsed":209072,"internal_node_id":"0.0-8.0-1.0","subject":"ew267u1m5kk38ty","sona":"7033"},{"trial_type":"turing-test","trial_index":9,"time_elapsed":212441,"internal_node_id":"0.0-8.0-2.0","subject":"ew267u1m5kk38ty","sona":"7033"},{"rt":1837.4949999997625,"stimulus":"<p>Welche Sequenz haben Sie als natürlicher empfunden?</p>","key_press":70,"test_part":"response","test_stimulus":{"position":0,"left":"bvh/pass-bottle-hold-training0-lines.txt","right":"bvh/vr_prediction_models/model(vcgpdm)-dataset(pass-bottle-hold)-mode(ELBO)-parts(1)-dyn(5)-lvm(5)-hold(0)/final-lines.txt","att_check":false},"trial_type":"html-keyboard-response","trial_index":10,"time_elapsed":214285,"internal_node_id":"0.0-8.0-3.0","subject":"ew267u1m5kk38ty","sona":"7033"},{"rt":1072.5299999903655,"stimulus":"<p>Bereit?</p>","key_press":32,"trial_type":"html-keyboard-response","trial_index":11,"time_elapsed":215362,"internal_node_id":"0.0-8.0-0.1","subject":"ew267u1m5kk38ty","sona":"7033"},{"rt":null,"stimulus":"<div style=\"font-size:60px;\">+</div>","key_press":null,"trial_type":"html-keyboard-response","trial_index":12,"time_elapsed":217365,"internal_node_id":"0.0-8.0-1.1","subject":"ew267u1m5kk38ty","sona":"7033"},{"trial_type":"turing-test","trial_index":13,"time_elapsed":222526,"internal_node_id":"0.0-8.0-2.1","subject":"ew267u1m5kk38ty","sona":"7033"},{"rt":147.33999999589287,"stimulus":"<p>Welche Sequenz haben Sie als natürlicher empfunden?</p>","key_press":74,"test_part":"response","test_stimulus":{"position":1,"left":"bvh/vr_prediction_models/model(vcgpdm)-dataset(return-bottle-hold)-mode(ELBO)-parts(1)-dyn(30)-lvm(30)-hold(0)/final-lines.txt","right":"bvh/return-bottle-hold-training0-lines.txt","att_check":false},"trial_type":"html-keyboard-response","trial_index":14,"time_elapsed":222680,"internal_node_id":"0.0-8.0-3.1","subject":"ew267u1m5kk38ty","sona":"7033"},{"rt":930.1200000045355,"stimulus":"<p>Bereit?</p>","key_press":32,"trial_type":"html-keyboard-response","trial_index":15,"time_elapsed":223615,"internal_node_id":"0.0-8.0-0.2","subject":"ew267u1m5kk38ty","sona":"7033"},{"rt":null,"stimulus":"<div style=\"font-size:60px;\">+</div>","key_press":null,"trial_type":"html-keyboard-response","trial_index":16,"time_elapsed":225618,"internal_node_id":"0.0-8.0-1.2","subject":"ew267u1m5kk38ty","sona":"7033"},{"trial_type":"turing-test","trial_index":17,"time_elapsed":229309,"internal_node_id":"0.0-8.0-2.2","subject":"ew267u1m5kk38ty","sona":"7033"},{"rt":1093.8750000059372,"stimulus":"<p>Welche Sequenz haben Sie als natürlicher empfunden?</p>","key_press":70,"test_part":"response","test_stimulus":{"position":1,"left":"bvh/vr_prediction_models/model(dmp)-dataset(return-bottle-hold)-npsi(60)-hold(4)/final-lines.txt","right":"bvh/return-bottle-hold-training4-lines.txt","att_check":false},"trial_type":"html-keyboard-response","trial_index":18,"time_elapsed":230410,"internal_node_id":"0.0-8.0-3.2","subject":"ew267u1m5kk38ty","sona":"7033"},{"rt":594.9099999997998,"stimulus":"<p>Bereit?</p>","key_press":32,"trial_type":"html-keyboard-response","trial_index":19,"time_elapsed":231008,"internal_node_id":"0.0-8.0-0.3","subject":"ew267u1m5kk38ty","sona":"7033"},{"rt":null,"stimulus":"<div style=\"font-size:60px;\">+</div>","key_press":null,"trial_type":"html-keyboard-response","trial_index":20,"time_elapsed":233011,"internal_node_id":"0.0-8.0-1.3","subject":"ew267u1m5kk38ty","sona":"7033"},{"trial_type":"turing-test","trial_index":21,"time_elapsed":236591,"internal_node_id":"0.0-8.0-2.3","subject":"ew267u1m5kk38ty","sona":"7033"},{"rt":392.4700000061421,"stimulus":"<p>Welche Sequenz haben Sie als natürlicher empfunden?</p>","key_press":70,"test_part":"response","test_stimulus":{"position":1,"left":"bvh/vr_prediction_models/model(vcgpdm)-dataset(return-bottle-hold)-mode(MAP)-parts(1)-hold(2)/final-lines.txt","right":"bvh/return-bottle-hold-training2-lines.txt","att_check":false},"trial_type":"html-keyboard-response","trial_index":22,"time_elapsed":236988,"internal_node_id":"0.0-8.0-3.3","subject":"ew267u1m5kk38ty","sona":"7033"},{"rt":413.55499999190215,"stimulus":"<p>Bereit?</p>","key_press":32,"trial_type":"html-keyboard-response","trial_index":23,"time_elapsed":237406,"internal_node_id":"0.0-8.0-0.4","subject":"ew267u1m5kk38ty","sona":"7033"},{"rt":null,"stimulus":"<div style=\"font-size:60px;\">+</div>","key_press":null,"trial_type":"html-keyboard-response","trial_index":24,"time_elapsed":239410,"internal_node_id":"0.0-8.0-1.4","subject":"ew267u1m5kk38ty","sona":"7033"},{"trial_type":"turing-test","trial_index":25,"time_elapsed":245954,"internal_node_id":"0.0-8.0-2.4","subject":"ew267u1m5kk38ty","sona":"7033"},{"rt":2493.7750000099186,"stimulus":"<p>Welche Sequenz haben Sie als natürlicher empfunden?</p>","key_press":74,"test_part":"response","test_stimulus":{"position":0,"left":"bvh/return-bottle-training2-lines.txt","right":"bvh/vr_prediction_models/model(tmp)-dataset(return-bottle)-numprim(8)-hold(2)/final-lines.txt","att_check":false},"trial_type":"html-keyboard-response","trial_index":26,"time_elapsed":248456,"internal_node_id":"0.0-8.0-3.4","subject":"ew267u1m5kk38ty","sona":"7033"},{"rt":542.6399999996647,"stimulus":"<p>Bereit?</p>","key_press":32,"trial_type":"html-keyboard-response","trial_index":27,"time_elapsed":249003,"internal_node_id":"0.0-8.0-0.5","subject":"ew267u1m5kk38ty","sona":"7033"},{"rt":null,"stimulus":"<div style=\"font-size:60px;\">+</div>","key_press":null,"trial_type":"html-keyboard-response","trial_index":28,"time_elapsed":251005,"internal_node_id":"0.0-8.0-1.5","subject":"ew267u1m5kk38ty","sona":"7033"},{"trial_type":"turing-test","trial_index":29,"time_elapsed":254496,"internal_node_id":"0.0-8.0-2.5","subject":"ew267u1m5kk38ty","sona":"7033"},{"rt":918.7550000060583,"stimulus":"<p>Welche Sequenz haben Sie als natürlicher empfunden?</p>","key_press":74,"test_part":"response","test_stimulus":{"position":0,"left":"bvh/return-bottle-hold-training2-lines.txt","right":"bvh/vr_prediction_models/model(vcgpdm)-dataset(return-bottle-hold)-mode(ELBO)-parts(1)-dyn(20)-lvm(5)-hold(2)/final-lines.txt","att_check":false},"trial_type":"html-keyboard-response","trial_index":30,"time_elapsed":255420,"internal_node_id":"0.0-8.0-3.5","subject":"ew267u1m5kk38ty","sona":"7033"},{"rt":504.4199999974808,"stimulus":"<p>Bereit?</p>","key_press":32,"trial_type":"html-keyboard-response","trial_index":31,"time_elapsed":255927,"internal_node_id":"0.0-8.0-0.6","subject":"ew267u1m5kk38ty","sona":"7033"},{"rt":null,"stimulus":"<div style=\"font-size:60px;\">+</div>","key_press":null,"trial_type":"html-keyboard-response","trial_index":32,"time_elapsed":257929,"internal_node_id":"0.0-8.0-1.6","subject":"ew267u1m5kk38ty","sona":"7033"},{"trial_type":"turing-test","trial_index":33,"time_elapsed":261198,"internal_node_id":"0.0-8.0-2.6","subject":"ew267u1m5kk38ty","sona":"7033"},{"rt":306.9099999993341,"stimulus":"<p>Welche Sequenz haben Sie als natürlicher empfunden?</p>","key_press":74,"test_part":"response","test_stimulus":{"position":0,"left":"bvh/pass-bottle-hold-training0-lines.txt","right":"bvh/vr_prediction_models/model(tmp)-dataset(pass-bottle-hold)-numprim(13)-hold(0)/final-lines.txt","att_check":false},"trial_type":"html-keyboard-response","trial_index":34,"time_elapsed":261512,"internal_node_id":"0.0-8.0-3.6","subject":"ew267u1m5kk38ty","sona":"7033"},{"rt":484.21999999845866,"stimulus":"<p>Bereit?</p>","key_press":32,"trial_type":"html-keyboard-response","trial_index":35,"time_elapsed":261999,"internal_node_id":"0.0-8.0-0.7","subject":"ew267u1m5kk38ty","sona":"7033"},{"rt":null,"stimulus":"<div style=\"font-size:60px;\">+</div>","key_press":null,"trial_type":"html-keyboard-response","trial_index":36,"time_elapsed":264001,"internal_node_id":"0.0-8.0-1.7","subject":"ew267u1m5kk38ty","sona":"7033"},{"trial_type":"turing-test","trial_index":37,"time_elapsed":269116,"internal_node_id":"0.0-8.0-2.7","subject":"ew267u1m5kk38ty","sona":"7033"},{"rt":378.06499999715015,"stimulus":"<p>Welche Sequenz haben Sie als natürlicher empfunden?</p>","key_press":74,"test_part":"response","test_stimulus":{"position":1,"left":"bvh/vr_prediction_models/model(vcgpdm)-dataset(return-bottle-hold)-mode(ELBO)-parts(3)-dyn(35)-lvm(20)-hold(0)/final-lines.txt","right":"bvh/return-bottle-hold-training0-lines.txt","att_check":false},"trial_type":"html-keyboard-response","trial_index":38,"time_elapsed":269501,"internal_node_id":"0.0-8.0-3.7","subject":"ew267u1m5kk38ty","sona":"7033"},{"rt":382.7000000019325,"stimulus":"<p>Bereit?</p>","key_press":32,"trial_type":"html-keyboard-response","trial_index":39,"time_elapsed":269886,"internal_node_id":"0.0-8.0-0.8","subject":"ew267u1m5kk38ty","sona":"7033"},{"rt":null,"stimulus":"<div style=\"font-size:60px;\">+</div>","key_press":null,"trial_type":"html-keyboard-response","trial_index":40,"time_elapsed":271889,"internal_node_id":"0.0-8.0-1.8","subject":"ew267u1m5kk38ty","sona":"7033"},{"trial_type":"turing-test","trial_index":41,"time_elapsed":277366,"internal_node_id":"0.0-8.0-2.8","subject":"ew267u1m5kk38ty","sona":"7033"},{"rt":966.7150000022957,"stimulus":"<p>Welche Sequenz haben Sie als natürlicher empfunden?</p>","key_press":70,"test_part":"response","test_stimulus":{"position":1,"left":"bvh/vr_prediction_models/model(vcgpdm)-dataset(pass-bottle)-mode(ELBO)-parts(3)-dyn(15)-lvm(30)-hold(1)/final-lines.txt","right":"bvh/pass-bottle-training1-lines.txt","att_check":false},"trial_type":"html-keyboard-response","trial_index":42,"time_elapsed":278338,"internal_node_id":"0.0-8.0-3.8","subject":"ew267u1m5kk38ty","sona":"7033"},{"rt":326.43499999539927,"stimulus":"<p>Bereit?</p>","key_press":32,"trial_type":"html-keyboard-response","trial_index":43,"time_elapsed":278669,"internal_node_id":"0.0-8.0-0.9","subject":"ew267u1m5kk38ty","sona":"7033"},{"rt":null,"stimulus":"<div style=\"font-size:60px;\">+</div>","key_press":null,"trial_type":"html-keyboard-response","trial_index":44,"time_elapsed":280672,"internal_node_id":"0.0-8.0-1.9","subject":"ew267u1m5kk38ty","sona":"7033"},{"trial_type":"turing-test","trial_index":45,"time_elapsed":286576,"internal_node_id":"0.0-8.0-2.9","subject":"ew267u1m5kk38ty","sona":"7033"},{"rt":646.4750000013737,"stimulus":"<p>Welche Sequenz haben Sie als natürlicher empfunden?</p>","key_press":74,"test_part":"response","test_stimulus":{"position":0,"left":"bvh/pass-bottle-training3-lines.txt","right":"bvh/vr_prediction_models/model(vcgpdm)-dataset(pass-bottle)-mode(ELBO)-parts(1)-dyn(10)-lvm(25)-hold(3)/final-lines.txt","att_check":false},"trial_type":"html-keyboard-response","trial_index":46,"time_elapsed":287229,"internal_node_id":"0.0-8.0-3.9","subject":"ew267u1m5kk38ty","sona":"7033"},{"rt":263.2699999958277,"stimulus":"<p>Bereit?</p>","key_press":32,"trial_type":"html-keyboard-response","trial_index":47,"time_elapsed":287496,"internal_node_id":"0.0-8.0-0.10","subject":"ew267u1m5kk38ty","sona":"7033"},{"rt":null,"stimulus":"<div style=\"font-size:60px;\">+</div>","key_press":null,"trial_type":"html-keyboard-response","trial_index":48,"time_elapsed":289499,"internal_node_id":"0.0-8.0-1.10","subject":"ew267u1m5kk38ty","sona":"7033"},{"trial_type":"turing-test","trial_index":49,"time_elapsed":295220,"internal_node_id":"0.0-8.0-2.10","subject":"ew267u1m5kk38ty","sona":"7033"},{"rt":576.8150000076275,"stimulus":"<p>Welche Sequenz haben Sie als natürlicher empfunden?</p>","key_press":74,"test_part":"response","test_stimulus":{"position":1,"left":"bvh/vr_prediction_models/model(dmp)-dataset(pass-bottle)-npsi(10)-hold(4)/final-lines.txt","right":"bvh/pass-bottle-training4-lines.txt","att_check":false},"trial_type":"html-keyboard-response","trial_index":50,"time_elapsed":295803,"internal_node_id":"0.0-8.0-3.10","subject":"ew267u1m5kk38ty","sona":"7033"},{"rt":253.96999999065883,"stimulus":"<p>Bereit?</p>","key_press":32,"trial_type":"html-keyboard-response","trial_index":51,"time_elapsed":296060,"internal_node_id":"0.0-8.0-0.11","subject":"ew267u1m5kk38ty","sona":"7033"},{"rt":null,"stimulus":"<div style=\"font-size:60px;\">+</div>","key_press":null,"trial_type":"html-keyboard-response","trial_index":52,"time_elapsed":298063,"internal_node_id":"0.0-8.0-1.11","subject":"ew267u1m5kk38ty","sona":"7033"}]