[{"rt":2441,"stimulus":"<p>Welcome!<br> Please choose your language to start the experiment in the chosen language.</p><p>Willkommen!<br> Bitte wählen Sie eine Sprache, um das Experiment in der ausgewählten Sprache zu starten</p>","button_pressed":"1","trial_type":"html-button-response","trial_index":0,"time_elapsed":2449,"internal_node_id":"0.0-0.0","subject":"yrnbe84286ys9wo","sona":"9472"},{"view_history":"[{\"page_index\":0,\"viewing_time\":7340},{\"page_index\":1,\"viewing_time\":3552},{\"page_index\":2,\"viewing_time\":8408},{\"page_index\":3,\"viewing_time\":8373},{\"page_index\":4,\"viewing_time\":2407}]","rt":30080,"trial_type":"instructions","trial_index":1,"time_elapsed":32532,"internal_node_id":"0.0-1.0-0.0","subject":"yrnbe84286ys9wo","sona":"9472"},{"rt":1997,"stimulus":"<p>Bereit?</p>","key_press":32,"trial_type":"html-keyboard-response","trial_index":2,"time_elapsed":34532,"internal_node_id":"0.0-3.0","subject":"yrnbe84286ys9wo","sona":"9472"},{"rt":null,"stimulus":"<div style=\"font-size:60px;\">+</div>","key_press":null,"trial_type":"html-keyboard-response","trial_index":3,"time_elapsed":36556,"internal_node_id":"0.0-4.0","subject":"yrnbe84286ys9wo","sona":"9472"},{"trial_type":"training","trial_index":4,"time_elapsed":40057,"internal_node_id":"0.0-5.0","subject":"yrnbe84286ys9wo","sona":"9472"},{"rt":3048,"stimulus":"<p>Welche Sequenz haben Sie als natürlicher empfunden?</p>","key_press":70,"trial_type":"html-keyboard-response","trial_index":5,"time_elapsed":43105,"internal_node_id":"0.0-6.0","subject":"yrnbe84286ys9wo","sona":"9472"},{"rt":4582,"stimulus":"<p>Das Experiment startet nun.</p><p><small>Bitte drücken Sie den Knopf, wenn Sie bereit sind.</small></p>","button_pressed":"0","trial_type":"html-button-response","trial_index":6,"time_elapsed":47688,"internal_node_id":"0.0-7.0","subject":"yrnbe84286ys9wo","sona":"9472"},{"rt":2034,"stimulus":"<p>Bereit?</p>","key_press":32,"trial_type":"html-keyboard-response","trial_index":7,"time_elapsed":49727,"internal_node_id":"0.0-8.0-0.0","subject":"yrnbe84286ys9wo","sona":"9472"},{"rt":null,"stimulus":"<div style=\"font-size:60px;\">+</div>","key_press":null,"trial_type":"html-keyboard-response","trial_index":8,"time_elapsed":51756,"internal_node_id":"0.0-8.0-1.0","subject":"yrnbe84286ys9wo","sona":"9472"},{"trial_type":"turing-test","trial_index":9,"time_elapsed":55067,"internal_node_id":"0.0-8.0-2.0","subject":"yrnbe84286ys9wo","sona":"9472"},{"rt":1034,"stimulus":"<p>Welche Sequenz haben Sie als natürlicher empfunden?</p>","key_press":74,"test_part":"response","test_stimulus":{"position":1,"left":"bvh/vr_prediction_models/model(tmp)-dataset(pass-bottle-hold)-numprim(9)-hold(0)/final-lines.txt","right":"bvh/pass-bottle-hold-training0-lines.txt","att_check":false},"trial_type":"html-keyboard-response","trial_index":10,"time_elapsed":56102,"internal_node_id":"0.0-8.0-3.0","subject":"yrnbe84286ys9wo","sona":"9472"},{"rt":2623,"stimulus":"<p>Bereit?</p>","key_press":32,"trial_type":"html-keyboard-response","trial_index":11,"time_elapsed":58729,"internal_node_id":"0.0-8.0-0.1","subject":"yrnbe84286ys9wo","sona":"9472"},{"rt":null,"stimulus":"<div style=\"font-size:60px;\">+</div>","key_press":null,"trial_type":"html-keyboard-response","trial_index":12,"time_elapsed":60768,"internal_node_id":"0.0-8.0-1.1","subject":"yrnbe84286ys9wo","sona":"9472"},{"trial_type":"turing-test","trial_index":13,"time_elapsed":66966,"internal_node_id":"0.0-8.0-2.1","subject":"yrnbe84286ys9wo","sona":"9472"},{"rt":767,"stimulus":"<p>Welche Sequenz haben Sie als natürlicher empfunden?</p>","key_press":74,"test_part":"response","test_stimulus":{"position":1,"left":"bvh/vr_prediction_models/model(vcgpdm)-dataset(pass-bottle)-mode(ELBO)-parts(1)-dyn(35)-lvm(10)-hold(2)/final-lines.txt","right":"bvh/pass-bottle-training2-lines.txt","att_check":false},"trial_type":"html-keyboard-response","trial_index":14,"time_elapsed":67736,"internal_node_id":"0.0-8.0-3.1","subject":"yrnbe84286ys9wo","sona":"9472"},{"rt":961,"stimulus":"<p>Bereit?</p>","key_press":32,"trial_type":"html-keyboard-response","trial_index":15,"time_elapsed":68700,"internal_node_id":"0.0-8.0-0.2","subject":"yrnbe84286ys9wo","sona":"9472"},{"rt":null,"stimulus":"<div style=\"font-size:60px;\">+</div>","key_press":null,"trial_type":"html-keyboard-response","trial_index":16,"time_elapsed":70726,"internal_node_id":"0.0-8.0-1.2","subject":"yrnbe84286ys9wo","sona":"9472"},{"trial_type":"turing-test","trial_index":17,"time_elapsed":76171,"internal_node_id":"0.0-8.0-2.2","subject":"yrnbe84286ys9wo","sona":"9472"},{"rt":551,"stimulus":"<p>Welche Sequenz haben Sie als natürlicher empfunden?</p>","key_press":70,"test_part":"response","test_stimulus":{"position":1,"left":"bvh/vr_prediction_models/model(dmp)-dataset(pass-bottle)-npsi(80)-hold(1)/final-lines.txt","right":"bvh/pass-bottle-training1-lines.txt","att_check":false},"trial_type":"html-keyboard-response","trial_index":18,"time_elapsed":76725,"internal_node_id":"0.0-8.0-3.2","subject":"yrnbe84286ys9wo","sona":"9472"},{"rt":839,"stimulus":"<p>Bereit?</p>","key_press":32,"trial_type":"html-keyboard-response","trial_index":19,"time_elapsed":77564,"internal_node_id":"0.0-8.0-0.3","subject":"yrnbe84286ys9wo","sona":"9472"},{"rt":null,"stimulus":"<div style=\"font-size:60px;\">+</div>","key_press":null,"trial_type":"html-keyboard-response","trial_index":20,"time_elapsed":79566,"internal_node_id":"0.0-8.0-1.3","subject":"yrnbe84286ys9wo","sona":"9472"},{"trial_type":"turing-test","trial_index":21,"time_elapsed":83267,"internal_node_id":"0.0-8.0-2.3","subject":"yrnbe84286ys9wo","sona":"9472"},{"rt":1054,"stimulus":"<p>Welche Sequenz haben Sie als natürlicher empfunden?</p>","key_press":70,"test_part":"response","test_stimulus":{"position":0,"left":"bvh/pass-bottle-hold-training4-lines.txt","right":"bvh/vr_prediction_models/model(vcgpdm)-dataset(pass-bottle-hold)-mode(MAP)-parts(1)-hold(4)/final-lines.txt","att_check":false},"trial_type":"html-keyboard-response","trial_index":22,"time_elapsed":84324,"internal_node_id":"0.0-8.0-3.3","subject":"yrnbe84286ys9wo","sona":"9472"},{"rt":705,"stimulus":"<p>Bereit?</p>","key_press":32,"trial_type":"html-keyboard-response","trial_index":23,"time_elapsed":85032,"internal_node_id":"0.0-8.0-0.4","subject":"yrnbe84286ys9wo","sona":"9472"},{"rt":null,"stimulus":"<div style=\"font-size:60px;\">+</div>","key_press":null,"trial_type":"html-keyboard-response","trial_index":24,"time_elapsed":87067,"internal_node_id":"0.0-8.0-1.4","subject":"yrnbe84286ys9wo","sona":"9472"},{"trial_type":"turing-test","trial_index":25,"time_elapsed":92876,"internal_node_id":"0.0-8.0-2.4","subject":"yrnbe84286ys9wo","sona":"9472"},{"rt":811,"stimulus":"<p>Welche Sequenz haben Sie als natürlicher empfunden?</p>","key_press":74,"test_part":"response","test_stimulus":{"position":0,"left":"bvh/return-bottle-training4-lines.txt","right":"bvh/vr_prediction_models/model(tmp)-dataset(return-bottle)-numprim(4)-hold(4)/final-lines.txt","att_check":false},"trial_type":"html-keyboard-response","trial_index":26,"time_elapsed":93689,"internal_node_id":"0.0-8.0-3.4","subject":"yrnbe84286ys9wo","sona":"9472"},{"rt":621,"stimulus":"<p>Bereit?</p>","key_press":32,"trial_type":"html-keyboard-response","trial_index":27,"time_elapsed":94311,"internal_node_id":"0.0-8.0-0.5","subject":"yrnbe84286ys9wo","sona":"9472"},{"rt":null,"stimulus":"<div style=\"font-size:60px;\">+</div>","key_press":null,"trial_type":"html-keyboard-response","trial_index":28,"time_elapsed":96336,"internal_node_id":"0.0-8.0-1.5","subject":"yrnbe84286ys9wo","sona":"9472"},{"trial_type":"turing-test","trial_index":29,"time_elapsed":103076,"internal_node_id":"0.0-8.0-2.5","subject":"yrnbe84286ys9wo","sona":"9472"},{"rt":779,"stimulus":"<p>Welche Sequenz haben Sie als natürlicher empfunden?</p>","key_press":70,"test_part":"response","test_stimulus":{"position":1,"left":"bvh/vr_prediction_models/model(dmp)-dataset(pass-bottle)-npsi(40)-hold(0)/final-lines.txt","right":"bvh/pass-bottle-training0-lines.txt","att_check":true},"trial_type":"html-keyboard-response","trial_index":30,"time_elapsed":103856,"internal_node_id":"0.0-8.0-3.5","subject":"yrnbe84286ys9wo","sona":"9472"},{"rt":603,"stimulus":"<p>Bereit?</p>","key_press":32,"trial_type":"html-keyboard-response","trial_index":31,"time_elapsed":104461,"internal_node_id":"0.0-8.0-0.6","subject":"yrnbe84286ys9wo","sona":"9472"},{"rt":null,"stimulus":"<div style=\"font-size:60px;\">+</div>","key_press":null,"trial_type":"html-keyboard-response","trial_index":32,"time_elapsed":106497,"internal_node_id":"0.0-8.0-1.6","subject":"yrnbe84286ys9wo","sona":"9472"},{"trial_type":"turing-test","trial_index":33,"time_elapsed":112396,"internal_node_id":"0.0-8.0-2.6","subject":"yrnbe84286ys9wo","sona":"9472"},{"rt":490,"stimulus":"<p>Welche Sequenz haben Sie als natürlicher empfunden?</p>","key_press":74,"test_part":"response","test_stimulus":{"position":1,"left":"bvh/vr_prediction_models/model(vcgpdm)-dataset(pass-bottle)-mode(MAP)-parts(1)-hold(3)/final-lines.txt","right":"bvh/pass-bottle-training3-lines.txt","att_check":false},"trial_type":"html-keyboard-response","trial_index":34,"time_elapsed":112888,"internal_node_id":"0.0-8.0-3.6","subject":"yrnbe84286ys9wo","sona":"9472"},{"rt":418,"stimulus":"<p>Bereit?</p>","key_press":32,"trial_type":"html-keyboard-response","trial_index":35,"time_elapsed":113308,"internal_node_id":"0.0-8.0-0.7","subject":"yrnbe84286ys9wo","sona":"9472"},{"rt":null,"stimulus":"<div style=\"font-size:60px;\">+</div>","key_press":null,"trial_type":"html-keyboard-response","trial_index":36,"time_elapsed":115337,"internal_node_id":"0.0-8.0-1.7","subject":"yrnbe84286ys9wo","sona":"9472"},{"trial_type":"turing-test","trial_index":37,"time_elapsed":121197,"internal_node_id":"0.0-8.0-2.7","subject":"yrnbe84286ys9wo","sona":"9472"},{"rt":457,"stimulus":"<p>Welche Sequenz haben Sie als natürlicher empfunden?</p>","key_press":70,"test_part":"response","test_stimulus":{"position":0,"left":"bvh/pass-bottle-training3-lines.txt","right":"bvh/vr_prediction_models/model(vcgpdm)-dataset(pass-bottle)-mode(ELBO)-parts(3)-dyn(10)-lvm(25)-hold(3)/final-lines.txt","att_check":false},"trial_type":"html-keyboard-response","trial_index":38,"time_elapsed":121655,"internal_node_id":"0.0-8.0-3.7","subject":"yrnbe84286ys9wo","sona":"9472"},{"rt":414,"stimulus":"<p>Bereit?</p>","key_press":32,"trial_type":"html-keyboard-response","trial_index":39,"time_elapsed":122070,"internal_node_id":"0.0-8.0-0.8","subject":"yrnbe84286ys9wo","sona":"9472"},{"rt":null,"stimulus":"<div style=\"font-size:60px;\">+</div>","key_press":null,"trial_type":"html-keyboard-response","trial_index":40,"time_elapsed":124096,"internal_node_id":"0.0-8.0-1.8","subject":"yrnbe84286ys9wo","sona":"9472"},{"trial_type":"turing-test","trial_index":41,"time_elapsed":127387,"internal_node_id":"0.0-8.0-2.8","subject":"yrnbe84286ys9wo","sona":"9472"},{"rt":1534,"stimulus":"<p>Welche Sequenz haben Sie als natürlicher empfunden?</p>","key_press":70,"test_part":"response","test_stimulus":{"position":0,"left":"bvh/pass-bottle-hold-training1-lines.txt","right":"bvh/vr_prediction_models/model(vcgpdm)-dataset(pass-bottle-hold)-mode(MAP)-parts(3)-hold(1)/final-lines.txt","att_check":false},"trial_type":"html-keyboard-response","trial_index":42,"time_elapsed":128921,"internal_node_id":"0.0-8.0-3.8","subject":"yrnbe84286ys9wo","sona":"9472"},{"rt":322,"stimulus":"<p>Bereit?</p>","key_press":32,"trial_type":"html-keyboard-response","trial_index":43,"time_elapsed":129245,"internal_node_id":"0.0-8.0-0.9","subject":"yrnbe84286ys9wo","sona":"9472"},{"rt":null,"stimulus":"<div style=\"font-size:60px;\">+</div>","key_press":null,"trial_type":"html-keyboard-response","trial_index":44,"time_elapsed":131266,"internal_node_id":"0.0-8.0-1.9","subject":"yrnbe84286ys9wo","sona":"9472"},{"trial_type":"turing-test","trial_index":45,"time_elapsed":134736,"internal_node_id":"0.0-8.0-2.9","subject":"yrnbe84286ys9wo","sona":"9472"},{"rt":629,"stimulus":"<p>Welche Sequenz haben Sie als natürlicher empfunden?</p>","key_press":70,"test_part":"response","test_stimulus":{"position":0,"left":"bvh/return-bottle-hold-training2-lines.txt","right":"bvh/vr_prediction_models/model(dmp)-dataset(return-bottle-hold)-npsi(10)-hold(2)/final-lines.txt","att_check":false},"trial_type":"html-keyboard-response","trial_index":46,"time_elapsed":135367,"internal_node_id":"0.0-8.0-3.9","subject":"yrnbe84286ys9wo","sona":"9472"},{"rt":289,"stimulus":"<p>Bereit?</p>","key_press":32,"trial_type":"html-keyboard-response","trial_index":47,"time_elapsed":135659,"internal_node_id":"0.0-8.0-0.10","subject":"yrnbe84286ys9wo","sona":"9472"},{"rt":null,"stimulus":"<div style=\"font-size:60px;\">+</div>","key_press":null,"trial_type":"html-keyboard-response","trial_index":48,"time_elapsed":137677,"internal_node_id":"0.0-8.0-1.10","subject":"yrnbe84286ys9wo","sona":"9472"},{"trial_type":"turing-test","trial_index":49,"time_elapsed":143486,"internal_node_id":"0.0-8.0-2.10","subject":"yrnbe84286ys9wo","sona":"9472"},{"rt":331,"stimulus":"<p>Welche Sequenz haben Sie als natürlicher empfunden?</p>","key_press":74,"test_part":"response","test_stimulus":{"position":1,"left":"bvh/vr_prediction_models/model(vcgpdm)-dataset(pass-bottle)-mode(ELBO)-parts(3)-dyn(25)-lvm(25)-hold(4)/final-lines.txt","right":"bvh/pass-bottle-training4-lines.txt","att_check":false},"trial_type":"html-keyboard-response","trial_index":50,"time_elapsed":143820,"internal_node_id":"0.0-8.0-3.10","subject":"yrnbe84286ys9wo","sona":"9472"},{"rt":449,"stimulus":"<p>Bereit?</p>","key_press":32,"trial_type":"html-keyboard-response","trial_index":51,"time_elapsed":144270,"internal_node_id":"0.0-8.0-0.11","subject":"yrnbe84286ys9wo","sona":"9472"},{"rt":null,"stimulus":"<div style=\"font-size:60px;\">+</div>","key_press":null,"trial_type":"html-keyboard-response","trial_index":52,"time_elapsed":146297,"internal_node_id":"0.0-8.0-1.11","subject":"yrnbe84286ys9wo","sona":"9472"},{"trial_type":"turing-test","trial_index":53,"time_elapsed":149627,"internal_node_id":"0.0-8.0-2.11","subject":"yrnbe84286ys9wo","sona":"9472"}]