[{"rt":2838.6350001674145,"stimulus":"<p>Welcome!<br> Please choose your language to start the experiment in the chosen language.</p><p>Willkommen!<br> Bitte wählen Sie eine Sprache, um das Experiment in der ausgewählten Sprache zu starten</p>","button_pressed":"1","trial_type":"html-button-response","trial_index":0,"time_elapsed":2844,"internal_node_id":"0.0-0.0","subject":"f318a72496ypleb","sona":"7609"},{"view_history":"[{\"page_index\":0,\"viewing_time\":2721.465000184253},{\"page_index\":1,\"viewing_time\":1284.2049999162555},{\"page_index\":2,\"viewing_time\":1792.1750000678003},{\"page_index\":3,\"viewing_time\":3144.815000006929},{\"page_index\":4,\"viewing_time\":2060.7799999415874}]","rt":11005.10000018403,"trial_type":"instructions","trial_index":1,"time_elapsed":13851,"internal_node_id":"0.0-1.0-0.0","subject":"f318a72496ypleb","sona":"7609"},{"rt":1049.6350000612438,"stimulus":"<p>Bereit?</p>","key_press":32,"trial_type":"html-keyboard-response","trial_index":2,"time_elapsed":14903,"internal_node_id":"0.0-3.0","subject":"f318a72496ypleb","sona":"7609"},{"rt":null,"stimulus":"<div style=\"font-size:60px;\">+</div>","key_press":null,"trial_type":"html-keyboard-response","trial_index":3,"time_elapsed":16910,"internal_node_id":"0.0-4.0","subject":"f318a72496ypleb","sona":"7609"},{"trial_type":"training","trial_index":4,"time_elapsed":20187,"internal_node_id":"0.0-5.0","subject":"f318a72496ypleb","sona":"7609"},{"rt":800.6849999073893,"stimulus":"<p>Welche Sequenz haben Sie als natürlicher empfunden?</p>","key_press":70,"trial_type":"html-keyboard-response","trial_index":5,"time_elapsed":20990,"internal_node_id":"0.0-6.0","subject":"f318a72496ypleb","sona":"7609"},{"rt":14355.360000161454,"stimulus":"<p>Das Experiment startet nun.</p><p><small>Bitte drücken Sie den Knopf, wenn Sie bereit sind.</small></p>","button_pressed":"0","trial_type":"html-button-response","trial_index":6,"time_elapsed":35347,"internal_node_id":"0.0-7.0","subject":"f318a72496ypleb","sona":"7609"},{"rt":900.8899999316782,"stimulus":"<p>Bereit?</p>","key_press":32,"trial_type":"html-keyboard-response","trial_index":7,"time_elapsed":36249,"internal_node_id":"0.0-8.0-0.0","subject":"f318a72496ypleb","sona":"7609"},{"rt":null,"stimulus":"<div style=\"font-size:60px;\">+</div>","key_press":null,"trial_type":"html-keyboard-response","trial_index":8,"time_elapsed":38256,"internal_node_id":"0.0-8.0-1.0","subject":"f318a72496ypleb","sona":"7609"},{"trial_type":"turing-test","trial_index":9,"time_elapsed":41496,"internal_node_id":"0.0-8.0-2.0","subject":"f318a72496ypleb","sona":"7609"},{"rt":336.28499996848404,"stimulus":"<p>Welche Sequenz haben Sie als natürlicher empfunden?</p>","key_press":74,"test_part":"response","test_stimulus":{"position":1,"left":"bvh/vr_prediction_models/model(tmp)-dataset(pass-bottle-hold)-numprim(6)-hold(0)/final-lines.txt","right":"bvh/pass-bottle-hold-training0-lines.txt","att_check":false},"trial_type":"html-keyboard-response","trial_index":10,"time_elapsed":41836,"internal_node_id":"0.0-8.0-3.0","subject":"f318a72496ypleb","sona":"7609"}]