[{"rt":19358.78500016406,"stimulus":"<p>Welcome!<br> Please choose your language to start the experiment in the chosen language.</p><p>Willkommen!<br> Bitte wählen Sie eine Sprache, um das Experiment in der ausgewählten Sprache zu starten</p>","button_pressed":"1","trial_type":"html-button-response","trial_index":0,"time_elapsed":19412,"internal_node_id":"0.0-0.0","subject":"6n96t7hds4nyq9d","sona":"7462"},{"view_history":"[{\"page_index\":0,\"viewing_time\":8711.949999909848},{\"page_index\":1,\"viewing_time\":2865.920000243932},{\"page_index\":2,\"viewing_time\":8408.649999648333},{\"page_index\":3,\"viewing_time\":3370.5450003035367},{\"page_index\":4,\"viewing_time\":4668.919999618083}]","rt":28027.29499991983,"trial_type":"instructions","trial_index":1,"time_elapsed":47448,"internal_node_id":"0.0-1.0-0.0","subject":"6n96t7hds4nyq9d","sona":"7462"},{"rt":2055.885000154376,"stimulus":"<p>Bereit?</p>","key_press":32,"trial_type":"html-keyboard-response","trial_index":2,"time_elapsed":49507,"internal_node_id":"0.0-3.0","subject":"6n96t7hds4nyq9d","sona":"7462"},{"rt":null,"stimulus":"<div style=\"font-size:60px;\">+</div>","key_press":null,"trial_type":"html-keyboard-response","trial_index":3,"time_elapsed":51537,"internal_node_id":"0.0-4.0","subject":"6n96t7hds4nyq9d","sona":"7462"},{"trial_type":"training","trial_index":4,"time_elapsed":55175,"internal_node_id":"0.0-5.0","subject":"6n96t7hds4nyq9d","sona":"7462"},{"rt":4411.595000419766,"stimulus":"<p>Welche Sequenz haben Sie als natürlicher empfunden?</p>","key_press":70,"trial_type":"html-keyboard-response","trial_index":5,"time_elapsed":59587,"internal_node_id":"0.0-6.0","subject":"6n96t7hds4nyq9d","sona":"7462"},{"rt":2865.0850001722574,"stimulus":"<p>Das Experiment startet nun.</p><p><small>Bitte drücken Sie den Knopf, wenn Sie bereit sind.</small></p>","button_pressed":"0","trial_type":"html-button-response","trial_index":6,"time_elapsed":62454,"internal_node_id":"0.0-7.0","subject":"6n96t7hds4nyq9d","sona":"7462"},{"rt":3121.850000228733,"stimulus":"<p>Bereit?</p>","key_press":32,"trial_type":"html-keyboard-response","trial_index":7,"time_elapsed":65577,"internal_node_id":"0.0-8.0-0.0","subject":"6n96t7hds4nyq9d","sona":"7462"},{"rt":null,"stimulus":"<div style=\"font-size:60px;\">+</div>","key_press":null,"trial_type":"html-keyboard-response","trial_index":8,"time_elapsed":67594,"internal_node_id":"0.0-8.0-1.0","subject":"6n96t7hds4nyq9d","sona":"7462"},{"trial_type":"turing-test","trial_index":9,"time_elapsed":73589,"internal_node_id":"0.0-8.0-2.0","subject":"6n96t7hds4nyq9d","sona":"7462"},{"rt":750.6999997422099,"stimulus":"<p>Welche Sequenz haben Sie als natürlicher empfunden?</p>","key_press":74,"test_part":"response","test_stimulus":{"position":1,"left":"bvh/vr_prediction_models/model(vcgpdm)-dataset(pass-bottle)-mode(ELBO)-parts(1)-dyn(30)-lvm(35)-hold(4)/final-lines.txt","right":"bvh/pass-bottle-training4-lines.txt","att_check":false},"trial_type":"html-keyboard-response","trial_index":10,"time_elapsed":74343,"internal_node_id":"0.0-8.0-3.0","subject":"6n96t7hds4nyq9d","sona":"7462"},{"rt":1576.789999846369,"stimulus":"<p>Bereit?</p>","key_press":32,"trial_type":"html-keyboard-response","trial_index":11,"time_elapsed":75922,"internal_node_id":"0.0-8.0-0.1","subject":"6n96t7hds4nyq9d","sona":"7462"},{"rt":null,"stimulus":"<div style=\"font-size:60px;\">+</div>","key_press":null,"trial_type":"html-keyboard-response","trial_index":12,"time_elapsed":77945,"internal_node_id":"0.0-8.0-1.1","subject":"6n96t7hds4nyq9d","sona":"7462"},{"trial_type":"turing-test","trial_index":13,"time_elapsed":84966,"internal_node_id":"0.0-8.0-2.1","subject":"6n96t7hds4nyq9d","sona":"7462"},{"rt":1068.6949999071658,"stimulus":"<p>Welche Sequenz haben Sie als natürlicher empfunden?</p>","key_press":74,"test_part":"response","test_stimulus":{"position":1,"left":"bvh/vr_prediction_models/model(vcgpdm)-dataset(return-bottle)-mode(ELBO)-parts(1)-dyn(20)-lvm(20)-hold(2)/final-lines.txt","right":"bvh/return-bottle-training2-lines.txt","att_check":false},"trial_type":"html-keyboard-response","trial_index":14,"time_elapsed":86038,"internal_node_id":"0.0-8.0-3.1","subject":"6n96t7hds4nyq9d","sona":"7462"},{"rt":884.2000002041459,"stimulus":"<p>Bereit?</p>","key_press":32,"trial_type":"html-keyboard-response","trial_index":15,"time_elapsed":86924,"internal_node_id":"0.0-8.0-0.2","subject":"6n96t7hds4nyq9d","sona":"7462"},{"rt":null,"stimulus":"<div style=\"font-size:60px;\">+</div>","key_press":null,"trial_type":"html-keyboard-response","trial_index":16,"time_elapsed":88944,"internal_node_id":"0.0-8.0-1.2","subject":"6n96t7hds4nyq9d","sona":"7462"},{"trial_type":"turing-test","trial_index":17,"time_elapsed":96407,"internal_node_id":"0.0-8.0-2.2","subject":"6n96t7hds4nyq9d","sona":"7462"},{"rt":1119.9249997735023,"stimulus":"<p>Welche Sequenz haben Sie als natürlicher empfunden?</p>","key_press":74,"test_part":"response","test_stimulus":{"position":1,"left":"bvh/vr_prediction_models/model(vcgpdm)-dataset(return-bottle)-mode(ELBO)-parts(1)-dyn(25)-lvm(35)-hold(2)/final-lines.txt","right":"bvh/return-bottle-training2-lines.txt","att_check":false},"trial_type":"html-keyboard-response","trial_index":18,"time_elapsed":97530,"internal_node_id":"0.0-8.0-3.2","subject":"6n96t7hds4nyq9d","sona":"7462"},{"rt":803.2450000755489,"stimulus":"<p>Bereit?</p>","key_press":32,"trial_type":"html-keyboard-response","trial_index":19,"time_elapsed":98335,"internal_node_id":"0.0-8.0-0.3","subject":"6n96t7hds4nyq9d","sona":"7462"},{"rt":null,"stimulus":"<div style=\"font-size:60px;\">+</div>","key_press":null,"trial_type":"html-keyboard-response","trial_index":20,"time_elapsed":100342,"internal_node_id":"0.0-8.0-1.3","subject":"6n96t7hds4nyq9d","sona":"7462"},{"trial_type":"turing-test","trial_index":21,"time_elapsed":106544,"internal_node_id":"0.0-8.0-2.3","subject":"6n96t7hds4nyq9d","sona":"7462"},{"rt":658.4199997596443,"stimulus":"<p>Welche Sequenz haben Sie als natürlicher empfunden?</p>","key_press":74,"test_part":"response","test_stimulus":{"position":1,"left":"bvh/vr_prediction_models/model(dmp)-dataset(pass-bottle)-npsi(20)-hold(3)/final-lines.txt","right":"bvh/pass-bottle-training3-lines.txt","att_check":true},"trial_type":"html-keyboard-response","trial_index":22,"time_elapsed":107205,"internal_node_id":"0.0-8.0-3.3","subject":"6n96t7hds4nyq9d","sona":"7462"},{"rt":774.2050001397729,"stimulus":"<p>Bereit?</p>","key_press":32,"trial_type":"html-keyboard-response","trial_index":23,"time_elapsed":107982,"internal_node_id":"0.0-8.0-0.4","subject":"6n96t7hds4nyq9d","sona":"7462"},{"rt":null,"stimulus":"<div style=\"font-size:60px;\">+</div>","key_press":null,"trial_type":"html-keyboard-response","trial_index":24,"time_elapsed":109999,"internal_node_id":"0.0-8.0-1.4","subject":"6n96t7hds4nyq9d","sona":"7462"},{"trial_type":"turing-test","trial_index":25,"time_elapsed":114124,"internal_node_id":"0.0-8.0-2.4","subject":"6n96t7hds4nyq9d","sona":"7462"},{"rt":2035.0800002925098,"stimulus":"<p>Welche Sequenz haben Sie als natürlicher empfunden?</p>","key_press":70,"test_part":"response","test_stimulus":{"position":1,"left":"bvh/vr_prediction_models/model(vcgpdm)-dataset(return-bottle-hold)-mode(ELBO)-parts(1)-dyn(20)-lvm(5)-hold(2)/final-lines.txt","right":"bvh/return-bottle-hold-training2-lines.txt","att_check":false},"trial_type":"html-keyboard-response","trial_index":26,"time_elapsed":116162,"internal_node_id":"0.0-8.0-3.4","subject":"6n96t7hds4nyq9d","sona":"7462"},{"rt":742.2799998894334,"stimulus":"<p>Bereit?</p>","key_press":32,"trial_type":"html-keyboard-response","trial_index":27,"time_elapsed":116906,"internal_node_id":"0.0-8.0-0.5","subject":"6n96t7hds4nyq9d","sona":"7462"},{"rt":null,"stimulus":"<div style=\"font-size:60px;\">+</div>","key_press":null,"trial_type":"html-keyboard-response","trial_index":28,"time_elapsed":118915,"internal_node_id":"0.0-8.0-1.5","subject":"6n96t7hds4nyq9d","sona":"7462"},{"trial_type":"turing-test","trial_index":29,"time_elapsed":122512,"internal_node_id":"0.0-8.0-2.5","subject":"6n96t7hds4nyq9d","sona":"7462"},{"rt":960.6050001457334,"stimulus":"<p>Welche Sequenz haben Sie als natürlicher empfunden?</p>","key_press":70,"test_part":"response","test_stimulus":{"position":0,"left":"bvh/pass-bottle-hold-training3-lines.txt","right":"bvh/vr_prediction_models/model(tmp)-dataset(pass-bottle-hold)-numprim(9)-hold(3)/final-lines.txt","att_check":false},"trial_type":"html-keyboard-response","trial_index":30,"time_elapsed":123476,"internal_node_id":"0.0-8.0-3.5","subject":"6n96t7hds4nyq9d","sona":"7462"},{"rt":604.5400002039969,"stimulus":"<p>Bereit?</p>","key_press":32,"trial_type":"html-keyboard-response","trial_index":31,"time_elapsed":124084,"internal_node_id":"0.0-8.0-0.6","subject":"6n96t7hds4nyq9d","sona":"7462"},{"rt":null,"stimulus":"<div style=\"font-size:60px;\">+</div>","key_press":null,"trial_type":"html-keyboard-response","trial_index":32,"time_elapsed":126094,"internal_node_id":"0.0-8.0-1.6","subject":"6n96t7hds4nyq9d","sona":"7462"},{"trial_type":"turing-test","trial_index":33,"time_elapsed":132889,"internal_node_id":"0.0-8.0-2.6","subject":"6n96t7hds4nyq9d","sona":"7462"},{"rt":828.29499989748,"stimulus":"<p>Welche Sequenz haben Sie als natürlicher empfunden?</p>","key_press":70,"test_part":"response","test_stimulus":{"position":0,"left":"bvh/return-bottle-training2-lines.txt","right":"bvh/vr_prediction_models/model(tmp)-dataset(return-bottle)-numprim(5)-hold(2)/final-lines.txt","att_check":false},"trial_type":"html-keyboard-response","trial_index":34,"time_elapsed":133721,"internal_node_id":"0.0-8.0-3.6","subject":"6n96t7hds4nyq9d","sona":"7462"},{"rt":993.7850004062057,"stimulus":"<p>Bereit?</p>","key_press":32,"trial_type":"html-keyboard-response","trial_index":35,"time_elapsed":134717,"internal_node_id":"0.0-8.0-0.7","subject":"6n96t7hds4nyq9d","sona":"7462"},{"rt":null,"stimulus":"<div style=\"font-size:60px;\">+</div>","key_press":null,"trial_type":"html-keyboard-response","trial_index":36,"time_elapsed":136724,"internal_node_id":"0.0-8.0-1.7","subject":"6n96t7hds4nyq9d","sona":"7462"},{"trial_type":"turing-test","trial_index":37,"time_elapsed":140492,"internal_node_id":"0.0-8.0-2.7","subject":"6n96t7hds4nyq9d","sona":"7462"},{"rt":324.53500013798475,"stimulus":"<p>Welche Sequenz haben Sie als natürlicher empfunden?</p>","key_press":74,"test_part":"response","test_stimulus":{"position":0,"left":"bvh/return-bottle-hold-training4-lines.txt","right":"bvh/vr_prediction_models/model(tmp)-dataset(return-bottle-hold)-numprim(8)-hold(4)/final-lines.txt","att_check":false},"trial_type":"html-keyboard-response","trial_index":38,"time_elapsed":140820,"internal_node_id":"0.0-8.0-3.7","subject":"6n96t7hds4nyq9d","sona":"7462"},{"rt":819.8549998924136,"stimulus":"<p>Bereit?</p>","key_press":32,"trial_type":"html-keyboard-response","trial_index":39,"time_elapsed":141643,"internal_node_id":"0.0-8.0-0.8","subject":"6n96t7hds4nyq9d","sona":"7462"},{"rt":null,"stimulus":"<div style=\"font-size:60px;\">+</div>","key_press":null,"trial_type":"html-keyboard-response","trial_index":40,"time_elapsed":143652,"internal_node_id":"0.0-8.0-1.8","subject":"6n96t7hds4nyq9d","sona":"7462"},{"trial_type":"turing-test","trial_index":41,"time_elapsed":149732,"internal_node_id":"0.0-8.0-2.8","subject":"6n96t7hds4nyq9d","sona":"7462"},{"rt":431.2650002539158,"stimulus":"<p>Welche Sequenz haben Sie als natürlicher empfunden?</p>","key_press":74,"test_part":"response","test_stimulus":{"position":1,"left":"bvh/vr_prediction_models/model(vcgpdm)-dataset(pass-bottle)-mode(ELBO)-parts(1)-dyn(10)-lvm(30)-hold(3)/final-lines.txt","right":"bvh/pass-bottle-training3-lines.txt","att_check":false},"trial_type":"html-keyboard-response","trial_index":42,"time_elapsed":150160,"internal_node_id":"0.0-8.0-3.8","subject":"6n96t7hds4nyq9d","sona":"7462"},{"rt":657.6450001448393,"stimulus":"<p>Bereit?</p>","key_press":32,"trial_type":"html-keyboard-response","trial_index":43,"time_elapsed":150822,"internal_node_id":"0.0-8.0-0.9","subject":"6n96t7hds4nyq9d","sona":"7462"},{"rt":null,"stimulus":"<div style=\"font-size:60px;\">+</div>","key_press":null,"trial_type":"html-keyboard-response","trial_index":44,"time_elapsed":152851,"internal_node_id":"0.0-8.0-1.9","subject":"6n96t7hds4nyq9d","sona":"7462"},{"trial_type":"turing-test","trial_index":45,"time_elapsed":157029,"internal_node_id":"0.0-8.0-2.9","subject":"6n96t7hds4nyq9d","sona":"7462"},{"rt":661.1500000581145,"stimulus":"<p>Welche Sequenz haben Sie als natürlicher empfunden?</p>","key_press":70,"test_part":"response","test_stimulus":{"position":0,"left":"bvh/return-bottle-hold-training3-lines.txt","right":"bvh/vr_prediction_models/model(vcgpdm)-dataset(return-bottle-hold)-mode(ELBO)-parts(1)-dyn(30)-lvm(35)-hold(3)/final-lines.txt","att_check":false},"trial_type":"html-keyboard-response","trial_index":46,"time_elapsed":157693,"internal_node_id":"0.0-8.0-3.9","subject":"6n96t7hds4nyq9d","sona":"7462"},{"rt":911.7550002411008,"stimulus":"<p>Bereit?</p>","key_press":32,"trial_type":"html-keyboard-response","trial_index":47,"time_elapsed":158607,"internal_node_id":"0.0-8.0-0.10","subject":"6n96t7hds4nyq9d","sona":"7462"},{"rt":null,"stimulus":"<div style=\"font-size:60px;\">+</div>","key_press":null,"trial_type":"html-keyboard-response","trial_index":48,"time_elapsed":160633,"internal_node_id":"0.0-8.0-1.10","subject":"6n96t7hds4nyq9d","sona":"7462"},{"trial_type":"turing-test","trial_index":49,"time_elapsed":167006,"internal_node_id":"0.0-8.0-2.10","subject":"6n96t7hds4nyq9d","sona":"7462"},{"rt":367.92000010609627,"stimulus":"<p>Welche Sequenz haben Sie als natürlicher empfunden?</p>","key_press":70,"test_part":"response","test_stimulus":{"position":0,"left":"bvh/return-bottle-training3-lines.txt","right":"bvh/vr_prediction_models/model(vcgpdm)-dataset(return-bottle)-mode(ELBO)-parts(1)-dyn(30)-lvm(35)-hold(3)/final-lines.txt","att_check":false},"trial_type":"html-keyboard-response","trial_index":50,"time_elapsed":167377,"internal_node_id":"0.0-8.0-3.10","subject":"6n96t7hds4nyq9d","sona":"7462"},{"rt":511.86499977484345,"stimulus":"<p>Bereit?</p>","key_press":32,"trial_type":"html-keyboard-response","trial_index":51,"time_elapsed":167891,"internal_node_id":"0.0-8.0-0.11","subject":"6n96t7hds4nyq9d","sona":"7462"},{"rt":null,"stimulus":"<div style=\"font-size:60px;\">+</div>","key_press":null,"trial_type":"html-keyboard-response","trial_index":52,"time_elapsed":169897,"internal_node_id":"0.0-8.0-1.11","subject":"6n96t7hds4nyq9d","sona":"7462"},{"trial_type":"turing-test","trial_index":53,"time_elapsed":175695,"internal_node_id":"0.0-8.0-2.11","subject":"6n96t7hds4nyq9d","sona":"7462"},{"rt":787.3599999584258,"stimulus":"<p>Welche Sequenz haben Sie als natürlicher empfunden?</p>","key_press":70,"test_part":"response","test_stimulus":{"position":1,"left":"bvh/vr_prediction_models/model(dmp)-dataset(pass-bottle)-npsi(10)-hold(4)/final-lines.txt","right":"bvh/pass-bottle-training4-lines.txt","att_check":true},"trial_type":"html-keyboard-response","trial_index":54,"time_elapsed":176485,"internal_node_id":"0.0-8.0-3.11","subject":"6n96t7hds4nyq9d","sona":"7462"},{"rt":450.40500024333596,"stimulus":"<p>Bereit?</p>","key_press":32,"trial_type":"html-keyboard-response","trial_index":55,"time_elapsed":176940,"internal_node_id":"0.0-8.0-0.12","subject":"6n96t7hds4nyq9d","sona":"7462"},{"rt":null,"stimulus":"<div style=\"font-size:60px;\">+</div>","key_press":null,"trial_type":"html-keyboard-response","trial_index":56,"time_elapsed":178957,"internal_node_id":"0.0-8.0-1.12","subject":"6n96t7hds4nyq9d","sona":"7462"},{"trial_type":"turing-test","trial_index":57,"time_elapsed":183185,"internal_node_id":"0.0-8.0-2.12","subject":"6n96t7hds4nyq9d","sona":"7462"},{"rt":1469.3150003440678,"stimulus":"<p>Welche Sequenz haben Sie als natürlicher empfunden?</p>","key_press":74,"test_part":"response","test_stimulus":{"position":1,"left":"bvh/vr_prediction_models/model(vcgpdm)-dataset(pass-bottle-hold)-mode(ELBO)-parts(1)-dyn(20)-lvm(30)-hold(3)/final-lines.txt","right":"bvh/pass-bottle-hold-training3-lines.txt","att_check":false},"trial_type":"html-keyboard-response","trial_index":58,"time_elapsed":184657,"internal_node_id":"0.0-8.0-3.12","subject":"6n96t7hds4nyq9d","sona":"7462"},{"rt":561.1999998800457,"stimulus":"<p>Bereit?</p>","key_press":32,"trial_type":"html-keyboard-response","trial_index":59,"time_elapsed":185221,"internal_node_id":"0.0-8.0-0.13","subject":"6n96t7hds4nyq9d","sona":"7462"},{"rt":null,"stimulus":"<div style=\"font-size:60px;\">+</div>","key_press":null,"trial_type":"html-keyboard-response","trial_index":60,"time_elapsed":187249,"internal_node_id":"0.0-8.0-1.13","subject":"6n96t7hds4nyq9d","sona":"7462"},{"trial_type":"turing-test","trial_index":61,"time_elapsed":190557,"internal_node_id":"0.0-8.0-2.13","subject":"6n96t7hds4nyq9d","sona":"7462"},{"rt":827.6300001889467,"stimulus":"<p>Welche Sequenz haben Sie als natürlicher empfunden?</p>","key_press":74,"test_part":"response","test_stimulus":{"position":1,"left":"bvh/vr_prediction_models/model(tmp)-dataset(pass-bottle-hold)-numprim(3)-hold(0)/final-lines.txt","right":"bvh/pass-bottle-hold-training0-lines.txt","att_check":false},"trial_type":"html-keyboard-response","trial_index":62,"time_elapsed":191387,"internal_node_id":"0.0-8.0-3.13","subject":"6n96t7hds4nyq9d","sona":"7462"},{"rt":818.5099996626377,"stimulus":"<p>Bereit?</p>","key_press":32,"trial_type":"html-keyboard-response","trial_index":63,"time_elapsed":192208,"internal_node_id":"0.0-8.0-0.14","subject":"6n96t7hds4nyq9d","sona":"7462"},{"rt":null,"stimulus":"<div style=\"font-size:60px;\">+</div>","key_press":null,"trial_type":"html-keyboard-response","trial_index":64,"time_elapsed":194221,"internal_node_id":"0.0-8.0-1.14","subject":"6n96t7hds4nyq9d","sona":"7462"},{"trial_type":"turing-test","trial_index":65,"time_elapsed":200263,"internal_node_id":"0.0-8.0-2.14","subject":"6n96t7hds4nyq9d","sona":"7462"},{"rt":344.5300003513694,"stimulus":"<p>Welche Sequenz haben Sie als natürlicher empfunden?</p>","key_press":74,"test_part":"response","test_stimulus":{"position":1,"left":"bvh/vr_prediction_models/model(vcgpdm)-dataset(return-bottle)-mode(ELBO)-parts(1)-dyn(25)-lvm(35)-hold(3)/final-lines.txt","right":"bvh/return-bottle-training3-lines.txt","att_check":false},"trial_type":"html-keyboard-response","trial_index":66,"time_elapsed":200611,"internal_node_id":"0.0-8.0-3.14","subject":"6n96t7hds4nyq9d","sona":"7462"},{"rt":483.3700000308454,"stimulus":"<p>Bereit?</p>","key_press":32,"trial_type":"html-keyboard-response","trial_index":67,"time_elapsed":201097,"internal_node_id":"0.0-8.0-0.15","subject":"6n96t7hds4nyq9d","sona":"7462"},{"rt":null,"stimulus":"<div style=\"font-size:60px;\">+</div>","key_press":null,"trial_type":"html-keyboard-response","trial_index":68,"time_elapsed":203100,"internal_node_id":"0.0-8.0-1.15","subject":"6n96t7hds4nyq9d","sona":"7462"},{"trial_type":"turing-test","trial_index":69,"time_elapsed":208779,"internal_node_id":"0.0-8.0-2.15","subject":"6n96t7hds4nyq9d","sona":"7462"},{"rt":507.90000008419156,"stimulus":"<p>Welche Sequenz haben Sie als natürlicher empfunden?</p>","key_press":70,"test_part":"response","test_stimulus":{"position":0,"left":"bvh/return-bottle-training0-lines.txt","right":"bvh/vr_prediction_models/model(vcgpdm)-dataset(return-bottle)-mode(ELBO)-parts(3)-dyn(10)-lvm(30)-hold(0)/final-lines.txt","att_check":false},"trial_type":"html-keyboard-response","trial_index":70,"time_elapsed":209291,"internal_node_id":"0.0-8.0-3.15","subject":"6n96t7hds4nyq9d","sona":"7462"},{"rt":490.4400003142655,"stimulus":"<p>Bereit?</p>","key_press":32,"trial_type":"html-keyboard-response","trial_index":71,"time_elapsed":209785,"internal_node_id":"0.0-8.0-0.16","subject":"6n96t7hds4nyq9d","sona":"7462"},{"rt":null,"stimulus":"<div style=\"font-size:60px;\">+</div>","key_press":null,"trial_type":"html-keyboard-response","trial_index":72,"time_elapsed":211824,"internal_node_id":"0.0-8.0-1.16","subject":"6n96t7hds4nyq9d","sona":"7462"},{"trial_type":"turing-test","trial_index":73,"time_elapsed":215475,"internal_node_id":"0.0-8.0-2.16","subject":"6n96t7hds4nyq9d","sona":"7462"},{"rt":1850.4099999554455,"stimulus":"<p>Welche Sequenz haben Sie als natürlicher empfunden?</p>","key_press":74,"test_part":"response","test_stimulus":{"position":0,"left":"bvh/pass-bottle-hold-training1-lines.txt","right":"bvh/vr_prediction_models/model(vcgpdm)-dataset(pass-bottle-hold)-mode(ELBO)-parts(3)-dyn(10)-lvm(10)-hold(1)/final-lines.txt","att_check":false},"trial_type":"html-keyboard-response","trial_index":74,"time_elapsed":217329,"internal_node_id":"0.0-8.0-3.16","subject":"6n96t7hds4nyq9d","sona":"7462"},{"rt":419.7549996897578,"stimulus":"<p>Bereit?</p>","key_press":32,"trial_type":"html-keyboard-response","trial_index":75,"time_elapsed":217751,"internal_node_id":"0.0-8.0-0.17","subject":"6n96t7hds4nyq9d","sona":"7462"},{"rt":null,"stimulus":"<div style=\"font-size:60px;\">+</div>","key_press":null,"trial_type":"html-keyboard-response","trial_index":76,"time_elapsed":219767,"internal_node_id":"0.0-8.0-1.17","subject":"6n96t7hds4nyq9d","sona":"7462"},{"trial_type":"turing-test","trial_index":77,"time_elapsed":226321,"internal_node_id":"0.0-8.0-2.17","subject":"6n96t7hds4nyq9d","sona":"7462"},{"rt":510.47000009566545,"stimulus":"<p>Welche Sequenz haben Sie als natürlicher empfunden?</p>","key_press":70,"test_part":"response","test_stimulus":{"position":0,"left":"bvh/return-bottle-training2-lines.txt","right":"bvh/vr_prediction_models/model(tmp)-dataset(return-bottle)-numprim(13)-hold(2)/final-lines.txt","att_check":false},"trial_type":"html-keyboard-response","trial_index":78,"time_elapsed":226835,"internal_node_id":"0.0-8.0-3.17","subject":"6n96t7hds4nyq9d","sona":"7462"},{"rt":649.1199997253716,"stimulus":"<p>Bereit?</p>","key_press":32,"trial_type":"html-keyboard-response","trial_index":79,"time_elapsed":227486,"internal_node_id":"0.0-8.0-0.18","subject":"6n96t7hds4nyq9d","sona":"7462"},{"rt":null,"stimulus":"<div style=\"font-size:60px;\">+</div>","key_press":null,"trial_type":"html-keyboard-response","trial_index":80,"time_elapsed":229507,"internal_node_id":"0.0-8.0-1.18","subject":"6n96t7hds4nyq9d","sona":"7462"},{"trial_type":"turing-test","trial_index":81,"time_elapsed":233662,"internal_node_id":"0.0-8.0-2.18","subject":"6n96t7hds4nyq9d","sona":"7462"},{"rt":2066.560000181198,"stimulus":"<p>Welche Sequenz haben Sie als natürlicher empfunden?</p>","key_press":74,"test_part":"response","test_stimulus":{"position":1,"left":"bvh/vr_prediction_models/model(vcgpdm)-dataset(pass-bottle-hold)-mode(ELBO)-parts(1)-dyn(15)-lvm(35)-hold(4)/final-lines.txt","right":"bvh/pass-bottle-hold-training4-lines.txt","att_check":false},"trial_type":"html-keyboard-response","trial_index":82,"time_elapsed":235732,"internal_node_id":"0.0-8.0-3.18","subject":"6n96t7hds4nyq9d","sona":"7462"},{"rt":354.504999704659,"stimulus":"<p>Bereit?</p>","key_press":32,"trial_type":"html-keyboard-response","trial_index":83,"time_elapsed":236089,"internal_node_id":"0.0-8.0-0.19","subject":"6n96t7hds4nyq9d","sona":"7462"},{"rt":null,"stimulus":"<div style=\"font-size:60px;\">+</div>","key_press":null,"trial_type":"html-keyboard-response","trial_index":84,"time_elapsed":238128,"internal_node_id":"0.0-8.0-1.19","subject":"6n96t7hds4nyq9d","sona":"7462"},{"trial_type":"turing-test","trial_index":85,"time_elapsed":244249,"internal_node_id":"0.0-8.0-2.19","subject":"6n96t7hds4nyq9d","sona":"7462"},{"rt":337.7200001850724,"stimulus":"<p>Welche Sequenz haben Sie als natürlicher empfunden?</p>","key_press":70,"test_part":"response","test_stimulus":{"position":0,"left":"bvh/return-bottle-training3-lines.txt","right":"bvh/vr_prediction_models/model(vcgpdm)-dataset(return-bottle)-mode(ELBO)-parts(1)-dyn(10)-lvm(30)-hold(3)/final-lines.txt","att_check":false},"trial_type":"html-keyboard-response","trial_index":86,"time_elapsed":244590,"internal_node_id":"0.0-8.0-3.19","subject":"6n96t7hds4nyq9d","sona":"7462"},{"rt":337.2349999845028,"stimulus":"<p>Bereit?</p>","key_press":32,"trial_type":"html-keyboard-response","trial_index":87,"time_elapsed":244929,"internal_node_id":"0.0-8.0-0.20","subject":"6n96t7hds4nyq9d","sona":"7462"},{"rt":null,"stimulus":"<div style=\"font-size:60px;\">+</div>","key_press":null,"trial_type":"html-keyboard-response","trial_index":88,"time_elapsed":246942,"internal_node_id":"0.0-8.0-1.20","subject":"6n96t7hds4nyq9d","sona":"7462"},{"trial_type":"turing-test","trial_index":89,"time_elapsed":250278,"internal_node_id":"0.0-8.0-2.20","subject":"6n96t7hds4nyq9d","sona":"7462"},{"rt":348.41000009328127,"stimulus":"<p>Welche Sequenz haben Sie als natürlicher empfunden?</p>","key_press":74,"test_part":"response","test_stimulus":{"position":0,"left":"bvh/pass-bottle-hold-training1-lines.txt","right":"bvh/vr_prediction_models/model(dmp)-dataset(pass-bottle-hold)-npsi(20)-hold(1)/final-lines.txt","att_check":false},"trial_type":"html-keyboard-response","trial_index":90,"time_elapsed":250629,"internal_node_id":"0.0-8.0-3.20","subject":"6n96t7hds4nyq9d","sona":"7462"},{"rt":285.0299999117851,"stimulus":"<p>Bereit?</p>","key_press":32,"trial_type":"html-keyboard-response","trial_index":91,"time_elapsed":250916,"internal_node_id":"0.0-8.0-0.21","subject":"6n96t7hds4nyq9d","sona":"7462"},{"rt":null,"stimulus":"<div style=\"font-size:60px;\">+</div>","key_press":null,"trial_type":"html-keyboard-response","trial_index":92,"time_elapsed":252939,"internal_node_id":"0.0-8.0-1.21","subject":"6n96t7hds4nyq9d","sona":"7462"},{"trial_type":"turing-test","trial_index":93,"time_elapsed":258703,"internal_node_id":"0.0-8.0-2.21","subject":"6n96t7hds4nyq9d","sona":"7462"},{"rt":445.25999994948506,"stimulus":"<p>Welche Sequenz haben Sie als natürlicher empfunden?</p>","key_press":74,"test_part":"response","test_stimulus":{"position":1,"left":"bvh/vr_prediction_models/model(tmp)-dataset(return-bottle)-numprim(3)-hold(3)/final-lines.txt","right":"bvh/return-bottle-training3-lines.txt","att_check":false},"trial_type":"html-keyboard-response","trial_index":94,"time_elapsed":259153,"internal_node_id":"0.0-8.0-3.21","subject":"6n96t7hds4nyq9d","sona":"7462"},{"rt":281.79500019177794,"stimulus":"<p>Bereit?</p>","key_press":32,"trial_type":"html-keyboard-response","trial_index":95,"time_elapsed":259437,"internal_node_id":"0.0-8.0-0.22","subject":"6n96t7hds4nyq9d","sona":"7462"},{"rt":null,"stimulus":"<div style=\"font-size:60px;\">+</div>","key_press":null,"trial_type":"html-keyboard-response","trial_index":96,"time_elapsed":261463,"internal_node_id":"0.0-8.0-1.22","subject":"6n96t7hds4nyq9d","sona":"7462"},{"trial_type":"turing-test","trial_index":97,"time_elapsed":265451,"internal_node_id":"0.0-8.0-2.22","subject":"6n96t7hds4nyq9d","sona":"7462"},{"rt":504.3950001709163,"stimulus":"<p>Welche Sequenz haben Sie als natürlicher empfunden?</p>","key_press":70,"test_part":"response","test_stimulus":{"position":0,"left":"bvh/pass-bottle-hold-training3-lines.txt","right":"bvh/vr_prediction_models/model(vcgpdm)-dataset(pass-bottle-hold)-mode(ELBO)-parts(1)-dyn(25)-lvm(35)-hold(3)/final-lines.txt","att_check":false},"trial_type":"html-keyboard-response","trial_index":98,"time_elapsed":265959,"internal_node_id":"0.0-8.0-3.22","subject":"6n96t7hds4nyq9d","sona":"7462"},{"rt":304.279999807477,"stimulus":"<p>Bereit?</p>","key_press":32,"trial_type":"html-keyboard-response","trial_index":99,"time_elapsed":266267,"internal_node_id":"0.0-8.0-0.23","subject":"6n96t7hds4nyq9d","sona":"7462"},{"rt":null,"stimulus":"<div style=\"font-size:60px;\">+</div>","key_press":null,"trial_type":"html-keyboard-response","trial_index":100,"time_elapsed":268286,"internal_node_id":"0.0-8.0-1.23","subject":"6n96t7hds4nyq9d","sona":"7462"},{"trial_type":"turing-test","trial_index":101,"time_elapsed":271973,"internal_node_id":"0.0-8.0-2.23","subject":"6n96t7hds4nyq9d","sona":"7462"},{"rt":1040.8450001850724,"stimulus":"<p>Welche Sequenz haben Sie als natürlicher empfunden?</p>","key_press":70,"test_part":"response","test_stimulus":{"position":0,"left":"bvh/return-bottle-hold-training4-lines.txt","right":"bvh/vr_prediction_models/model(dmp)-dataset(return-bottle-hold)-npsi(90)-hold(4)/final-lines.txt","att_check":false},"trial_type":"html-keyboard-response","trial_index":102,"time_elapsed":273017,"internal_node_id":"0.0-8.0-3.23","subject":"6n96t7hds4nyq9d","sona":"7462"},{"rt":402.8449999168515,"stimulus":"<p>Bereit?</p>","key_press":32,"trial_type":"html-keyboard-response","trial_index":103,"time_elapsed":273422,"internal_node_id":"0.0-8.0-0.24","subject":"6n96t7hds4nyq9d","sona":"7462"},{"rt":null,"stimulus":"<div style=\"font-size:60px;\">+</div>","key_press":null,"trial_type":"html-keyboard-response","trial_index":104,"time_elapsed":275452,"internal_node_id":"0.0-8.0-1.24","subject":"6n96t7hds4nyq9d","sona":"7462"},{"trial_type":"turing-test","trial_index":105,"time_elapsed":282196,"internal_node_id":"0.0-8.0-2.24","subject":"6n96t7hds4nyq9d","sona":"7462"},{"rt":403.90999987721443,"stimulus":"<p>Welche Sequenz haben Sie als natürlicher empfunden?</p>","key_press":70,"test_part":"response","test_stimulus":{"position":0,"left":"bvh/return-bottle-training2-lines.txt","right":"bvh/vr_prediction_models/model(tmp)-dataset(return-bottle)-numprim(15)-hold(2)/final-lines.txt","att_check":false},"trial_type":"html-keyboard-response","trial_index":106,"time_elapsed":282603,"internal_node_id":"0.0-8.0-3.24","subject":"6n96t7hds4nyq9d","sona":"7462"},{"rt":502.8500002808869,"stimulus":"<p>Bereit?</p>","key_press":32,"trial_type":"html-keyboard-response","trial_index":107,"time_elapsed":283109,"internal_node_id":"0.0-8.0-0.25","subject":"6n96t7hds4nyq9d","sona":"7462"},{"rt":null,"stimulus":"<div style=\"font-size:60px;\">+</div>","key_press":null,"trial_type":"html-keyboard-response","trial_index":108,"time_elapsed":285115,"internal_node_id":"0.0-8.0-1.25","subject":"6n96t7hds4nyq9d","sona":"7462"},{"trial_type":"turing-test","trial_index":109,"time_elapsed":288788,"internal_node_id":"0.0-8.0-2.25","subject":"6n96t7hds4nyq9d","sona":"7462"},{"rt":741.2400003522635,"stimulus":"<p>Welche Sequenz haben Sie als natürlicher empfunden?</p>","key_press":74,"test_part":"response","test_stimulus":{"position":0,"left":"bvh/pass-bottle-hold-training4-lines.txt","right":"bvh/vr_prediction_models/model(tmp)-dataset(pass-bottle-hold)-numprim(12)-hold(4)/final-lines.txt","att_check":false},"trial_type":"html-keyboard-response","trial_index":110,"time_elapsed":289532,"internal_node_id":"0.0-8.0-3.25","subject":"6n96t7hds4nyq9d","sona":"7462"},{"rt":522.2100000828505,"stimulus":"<p>Bereit?</p>","key_press":32,"trial_type":"html-keyboard-response","trial_index":111,"time_elapsed":290057,"internal_node_id":"0.0-8.0-0.26","subject":"6n96t7hds4nyq9d","sona":"7462"},{"rt":null,"stimulus":"<div style=\"font-size:60px;\">+</div>","key_press":null,"trial_type":"html-keyboard-response","trial_index":112,"time_elapsed":292072,"internal_node_id":"0.0-8.0-1.26","subject":"6n96t7hds4nyq9d","sona":"7462"},{"trial_type":"turing-test","trial_index":113,"time_elapsed":296075,"internal_node_id":"0.0-8.0-2.26","subject":"6n96t7hds4nyq9d","sona":"7462"},{"rt":801.8700000829995,"stimulus":"<p>Welche Sequenz haben Sie als natürlicher empfunden?</p>","key_press":74,"test_part":"response","test_stimulus":{"position":1,"left":"bvh/vr_prediction_models/model(vcgpdm)-dataset(pass-bottle-hold)-mode(ELBO)-parts(1)-dyn(30)-lvm(30)-hold(2)/final-lines.txt","right":"bvh/pass-bottle-hold-training2-lines.txt","att_check":false},"trial_type":"html-keyboard-response","trial_index":114,"time_elapsed":296881,"internal_node_id":"0.0-8.0-3.26","subject":"6n96t7hds4nyq9d","sona":"7462"},{"rt":367.0000000856817,"stimulus":"<p>Bereit?</p>","key_press":32,"trial_type":"html-keyboard-response","trial_index":115,"time_elapsed":297251,"internal_node_id":"0.0-8.0-0.27","subject":"6n96t7hds4nyq9d","sona":"7462"},{"rt":null,"stimulus":"<div style=\"font-size:60px;\">+</div>","key_press":null,"trial_type":"html-keyboard-response","trial_index":116,"time_elapsed":299268,"internal_node_id":"0.0-8.0-1.27","subject":"6n96t7hds4nyq9d","sona":"7462"},{"trial_type":"turing-test","trial_index":117,"time_elapsed":305004,"internal_node_id":"0.0-8.0-2.27","subject":"6n96t7hds4nyq9d","sona":"7462"},{"rt":789.1250001266599,"stimulus":"<p>Welche Sequenz haben Sie als natürlicher empfunden?</p>","key_press":74,"test_part":"response","test_stimulus":{"position":1,"left":"bvh/vr_prediction_models/model(dmp)-dataset(return-bottle)-npsi(70)-hold(3)/final-lines.txt","right":"bvh/return-bottle-training3-lines.txt","att_check":false},"trial_type":"html-keyboard-response","trial_index":118,"time_elapsed":305798,"internal_node_id":"0.0-8.0-3.27","subject":"6n96t7hds4nyq9d","sona":"7462"},{"rt":271.12000016495585,"stimulus":"<p>Bereit?</p>","key_press":32,"trial_type":"html-keyboard-response","trial_index":119,"time_elapsed":306072,"internal_node_id":"0.0-8.0-0.28","subject":"6n96t7hds4nyq9d","sona":"7462"},{"rt":null,"stimulus":"<div style=\"font-size:60px;\">+</div>","key_press":null,"trial_type":"html-keyboard-response","trial_index":120,"time_elapsed":308099,"internal_node_id":"0.0-8.0-1.28","subject":"6n96t7hds4nyq9d","sona":"7462"},{"trial_type":"turing-test","trial_index":121,"time_elapsed":312257,"internal_node_id":"0.0-8.0-2.28","subject":"6n96t7hds4nyq9d","sona":"7462"},{"rt":1190.5600000172853,"stimulus":"<p>Welche Sequenz haben Sie als natürlicher empfunden?</p>","key_press":74,"test_part":"response","test_stimulus":{"position":1,"left":"bvh/vr_prediction_models/model(vcgpdm)-dataset(return-bottle-hold)-mode(ELBO)-parts(3)-dyn(30)-lvm(15)-hold(1)/final-lines.txt","right":"bvh/return-bottle-hold-training1-lines.txt","att_check":false},"trial_type":"html-keyboard-response","trial_index":122,"time_elapsed":313452,"internal_node_id":"0.0-8.0-3.28","subject":"6n96t7hds4nyq9d","sona":"7462"},{"rt":302.0150000229478,"stimulus":"<p>Bereit?</p>","key_press":32,"trial_type":"html-keyboard-response","trial_index":123,"time_elapsed":313757,"internal_node_id":"0.0-8.0-0.29","subject":"6n96t7hds4nyq9d","sona":"7462"},{"rt":null,"stimulus":"<div style=\"font-size:60px;\">+</div>","key_press":null,"trial_type":"html-keyboard-response","trial_index":124,"time_elapsed":315763,"internal_node_id":"0.0-8.0-1.29","subject":"6n96t7hds4nyq9d","sona":"7462"},{"trial_type":"turing-test","trial_index":125,"time_elapsed":319773,"internal_node_id":"0.0-8.0-2.29","subject":"6n96t7hds4nyq9d","sona":"7462"},{"rt":356.1849999241531,"stimulus":"<p>Welche Sequenz haben Sie als natürlicher empfunden?</p>","key_press":74,"test_part":"response","test_stimulus":{"position":1,"left":"bvh/vr_prediction_models/model(vcgpdm)-dataset(pass-bottle-hold)-mode(ELBO)-parts(1)-dyn(5)-lvm(5)-hold(0)/final-lines.txt","right":"bvh/pass-bottle-hold-training0-lines.txt","att_check":false},"trial_type":"html-keyboard-response","trial_index":126,"time_elapsed":320133,"internal_node_id":"0.0-8.0-3.29","subject":"6n96t7hds4nyq9d","sona":"7462"},{"rt":268.82000034675,"stimulus":"<p>Bereit?</p>","key_press":32,"trial_type":"html-keyboard-response","trial_index":127,"time_elapsed":320406,"internal_node_id":"0.0-8.0-0.30","subject":"6n96t7hds4nyq9d","sona":"7462"},{"rt":null,"stimulus":"<div style=\"font-size:60px;\">+</div>","key_press":null,"trial_type":"html-keyboard-response","trial_index":128,"time_elapsed":322421,"internal_node_id":"0.0-8.0-1.30","subject":"6n96t7hds4nyq9d","sona":"7462"},{"trial_type":"turing-test","trial_index":129,"time_elapsed":325825,"internal_node_id":"0.0-8.0-2.30","subject":"6n96t7hds4nyq9d","sona":"7462"},{"rt":1056.7250000312924,"stimulus":"<p>Welche Sequenz haben Sie als natürlicher empfunden?</p>","key_press":74,"test_part":"response","test_stimulus":{"position":1,"left":"bvh/vr_prediction_models/model(dmp)-dataset(pass-bottle-hold)-npsi(30)-hold(0)/final-lines.txt","right":"bvh/pass-bottle-hold-training0-lines.txt","att_check":false},"trial_type":"html-keyboard-response","trial_index":130,"time_elapsed":326885,"internal_node_id":"0.0-8.0-3.30","subject":"6n96t7hds4nyq9d","sona":"7462"},{"rt":240.87499966844916,"stimulus":"<p>Bereit?</p>","key_press":32,"trial_type":"html-keyboard-response","trial_index":131,"time_elapsed":327129,"internal_node_id":"0.0-8.0-0.31","subject":"6n96t7hds4nyq9d","sona":"7462"},{"rt":null,"stimulus":"<div style=\"font-size:60px;\">+</div>","key_press":null,"trial_type":"html-keyboard-response","trial_index":132,"time_elapsed":329147,"internal_node_id":"0.0-8.0-1.31","subject":"6n96t7hds4nyq9d","sona":"7462"},{"trial_type":"turing-test","trial_index":133,"time_elapsed":332980,"internal_node_id":"0.0-8.0-2.31","subject":"6n96t7hds4nyq9d","sona":"7462"},{"rt":273.0150003917515,"stimulus":"<p>Welche Sequenz haben Sie als natürlicher empfunden?</p>","key_press":74,"test_part":"response","test_stimulus":{"position":1,"left":"bvh/vr_prediction_models/model(vcgpdm)-dataset(pass-bottle-hold)-mode(ELBO)-parts(3)-dyn(25)-lvm(15)-hold(2)/final-lines.txt","right":"bvh/pass-bottle-hold-training2-lines.txt","att_check":false},"trial_type":"html-keyboard-response","trial_index":134,"time_elapsed":333256,"internal_node_id":"0.0-8.0-3.31","subject":"6n96t7hds4nyq9d","sona":"7462"},{"rt":224.89499999210238,"stimulus":"<p>Bereit?</p>","key_press":32,"trial_type":"html-keyboard-response","trial_index":135,"time_elapsed":333485,"internal_node_id":"0.0-8.0-0.32","subject":"6n96t7hds4nyq9d","sona":"7462"},{"rt":null,"stimulus":"<div style=\"font-size:60px;\">+</div>","key_press":null,"trial_type":"html-keyboard-response","trial_index":136,"time_elapsed":335506,"internal_node_id":"0.0-8.0-1.32","subject":"6n96t7hds4nyq9d","sona":"7462"},{"trial_type":"turing-test","trial_index":137,"time_elapsed":341318,"internal_node_id":"0.0-8.0-2.32","subject":"6n96t7hds4nyq9d","sona":"7462"},{"rt":691.8050004169345,"stimulus":"<p>Welche Sequenz haben Sie als natürlicher empfunden?</p>","key_press":70,"test_part":"response","test_stimulus":{"position":0,"left":"bvh/pass-bottle-training3-lines.txt","right":"bvh/vr_prediction_models/model(tmp)-dataset(pass-bottle)-numprim(7)-hold(3)/final-lines.txt","att_check":false},"trial_type":"html-keyboard-response","trial_index":138,"time_elapsed":342015,"internal_node_id":"0.0-8.0-3.32","subject":"6n96t7hds4nyq9d","sona":"7462"},{"rt":261.2750004045665,"stimulus":"<p>Bereit?</p>","key_press":32,"trial_type":"html-keyboard-response","trial_index":139,"time_elapsed":342279,"internal_node_id":"0.0-8.0-0.33","subject":"6n96t7hds4nyq9d","sona":"7462"},{"rt":null,"stimulus":"<div style=\"font-size:60px;\">+</div>","key_press":null,"trial_type":"html-keyboard-response","trial_index":140,"time_elapsed":344300,"internal_node_id":"0.0-8.0-1.33","subject":"6n96t7hds4nyq9d","sona":"7462"},{"trial_type":"turing-test","trial_index":141,"time_elapsed":351350,"internal_node_id":"0.0-8.0-2.33","subject":"6n96t7hds4nyq9d","sona":"7462"},{"rt":628.4749996848404,"stimulus":"<p>Welche Sequenz haben Sie als natürlicher empfunden?</p>","key_press":70,"test_part":"response","test_stimulus":{"position":0,"left":"bvh/pass-bottle-training0-lines.txt","right":"bvh/vr_prediction_models/model(tmp)-dataset(pass-bottle)-numprim(5)-hold(0)/final-lines.txt","att_check":false},"trial_type":"html-keyboard-response","trial_index":142,"time_elapsed":351982,"internal_node_id":"0.0-8.0-3.33","subject":"6n96t7hds4nyq9d","sona":"7462"},{"rt":335.1150001399219,"stimulus":"<p>Bereit?</p>","key_press":32,"trial_type":"html-keyboard-response","trial_index":143,"time_elapsed":352321,"internal_node_id":"0.0-8.0-0.34","subject":"6n96t7hds4nyq9d","sona":"7462"},{"rt":null,"stimulus":"<div style=\"font-size:60px;\">+</div>","key_press":null,"trial_type":"html-keyboard-response","trial_index":144,"time_elapsed":354333,"internal_node_id":"0.0-8.0-1.34","subject":"6n96t7hds4nyq9d","sona":"7462"},{"trial_type":"turing-test","trial_index":145,"time_elapsed":360448,"internal_node_id":"0.0-8.0-2.34","subject":"6n96t7hds4nyq9d","sona":"7462"},{"rt":802.8799998573959,"stimulus":"<p>Welche Sequenz haben Sie als natürlicher empfunden?</p>","key_press":74,"test_part":"response","test_stimulus":{"position":1,"left":"bvh/vr_prediction_models/model(vcgpdm)-dataset(return-bottle)-mode(ELBO)-parts(3)-dyn(35)-lvm(20)-hold(4)/final-lines.txt","right":"bvh/return-bottle-training4-lines.txt","att_check":false},"trial_type":"html-keyboard-response","trial_index":146,"time_elapsed":361256,"internal_node_id":"0.0-8.0-3.34","subject":"6n96t7hds4nyq9d","sona":"7462"},{"rt":597.1400002017617,"stimulus":"<p>Bereit?</p>","key_press":32,"trial_type":"html-keyboard-response","trial_index":147,"time_elapsed":361856,"internal_node_id":"0.0-8.0-0.35","subject":"6n96t7hds4nyq9d","sona":"7462"},{"rt":null,"stimulus":"<div style=\"font-size:60px;\">+</div>","key_press":null,"trial_type":"html-keyboard-response","trial_index":148,"time_elapsed":363873,"internal_node_id":"0.0-8.0-1.35","subject":"6n96t7hds4nyq9d","sona":"7462"},{"trial_type":"turing-test","trial_index":149,"time_elapsed":369890,"internal_node_id":"0.0-8.0-2.35","subject":"6n96t7hds4nyq9d","sona":"7462"},{"rt":470.63500015065074,"stimulus":"<p>Welche Sequenz haben Sie als natürlicher empfunden?</p>","key_press":74,"test_part":"response","test_stimulus":{"position":1,"left":"bvh/vr_prediction_models/model(tmp)-dataset(return-bottle)-numprim(10)-hold(4)/final-lines.txt","right":"bvh/return-bottle-training4-lines.txt","att_check":false},"trial_type":"html-keyboard-response","trial_index":150,"time_elapsed":370365,"internal_node_id":"0.0-8.0-3.35","subject":"6n96t7hds4nyq9d","sona":"7462"},{"rt":332.2850000113249,"stimulus":"<p>Bereit?</p>","key_press":32,"trial_type":"html-keyboard-response","trial_index":151,"time_elapsed":370702,"internal_node_id":"0.0-8.0-0.36","subject":"6n96t7hds4nyq9d","sona":"7462"},{"rt":null,"stimulus":"<div style=\"font-size:60px;\">+</div>","key_press":null,"trial_type":"html-keyboard-response","trial_index":152,"time_elapsed":372706,"internal_node_id":"0.0-8.0-1.36","subject":"6n96t7hds4nyq9d","sona":"7462"},{"trial_type":"turing-test","trial_index":153,"time_elapsed":379821,"internal_node_id":"0.0-8.0-2.36","subject":"6n96t7hds4nyq9d","sona":"7462"},{"rt":290.4150001704693,"stimulus":"<p>Welche Sequenz haben Sie als natürlicher empfunden?</p>","key_press":74,"test_part":"response","test_stimulus":{"position":0,"left":"bvh/return-bottle-training2-lines.txt","right":"bvh/vr_prediction_models/model(vcgpdm)-dataset(return-bottle)-mode(ELBO)-parts(3)-dyn(30)-lvm(15)-hold(2)/final-lines.txt","att_check":false},"trial_type":"html-keyboard-response","trial_index":154,"time_elapsed":380116,"internal_node_id":"0.0-8.0-3.36","subject":"6n96t7hds4nyq9d","sona":"7462"},{"rt":245.214999653399,"stimulus":"<p>Bereit?</p>","key_press":32,"trial_type":"html-keyboard-response","trial_index":155,"time_elapsed":380364,"internal_node_id":"0.0-8.0-0.37","subject":"6n96t7hds4nyq9d","sona":"7462"},{"rt":null,"stimulus":"<div style=\"font-size:60px;\">+</div>","key_press":null,"trial_type":"html-keyboard-response","trial_index":156,"time_elapsed":382375,"internal_node_id":"0.0-8.0-1.37","subject":"6n96t7hds4nyq9d","sona":"7462"},{"trial_type":"turing-test","trial_index":157,"time_elapsed":386257,"internal_node_id":"0.0-8.0-2.37","subject":"6n96t7hds4nyq9d","sona":"7462"},{"rt":442.090000025928,"stimulus":"<p>Welche Sequenz haben Sie als natürlicher empfunden?</p>","key_press":74,"test_part":"response","test_stimulus":{"position":1,"left":"bvh/vr_prediction_models/model(vcgpdm)-dataset(pass-bottle-hold)-mode(ELBO)-parts(3)-dyn(10)-lvm(30)-hold(4)/final-lines.txt","right":"bvh/pass-bottle-hold-training4-lines.txt","att_check":false},"trial_type":"html-keyboard-response","trial_index":158,"time_elapsed":386703,"internal_node_id":"0.0-8.0-3.37","subject":"6n96t7hds4nyq9d","sona":"7462"},{"rt":254.2999996803701,"stimulus":"<p>Bereit?</p>","key_press":32,"trial_type":"html-keyboard-response","trial_index":159,"time_elapsed":386960,"internal_node_id":"0.0-8.0-0.38","subject":"6n96t7hds4nyq9d","sona":"7462"},{"rt":null,"stimulus":"<div style=\"font-size:60px;\">+</div>","key_press":null,"trial_type":"html-keyboard-response","trial_index":160,"time_elapsed":388970,"internal_node_id":"0.0-8.0-1.38","subject":"6n96t7hds4nyq9d","sona":"7462"},{"trial_type":"turing-test","trial_index":161,"time_elapsed":394903,"internal_node_id":"0.0-8.0-2.38","subject":"6n96t7hds4nyq9d","sona":"7462"},{"rt":531.3400002196431,"stimulus":"<p>Welche Sequenz haben Sie als natürlicher empfunden?</p>","key_press":70,"test_part":"response","test_stimulus":{"position":1,"left":"bvh/vr_prediction_models/model(vcgpdm)-dataset(return-bottle-hold)-mode(ELBO)-parts(3)-dyn(15)-lvm(30)-hold(0)/final-lines.txt","right":"bvh/return-bottle-hold-training0-lines.txt","att_check":false},"trial_type":"html-keyboard-response","trial_index":162,"time_elapsed":395438,"internal_node_id":"0.0-8.0-3.38","subject":"6n96t7hds4nyq9d","sona":"7462"},{"rt":474.74500024691224,"stimulus":"<p>Bereit?</p>","key_press":32,"trial_type":"html-keyboard-response","trial_index":163,"time_elapsed":395916,"internal_node_id":"0.0-8.0-0.39","subject":"6n96t7hds4nyq9d","sona":"7462"},{"rt":null,"stimulus":"<div style=\"font-size:60px;\">+</div>","key_press":null,"trial_type":"html-keyboard-response","trial_index":164,"time_elapsed":397934,"internal_node_id":"0.0-8.0-1.39","subject":"6n96t7hds4nyq9d","sona":"7462"},{"trial_type":"turing-test","trial_index":165,"time_elapsed":403743,"internal_node_id":"0.0-8.0-2.39","subject":"6n96t7hds4nyq9d","sona":"7462"},{"rt":679.2399999685585,"stimulus":"<p>Welche Sequenz haben Sie als natürlicher empfunden?</p>","key_press":74,"test_part":"response","test_stimulus":{"position":1,"left":"bvh/vr_prediction_models/model(tmp)-dataset(return-bottle)-numprim(15)-hold(3)/final-lines.txt","right":"bvh/return-bottle-training3-lines.txt","att_check":false},"trial_type":"html-keyboard-response","trial_index":166,"time_elapsed":404426,"internal_node_id":"0.0-8.0-3.39","subject":"6n96t7hds4nyq9d","sona":"7462"},{"rt":251.94000033661723,"stimulus":"<p>Bereit?</p>","key_press":32,"trial_type":"html-keyboard-response","trial_index":167,"time_elapsed":404683,"internal_node_id":"0.0-8.0-0.40","subject":"6n96t7hds4nyq9d","sona":"7462"},{"rt":null,"stimulus":"<div style=\"font-size:60px;\">+</div>","key_press":null,"trial_type":"html-keyboard-response","trial_index":168,"time_elapsed":406704,"internal_node_id":"0.0-8.0-1.40","subject":"6n96t7hds4nyq9d","sona":"7462"},{"trial_type":"turing-test","trial_index":169,"time_elapsed":411919,"internal_node_id":"0.0-8.0-2.40","subject":"6n96t7hds4nyq9d","sona":"7462"},{"rt":393.94000032916665,"stimulus":"<p>Welche Sequenz haben Sie als natürlicher empfunden?</p>","key_press":74,"test_part":"response","test_stimulus":{"position":0,"left":"bvh/return-bottle-hold-training0-lines.txt","right":"bvh/vr_prediction_models/model(tmp)-dataset(return-bottle-hold)-numprim(11)-hold(0)/final-lines.txt","att_check":false},"trial_type":"html-keyboard-response","trial_index":170,"time_elapsed":412317,"internal_node_id":"0.0-8.0-3.40","subject":"6n96t7hds4nyq9d","sona":"7462"},{"rt":320.87000040337443,"stimulus":"<p>Bereit?</p>","key_press":32,"trial_type":"html-keyboard-response","trial_index":171,"time_elapsed":412642,"internal_node_id":"0.0-8.0-0.41","subject":"6n96t7hds4nyq9d","sona":"7462"},{"rt":null,"stimulus":"<div style=\"font-size:60px;\">+</div>","key_press":null,"trial_type":"html-keyboard-response","trial_index":172,"time_elapsed":414659,"internal_node_id":"0.0-8.0-1.41","subject":"6n96t7hds4nyq9d","sona":"7462"},{"trial_type":"turing-test","trial_index":173,"time_elapsed":421219,"internal_node_id":"0.0-8.0-2.41","subject":"6n96t7hds4nyq9d","sona":"7462"},{"rt":1135.675000026822,"stimulus":"<p>Welche Sequenz haben Sie als natürlicher empfunden?</p>","key_press":74,"test_part":"response","test_stimulus":{"position":1,"left":"bvh/vr_prediction_models/model(vcgpdm)-dataset(return-bottle)-mode(ELBO)-parts(1)-dyn(10)-lvm(25)-hold(4)/final-lines.txt","right":"bvh/return-bottle-training4-lines.txt","att_check":false},"trial_type":"html-keyboard-response","trial_index":174,"time_elapsed":422359,"internal_node_id":"0.0-8.0-3.41","subject":"6n96t7hds4nyq9d","sona":"7462"},{"rt":210.29999991878867,"stimulus":"<p>Bereit?</p>","key_press":32,"trial_type":"html-keyboard-response","trial_index":175,"time_elapsed":422572,"internal_node_id":"0.0-8.0-0.42","subject":"6n96t7hds4nyq9d","sona":"7462"},{"rt":null,"stimulus":"<div style=\"font-size:60px;\">+</div>","key_press":null,"trial_type":"html-keyboard-response","trial_index":176,"time_elapsed":424591,"internal_node_id":"0.0-8.0-1.42","subject":"6n96t7hds4nyq9d","sona":"7462"},{"trial_type":"turing-test","trial_index":177,"time_elapsed":428240,"internal_node_id":"0.0-8.0-2.42","subject":"6n96t7hds4nyq9d","sona":"7462"},{"rt":434.48999989777803,"stimulus":"<p>Welche Sequenz haben Sie als natürlicher empfunden?</p>","key_press":74,"test_part":"response","test_stimulus":{"position":1,"left":"bvh/vr_prediction_models/model(dmp)-dataset(return-bottle-hold)-npsi(70)-hold(3)/final-lines.txt","right":"bvh/return-bottle-hold-training3-lines.txt","att_check":false},"trial_type":"html-keyboard-response","trial_index":178,"time_elapsed":428678,"internal_node_id":"0.0-8.0-3.42","subject":"6n96t7hds4nyq9d","sona":"7462"},{"rt":308.37500002235174,"stimulus":"<p>Bereit?</p>","key_press":32,"trial_type":"html-keyboard-response","trial_index":179,"time_elapsed":428990,"internal_node_id":"0.0-8.0-0.43","subject":"6n96t7hds4nyq9d","sona":"7462"},{"rt":null,"stimulus":"<div style=\"font-size:60px;\">+</div>","key_press":null,"trial_type":"html-keyboard-response","trial_index":180,"time_elapsed":431018,"internal_node_id":"0.0-8.0-1.43","subject":"6n96t7hds4nyq9d","sona":"7462"},{"trial_type":"turing-test","trial_index":181,"time_elapsed":437415,"internal_node_id":"0.0-8.0-2.43","subject":"6n96t7hds4nyq9d","sona":"7462"},{"rt":668.7949998304248,"stimulus":"<p>Welche Sequenz haben Sie als natürlicher empfunden?</p>","key_press":70,"test_part":"response","test_stimulus":{"position":0,"left":"bvh/pass-bottle-training3-lines.txt","right":"bvh/vr_prediction_models/model(vcgpdm)-dataset(pass-bottle)-mode(ELBO)-parts(1)-dyn(35)-lvm(10)-hold(3)/final-lines.txt","att_check":false},"trial_type":"html-keyboard-response","trial_index":182,"time_elapsed":438088,"internal_node_id":"0.0-8.0-3.43","subject":"6n96t7hds4nyq9d","sona":"7462"},{"rt":299.1399997845292,"stimulus":"<p>Bereit?</p>","key_press":32,"trial_type":"html-keyboard-response","trial_index":183,"time_elapsed":438391,"internal_node_id":"0.0-8.0-0.44","subject":"6n96t7hds4nyq9d","sona":"7462"},{"rt":null,"stimulus":"<div style=\"font-size:60px;\">+</div>","key_press":null,"trial_type":"html-keyboard-response","trial_index":184,"time_elapsed":440401,"internal_node_id":"0.0-8.0-1.44","subject":"6n96t7hds4nyq9d","sona":"7462"},{"trial_type":"turing-test","trial_index":185,"time_elapsed":444512,"internal_node_id":"0.0-8.0-2.44","subject":"6n96t7hds4nyq9d","sona":"7462"},{"rt":516.8300000950694,"stimulus":"<p>Welche Sequenz haben Sie als natürlicher empfunden?</p>","key_press":74,"test_part":"response","test_stimulus":{"position":1,"left":"bvh/vr_prediction_models/model(vcgpdm)-dataset(return-bottle-hold)-mode(ELBO)-parts(1)-dyn(35)-lvm(30)-hold(2)/final-lines.txt","right":"bvh/return-bottle-hold-training2-lines.txt","att_check":false},"trial_type":"html-keyboard-response","trial_index":186,"time_elapsed":445033,"internal_node_id":"0.0-8.0-3.44","subject":"6n96t7hds4nyq9d","sona":"7462"},{"rt":242.34999995678663,"stimulus":"<p>Bereit?</p>","key_press":32,"trial_type":"html-keyboard-response","trial_index":187,"time_elapsed":445279,"internal_node_id":"0.0-8.0-0.45","subject":"6n96t7hds4nyq9d","sona":"7462"},{"rt":null,"stimulus":"<div style=\"font-size:60px;\">+</div>","key_press":null,"trial_type":"html-keyboard-response","trial_index":188,"time_elapsed":447301,"internal_node_id":"0.0-8.0-1.45","subject":"6n96t7hds4nyq9d","sona":"7462"},{"trial_type":"turing-test","trial_index":189,"time_elapsed":453116,"internal_node_id":"0.0-8.0-2.45","subject":"6n96t7hds4nyq9d","sona":"7462"},{"rt":871.0399996489286,"stimulus":"<p>Welche Sequenz haben Sie als natürlicher empfunden?</p>","key_press":74,"test_part":"response","test_stimulus":{"position":0,"left":"bvh/return-bottle-training4-lines.txt","right":"bvh/vr_prediction_models/model(dmp)-dataset(return-bottle)-npsi(50)-hold(4)/final-lines.txt","att_check":false},"trial_type":"html-keyboard-response","trial_index":190,"time_elapsed":453991,"internal_node_id":"0.0-8.0-3.45","subject":"6n96t7hds4nyq9d","sona":"7462"},{"rt":534.3100000172853,"stimulus":"<p>Bereit?</p>","key_press":32,"trial_type":"html-keyboard-response","trial_index":191,"time_elapsed":454530,"internal_node_id":"0.0-8.0-0.46","subject":"6n96t7hds4nyq9d","sona":"7462"},{"rt":null,"stimulus":"<div style=\"font-size:60px;\">+</div>","key_press":null,"trial_type":"html-keyboard-response","trial_index":192,"time_elapsed":456546,"internal_node_id":"0.0-8.0-1.46","subject":"6n96t7hds4nyq9d","sona":"7462"},{"trial_type":"turing-test","trial_index":193,"time_elapsed":459898,"internal_node_id":"0.0-8.0-2.46","subject":"6n96t7hds4nyq9d","sona":"7462"},{"rt":592.9350000806153,"stimulus":"<p>Welche Sequenz haben Sie als natürlicher empfunden?</p>","key_press":74,"test_part":"response","test_stimulus":{"position":1,"left":"bvh/vr_prediction_models/model(tmp)-dataset(return-bottle-hold)-numprim(15)-hold(1)/final-lines.txt","right":"bvh/return-bottle-hold-training1-lines.txt","att_check":false},"trial_type":"html-keyboard-response","trial_index":194,"time_elapsed":460495,"internal_node_id":"0.0-8.0-3.46","subject":"6n96t7hds4nyq9d","sona":"7462"},{"rt":234.99500006437302,"stimulus":"<p>Bereit?</p>","key_press":32,"trial_type":"html-keyboard-response","trial_index":195,"time_elapsed":460734,"internal_node_id":"0.0-8.0-0.47","subject":"6n96t7hds4nyq9d","sona":"7462"},{"rt":null,"stimulus":"<div style=\"font-size:60px;\">+</div>","key_press":null,"trial_type":"html-keyboard-response","trial_index":196,"time_elapsed":462753,"internal_node_id":"0.0-8.0-1.47","subject":"6n96t7hds4nyq9d","sona":"7462"},{"trial_type":"turing-test","trial_index":197,"time_elapsed":466127,"internal_node_id":"0.0-8.0-2.47","subject":"6n96t7hds4nyq9d","sona":"7462"},{"rt":522.7000000886619,"stimulus":"<p>Welche Sequenz haben Sie als natürlicher empfunden?</p>","key_press":74,"test_part":"response","test_stimulus":{"position":1,"left":"bvh/vr_prediction_models/model(tmp)-dataset(pass-bottle-hold)-numprim(3)-hold(2)/final-lines.txt","right":"bvh/pass-bottle-hold-training2-lines.txt","att_check":false},"trial_type":"html-keyboard-response","trial_index":198,"time_elapsed":466654,"internal_node_id":"0.0-8.0-3.47","subject":"6n96t7hds4nyq9d","sona":"7462"},{"rt":218.71499996632338,"stimulus":"<p>Bereit?</p>","key_press":32,"trial_type":"html-keyboard-response","trial_index":199,"time_elapsed":466876,"internal_node_id":"0.0-8.0-0.48","subject":"6n96t7hds4nyq9d","sona":"7462"},{"rt":null,"stimulus":"<div style=\"font-size:60px;\">+</div>","key_press":null,"trial_type":"html-keyboard-response","trial_index":200,"time_elapsed":468897,"internal_node_id":"0.0-8.0-1.48","subject":"6n96t7hds4nyq9d","sona":"7462"},{"trial_type":"turing-test","trial_index":201,"time_elapsed":475230,"internal_node_id":"0.0-8.0-2.48","subject":"6n96t7hds4nyq9d","sona":"7462"},{"rt":419.579999987036,"stimulus":"<p>Welche Sequenz haben Sie als natürlicher empfunden?</p>","key_press":74,"test_part":"response","test_stimulus":{"position":1,"left":"bvh/vr_prediction_models/model(dmp)-dataset(return-bottle)-npsi(90)-hold(1)/final-lines.txt","right":"bvh/return-bottle-training1-lines.txt","att_check":false},"trial_type":"html-keyboard-response","trial_index":202,"time_elapsed":475656,"internal_node_id":"0.0-8.0-3.48","subject":"6n96t7hds4nyq9d","sona":"7462"},{"rt":216.59000031650066,"stimulus":"<p>Bereit?</p>","key_press":32,"trial_type":"html-keyboard-response","trial_index":203,"time_elapsed":475876,"internal_node_id":"0.0-8.0-0.49","subject":"6n96t7hds4nyq9d","sona":"7462"},{"rt":null,"stimulus":"<div style=\"font-size:60px;\">+</div>","key_press":null,"trial_type":"html-keyboard-response","trial_index":204,"time_elapsed":477891,"internal_node_id":"0.0-8.0-1.49","subject":"6n96t7hds4nyq9d","sona":"7462"},{"trial_type":"turing-test","trial_index":205,"time_elapsed":481612,"internal_node_id":"0.0-8.0-2.49","subject":"6n96t7hds4nyq9d","sona":"7462"},{"rt":451.1150000616908,"stimulus":"<p>Welche Sequenz haben Sie als natürlicher empfunden?</p>","key_press":74,"test_part":"response","test_stimulus":{"position":1,"left":"bvh/vr_prediction_models/model(dmp)-dataset(return-bottle-hold)-npsi(100)-hold(3)/final-lines.txt","right":"bvh/return-bottle-hold-training3-lines.txt","att_check":false},"trial_type":"html-keyboard-response","trial_index":206,"time_elapsed":482070,"internal_node_id":"0.0-8.0-3.49","subject":"6n96t7hds4nyq9d","sona":"7462"},{"rt":219.94500001892447,"stimulus":"<p>Bereit?</p>","key_press":32,"trial_type":"html-keyboard-response","trial_index":207,"time_elapsed":482295,"internal_node_id":"0.0-8.0-0.50","subject":"6n96t7hds4nyq9d","sona":"7462"},{"rt":null,"stimulus":"<div style=\"font-size:60px;\">+</div>","key_press":null,"trial_type":"html-keyboard-response","trial_index":208,"time_elapsed":484314,"internal_node_id":"0.0-8.0-1.50","subject":"6n96t7hds4nyq9d","sona":"7462"},{"trial_type":"turing-test","trial_index":209,"time_elapsed":488050,"internal_node_id":"0.0-8.0-2.50","subject":"6n96t7hds4nyq9d","sona":"7462"},{"rt":375.76999980956316,"stimulus":"<p>Welche Sequenz haben Sie als natürlicher empfunden?</p>","key_press":70,"test_part":"response","test_stimulus":{"position":0,"left":"bvh/pass-bottle-hold-training0-lines.txt","right":"bvh/vr_prediction_models/model(vcgpdm)-dataset(pass-bottle-hold)-mode(ELBO)-parts(3)-dyn(20)-lvm(20)-hold(0)/final-lines.txt","att_check":false},"trial_type":"html-keyboard-response","trial_index":210,"time_elapsed":488431,"internal_node_id":"0.0-8.0-3.50","subject":"6n96t7hds4nyq9d","sona":"7462"},{"rt":263.82500026375055,"stimulus":"<p>Bereit?</p>","key_press":32,"trial_type":"html-keyboard-response","trial_index":211,"time_elapsed":488699,"internal_node_id":"0.0-8.0-0.51","subject":"6n96t7hds4nyq9d","sona":"7462"},{"rt":null,"stimulus":"<div style=\"font-size:60px;\">+</div>","key_press":null,"trial_type":"html-keyboard-response","trial_index":212,"time_elapsed":490729,"internal_node_id":"0.0-8.0-1.51","subject":"6n96t7hds4nyq9d","sona":"7462"},{"trial_type":"turing-test","trial_index":213,"time_elapsed":496827,"internal_node_id":"0.0-8.0-2.51","subject":"6n96t7hds4nyq9d","sona":"7462"},{"rt":1145.045000128448,"stimulus":"<p>Welche Sequenz haben Sie als natürlicher empfunden?</p>","key_press":70,"test_part":"response","test_stimulus":{"position":0,"left":"bvh/return-bottle-training1-lines.txt","right":"bvh/vr_prediction_models/model(tmp)-dataset(return-bottle)-numprim(14)-hold(1)/final-lines.txt","att_check":false},"trial_type":"html-keyboard-response","trial_index":214,"time_elapsed":497979,"internal_node_id":"0.0-8.0-3.51","subject":"6n96t7hds4nyq9d","sona":"7462"},{"rt":201.03499991819263,"stimulus":"<p>Bereit?</p>","key_press":32,"trial_type":"html-keyboard-response","trial_index":215,"time_elapsed":498184,"internal_node_id":"0.0-8.0-0.52","subject":"6n96t7hds4nyq9d","sona":"7462"},{"rt":null,"stimulus":"<div style=\"font-size:60px;\">+</div>","key_press":null,"trial_type":"html-keyboard-response","trial_index":216,"time_elapsed":500200,"internal_node_id":"0.0-8.0-1.52","subject":"6n96t7hds4nyq9d","sona":"7462"},{"trial_type":"turing-test","trial_index":217,"time_elapsed":507026,"internal_node_id":"0.0-8.0-2.52","subject":"6n96t7hds4nyq9d","sona":"7462"},{"rt":582.7100002206862,"stimulus":"<p>Welche Sequenz haben Sie als natürlicher empfunden?</p>","key_press":74,"test_part":"response","test_stimulus":{"position":0,"left":"bvh/pass-bottle-training0-lines.txt","right":"bvh/vr_prediction_models/model(dmp)-dataset(pass-bottle)-npsi(100)-hold(0)/final-lines.txt","att_check":false},"trial_type":"html-keyboard-response","trial_index":218,"time_elapsed":507613,"internal_node_id":"0.0-8.0-3.52","subject":"6n96t7hds4nyq9d","sona":"7462"},{"rt":297.25000029429793,"stimulus":"<p>Bereit?</p>","key_press":32,"trial_type":"html-keyboard-response","trial_index":219,"time_elapsed":507916,"internal_node_id":"0.0-8.0-0.53","subject":"6n96t7hds4nyq9d","sona":"7462"},{"rt":null,"stimulus":"<div style=\"font-size:60px;\">+</div>","key_press":null,"trial_type":"html-keyboard-response","trial_index":220,"time_elapsed":509927,"internal_node_id":"0.0-8.0-1.53","subject":"6n96t7hds4nyq9d","sona":"7462"},{"trial_type":"turing-test","trial_index":221,"time_elapsed":515427,"internal_node_id":"0.0-8.0-2.53","subject":"6n96t7hds4nyq9d","sona":"7462"},{"rt":357.39999962970614,"stimulus":"<p>Welche Sequenz haben Sie als natürlicher empfunden?</p>","key_press":74,"test_part":"response","test_stimulus":{"position":1,"left":"bvh/vr_prediction_models/model(dmp)-dataset(return-bottle)-npsi(40)-hold(0)/final-lines.txt","right":"bvh/return-bottle-training0-lines.txt","att_check":false},"trial_type":"html-keyboard-response","trial_index":222,"time_elapsed":515790,"internal_node_id":"0.0-8.0-3.53","subject":"6n96t7hds4nyq9d","sona":"7462"},{"rt":282.3400003835559,"stimulus":"<p>Bereit?</p>","key_press":32,"trial_type":"html-keyboard-response","trial_index":223,"time_elapsed":516076,"internal_node_id":"0.0-8.0-0.54","subject":"6n96t7hds4nyq9d","sona":"7462"},{"rt":null,"stimulus":"<div style=\"font-size:60px;\">+</div>","key_press":null,"trial_type":"html-keyboard-response","trial_index":224,"time_elapsed":518097,"internal_node_id":"0.0-8.0-1.54","subject":"6n96t7hds4nyq9d","sona":"7462"},{"trial_type":"turing-test","trial_index":225,"time_elapsed":524275,"internal_node_id":"0.0-8.0-2.54","subject":"6n96t7hds4nyq9d","sona":"7462"},{"rt":510.50000032410026,"stimulus":"<p>Welche Sequenz haben Sie als natürlicher empfunden?</p>","key_press":74,"test_part":"response","test_stimulus":{"position":1,"left":"bvh/vr_prediction_models/model(vcgpdm)-dataset(pass-bottle)-mode(ELBO)-parts(3)-dyn(10)-lvm(25)-hold(4)/final-lines.txt","right":"bvh/pass-bottle-training4-lines.txt","att_check":false},"trial_type":"html-keyboard-response","trial_index":226,"time_elapsed":524791,"internal_node_id":"0.0-8.0-3.54","subject":"6n96t7hds4nyq9d","sona":"7462"},{"rt":430.2100003696978,"stimulus":"<p>Bereit?</p>","key_press":32,"trial_type":"html-keyboard-response","trial_index":227,"time_elapsed":525225,"internal_node_id":"0.0-8.0-0.55","subject":"6n96t7hds4nyq9d","sona":"7462"},{"rt":null,"stimulus":"<div style=\"font-size:60px;\">+</div>","key_press":null,"trial_type":"html-keyboard-response","trial_index":228,"time_elapsed":527248,"internal_node_id":"0.0-8.0-1.55","subject":"6n96t7hds4nyq9d","sona":"7462"},{"trial_type":"turing-test","trial_index":229,"time_elapsed":531482,"internal_node_id":"0.0-8.0-2.55","subject":"6n96t7hds4nyq9d","sona":"7462"},{"rt":418.4300000779331,"stimulus":"<p>Welche Sequenz haben Sie als natürlicher empfunden?</p>","key_press":70,"test_part":"response","test_stimulus":{"position":1,"left":"bvh/vr_prediction_models/model(vcgpdm)-dataset(pass-bottle-hold)-mode(ELBO)-parts(1)-dyn(30)-lvm(20)-hold(4)/final-lines.txt","right":"bvh/pass-bottle-hold-training4-lines.txt","att_check":false},"trial_type":"html-keyboard-response","trial_index":230,"time_elapsed":531905,"internal_node_id":"0.0-8.0-3.55","subject":"6n96t7hds4nyq9d","sona":"7462"},{"rt":249.41999977454543,"stimulus":"<p>Bereit?</p>","key_press":32,"trial_type":"html-keyboard-response","trial_index":231,"time_elapsed":532158,"internal_node_id":"0.0-8.0-0.56","subject":"6n96t7hds4nyq9d","sona":"7462"},{"rt":null,"stimulus":"<div style=\"font-size:60px;\">+</div>","key_press":null,"trial_type":"html-keyboard-response","trial_index":232,"time_elapsed":534188,"internal_node_id":"0.0-8.0-1.56","subject":"6n96t7hds4nyq9d","sona":"7462"},{"trial_type":"turing-test","trial_index":233,"time_elapsed":538601,"internal_node_id":"0.0-8.0-2.56","subject":"6n96t7hds4nyq9d","sona":"7462"},{"rt":352.8849999420345,"stimulus":"<p>Welche Sequenz haben Sie als natürlicher empfunden?</p>","key_press":74,"test_part":"response","test_stimulus":{"position":1,"left":"bvh/vr_prediction_models/model(vcgpdm)-dataset(return-bottle-hold)-mode(ELBO)-parts(3)-dyn(10)-lvm(25)-hold(3)/final-lines.txt","right":"bvh/return-bottle-hold-training3-lines.txt","att_check":false},"trial_type":"html-keyboard-response","trial_index":234,"time_elapsed":538959,"internal_node_id":"0.0-8.0-3.56","subject":"6n96t7hds4nyq9d","sona":"7462"},{"rt":275.41999984532595,"stimulus":"<p>Bereit?</p>","key_press":32,"trial_type":"html-keyboard-response","trial_index":235,"time_elapsed":539238,"internal_node_id":"0.0-8.0-0.57","subject":"6n96t7hds4nyq9d","sona":"7462"},{"rt":null,"stimulus":"<div style=\"font-size:60px;\">+</div>","key_press":null,"trial_type":"html-keyboard-response","trial_index":236,"time_elapsed":541256,"internal_node_id":"0.0-8.0-1.57","subject":"6n96t7hds4nyq9d","sona":"7462"},{"trial_type":"turing-test","trial_index":237,"time_elapsed":547458,"internal_node_id":"0.0-8.0-2.57","subject":"6n96t7hds4nyq9d","sona":"7462"},{"rt":335.3400002233684,"stimulus":"<p>Welche Sequenz haben Sie als natürlicher empfunden?</p>","key_press":70,"test_part":"response","test_stimulus":{"position":0,"left":"bvh/pass-bottle-training4-lines.txt","right":"bvh/vr_prediction_models/model(vcgpdm)-dataset(pass-bottle)-mode(ELBO)-parts(1)-dyn(30)-lvm(30)-hold(4)/final-lines.txt","att_check":false},"trial_type":"html-keyboard-response","trial_index":238,"time_elapsed":547798,"internal_node_id":"0.0-8.0-3.57","subject":"6n96t7hds4nyq9d","sona":"7462"},{"rt":314.6000001579523,"stimulus":"<p>Bereit?</p>","key_press":32,"trial_type":"html-keyboard-response","trial_index":239,"time_elapsed":548118,"internal_node_id":"0.0-8.0-0.58","subject":"6n96t7hds4nyq9d","sona":"7462"},{"rt":null,"stimulus":"<div style=\"font-size:60px;\">+</div>","key_press":null,"trial_type":"html-keyboard-response","trial_index":240,"time_elapsed":550133,"internal_node_id":"0.0-8.0-1.58","subject":"6n96t7hds4nyq9d","sona":"7462"},{"trial_type":"turing-test","trial_index":241,"time_elapsed":553893,"internal_node_id":"0.0-8.0-2.58","subject":"6n96t7hds4nyq9d","sona":"7462"},{"rt":366.69000005349517,"stimulus":"<p>Welche Sequenz haben Sie als natürlicher empfunden?</p>","key_press":74,"test_part":"response","test_stimulus":{"position":1,"left":"bvh/vr_prediction_models/model(vcgpdm)-dataset(pass-bottle-hold)-mode(ELBO)-parts(3)-dyn(20)-lvm(20)-hold(1)/final-lines.txt","right":"bvh/pass-bottle-hold-training1-lines.txt","att_check":false},"trial_type":"html-keyboard-response","trial_index":242,"time_elapsed":554263,"internal_node_id":"0.0-8.0-3.58","subject":"6n96t7hds4nyq9d","sona":"7462"},{"rt":302.3299998603761,"stimulus":"<p>Bereit?</p>","key_press":32,"trial_type":"html-keyboard-response","trial_index":243,"time_elapsed":554569,"internal_node_id":"0.0-8.0-0.59","subject":"6n96t7hds4nyq9d","sona":"7462"},{"rt":null,"stimulus":"<div style=\"font-size:60px;\">+</div>","key_press":null,"trial_type":"html-keyboard-response","trial_index":244,"time_elapsed":556594,"internal_node_id":"0.0-8.0-1.59","subject":"6n96t7hds4nyq9d","sona":"7462"},{"trial_type":"turing-test","trial_index":245,"time_elapsed":563830,"internal_node_id":"0.0-8.0-2.59","subject":"6n96t7hds4nyq9d","sona":"7462"},{"rt":538.8100002892315,"stimulus":"<p>Welche Sequenz haben Sie als natürlicher empfunden?</p>","key_press":74,"test_part":"response","test_stimulus":{"position":0,"left":"bvh/pass-bottle-training0-lines.txt","right":"bvh/vr_prediction_models/model(vcgpdm)-dataset(pass-bottle)-mode(ELBO)-parts(1)-dyn(10)-lvm(5)-hold(0)/final-lines.txt","att_check":false},"trial_type":"html-keyboard-response","trial_index":246,"time_elapsed":564373,"internal_node_id":"0.0-8.0-3.59","subject":"6n96t7hds4nyq9d","sona":"7462"},{"rt":258.06500017642975,"stimulus":"<p>Bereit?</p>","key_press":32,"trial_type":"html-keyboard-response","trial_index":247,"time_elapsed":564635,"internal_node_id":"0.0-8.0-0.60","subject":"6n96t7hds4nyq9d","sona":"7462"},{"rt":null,"stimulus":"<div style=\"font-size:60px;\">+</div>","key_press":null,"trial_type":"html-keyboard-response","trial_index":248,"time_elapsed":566656,"internal_node_id":"0.0-8.0-1.60","subject":"6n96t7hds4nyq9d","sona":"7462"},{"trial_type":"turing-test","trial_index":249,"time_elapsed":573323,"internal_node_id":"0.0-8.0-2.60","subject":"6n96t7hds4nyq9d","sona":"7462"},{"rt":650.0899996608496,"stimulus":"<p>Welche Sequenz haben Sie als natürlicher empfunden?</p>","key_press":74,"test_part":"response","test_stimulus":{"position":0,"left":"bvh/return-bottle-training2-lines.txt","right":"bvh/vr_prediction_models/model(dmp)-dataset(return-bottle)-npsi(20)-hold(2)/final-lines.txt","att_check":false},"trial_type":"html-keyboard-response","trial_index":250,"time_elapsed":573978,"internal_node_id":"0.0-8.0-3.60","subject":"6n96t7hds4nyq9d","sona":"7462"},{"rt":260.6799998320639,"stimulus":"<p>Bereit?</p>","key_press":32,"trial_type":"html-keyboard-response","trial_index":251,"time_elapsed":574244,"internal_node_id":"0.0-8.0-0.61","subject":"6n96t7hds4nyq9d","sona":"7462"},{"rt":null,"stimulus":"<div style=\"font-size:60px;\">+</div>","key_press":null,"trial_type":"html-keyboard-response","trial_index":252,"time_elapsed":576283,"internal_node_id":"0.0-8.0-1.61","subject":"6n96t7hds4nyq9d","sona":"7462"},{"trial_type":"turing-test","trial_index":253,"time_elapsed":582486,"internal_node_id":"0.0-8.0-2.61","subject":"6n96t7hds4nyq9d","sona":"7462"},{"rt":374.2700000293553,"stimulus":"<p>Welche Sequenz haben Sie als natürlicher empfunden?</p>","key_press":70,"test_part":"response","test_stimulus":{"position":0,"left":"bvh/pass-bottle-training4-lines.txt","right":"bvh/vr_prediction_models/model(vcgpdm)-dataset(pass-bottle)-mode(ELBO)-parts(1)-dyn(10)-lvm(25)-hold(4)/final-lines.txt","att_check":false},"trial_type":"html-keyboard-response","trial_index":254,"time_elapsed":582865,"internal_node_id":"0.0-8.0-3.61","subject":"6n96t7hds4nyq9d","sona":"7462"},{"rt":301.8200001679361,"stimulus":"<p>Bereit?</p>","key_press":32,"trial_type":"html-keyboard-response","trial_index":255,"time_elapsed":583172,"internal_node_id":"0.0-8.0-0.62","subject":"6n96t7hds4nyq9d","sona":"7462"},{"rt":null,"stimulus":"<div style=\"font-size:60px;\">+</div>","key_press":null,"trial_type":"html-keyboard-response","trial_index":256,"time_elapsed":585185,"internal_node_id":"0.0-8.0-1.62","subject":"6n96t7hds4nyq9d","sona":"7462"},{"trial_type":"turing-test","trial_index":257,"time_elapsed":591129,"internal_node_id":"0.0-8.0-2.62","subject":"6n96t7hds4nyq9d","sona":"7462"},{"rt":1545.2250000089407,"stimulus":"<p>Welche Sequenz haben Sie als natürlicher empfunden?</p>","key_press":70,"test_part":"response","test_stimulus":{"position":0,"left":"bvh/pass-bottle-training1-lines.txt","right":"bvh/vr_prediction_models/model(vcgpdm)-dataset(pass-bottle)-mode(ELBO)-parts(1)-dyn(10)-lvm(5)-hold(1)/final-lines.txt","att_check":false},"trial_type":"html-keyboard-response","trial_index":258,"time_elapsed":592678,"internal_node_id":"0.0-8.0-3.62","subject":"6n96t7hds4nyq9d","sona":"7462"},{"rt":231.27000033855438,"stimulus":"<p>Bereit?</p>","key_press":32,"trial_type":"html-keyboard-response","trial_index":259,"time_elapsed":592913,"internal_node_id":"0.0-8.0-0.63","subject":"6n96t7hds4nyq9d","sona":"7462"},{"rt":null,"stimulus":"<div style=\"font-size:60px;\">+</div>","key_press":null,"trial_type":"html-keyboard-response","trial_index":260,"time_elapsed":594936,"internal_node_id":"0.0-8.0-1.63","subject":"6n96t7hds4nyq9d","sona":"7462"},{"trial_type":"turing-test","trial_index":261,"time_elapsed":599098,"internal_node_id":"0.0-8.0-2.63","subject":"6n96t7hds4nyq9d","sona":"7462"},{"rt":563.5099997743964,"stimulus":"<p>Welche Sequenz haben Sie als natürlicher empfunden?</p>","key_press":70,"test_part":"response","test_stimulus":{"position":0,"left":"bvh/return-bottle-hold-training4-lines.txt","right":"bvh/vr_prediction_models/model(vcgpdm)-dataset(return-bottle-hold)-mode(ELBO)-parts(1)-dyn(30)-lvm(30)-hold(4)/final-lines.txt","att_check":false},"trial_type":"html-keyboard-response","trial_index":262,"time_elapsed":599667,"internal_node_id":"0.0-8.0-3.63","subject":"6n96t7hds4nyq9d","sona":"7462"},{"rt":370.3549997881055,"stimulus":"<p>Bereit?</p>","key_press":32,"trial_type":"html-keyboard-response","trial_index":263,"time_elapsed":600041,"internal_node_id":"0.0-8.0-0.64","subject":"6n96t7hds4nyq9d","sona":"7462"},{"rt":null,"stimulus":"<div style=\"font-size:60px;\">+</div>","key_press":null,"trial_type":"html-keyboard-response","trial_index":264,"time_elapsed":602061,"internal_node_id":"0.0-8.0-1.64","subject":"6n96t7hds4nyq9d","sona":"7462"},{"trial_type":"turing-test","trial_index":265,"time_elapsed":607799,"internal_node_id":"0.0-8.0-2.64","subject":"6n96t7hds4nyq9d","sona":"7462"},{"rt":454.87499982118607,"stimulus":"<p>Welche Sequenz haben Sie als natürlicher empfunden?</p>","key_press":74,"test_part":"response","test_stimulus":{"position":0,"left":"bvh/pass-bottle-training3-lines.txt","right":"bvh/vr_prediction_models/model(tmp)-dataset(pass-bottle)-numprim(7)-hold(3)/final-lines.txt","att_check":false},"trial_type":"html-keyboard-response","trial_index":266,"time_elapsed":608259,"internal_node_id":"0.0-8.0-3.64","subject":"6n96t7hds4nyq9d","sona":"7462"},{"rt":310.4300000704825,"stimulus":"<p>Bereit?</p>","key_press":32,"trial_type":"html-keyboard-response","trial_index":267,"time_elapsed":608575,"internal_node_id":"0.0-8.0-0.65","subject":"6n96t7hds4nyq9d","sona":"7462"},{"rt":null,"stimulus":"<div style=\"font-size:60px;\">+</div>","key_press":null,"trial_type":"html-keyboard-response","trial_index":268,"time_elapsed":610588,"internal_node_id":"0.0-8.0-1.65","subject":"6n96t7hds4nyq9d","sona":"7462"},{"trial_type":"turing-test","trial_index":269,"time_elapsed":616795,"internal_node_id":"0.0-8.0-2.65","subject":"6n96t7hds4nyq9d","sona":"7462"},{"rt":935.7650000602007,"stimulus":"<p>Welche Sequenz haben Sie als natürlicher empfunden?</p>","key_press":74,"test_part":"response","test_stimulus":{"position":1,"left":"bvh/vr_prediction_models/model(dmp)-dataset(pass-bottle)-npsi(40)-hold(2)/final-lines.txt","right":"bvh/pass-bottle-training2-lines.txt","att_check":false},"trial_type":"html-keyboard-response","trial_index":270,"time_elapsed":617737,"internal_node_id":"0.0-8.0-3.65","subject":"6n96t7hds4nyq9d","sona":"7462"},{"rt":411.359999794513,"stimulus":"<p>Bereit?</p>","key_press":32,"trial_type":"html-keyboard-response","trial_index":271,"time_elapsed":618155,"internal_node_id":"0.0-8.0-0.66","subject":"6n96t7hds4nyq9d","sona":"7462"},{"rt":null,"stimulus":"<div style=\"font-size:60px;\">+</div>","key_press":null,"trial_type":"html-keyboard-response","trial_index":272,"time_elapsed":620167,"internal_node_id":"0.0-8.0-1.66","subject":"6n96t7hds4nyq9d","sona":"7462"},{"trial_type":"turing-test","trial_index":273,"time_elapsed":623643,"internal_node_id":"0.0-8.0-2.66","subject":"6n96t7hds4nyq9d","sona":"7462"},{"rt":387.9749998450279,"stimulus":"<p>Welche Sequenz haben Sie als natürlicher empfunden?</p>","key_press":74,"test_part":"response","test_stimulus":{"position":0,"left":"bvh/return-bottle-hold-training2-lines.txt","right":"bvh/vr_prediction_models/model(tmp)-dataset(return-bottle-hold)-numprim(12)-hold(2)/final-lines.txt","att_check":false},"trial_type":"html-keyboard-response","trial_index":274,"time_elapsed":624036,"internal_node_id":"0.0-8.0-3.66","subject":"6n96t7hds4nyq9d","sona":"7462"},{"rt":240.96500035375357,"stimulus":"<p>Bereit?</p>","key_press":32,"trial_type":"html-keyboard-response","trial_index":275,"time_elapsed":624283,"internal_node_id":"0.0-8.0-0.67","subject":"6n96t7hds4nyq9d","sona":"7462"},{"rt":null,"stimulus":"<div style=\"font-size:60px;\">+</div>","key_press":null,"trial_type":"html-keyboard-response","trial_index":276,"time_elapsed":626300,"internal_node_id":"0.0-8.0-1.67","subject":"6n96t7hds4nyq9d","sona":"7462"},{"trial_type":"turing-test","trial_index":277,"time_elapsed":632102,"internal_node_id":"0.0-8.0-2.67","subject":"6n96t7hds4nyq9d","sona":"7462"},{"rt":636.194999795407,"stimulus":"<p>Welche Sequenz haben Sie als natürlicher empfunden?</p>","key_press":74,"test_part":"response","test_stimulus":{"position":1,"left":"bvh/vr_prediction_models/model(tmp)-dataset(pass-bottle)-numprim(13)-hold(4)/final-lines.txt","right":"bvh/pass-bottle-training4-lines.txt","att_check":false},"trial_type":"html-keyboard-response","trial_index":278,"time_elapsed":632744,"internal_node_id":"0.0-8.0-3.67","subject":"6n96t7hds4nyq9d","sona":"7462"},{"rt":337.74999994784594,"stimulus":"<p>Bereit?</p>","key_press":32,"trial_type":"html-keyboard-response","trial_index":279,"time_elapsed":633086,"internal_node_id":"0.0-8.0-0.68","subject":"6n96t7hds4nyq9d","sona":"7462"},{"rt":null,"stimulus":"<div style=\"font-size:60px;\">+</div>","key_press":null,"trial_type":"html-keyboard-response","trial_index":280,"time_elapsed":635132,"internal_node_id":"0.0-8.0-1.68","subject":"6n96t7hds4nyq9d","sona":"7462"},{"trial_type":"turing-test","trial_index":281,"time_elapsed":640654,"internal_node_id":"0.0-8.0-2.68","subject":"6n96t7hds4nyq9d","sona":"7462"},{"rt":372.75000009685755,"stimulus":"<p>Welche Sequenz haben Sie als natürlicher empfunden?</p>","key_press":74,"test_part":"response","test_stimulus":{"position":1,"left":"bvh/vr_prediction_models/model(tmp)-dataset(return-bottle)-numprim(6)-hold(0)/final-lines.txt","right":"bvh/return-bottle-training0-lines.txt","att_check":false},"trial_type":"html-keyboard-response","trial_index":282,"time_elapsed":641033,"internal_node_id":"0.0-8.0-3.68","subject":"6n96t7hds4nyq9d","sona":"7462"},{"rt":283.80999993532896,"stimulus":"<p>Bereit?</p>","key_press":32,"trial_type":"html-keyboard-response","trial_index":283,"time_elapsed":641321,"internal_node_id":"0.0-8.0-0.69","subject":"6n96t7hds4nyq9d","sona":"7462"},{"rt":null,"stimulus":"<div style=\"font-size:60px;\">+</div>","key_press":null,"trial_type":"html-keyboard-response","trial_index":284,"time_elapsed":643329,"internal_node_id":"0.0-8.0-1.69","subject":"6n96t7hds4nyq9d","sona":"7462"},{"trial_type":"turing-test","trial_index":285,"time_elapsed":650062,"internal_node_id":"0.0-8.0-2.69","subject":"6n96t7hds4nyq9d","sona":"7462"},{"rt":1162.8899998031557,"stimulus":"<p>Welche Sequenz haben Sie als natürlicher empfunden?</p>","key_press":74,"test_part":"response","test_stimulus":{"position":0,"left":"bvh/pass-bottle-training0-lines.txt","right":"bvh/vr_prediction_models/model(tmp)-dataset(pass-bottle)-numprim(12)-hold(0)/final-lines.txt","att_check":false},"trial_type":"html-keyboard-response","trial_index":286,"time_elapsed":651231,"internal_node_id":"0.0-8.0-3.69","subject":"6n96t7hds4nyq9d","sona":"7462"},{"rt":252.040000166744,"stimulus":"<p>Bereit?</p>","key_press":32,"trial_type":"html-keyboard-response","trial_index":287,"time_elapsed":651489,"internal_node_id":"0.0-8.0-0.70","subject":"6n96t7hds4nyq9d","sona":"7462"},{"rt":null,"stimulus":"<div style=\"font-size:60px;\">+</div>","key_press":null,"trial_type":"html-keyboard-response","trial_index":288,"time_elapsed":653503,"internal_node_id":"0.0-8.0-1.70","subject":"6n96t7hds4nyq9d","sona":"7462"},{"trial_type":"turing-test","trial_index":289,"time_elapsed":659214,"internal_node_id":"0.0-8.0-2.70","subject":"6n96t7hds4nyq9d","sona":"7462"},{"rt":356.37499997392297,"stimulus":"<p>Welche Sequenz haben Sie als natürlicher empfunden?</p>","key_press":70,"test_part":"response","test_stimulus":{"position":0,"left":"bvh/return-bottle-training0-lines.txt","right":"bvh/vr_prediction_models/model(vcgpdm)-dataset(return-bottle)-mode(ELBO)-parts(3)-dyn(10)-lvm(25)-hold(0)/final-lines.txt","att_check":false},"trial_type":"html-keyboard-response","trial_index":290,"time_elapsed":659576,"internal_node_id":"0.0-8.0-3.70","subject":"6n96t7hds4nyq9d","sona":"7462"},{"rt":331.63500018417835,"stimulus":"<p>Bereit?</p>","key_press":32,"trial_type":"html-keyboard-response","trial_index":291,"time_elapsed":659912,"internal_node_id":"0.0-8.0-0.71","subject":"6n96t7hds4nyq9d","sona":"7462"},{"rt":null,"stimulus":"<div style=\"font-size:60px;\">+</div>","key_press":null,"trial_type":"html-keyboard-response","trial_index":292,"time_elapsed":661945,"internal_node_id":"0.0-8.0-1.71","subject":"6n96t7hds4nyq9d","sona":"7462"},{"trial_type":"turing-test","trial_index":293,"time_elapsed":667007,"internal_node_id":"0.0-8.0-2.71","subject":"6n96t7hds4nyq9d","sona":"7462"},{"rt":477.0450000651181,"stimulus":"<p>Welche Sequenz haben Sie als natürlicher empfunden?</p>","key_press":70,"test_part":"response","test_stimulus":{"position":1,"left":"bvh/vr_prediction_models/model(vcgpdm)-dataset(return-bottle-hold)-mode(ELBO)-parts(3)-dyn(15)-lvm(30)-hold(0)/final-lines.txt","right":"bvh/return-bottle-hold-training0-lines.txt","att_check":false},"trial_type":"html-keyboard-response","trial_index":294,"time_elapsed":667489,"internal_node_id":"0.0-8.0-3.71","subject":"6n96t7hds4nyq9d","sona":"7462"},{"rt":292.2350000590086,"stimulus":"<p>Bereit?</p>","key_press":32,"trial_type":"html-keyboard-response","trial_index":295,"time_elapsed":667787,"internal_node_id":"0.0-8.0-0.72","subject":"6n96t7hds4nyq9d","sona":"7462"},{"rt":null,"stimulus":"<div style=\"font-size:60px;\">+</div>","key_press":null,"trial_type":"html-keyboard-response","trial_index":296,"time_elapsed":669827,"internal_node_id":"0.0-8.0-1.72","subject":"6n96t7hds4nyq9d","sona":"7462"},{"trial_type":"turing-test","trial_index":297,"time_elapsed":675793,"internal_node_id":"0.0-8.0-2.72","subject":"6n96t7hds4nyq9d","sona":"7462"},{"rt":3300.9750000201166,"stimulus":"<p>Welche Sequenz haben Sie als natürlicher empfunden?</p>","key_press":74,"test_part":"response","test_stimulus":{"position":0,"left":"bvh/pass-bottle-training4-lines.txt","right":"bvh/vr_prediction_models/model(dmp)-dataset(pass-bottle)-npsi(30)-hold(4)/final-lines.txt","att_check":true},"trial_type":"html-keyboard-response","trial_index":298,"time_elapsed":679101,"internal_node_id":"0.0-8.0-3.72","subject":"6n96t7hds4nyq9d","sona":"7462"},{"rt":240.470000077039,"stimulus":"<p>Bereit?</p>","key_press":32,"trial_type":"html-keyboard-response","trial_index":299,"time_elapsed":679347,"internal_node_id":"0.0-8.0-0.73","subject":"6n96t7hds4nyq9d","sona":"7462"},{"rt":null,"stimulus":"<div style=\"font-size:60px;\">+</div>","key_press":null,"trial_type":"html-keyboard-response","trial_index":300,"time_elapsed":681357,"internal_node_id":"0.0-8.0-1.73","subject":"6n96t7hds4nyq9d","sona":"7462"},{"trial_type":"turing-test","trial_index":301,"time_elapsed":687188,"internal_node_id":"0.0-8.0-2.73","subject":"6n96t7hds4nyq9d","sona":"7462"},{"rt":458.4949999116361,"stimulus":"<p>Welche Sequenz haben Sie als natürlicher empfunden?</p>","key_press":74,"test_part":"response","test_stimulus":{"position":1,"left":"bvh/vr_prediction_models/model(tmp)-dataset(pass-bottle)-numprim(9)-hold(3)/final-lines.txt","right":"bvh/pass-bottle-training3-lines.txt","att_check":false},"trial_type":"html-keyboard-response","trial_index":302,"time_elapsed":687654,"internal_node_id":"0.0-8.0-3.73","subject":"6n96t7hds4nyq9d","sona":"7462"},{"rt":253.8900002837181,"stimulus":"<p>Bereit?</p>","key_press":32,"trial_type":"html-keyboard-response","trial_index":303,"time_elapsed":687912,"internal_node_id":"0.0-8.0-0.74","subject":"6n96t7hds4nyq9d","sona":"7462"},{"rt":null,"stimulus":"<div style=\"font-size:60px;\">+</div>","key_press":null,"trial_type":"html-keyboard-response","trial_index":304,"time_elapsed":689929,"internal_node_id":"0.0-8.0-1.74","subject":"6n96t7hds4nyq9d","sona":"7462"},{"trial_type":"turing-test","trial_index":305,"time_elapsed":696050,"internal_node_id":"0.0-8.0-2.74","subject":"6n96t7hds4nyq9d","sona":"7462"},{"rt":1224.924999754876,"stimulus":"<p>Welche Sequenz haben Sie als natürlicher empfunden?</p>","key_press":74,"test_part":"response","test_stimulus":{"position":1,"left":"bvh/vr_prediction_models/model(dmp)-dataset(pass-bottle)-npsi(60)-hold(2)/final-lines.txt","right":"bvh/pass-bottle-training2-lines.txt","att_check":false},"trial_type":"html-keyboard-response","trial_index":306,"time_elapsed":697282,"internal_node_id":"0.0-8.0-3.74","subject":"6n96t7hds4nyq9d","sona":"7462"},{"rt":298.634999897331,"stimulus":"<p>Bereit?</p>","key_press":32,"trial_type":"html-keyboard-response","trial_index":307,"time_elapsed":697587,"internal_node_id":"0.0-8.0-0.75","subject":"6n96t7hds4nyq9d","sona":"7462"},{"rt":null,"stimulus":"<div style=\"font-size:60px;\">+</div>","key_press":null,"trial_type":"html-keyboard-response","trial_index":308,"time_elapsed":699624,"internal_node_id":"0.0-8.0-1.75","subject":"6n96t7hds4nyq9d","sona":"7462"},{"trial_type":"turing-test","trial_index":309,"time_elapsed":703833,"internal_node_id":"0.0-8.0-2.75","subject":"6n96t7hds4nyq9d","sona":"7462"},{"rt":324.25499986857176,"stimulus":"<p>Welche Sequenz haben Sie als natürlicher empfunden?</p>","key_press":70,"test_part":"response","test_stimulus":{"position":1,"left":"bvh/vr_prediction_models/model(vcgpdm)-dataset(pass-bottle-hold)-mode(ELBO)-parts(1)-dyn(20)-lvm(30)-hold(4)/final-lines.txt","right":"bvh/pass-bottle-hold-training4-lines.txt","att_check":false},"trial_type":"html-keyboard-response","trial_index":310,"time_elapsed":704163,"internal_node_id":"0.0-8.0-3.75","subject":"6n96t7hds4nyq9d","sona":"7462"},{"rt":375.80000003799796,"stimulus":"<p>Bereit?</p>","key_press":32,"trial_type":"html-keyboard-response","trial_index":311,"time_elapsed":704544,"internal_node_id":"0.0-8.0-0.76","subject":"6n96t7hds4nyq9d","sona":"7462"},{"rt":null,"stimulus":"<div style=\"font-size:60px;\">+</div>","key_press":null,"trial_type":"html-keyboard-response","trial_index":312,"time_elapsed":706565,"internal_node_id":"0.0-8.0-1.76","subject":"6n96t7hds4nyq9d","sona":"7462"},{"trial_type":"turing-test","trial_index":313,"time_elapsed":713133,"internal_node_id":"0.0-8.0-2.76","subject":"6n96t7hds4nyq9d","sona":"7462"},{"rt":1153.7049999460578,"stimulus":"<p>Welche Sequenz haben Sie als natürlicher empfunden?</p>","key_press":74,"test_part":"response","test_stimulus":{"position":0,"left":"bvh/return-bottle-training2-lines.txt","right":"bvh/vr_prediction_models/model(dmp)-dataset(return-bottle)-npsi(90)-hold(2)/final-lines.txt","att_check":false},"trial_type":"html-keyboard-response","trial_index":314,"time_elapsed":714294,"internal_node_id":"0.0-8.0-3.76","subject":"6n96t7hds4nyq9d","sona":"7462"},{"rt":295.0249998830259,"stimulus":"<p>Bereit?</p>","key_press":32,"trial_type":"html-keyboard-response","trial_index":315,"time_elapsed":714593,"internal_node_id":"0.0-8.0-0.77","subject":"6n96t7hds4nyq9d","sona":"7462"},{"rt":null,"stimulus":"<div style=\"font-size:60px;\">+</div>","key_press":null,"trial_type":"html-keyboard-response","trial_index":316,"time_elapsed":716604,"internal_node_id":"0.0-8.0-1.77","subject":"6n96t7hds4nyq9d","sona":"7462"},{"trial_type":"turing-test","trial_index":317,"time_elapsed":720420,"internal_node_id":"0.0-8.0-2.77","subject":"6n96t7hds4nyq9d","sona":"7462"},{"rt":292.27500036358833,"stimulus":"<p>Welche Sequenz haben Sie als natürlicher empfunden?</p>","key_press":74,"test_part":"response","test_stimulus":{"position":1,"left":"bvh/vr_prediction_models/model(vcgpdm)-dataset(return-bottle-hold)-mode(ELBO)-parts(3)-dyn(25)-lvm(25)-hold(1)/final-lines.txt","right":"bvh/return-bottle-hold-training1-lines.txt","att_check":false},"trial_type":"html-keyboard-response","trial_index":318,"time_elapsed":720717,"internal_node_id":"0.0-8.0-3.77","subject":"6n96t7hds4nyq9d","sona":"7462"},{"rt":366.7299998924136,"stimulus":"<p>Bereit?</p>","key_press":32,"trial_type":"html-keyboard-response","trial_index":319,"time_elapsed":721089,"internal_node_id":"0.0-8.0-0.78","subject":"6n96t7hds4nyq9d","sona":"7462"},{"rt":null,"stimulus":"<div style=\"font-size:60px;\">+</div>","key_press":null,"trial_type":"html-keyboard-response","trial_index":320,"time_elapsed":723125,"internal_node_id":"0.0-8.0-1.78","subject":"6n96t7hds4nyq9d","sona":"7462"},{"trial_type":"turing-test","trial_index":321,"time_elapsed":729892,"internal_node_id":"0.0-8.0-2.78","subject":"6n96t7hds4nyq9d","sona":"7462"},{"rt":588.4350002743304,"stimulus":"<p>Welche Sequenz haben Sie als natürlicher empfunden?</p>","key_press":74,"test_part":"response","test_stimulus":{"position":0,"left":"bvh/pass-bottle-training0-lines.txt","right":"bvh/vr_prediction_models/model(dmp)-dataset(pass-bottle)-npsi(30)-hold(0)/final-lines.txt","att_check":false},"trial_type":"html-keyboard-response","trial_index":322,"time_elapsed":730488,"internal_node_id":"0.0-8.0-3.78","subject":"6n96t7hds4nyq9d","sona":"7462"},{"rt":360.9050000086427,"stimulus":"<p>Bereit?</p>","key_press":32,"trial_type":"html-keyboard-response","trial_index":323,"time_elapsed":730853,"internal_node_id":"0.0-8.0-0.79","subject":"6n96t7hds4nyq9d","sona":"7462"},{"rt":null,"stimulus":"<div style=\"font-size:60px;\">+</div>","key_press":null,"trial_type":"html-keyboard-response","trial_index":324,"time_elapsed":732872,"internal_node_id":"0.0-8.0-1.79","subject":"6n96t7hds4nyq9d","sona":"7462"},{"trial_type":"turing-test","trial_index":325,"time_elapsed":739133,"internal_node_id":"0.0-8.0-2.79","subject":"6n96t7hds4nyq9d","sona":"7462"},{"rt":294.1149999387562,"stimulus":"<p>Welche Sequenz haben Sie als natürlicher empfunden?</p>","key_press":70,"test_part":"response","test_stimulus":{"position":0,"left":"bvh/pass-bottle-training3-lines.txt","right":"bvh/vr_prediction_models/model(vcgpdm)-dataset(pass-bottle)-mode(ELBO)-parts(1)-dyn(25)-lvm(35)-hold(3)/final-lines.txt","att_check":false},"trial_type":"html-keyboard-response","trial_index":326,"time_elapsed":739434,"internal_node_id":"0.0-8.0-3.79","subject":"6n96t7hds4nyq9d","sona":"7462"},{"rt":9378.045000135899,"responses":"{\"age\":\"20\",\"gender\":\"weiblich\"}","trial_type":"survey-text","trial_index":327,"time_elapsed":748826,"internal_node_id":"0.0-10.0-0.0","subject":"6n96t7hds4nyq9d","sona":"7462"},{"rt":60084.19500011951,"responses":"{\"area\":\"Arme\",\"Q1\":\"Teils abgehakte Bewegungen, teils auch unnatürlich (wie Drehungen)\",\"Q2\":\"Stockende, abgehakte Bewegungen\"}","trial_type":"survey-text","trial_index":328,"time_elapsed":808938,"internal_node_id":"0.0-10.0-1.0","subject":"6n96t7hds4nyq9d","sona":"7462"}]