[{"rt":2801,"stimulus":"<p>Welcome!<br> Please choose your language to start the experiment in the chosen language.</p><p>Willkommen!<br> Bitte wählen Sie eine Sprache, um das Experiment in der ausgewählten Sprache zu starten</p>","button_pressed":"1","trial_type":"html-button-response","trial_index":0,"time_elapsed":2812,"internal_node_id":"0.0-0.0","subject":"8kzduzzutcxtxon","sona":"7429"},{"view_history":"[{\"page_index\":0,\"viewing_time\":6869},{\"page_index\":1,\"viewing_time\":3985},{\"page_index\":2,\"viewing_time\":10954},{\"page_index\":3,\"viewing_time\":5009},{\"page_index\":4,\"viewing_time\":2401}]","rt":29219,"trial_type":"instructions","trial_index":1,"time_elapsed":32038,"internal_node_id":"0.0-1.0-0.0","subject":"8kzduzzutcxtxon","sona":"7429"},{"rt":1635,"stimulus":"<p>Bereit?</p>","key_press":32,"trial_type":"html-keyboard-response","trial_index":2,"time_elapsed":33679,"internal_node_id":"0.0-3.0","subject":"8kzduzzutcxtxon","sona":"7429"},{"rt":null,"stimulus":"<div style=\"font-size:60px;\">+</div>","key_press":null,"trial_type":"html-keyboard-response","trial_index":3,"time_elapsed":35706,"internal_node_id":"0.0-4.0","subject":"8kzduzzutcxtxon","sona":"7429"},{"trial_type":"training","trial_index":4,"time_elapsed":39773,"internal_node_id":"0.0-5.0","subject":"8kzduzzutcxtxon","sona":"7429"},{"rt":4035,"stimulus":"<p>Welche Sequenz haben Sie als natürlicher empfunden?</p>","key_press":70,"trial_type":"html-keyboard-response","trial_index":5,"time_elapsed":43811,"internal_node_id":"0.0-6.0","subject":"8kzduzzutcxtxon","sona":"7429"},{"rt":3323,"stimulus":"<p>Das Experiment startet nun.</p><p><small>Bitte drücken Sie den Knopf, wenn Sie bereit sind.</small></p>","button_pressed":"0","trial_type":"html-button-response","trial_index":6,"time_elapsed":47137,"internal_node_id":"0.0-7.0","subject":"8kzduzzutcxtxon","sona":"7429"},{"rt":1319,"stimulus":"<p>Bereit?</p>","key_press":32,"trial_type":"html-keyboard-response","trial_index":7,"time_elapsed":48463,"internal_node_id":"0.0-8.0-0.0","subject":"8kzduzzutcxtxon","sona":"7429"},{"rt":null,"stimulus":"<div style=\"font-size:60px;\">+</div>","key_press":null,"trial_type":"html-keyboard-response","trial_index":8,"time_elapsed":50494,"internal_node_id":"0.0-8.0-1.0","subject":"8kzduzzutcxtxon","sona":"7429"},{"trial_type":"turing-test","trial_index":9,"time_elapsed":56355,"internal_node_id":"0.0-8.0-2.0","subject":"8kzduzzutcxtxon","sona":"7429"},{"rt":1264,"stimulus":"<p>Welche Sequenz haben Sie als natürlicher empfunden?</p>","key_press":74,"test_part":"response","test_stimulus":{"position":1,"left":"bvh/vr_prediction_models/model(tmp)-dataset(pass-bottle)-numprim(7)-hold(4)/final-lines.txt","right":"bvh/pass-bottle-training4-lines.txt","att_check":false},"trial_type":"html-keyboard-response","trial_index":10,"time_elapsed":57624,"internal_node_id":"0.0-8.0-3.0","subject":"8kzduzzutcxtxon","sona":"7429"},{"rt":1515,"stimulus":"<p>Bereit?</p>","key_press":32,"trial_type":"html-keyboard-response","trial_index":11,"time_elapsed":59142,"internal_node_id":"0.0-8.0-0.1","subject":"8kzduzzutcxtxon","sona":"7429"},{"rt":null,"stimulus":"<div style=\"font-size:60px;\">+</div>","key_press":null,"trial_type":"html-keyboard-response","trial_index":12,"time_elapsed":61169,"internal_node_id":"0.0-8.0-1.1","subject":"8kzduzzutcxtxon","sona":"7429"},{"trial_type":"turing-test","trial_index":13,"time_elapsed":67332,"internal_node_id":"0.0-8.0-2.1","subject":"8kzduzzutcxtxon","sona":"7429"},{"rt":750,"stimulus":"<p>Welche Sequenz haben Sie als natürlicher empfunden?</p>","key_press":70,"test_part":"response","test_stimulus":{"position":1,"left":"bvh/vr_prediction_models/model(tmp)-dataset(return-bottle)-numprim(3)-hold(1)/final-lines.txt","right":"bvh/return-bottle-training1-lines.txt","att_check":false},"trial_type":"html-keyboard-response","trial_index":14,"time_elapsed":68084,"internal_node_id":"0.0-8.0-3.1","subject":"8kzduzzutcxtxon","sona":"7429"},{"rt":1131,"stimulus":"<p>Bereit?</p>","key_press":32,"trial_type":"html-keyboard-response","trial_index":15,"time_elapsed":69216,"internal_node_id":"0.0-8.0-0.2","subject":"8kzduzzutcxtxon","sona":"7429"},{"rt":null,"stimulus":"<div style=\"font-size:60px;\">+</div>","key_press":null,"trial_type":"html-keyboard-response","trial_index":16,"time_elapsed":71226,"internal_node_id":"0.0-8.0-1.2","subject":"8kzduzzutcxtxon","sona":"7429"},{"trial_type":"turing-test","trial_index":17,"time_elapsed":77411,"internal_node_id":"0.0-8.0-2.2","subject":"8kzduzzutcxtxon","sona":"7429"},{"rt":882,"stimulus":"<p>Welche Sequenz haben Sie als natürlicher empfunden?</p>","key_press":70,"test_part":"response","test_stimulus":{"position":0,"left":"bvh/pass-bottle-training3-lines.txt","right":"bvh/vr_prediction_models/model(vcgpdm)-dataset(pass-bottle)-mode(MAP)-parts(1)-hold(3)/final-lines.txt","att_check":false},"trial_type":"html-keyboard-response","trial_index":18,"time_elapsed":78295,"internal_node_id":"0.0-8.0-3.2","subject":"8kzduzzutcxtxon","sona":"7429"},{"rt":675,"stimulus":"<p>Bereit?</p>","key_press":32,"trial_type":"html-keyboard-response","trial_index":19,"time_elapsed":78970,"internal_node_id":"0.0-8.0-0.3","subject":"8kzduzzutcxtxon","sona":"7429"},{"rt":null,"stimulus":"<div style=\"font-size:60px;\">+</div>","key_press":null,"trial_type":"html-keyboard-response","trial_index":20,"time_elapsed":80989,"internal_node_id":"0.0-8.0-1.3","subject":"8kzduzzutcxtxon","sona":"7429"},{"trial_type":"turing-test","trial_index":21,"time_elapsed":84847,"internal_node_id":"0.0-8.0-2.3","subject":"8kzduzzutcxtxon","sona":"7429"},{"rt":673,"stimulus":"<p>Welche Sequenz haben Sie als natürlicher empfunden?</p>","key_press":74,"test_part":"response","test_stimulus":{"position":1,"left":"bvh/vr_prediction_models/model(vcgpdm)-dataset(pass-bottle-hold)-mode(ELBO)-parts(3)-dyn(25)-lvm(15)-hold(4)/final-lines.txt","right":"bvh/pass-bottle-hold-training4-lines.txt","att_check":false},"trial_type":"html-keyboard-response","trial_index":22,"time_elapsed":85522,"internal_node_id":"0.0-8.0-3.3","subject":"8kzduzzutcxtxon","sona":"7429"},{"rt":714,"stimulus":"<p>Bereit?</p>","key_press":32,"trial_type":"html-keyboard-response","trial_index":23,"time_elapsed":86238,"internal_node_id":"0.0-8.0-0.4","subject":"8kzduzzutcxtxon","sona":"7429"},{"rt":null,"stimulus":"<div style=\"font-size:60px;\">+</div>","key_press":null,"trial_type":"html-keyboard-response","trial_index":24,"time_elapsed":88270,"internal_node_id":"0.0-8.0-1.4","subject":"8kzduzzutcxtxon","sona":"7429"},{"trial_type":"turing-test","trial_index":25,"time_elapsed":92112,"internal_node_id":"0.0-8.0-2.4","subject":"8kzduzzutcxtxon","sona":"7429"},{"rt":496,"stimulus":"<p>Welche Sequenz haben Sie als natürlicher empfunden?</p>","key_press":74,"test_part":"response","test_stimulus":{"position":1,"left":"bvh/vr_prediction_models/model(vcgpdm)-dataset(pass-bottle-hold)-mode(ELBO)-parts(1)-dyn(30)-lvm(20)-hold(4)/final-lines.txt","right":"bvh/pass-bottle-hold-training4-lines.txt","att_check":false},"trial_type":"html-keyboard-response","trial_index":26,"time_elapsed":92610,"internal_node_id":"0.0-8.0-3.4","subject":"8kzduzzutcxtxon","sona":"7429"},{"rt":492,"stimulus":"<p>Bereit?</p>","key_press":32,"trial_type":"html-keyboard-response","trial_index":27,"time_elapsed":93104,"internal_node_id":"0.0-8.0-0.5","subject":"8kzduzzutcxtxon","sona":"7429"},{"rt":null,"stimulus":"<div style=\"font-size:60px;\">+</div>","key_press":null,"trial_type":"html-keyboard-response","trial_index":28,"time_elapsed":95127,"internal_node_id":"0.0-8.0-1.5","subject":"8kzduzzutcxtxon","sona":"7429"},{"trial_type":"turing-test","trial_index":29,"time_elapsed":98838,"internal_node_id":"0.0-8.0-2.5","subject":"8kzduzzutcxtxon","sona":"7429"},{"rt":982,"stimulus":"<p>Welche Sequenz haben Sie als natürlicher empfunden?</p>","key_press":74,"test_part":"response","test_stimulus":{"position":1,"left":"bvh/vr_prediction_models/model(vcgpdm)-dataset(return-bottle-hold)-mode(ELBO)-parts(1)-dyn(30)-lvm(35)-hold(2)/final-lines.txt","right":"bvh/return-bottle-hold-training2-lines.txt","att_check":false},"trial_type":"html-keyboard-response","trial_index":30,"time_elapsed":99823,"internal_node_id":"0.0-8.0-3.5","subject":"8kzduzzutcxtxon","sona":"7429"},{"rt":4154,"stimulus":"<p>Bereit?</p>","key_press":32,"trial_type":"html-keyboard-response","trial_index":31,"time_elapsed":103979,"internal_node_id":"0.0-8.0-0.6","subject":"8kzduzzutcxtxon","sona":"7429"},{"rt":null,"stimulus":"<div style=\"font-size:60px;\">+</div>","key_press":null,"trial_type":"html-keyboard-response","trial_index":32,"time_elapsed":105996,"internal_node_id":"0.0-8.0-1.6","subject":"8kzduzzutcxtxon","sona":"7429"},{"trial_type":"turing-test","trial_index":33,"time_elapsed":109414,"internal_node_id":"0.0-8.0-2.6","subject":"8kzduzzutcxtxon","sona":"7429"},{"rt":498,"stimulus":"<p>Welche Sequenz haben Sie als natürlicher empfunden?</p>","key_press":70,"test_part":"response","test_stimulus":{"position":1,"left":"bvh/vr_prediction_models/model(tmp)-dataset(pass-bottle-hold)-numprim(10)-hold(0)/final-lines.txt","right":"bvh/pass-bottle-hold-training0-lines.txt","att_check":false},"trial_type":"html-keyboard-response","trial_index":34,"time_elapsed":109914,"internal_node_id":"0.0-8.0-3.6","subject":"8kzduzzutcxtxon","sona":"7429"},{"rt":742,"stimulus":"<p>Bereit?</p>","key_press":32,"trial_type":"html-keyboard-response","trial_index":35,"time_elapsed":110657,"internal_node_id":"0.0-8.0-0.7","subject":"8kzduzzutcxtxon","sona":"7429"},{"rt":null,"stimulus":"<div style=\"font-size:60px;\">+</div>","key_press":null,"trial_type":"html-keyboard-response","trial_index":36,"time_elapsed":112681,"internal_node_id":"0.0-8.0-1.7","subject":"8kzduzzutcxtxon","sona":"7429"},{"trial_type":"turing-test","trial_index":37,"time_elapsed":118995,"internal_node_id":"0.0-8.0-2.7","subject":"8kzduzzutcxtxon","sona":"7429"},{"rt":140,"stimulus":"<p>Welche Sequenz haben Sie als natürlicher empfunden?</p>","key_press":74,"test_part":"response","test_stimulus":{"position":0,"left":"bvh/pass-bottle-training2-lines.txt","right":"bvh/vr_prediction_models/model(dmp)-dataset(pass-bottle)-npsi(90)-hold(2)/final-lines.txt","att_check":false},"trial_type":"html-keyboard-response","trial_index":38,"time_elapsed":119139,"internal_node_id":"0.0-8.0-3.7","subject":"8kzduzzutcxtxon","sona":"7429"},{"rt":1179,"stimulus":"<p>Bereit?</p>","key_press":32,"trial_type":"html-keyboard-response","trial_index":39,"time_elapsed":120321,"internal_node_id":"0.0-8.0-0.8","subject":"8kzduzzutcxtxon","sona":"7429"},{"rt":null,"stimulus":"<div style=\"font-size:60px;\">+</div>","key_press":null,"trial_type":"html-keyboard-response","trial_index":40,"time_elapsed":122339,"internal_node_id":"0.0-8.0-1.8","subject":"8kzduzzutcxtxon","sona":"7429"},{"trial_type":"turing-test","trial_index":41,"time_elapsed":128022,"internal_node_id":"0.0-8.0-2.8","subject":"8kzduzzutcxtxon","sona":"7429"},{"rt":898,"stimulus":"<p>Welche Sequenz haben Sie als natürlicher empfunden?</p>","key_press":70,"test_part":"response","test_stimulus":{"position":0,"left":"bvh/pass-bottle-training1-lines.txt","right":"bvh/vr_prediction_models/model(vcgpdm)-dataset(pass-bottle)-mode(ELBO)-parts(3)-dyn(10)-lvm(10)-hold(1)/final-lines.txt","att_check":false},"trial_type":"html-keyboard-response","trial_index":42,"time_elapsed":128923,"internal_node_id":"0.0-8.0-3.8","subject":"8kzduzzutcxtxon","sona":"7429"},{"rt":686,"stimulus":"<p>Bereit?</p>","key_press":32,"trial_type":"html-keyboard-response","trial_index":43,"time_elapsed":129611,"internal_node_id":"0.0-8.0-0.9","subject":"8kzduzzutcxtxon","sona":"7429"},{"rt":null,"stimulus":"<div style=\"font-size:60px;\">+</div>","key_press":null,"trial_type":"html-keyboard-response","trial_index":44,"time_elapsed":131617,"internal_node_id":"0.0-8.0-1.9","subject":"8kzduzzutcxtxon","sona":"7429"},{"trial_type":"turing-test","trial_index":45,"time_elapsed":135631,"internal_node_id":"0.0-8.0-2.9","subject":"8kzduzzutcxtxon","sona":"7429"},{"rt":518,"stimulus":"<p>Welche Sequenz haben Sie als natürlicher empfunden?</p>","key_press":74,"test_part":"response","test_stimulus":{"position":1,"left":"bvh/vr_prediction_models/model(vcgpdm)-dataset(return-bottle-hold)-mode(MAP)-parts(1)-hold(3)/final-lines.txt","right":"bvh/return-bottle-hold-training3-lines.txt","att_check":false},"trial_type":"html-keyboard-response","trial_index":46,"time_elapsed":136153,"internal_node_id":"0.0-8.0-3.9","subject":"8kzduzzutcxtxon","sona":"7429"},{"rt":613,"stimulus":"<p>Bereit?</p>","key_press":32,"trial_type":"html-keyboard-response","trial_index":47,"time_elapsed":136769,"internal_node_id":"0.0-8.0-0.10","subject":"8kzduzzutcxtxon","sona":"7429"},{"rt":null,"stimulus":"<div style=\"font-size:60px;\">+</div>","key_press":null,"trial_type":"html-keyboard-response","trial_index":48,"time_elapsed":138788,"internal_node_id":"0.0-8.0-1.10","subject":"8kzduzzutcxtxon","sona":"7429"},{"trial_type":"turing-test","trial_index":49,"time_elapsed":142085,"internal_node_id":"0.0-8.0-2.10","subject":"8kzduzzutcxtxon","sona":"7429"},{"rt":752,"stimulus":"<p>Welche Sequenz haben Sie als natürlicher empfunden?</p>","key_press":70,"test_part":"response","test_stimulus":{"position":1,"left":"bvh/vr_prediction_models/model(tmp)-dataset(pass-bottle-hold)-numprim(4)-hold(1)/final-lines.txt","right":"bvh/pass-bottle-hold-training1-lines.txt","att_check":false},"trial_type":"html-keyboard-response","trial_index":50,"time_elapsed":142839,"internal_node_id":"0.0-8.0-3.10","subject":"8kzduzzutcxtxon","sona":"7429"},{"rt":540,"stimulus":"<p>Bereit?</p>","key_press":32,"trial_type":"html-keyboard-response","trial_index":51,"time_elapsed":143380,"internal_node_id":"0.0-8.0-0.11","subject":"8kzduzzutcxtxon","sona":"7429"},{"rt":null,"stimulus":"<div style=\"font-size:60px;\">+</div>","key_press":null,"trial_type":"html-keyboard-response","trial_index":52,"time_elapsed":145398,"internal_node_id":"0.0-8.0-1.11","subject":"8kzduzzutcxtxon","sona":"7429"},{"trial_type":"turing-test","trial_index":53,"time_elapsed":152060,"internal_node_id":"0.0-8.0-2.11","subject":"8kzduzzutcxtxon","sona":"7429"}]