[{"rt":9101.25499998685,"stimulus":"<p>Welcome!<br> Please choose your language to start the experiment in the chosen language.</p><p>Willkommen!<br> Bitte wählen Sie eine Sprache, um das Experiment in der ausgewählten Sprache zu starten</p>","button_pressed":"1","trial_type":"html-button-response","trial_index":0,"time_elapsed":9108,"internal_node_id":"0.0-0.0","subject":"j4kfdsxd3ep4033","sona":"9361"},{"view_history":"[{\"page_index\":0,\"viewing_time\":1895.2399999834597},{\"page_index\":1,\"viewing_time\":1012.8000000258908},{\"page_index\":2,\"viewing_time\":692.8849999094382},{\"page_index\":3,\"viewing_time\":1213.9150000875816},{\"page_index\":4,\"viewing_time\":1594.1999999340624}]","rt":6410.425000009127,"trial_type":"instructions","trial_index":1,"time_elapsed":15520,"internal_node_id":"0.0-1.0-0.0","subject":"j4kfdsxd3ep4033","sona":"9361"},{"rt":1714.754999964498,"stimulus":"<p>Bereit?</p>","key_press":32,"trial_type":"html-keyboard-response","trial_index":2,"time_elapsed":17237,"internal_node_id":"0.0-3.0","subject":"j4kfdsxd3ep4033","sona":"9361"},{"rt":null,"stimulus":"<div style=\"font-size:60px;\">+</div>","key_press":null,"trial_type":"html-keyboard-response","trial_index":3,"time_elapsed":19239,"internal_node_id":"0.0-4.0","subject":"j4kfdsxd3ep4033","sona":"9361"},{"trial_type":"training","trial_index":4,"time_elapsed":22496,"internal_node_id":"0.0-5.0","subject":"j4kfdsxd3ep4033","sona":"9361"},{"rt":1744.8199999053031,"stimulus":"<p>Welche Sequenz haben Sie als natürlicher empfunden?</p>","key_press":70,"trial_type":"html-keyboard-response","trial_index":5,"time_elapsed":24243,"internal_node_id":"0.0-6.0","subject":"j4kfdsxd3ep4033","sona":"9361"},{"rt":3027.8000000398606,"stimulus":"<p>Das Experiment startet nun.</p><p><small>Bitte drücken Sie den Knopf, wenn Sie bereit sind.</small></p>","button_pressed":"0","trial_type":"html-button-response","trial_index":6,"time_elapsed":27272,"internal_node_id":"0.0-7.0","subject":"j4kfdsxd3ep4033","sona":"9361"},{"rt":1595.9299999522045,"stimulus":"<p>Bereit?</p>","key_press":32,"trial_type":"html-keyboard-response","trial_index":7,"time_elapsed":28869,"internal_node_id":"0.0-8.0-0.0","subject":"j4kfdsxd3ep4033","sona":"9361"},{"rt":null,"stimulus":"<div style=\"font-size:60px;\">+</div>","key_press":null,"trial_type":"html-keyboard-response","trial_index":8,"time_elapsed":30873,"internal_node_id":"0.0-8.0-1.0","subject":"j4kfdsxd3ep4033","sona":"9361"},{"trial_type":"turing-test","trial_index":9,"time_elapsed":36664,"internal_node_id":"0.0-8.0-2.0","subject":"j4kfdsxd3ep4033","sona":"9361"},{"rt":347.99999999813735,"stimulus":"<p>Welche Sequenz haben Sie als natürlicher empfunden?</p>","key_press":74,"test_part":"response","test_stimulus":{"position":1,"left":"bvh/vr_prediction_models/model(tmp)-dataset(return-bottle)-numprim(6)-hold(3)/final-lines.txt","right":"bvh/return-bottle-training3-lines.txt","att_check":false},"trial_type":"html-keyboard-response","trial_index":10,"time_elapsed":37015,"internal_node_id":"0.0-8.0-3.0","subject":"j4kfdsxd3ep4033","sona":"9361"},{"rt":321.0550000658259,"stimulus":"<p>Bereit?</p>","key_press":32,"trial_type":"html-keyboard-response","trial_index":11,"time_elapsed":37338,"internal_node_id":"0.0-8.0-0.1","subject":"j4kfdsxd3ep4033","sona":"9361"},{"rt":null,"stimulus":"<div style=\"font-size:60px;\">+</div>","key_press":null,"trial_type":"html-keyboard-response","trial_index":12,"time_elapsed":39342,"internal_node_id":"0.0-8.0-1.1","subject":"j4kfdsxd3ep4033","sona":"9361"},{"trial_type":"turing-test","trial_index":13,"time_elapsed":45977,"internal_node_id":"0.0-8.0-2.1","subject":"j4kfdsxd3ep4033","sona":"9361"},{"rt":452.7300000190735,"stimulus":"<p>Welche Sequenz haben Sie als natürlicher empfunden?</p>","key_press":74,"test_part":"response","test_stimulus":{"position":1,"left":"bvh/vr_prediction_models/model(tmp)-dataset(pass-bottle)-numprim(4)-hold(0)/final-lines.txt","right":"bvh/pass-bottle-training0-lines.txt","att_check":false},"trial_type":"html-keyboard-response","trial_index":14,"time_elapsed":46433,"internal_node_id":"0.0-8.0-3.1","subject":"j4kfdsxd3ep4033","sona":"9361"},{"rt":324.9000000068918,"stimulus":"<p>Bereit?</p>","key_press":32,"trial_type":"html-keyboard-response","trial_index":15,"time_elapsed":46761,"internal_node_id":"0.0-8.0-0.2","subject":"j4kfdsxd3ep4033","sona":"9361"},{"rt":null,"stimulus":"<div style=\"font-size:60px;\">+</div>","key_press":null,"trial_type":"html-keyboard-response","trial_index":16,"time_elapsed":48764,"internal_node_id":"0.0-8.0-1.2","subject":"j4kfdsxd3ep4033","sona":"9361"},{"trial_type":"turing-test","trial_index":17,"time_elapsed":54482,"internal_node_id":"0.0-8.0-2.2","subject":"j4kfdsxd3ep4033","sona":"9361"},{"rt":8241.724999970756,"stimulus":"<p>Welche Sequenz haben Sie als natürlicher empfunden?</p>","key_press":74,"test_part":"response","test_stimulus":{"position":1,"left":"bvh/vr_prediction_models/model(vcgpdm)-dataset(return-bottle)-mode(MAP)-parts(3)-hold(0)/final-lines.txt","right":"bvh/return-bottle-training0-lines.txt","att_check":false},"trial_type":"html-keyboard-response","trial_index":18,"time_elapsed":62727,"internal_node_id":"0.0-8.0-3.2","subject":"j4kfdsxd3ep4033","sona":"9361"},{"rt":293.68999996222556,"stimulus":"<p>Bereit?</p>","key_press":32,"trial_type":"html-keyboard-response","trial_index":19,"time_elapsed":63023,"internal_node_id":"0.0-8.0-0.3","subject":"j4kfdsxd3ep4033","sona":"9361"},{"rt":null,"stimulus":"<div style=\"font-size:60px;\">+</div>","key_press":null,"trial_type":"html-keyboard-response","trial_index":20,"time_elapsed":65025,"internal_node_id":"0.0-8.0-1.3","subject":"j4kfdsxd3ep4033","sona":"9361"},{"trial_type":"turing-test","trial_index":21,"time_elapsed":71219,"internal_node_id":"0.0-8.0-2.3","subject":"j4kfdsxd3ep4033","sona":"9361"},{"rt":2352.049999986775,"stimulus":"<p>Welche Sequenz haben Sie als natürlicher empfunden?</p>","key_press":74,"test_part":"response","test_stimulus":{"position":0,"left":"bvh/return-bottle-training1-lines.txt","right":"bvh/vr_prediction_models/model(dmp)-dataset(return-bottle)-npsi(70)-hold(1)/final-lines.txt","att_check":false},"trial_type":"html-keyboard-response","trial_index":22,"time_elapsed":73574,"internal_node_id":"0.0-8.0-3.3","subject":"j4kfdsxd3ep4033","sona":"9361"},{"rt":266.63500000722706,"stimulus":"<p>Bereit?</p>","key_press":32,"trial_type":"html-keyboard-response","trial_index":23,"time_elapsed":73843,"internal_node_id":"0.0-8.0-0.4","subject":"j4kfdsxd3ep4033","sona":"9361"},{"rt":null,"stimulus":"<div style=\"font-size:60px;\">+</div>","key_press":null,"trial_type":"html-keyboard-response","trial_index":24,"time_elapsed":75846,"internal_node_id":"0.0-8.0-1.4","subject":"j4kfdsxd3ep4033","sona":"9361"},{"trial_type":"turing-test","trial_index":25,"time_elapsed":81241,"internal_node_id":"0.0-8.0-2.4","subject":"j4kfdsxd3ep4033","sona":"9361"},{"rt":4964.41000001505,"stimulus":"<p>Welche Sequenz haben Sie als natürlicher empfunden?</p>","key_press":74,"test_part":"response","test_stimulus":{"position":1,"left":"bvh/vr_prediction_models/model(dmp)-dataset(pass-bottle)-npsi(90)-hold(1)/final-lines.txt","right":"bvh/pass-bottle-training1-lines.txt","att_check":false},"trial_type":"html-keyboard-response","trial_index":26,"time_elapsed":86209,"internal_node_id":"0.0-8.0-3.4","subject":"j4kfdsxd3ep4033","sona":"9361"},{"rt":276.35499997995794,"stimulus":"<p>Bereit?</p>","key_press":32,"trial_type":"html-keyboard-response","trial_index":27,"time_elapsed":86488,"internal_node_id":"0.0-8.0-0.5","subject":"j4kfdsxd3ep4033","sona":"9361"},{"rt":null,"stimulus":"<div style=\"font-size:60px;\">+</div>","key_press":null,"trial_type":"html-keyboard-response","trial_index":28,"time_elapsed":88492,"internal_node_id":"0.0-8.0-1.5","subject":"j4kfdsxd3ep4033","sona":"9361"},{"trial_type":"turing-test","trial_index":29,"time_elapsed":94028,"internal_node_id":"0.0-8.0-2.5","subject":"j4kfdsxd3ep4033","sona":"9361"},{"rt":7255.404999945313,"stimulus":"<p>Welche Sequenz haben Sie als natürlicher empfunden?</p>","key_press":70,"test_part":"response","test_stimulus":{"position":1,"left":"bvh/vr_prediction_models/model(vcgpdm)-dataset(return-bottle)-mode(ELBO)-parts(3)-dyn(10)-lvm(10)-hold(0)/final-lines.txt","right":"bvh/return-bottle-training0-lines.txt","att_check":false},"trial_type":"html-keyboard-response","trial_index":30,"time_elapsed":101287,"internal_node_id":"0.0-8.0-3.5","subject":"j4kfdsxd3ep4033","sona":"9361"},{"rt":264.53000004403293,"stimulus":"<p>Bereit?</p>","key_press":32,"trial_type":"html-keyboard-response","trial_index":31,"time_elapsed":101554,"internal_node_id":"0.0-8.0-0.6","subject":"j4kfdsxd3ep4033","sona":"9361"},{"rt":null,"stimulus":"<div style=\"font-size:60px;\">+</div>","key_press":null,"trial_type":"html-keyboard-response","trial_index":32,"time_elapsed":103558,"internal_node_id":"0.0-8.0-1.6","subject":"j4kfdsxd3ep4033","sona":"9361"},{"trial_type":"turing-test","trial_index":33,"time_elapsed":107119,"internal_node_id":"0.0-8.0-2.6","subject":"j4kfdsxd3ep4033","sona":"9361"},{"rt":4116.955000092275,"stimulus":"<p>Welche Sequenz haben Sie als natürlicher empfunden?</p>","key_press":70,"test_part":"response","test_stimulus":{"position":1,"left":"bvh/vr_prediction_models/model(dmp)-dataset(pass-bottle-hold)-npsi(100)-hold(3)/final-lines.txt","right":"bvh/pass-bottle-hold-training3-lines.txt","att_check":false},"trial_type":"html-keyboard-response","trial_index":34,"time_elapsed":111238,"internal_node_id":"0.0-8.0-3.6","subject":"j4kfdsxd3ep4033","sona":"9361"},{"rt":601.7950000241399,"stimulus":"<p>Bereit?</p>","key_press":32,"trial_type":"html-keyboard-response","trial_index":35,"time_elapsed":111842,"internal_node_id":"0.0-8.0-0.7","subject":"j4kfdsxd3ep4033","sona":"9361"},{"rt":null,"stimulus":"<div style=\"font-size:60px;\">+</div>","key_press":null,"trial_type":"html-keyboard-response","trial_index":36,"time_elapsed":113844,"internal_node_id":"0.0-8.0-1.7","subject":"j4kfdsxd3ep4033","sona":"9361"},{"trial_type":"turing-test","trial_index":37,"time_elapsed":117374,"internal_node_id":"0.0-8.0-2.7","subject":"j4kfdsxd3ep4033","sona":"9361"},{"rt":1497.9649999877438,"stimulus":"<p>Welche Sequenz haben Sie als natürlicher empfunden?</p>","key_press":74,"test_part":"response","test_stimulus":{"position":1,"left":"bvh/vr_prediction_models/model(vcgpdm)-dataset(pass-bottle-hold)-mode(ELBO)-parts(3)-dyn(25)-lvm(25)-hold(2)/final-lines.txt","right":"bvh/pass-bottle-hold-training2-lines.txt","att_check":false},"trial_type":"html-keyboard-response","trial_index":38,"time_elapsed":118876,"internal_node_id":"0.0-8.0-3.7","subject":"j4kfdsxd3ep4033","sona":"9361"},{"rt":217.4449999583885,"stimulus":"<p>Bereit?</p>","key_press":32,"trial_type":"html-keyboard-response","trial_index":39,"time_elapsed":119096,"internal_node_id":"0.0-8.0-0.8","subject":"j4kfdsxd3ep4033","sona":"9361"},{"rt":null,"stimulus":"<div style=\"font-size:60px;\">+</div>","key_press":null,"trial_type":"html-keyboard-response","trial_index":40,"time_elapsed":121098,"internal_node_id":"0.0-8.0-1.8","subject":"j4kfdsxd3ep4033","sona":"9361"},{"trial_type":"turing-test","trial_index":41,"time_elapsed":126686,"internal_node_id":"0.0-8.0-2.8","subject":"j4kfdsxd3ep4033","sona":"9361"},{"rt":10409.235000028275,"stimulus":"<p>Welche Sequenz haben Sie als natürlicher empfunden?</p>","key_press":74,"test_part":"response","test_stimulus":{"position":1,"left":"bvh/vr_prediction_models/model(vcgpdm)-dataset(return-bottle-hold)-mode(ELBO)-parts(1)-dyn(20)-lvm(5)-hold(0)/final-lines.txt","right":"bvh/return-bottle-hold-training0-lines.txt","att_check":false},"trial_type":"html-keyboard-response","trial_index":42,"time_elapsed":137100,"internal_node_id":"0.0-8.0-3.8","subject":"j4kfdsxd3ep4033","sona":"9361"},{"rt":170.98499997518957,"stimulus":"<p>Bereit?</p>","key_press":32,"trial_type":"html-keyboard-response","trial_index":43,"time_elapsed":137272,"internal_node_id":"0.0-8.0-0.9","subject":"j4kfdsxd3ep4033","sona":"9361"},{"rt":null,"stimulus":"<div style=\"font-size:60px;\">+</div>","key_press":null,"trial_type":"html-keyboard-response","trial_index":44,"time_elapsed":139276,"internal_node_id":"0.0-8.0-1.9","subject":"j4kfdsxd3ep4033","sona":"9361"},{"trial_type":"turing-test","trial_index":45,"time_elapsed":145237,"internal_node_id":"0.0-8.0-2.9","subject":"j4kfdsxd3ep4033","sona":"9361"},{"rt":1126.395000028424,"stimulus":"<p>Welche Sequenz haben Sie als natürlicher empfunden?</p>","key_press":70,"test_part":"response","test_stimulus":{"position":1,"left":"bvh/vr_prediction_models/model(vcgpdm)-dataset(pass-bottle)-mode(ELBO)-parts(1)-dyn(10)-lvm(25)-hold(4)/final-lines.txt","right":"bvh/pass-bottle-training4-lines.txt","att_check":false},"trial_type":"html-keyboard-response","trial_index":46,"time_elapsed":146365,"internal_node_id":"0.0-8.0-3.9","subject":"j4kfdsxd3ep4033","sona":"9361"},{"rt":268.53499992284924,"stimulus":"<p>Bereit?</p>","key_press":32,"trial_type":"html-keyboard-response","trial_index":47,"time_elapsed":146636,"internal_node_id":"0.0-8.0-0.10","subject":"j4kfdsxd3ep4033","sona":"9361"},{"rt":null,"stimulus":"<div style=\"font-size:60px;\">+</div>","key_press":null,"trial_type":"html-keyboard-response","trial_index":48,"time_elapsed":148638,"internal_node_id":"0.0-8.0-1.10","subject":"j4kfdsxd3ep4033","sona":"9361"},{"trial_type":"turing-test","trial_index":49,"time_elapsed":151979,"internal_node_id":"0.0-8.0-2.10","subject":"j4kfdsxd3ep4033","sona":"9361"},{"rt":1264.309999998659,"stimulus":"<p>Welche Sequenz haben Sie als natürlicher empfunden?</p>","key_press":74,"test_part":"response","test_stimulus":{"position":1,"left":"bvh/vr_prediction_models/model(tmp)-dataset(pass-bottle-hold)-numprim(8)-hold(2)/final-lines.txt","right":"bvh/pass-bottle-hold-training2-lines.txt","att_check":false},"trial_type":"html-keyboard-response","trial_index":50,"time_elapsed":153246,"internal_node_id":"0.0-8.0-3.10","subject":"j4kfdsxd3ep4033","sona":"9361"},{"rt":690.2299999492243,"stimulus":"<p>Bereit?</p>","key_press":32,"trial_type":"html-keyboard-response","trial_index":51,"time_elapsed":153938,"internal_node_id":"0.0-8.0-0.11","subject":"j4kfdsxd3ep4033","sona":"9361"},{"rt":null,"stimulus":"<div style=\"font-size:60px;\">+</div>","key_press":null,"trial_type":"html-keyboard-response","trial_index":52,"time_elapsed":155941,"internal_node_id":"0.0-8.0-1.11","subject":"j4kfdsxd3ep4033","sona":"9361"}]