[{"rt":3192.379999993136,"stimulus":"<p>Welcome!<br> Please choose your language to start the experiment in the chosen language.</p><p>Willkommen!<br> Bitte wählen Sie eine Sprache, um das Experiment in der ausgewählten Sprache zu starten</p>","button_pressed":"1","trial_type":"html-button-response","trial_index":0,"time_elapsed":3295,"internal_node_id":"0.0-0.0","subject":"x2hxnz380kaqlfs","sona":"9667"},{"view_history":"[{\"page_index\":0,\"viewing_time\":8436.634999990929},{\"page_index\":1,\"viewing_time\":3523.734999995213},{\"page_index\":2,\"viewing_time\":8515.930000023218},{\"page_index\":3,\"viewing_time\":11304.290000000037},{\"page_index\":4,\"viewing_time\":2151.8449999857694}]","rt":33933.419999986654,"trial_type":"instructions","trial_index":1,"time_elapsed":37230,"internal_node_id":"0.0-1.0-0.0","subject":"x2hxnz380kaqlfs","sona":"9667"},{"rt":1722.9049999732524,"stimulus":"<p>Bereit?</p>","key_press":32,"trial_type":"html-keyboard-response","trial_index":2,"time_elapsed":38956,"internal_node_id":"0.0-3.0","subject":"x2hxnz380kaqlfs","sona":"9667"},{"rt":null,"stimulus":"<div style=\"font-size:60px;\">+</div>","key_press":null,"trial_type":"html-keyboard-response","trial_index":3,"time_elapsed":40973,"internal_node_id":"0.0-4.0","subject":"x2hxnz380kaqlfs","sona":"9667"},{"trial_type":"training","trial_index":4,"time_elapsed":44573,"internal_node_id":"0.0-5.0","subject":"x2hxnz380kaqlfs","sona":"9667"},{"rt":3171.759999997448,"stimulus":"<p>Welche Sequenz haben Sie als natürlicher empfunden?</p>","key_press":70,"trial_type":"html-keyboard-response","trial_index":5,"time_elapsed":47749,"internal_node_id":"0.0-6.0","subject":"x2hxnz380kaqlfs","sona":"9667"},{"rt":4183.129999990342,"stimulus":"<p>Das Experiment startet nun.</p><p><small>Bitte drücken Sie den Knopf, wenn Sie bereit sind.</small></p>","button_pressed":"0","trial_type":"html-button-response","trial_index":6,"time_elapsed":51934,"internal_node_id":"0.0-7.0","subject":"x2hxnz380kaqlfs","sona":"9667"},{"rt":1490.3950000007171,"stimulus":"<p>Bereit?</p>","key_press":32,"trial_type":"html-keyboard-response","trial_index":7,"time_elapsed":53426,"internal_node_id":"0.0-8.0-0.0","subject":"x2hxnz380kaqlfs","sona":"9667"},{"rt":null,"stimulus":"<div style=\"font-size:60px;\">+</div>","key_press":null,"trial_type":"html-keyboard-response","trial_index":8,"time_elapsed":55454,"internal_node_id":"0.0-8.0-1.0","subject":"x2hxnz380kaqlfs","sona":"9667"},{"trial_type":"turing-test","trial_index":9,"time_elapsed":59704,"internal_node_id":"0.0-8.0-2.0","subject":"x2hxnz380kaqlfs","sona":"9667"},{"rt":1505.0300000002608,"stimulus":"<p>Welche Sequenz haben Sie als natürlicher empfunden?</p>","key_press":74,"test_part":"response","test_stimulus":{"position":1,"left":"bvh/vr_prediction_models/model(vcgpdm)-dataset(return-bottle-hold)-mode(ELBO)-parts(1)-dyn(20)-lvm(30)-hold(4)/final-lines.txt","right":"bvh/return-bottle-hold-training4-lines.txt","att_check":false},"trial_type":"html-keyboard-response","trial_index":10,"time_elapsed":61218,"internal_node_id":"0.0-8.0-3.0","subject":"x2hxnz380kaqlfs","sona":"9667"},{"rt":1928.2850000017788,"stimulus":"<p>Bereit?</p>","key_press":32,"trial_type":"html-keyboard-response","trial_index":11,"time_elapsed":63153,"internal_node_id":"0.0-8.0-0.1","subject":"x2hxnz380kaqlfs","sona":"9667"},{"rt":null,"stimulus":"<div style=\"font-size:60px;\">+</div>","key_press":null,"trial_type":"html-keyboard-response","trial_index":12,"time_elapsed":65169,"internal_node_id":"0.0-8.0-1.1","subject":"x2hxnz380kaqlfs","sona":"9667"},{"trial_type":"turing-test","trial_index":13,"time_elapsed":72454,"internal_node_id":"0.0-8.0-2.1","subject":"x2hxnz380kaqlfs","sona":"9667"},{"rt":1124.4849999784492,"stimulus":"<p>Welche Sequenz haben Sie als natürlicher empfunden?</p>","key_press":74,"test_part":"response","test_stimulus":{"position":1,"left":"bvh/vr_prediction_models/model(vcgpdm)-dataset(return-bottle)-mode(ELBO)-parts(3)-dyn(10)-lvm(30)-hold(2)/final-lines.txt","right":"bvh/return-bottle-training2-lines.txt","att_check":false},"trial_type":"html-keyboard-response","trial_index":14,"time_elapsed":73586,"internal_node_id":"0.0-8.0-3.1","subject":"x2hxnz380kaqlfs","sona":"9667"},{"rt":3218.3399999921676,"stimulus":"<p>Bereit?</p>","key_press":32,"trial_type":"html-keyboard-response","trial_index":15,"time_elapsed":76811,"internal_node_id":"0.0-8.0-0.2","subject":"x2hxnz380kaqlfs","sona":"9667"},{"rt":null,"stimulus":"<div style=\"font-size:60px;\">+</div>","key_press":null,"trial_type":"html-keyboard-response","trial_index":16,"time_elapsed":78833,"internal_node_id":"0.0-8.0-1.2","subject":"x2hxnz380kaqlfs","sona":"9667"},{"trial_type":"turing-test","trial_index":17,"time_elapsed":85124,"internal_node_id":"0.0-8.0-2.2","subject":"x2hxnz380kaqlfs","sona":"9667"},{"rt":1187.485000002198,"stimulus":"<p>Welche Sequenz haben Sie als natürlicher empfunden?</p>","key_press":74,"test_part":"response","test_stimulus":{"position":0,"left":"bvh/pass-bottle-training3-lines.txt","right":"bvh/vr_prediction_models/model(vcgpdm)-dataset(pass-bottle)-mode(MAP)-parts(3)-hold(3)/final-lines.txt","att_check":false},"trial_type":"html-keyboard-response","trial_index":18,"time_elapsed":86318,"internal_node_id":"0.0-8.0-3.2","subject":"x2hxnz380kaqlfs","sona":"9667"},{"rt":3171.4999999967404,"stimulus":"<p>Bereit?</p>","key_press":32,"trial_type":"html-keyboard-response","trial_index":19,"time_elapsed":89497,"internal_node_id":"0.0-8.0-0.3","subject":"x2hxnz380kaqlfs","sona":"9667"},{"rt":null,"stimulus":"<div style=\"font-size:60px;\">+</div>","key_press":null,"trial_type":"html-keyboard-response","trial_index":20,"time_elapsed":91517,"internal_node_id":"0.0-8.0-1.3","subject":"x2hxnz380kaqlfs","sona":"9667"},{"trial_type":"turing-test","trial_index":21,"time_elapsed":94981,"internal_node_id":"0.0-8.0-2.3","subject":"x2hxnz380kaqlfs","sona":"9667"},{"rt":1984.1949999972712,"stimulus":"<p>Welche Sequenz haben Sie als natürlicher empfunden?</p>","key_press":70,"test_part":"response","test_stimulus":{"position":1,"left":"bvh/vr_prediction_models/model(tmp)-dataset(return-bottle-hold)-numprim(7)-hold(1)/final-lines.txt","right":"bvh/return-bottle-hold-training1-lines.txt","att_check":false},"trial_type":"html-keyboard-response","trial_index":22,"time_elapsed":96975,"internal_node_id":"0.0-8.0-3.3","subject":"x2hxnz380kaqlfs","sona":"9667"},{"rt":1615.5450000078417,"stimulus":"<p>Bereit?</p>","key_press":32,"trial_type":"html-keyboard-response","trial_index":23,"time_elapsed":98596,"internal_node_id":"0.0-8.0-0.4","subject":"x2hxnz380kaqlfs","sona":"9667"},{"rt":null,"stimulus":"<div style=\"font-size:60px;\">+</div>","key_press":null,"trial_type":"html-keyboard-response","trial_index":24,"time_elapsed":100623,"internal_node_id":"0.0-8.0-1.4","subject":"x2hxnz380kaqlfs","sona":"9667"},{"trial_type":"turing-test","trial_index":25,"time_elapsed":104708,"internal_node_id":"0.0-8.0-2.4","subject":"x2hxnz380kaqlfs","sona":"9667"},{"rt":1207.9150000063237,"stimulus":"<p>Welche Sequenz haben Sie als natürlicher empfunden?</p>","key_press":70,"test_part":"response","test_stimulus":{"position":0,"left":"bvh/return-bottle-hold-training3-lines.txt","right":"bvh/vr_prediction_models/model(vcgpdm)-dataset(return-bottle-hold)-mode(ELBO)-parts(1)-dyn(30)-lvm(35)-hold(3)/final-lines.txt","att_check":false},"trial_type":"html-keyboard-response","trial_index":26,"time_elapsed":105926,"internal_node_id":"0.0-8.0-3.4","subject":"x2hxnz380kaqlfs","sona":"9667"},{"rt":1382.8750000102445,"stimulus":"<p>Bereit?</p>","key_press":32,"trial_type":"html-keyboard-response","trial_index":27,"time_elapsed":107316,"internal_node_id":"0.0-8.0-0.5","subject":"x2hxnz380kaqlfs","sona":"9667"},{"rt":null,"stimulus":"<div style=\"font-size:60px;\">+</div>","key_press":null,"trial_type":"html-keyboard-response","trial_index":28,"time_elapsed":109330,"internal_node_id":"0.0-8.0-1.5","subject":"x2hxnz380kaqlfs","sona":"9667"},{"trial_type":"turing-test","trial_index":29,"time_elapsed":115264,"internal_node_id":"0.0-8.0-2.5","subject":"x2hxnz380kaqlfs","sona":"9667"},{"rt":1284.574999997858,"stimulus":"<p>Welche Sequenz haben Sie als natürlicher empfunden?</p>","key_press":70,"test_part":"response","test_stimulus":{"position":1,"left":"bvh/vr_prediction_models/model(dmp)-dataset(return-bottle)-npsi(50)-hold(4)/final-lines.txt","right":"bvh/return-bottle-training4-lines.txt","att_check":false},"trial_type":"html-keyboard-response","trial_index":30,"time_elapsed":116556,"internal_node_id":"0.0-8.0-3.5","subject":"x2hxnz380kaqlfs","sona":"9667"},{"rt":1213.8249999843538,"stimulus":"<p>Bereit?</p>","key_press":32,"trial_type":"html-keyboard-response","trial_index":31,"time_elapsed":117778,"internal_node_id":"0.0-8.0-0.6","subject":"x2hxnz380kaqlfs","sona":"9667"},{"rt":null,"stimulus":"<div style=\"font-size:60px;\">+</div>","key_press":null,"trial_type":"html-keyboard-response","trial_index":32,"time_elapsed":119808,"internal_node_id":"0.0-8.0-1.6","subject":"x2hxnz380kaqlfs","sona":"9667"},{"trial_type":"turing-test","trial_index":33,"time_elapsed":123669,"internal_node_id":"0.0-8.0-2.6","subject":"x2hxnz380kaqlfs","sona":"9667"},{"rt":900.4899999999907,"stimulus":"<p>Welche Sequenz haben Sie als natürlicher empfunden?</p>","key_press":70,"test_part":"response","test_stimulus":{"position":1,"left":"bvh/vr_prediction_models/model(vcgpdm)-dataset(return-bottle-hold)-mode(ELBO)-parts(3)-dyn(20)-lvm(15)-hold(2)/final-lines.txt","right":"bvh/return-bottle-hold-training2-lines.txt","att_check":false},"trial_type":"html-keyboard-response","trial_index":34,"time_elapsed":124578,"internal_node_id":"0.0-8.0-3.6","subject":"x2hxnz380kaqlfs","sona":"9667"},{"rt":1265.4599999950733,"stimulus":"<p>Bereit?</p>","key_press":32,"trial_type":"html-keyboard-response","trial_index":35,"time_elapsed":125850,"internal_node_id":"0.0-8.0-0.7","subject":"x2hxnz380kaqlfs","sona":"9667"},{"rt":null,"stimulus":"<div style=\"font-size:60px;\">+</div>","key_press":null,"trial_type":"html-keyboard-response","trial_index":36,"time_elapsed":127866,"internal_node_id":"0.0-8.0-1.7","subject":"x2hxnz380kaqlfs","sona":"9667"},{"trial_type":"turing-test","trial_index":37,"time_elapsed":133535,"internal_node_id":"0.0-8.0-2.7","subject":"x2hxnz380kaqlfs","sona":"9667"},{"rt":1609.87000001478,"stimulus":"<p>Welche Sequenz haben Sie als natürlicher empfunden?</p>","key_press":74,"test_part":"response","test_stimulus":{"position":1,"left":"bvh/vr_prediction_models/model(tmp)-dataset(return-bottle)-numprim(6)-hold(0)/final-lines.txt","right":"bvh/return-bottle-training0-lines.txt","att_check":false},"trial_type":"html-keyboard-response","trial_index":38,"time_elapsed":135154,"internal_node_id":"0.0-8.0-3.7","subject":"x2hxnz380kaqlfs","sona":"9667"},{"rt":2590.714999998454,"stimulus":"<p>Bereit?</p>","key_press":32,"trial_type":"html-keyboard-response","trial_index":39,"time_elapsed":137752,"internal_node_id":"0.0-8.0-0.8","subject":"x2hxnz380kaqlfs","sona":"9667"},{"rt":null,"stimulus":"<div style=\"font-size:60px;\">+</div>","key_press":null,"trial_type":"html-keyboard-response","trial_index":40,"time_elapsed":139773,"internal_node_id":"0.0-8.0-1.8","subject":"x2hxnz380kaqlfs","sona":"9667"},{"trial_type":"turing-test","trial_index":41,"time_elapsed":146552,"internal_node_id":"0.0-8.0-2.8","subject":"x2hxnz380kaqlfs","sona":"9667"},{"rt":873.8850000081584,"stimulus":"<p>Welche Sequenz haben Sie als natürlicher empfunden?</p>","key_press":70,"test_part":"response","test_stimulus":{"position":1,"left":"bvh/vr_prediction_models/model(dmp)-dataset(return-bottle)-npsi(30)-hold(2)/final-lines.txt","right":"bvh/return-bottle-training2-lines.txt","att_check":false},"trial_type":"html-keyboard-response","trial_index":42,"time_elapsed":147436,"internal_node_id":"0.0-8.0-3.8","subject":"x2hxnz380kaqlfs","sona":"9667"},{"rt":998.6449999851175,"stimulus":"<p>Bereit?</p>","key_press":32,"trial_type":"html-keyboard-response","trial_index":43,"time_elapsed":148441,"internal_node_id":"0.0-8.0-0.9","subject":"x2hxnz380kaqlfs","sona":"9667"},{"rt":null,"stimulus":"<div style=\"font-size:60px;\">+</div>","key_press":null,"trial_type":"html-keyboard-response","trial_index":44,"time_elapsed":150456,"internal_node_id":"0.0-8.0-1.9","subject":"x2hxnz380kaqlfs","sona":"9667"},{"trial_type":"turing-test","trial_index":45,"time_elapsed":154122,"internal_node_id":"0.0-8.0-2.9","subject":"x2hxnz380kaqlfs","sona":"9667"},{"rt":710.7599999872036,"stimulus":"<p>Welche Sequenz haben Sie als natürlicher empfunden?</p>","key_press":70,"test_part":"response","test_stimulus":{"position":0,"left":"bvh/pass-bottle-hold-training0-lines.txt","right":"bvh/vr_prediction_models/model(vcgpdm)-dataset(pass-bottle-hold)-mode(ELBO)-parts(3)-dyn(10)-lvm(10)-hold(0)/final-lines.txt","att_check":false},"trial_type":"html-keyboard-response","trial_index":46,"time_elapsed":154842,"internal_node_id":"0.0-8.0-3.9","subject":"x2hxnz380kaqlfs","sona":"9667"},{"rt":1046.1900000227615,"stimulus":"<p>Bereit?</p>","key_press":32,"trial_type":"html-keyboard-response","trial_index":47,"time_elapsed":155894,"internal_node_id":"0.0-8.0-0.10","subject":"x2hxnz380kaqlfs","sona":"9667"},{"rt":null,"stimulus":"<div style=\"font-size:60px;\">+</div>","key_press":null,"trial_type":"html-keyboard-response","trial_index":48,"time_elapsed":157909,"internal_node_id":"0.0-8.0-1.10","subject":"x2hxnz380kaqlfs","sona":"9667"},{"trial_type":"turing-test","trial_index":49,"time_elapsed":161559,"internal_node_id":"0.0-8.0-2.10","subject":"x2hxnz380kaqlfs","sona":"9667"},{"rt":1254.0199999930337,"stimulus":"<p>Welche Sequenz haben Sie als natürlicher empfunden?</p>","key_press":70,"test_part":"response","test_stimulus":{"position":0,"left":"bvh/pass-bottle-hold-training0-lines.txt","right":"bvh/vr_prediction_models/model(vcgpdm)-dataset(pass-bottle-hold)-mode(ELBO)-parts(3)-dyn(20)-lvm(15)-hold(0)/final-lines.txt","att_check":false},"trial_type":"html-keyboard-response","trial_index":50,"time_elapsed":162822,"internal_node_id":"0.0-8.0-3.10","subject":"x2hxnz380kaqlfs","sona":"9667"},{"rt":1131.8399999872781,"stimulus":"<p>Bereit?</p>","key_press":32,"trial_type":"html-keyboard-response","trial_index":51,"time_elapsed":163959,"internal_node_id":"0.0-8.0-0.11","subject":"x2hxnz380kaqlfs","sona":"9667"},{"rt":null,"stimulus":"<div style=\"font-size:60px;\">+</div>","key_press":null,"trial_type":"html-keyboard-response","trial_index":52,"time_elapsed":165981,"internal_node_id":"0.0-8.0-1.11","subject":"x2hxnz380kaqlfs","sona":"9667"}]