[{"rt":1590,"stimulus":"<p>Welcome!<br> Please choose your language to start the experiment in the chosen language.</p><p>Willkommen!<br> Bitte wählen Sie eine Sprache um das Experiment in der ausgewählten Sprache zu starten</p>","button_pressed":"1","trial_type":"html-button-response","trial_index":0,"time_elapsed":1614,"internal_node_id":"0.0-0.0","subject":"n0wnn4og7tgrav8"},{"view_history":"[{\"page_index\":0,\"viewing_time\":397.99999999999955},{\"page_index\":1,\"viewing_time\":578},{\"page_index\":2,\"viewing_time\":1438},{\"page_index\":3,\"viewing_time\":705},{\"page_index\":4,\"viewing_time\":1291}]","rt":4411,"trial_type":"instructions","trial_index":1,"time_elapsed":6026,"internal_node_id":"0.0-1.0-0.0","subject":"n0wnn4og7tgrav8"},{"rt":1344,"stimulus":"<p>Bereit?</p>","key_press":32,"trial_type":"html-keyboard-response","trial_index":2,"time_elapsed":7372,"internal_node_id":"0.0-3.0","subject":"n0wnn4og7tgrav8"},{"rt":null,"stimulus":"<div style=\"font-size:60px;\">+</div>","key_press":null,"trial_type":"html-keyboard-response","trial_index":3,"time_elapsed":9375,"internal_node_id":"0.0-4.0","subject":"n0wnn4og7tgrav8"},{"trial_type":"training","trial_index":4,"time_elapsed":12772,"internal_node_id":"0.0-5.0","subject":"n0wnn4og7tgrav8"},{"rt":852.0000000000018,"stimulus":"<p>Welche Sequenz haben Sie als natürlicher empfunden?</p>","key_press":70,"trial_type":"html-keyboard-response","trial_index":5,"time_elapsed":13624,"internal_node_id":"0.0-6.0","subject":"n0wnn4og7tgrav8"},{"rt":2860,"stimulus":"<p>Das Experiment startet nun.</p><p><small>Bitte drücken Sie den Knopf, wenn Sie bereit sind.</small></p>","button_pressed":"0","trial_type":"html-button-response","trial_index":6,"time_elapsed":16486,"internal_node_id":"0.0-7.0","subject":"n0wnn4og7tgrav8"},{"rt":1784,"stimulus":"<p>Bereit?</p>","key_press":32,"trial_type":"html-keyboard-response","trial_index":7,"time_elapsed":18271,"internal_node_id":"0.0-8.0-0.0","subject":"n0wnn4og7tgrav8"},{"rt":null,"stimulus":"<div style=\"font-size:60px;\">+</div>","key_press":null,"trial_type":"html-keyboard-response","trial_index":8,"time_elapsed":20274,"internal_node_id":"0.0-8.0-1.0","subject":"n0wnn4og7tgrav8"},{"trial_type":"turing-test","trial_index":9,"time_elapsed":23701,"internal_node_id":"0.0-8.0-2.0","subject":"n0wnn4og7tgrav8"},{"rt":362,"stimulus":"<p>Welche Sequenz haben Sie als natürlicher empfunden?</p>","key_press":74,"test_part":"response","test_stimulus":{"position":1,"left":"bvh/vr_prediction_models/model(vcgpdm)-dataset(pass-bottle-hold)-mode(ELBO)-parts(3)-dyn(15)-lvm(30)-hold(2)/final-lines.txt","right":"bvh/pass-bottle-hold-training2-lines.txt","att_check":false},"trial_type":"html-keyboard-response","trial_index":10,"time_elapsed":24065,"internal_node_id":"0.0-8.0-3.0","subject":"n0wnn4og7tgrav8"},{"rt":864,"stimulus":"<p>Bereit?</p>","key_press":32,"trial_type":"html-keyboard-response","trial_index":11,"time_elapsed":24932,"internal_node_id":"0.0-8.0-0.1","subject":"n0wnn4og7tgrav8"},{"rt":null,"stimulus":"<div style=\"font-size:60px;\">+</div>","key_press":null,"trial_type":"html-keyboard-response","trial_index":12,"time_elapsed":26935,"internal_node_id":"0.0-8.0-1.1","subject":"n0wnn4og7tgrav8"},{"trial_type":"turing-test","trial_index":13,"time_elapsed":30584,"internal_node_id":"0.0-8.0-2.1","subject":"n0wnn4og7tgrav8"},{"rt":499,"stimulus":"<p>Welche Sequenz haben Sie als natürlicher empfunden?</p>","key_press":74,"test_part":"response","test_stimulus":{"position":1,"left":"bvh/vr_prediction_models/model(dmp)-dataset(return-bottle-hold)-npsi(60)-hold(3)/final-lines.txt","right":"bvh/return-bottle-hold-training3-lines.txt","att_check":false},"trial_type":"html-keyboard-response","trial_index":14,"time_elapsed":31086,"internal_node_id":"0.0-8.0-3.1","subject":"n0wnn4og7tgrav8"},{"rt":595,"stimulus":"<p>Bereit?</p>","key_press":32,"trial_type":"html-keyboard-response","trial_index":15,"time_elapsed":31684,"internal_node_id":"0.0-8.0-0.2","subject":"n0wnn4og7tgrav8"},{"rt":null,"stimulus":"<div style=\"font-size:60px;\">+</div>","key_press":null,"trial_type":"html-keyboard-response","trial_index":16,"time_elapsed":33687,"internal_node_id":"0.0-8.0-1.2","subject":"n0wnn4og7tgrav8"},{"trial_type":"turing-test","trial_index":17,"time_elapsed":36945,"internal_node_id":"0.0-8.0-2.2","subject":"n0wnn4og7tgrav8"},{"rt":266.9999999999927,"stimulus":"<p>Welche Sequenz haben Sie als natürlicher empfunden?</p>","key_press":74,"test_part":"response","test_stimulus":{"position":0,"left":"bvh/pass-bottle-hold-training2-lines.txt","right":"bvh/vr_prediction_models/model(tmp)-dataset(pass-bottle-hold)-numprim(13)-hold(2)/final-lines.txt","att_check":false},"trial_type":"html-keyboard-response","trial_index":18,"time_elapsed":37214,"internal_node_id":"0.0-8.0-3.2","subject":"n0wnn4og7tgrav8"},{"rt":494,"stimulus":"<p>Bereit?</p>","key_press":32,"trial_type":"html-keyboard-response","trial_index":19,"time_elapsed":37711,"internal_node_id":"0.0-8.0-0.3","subject":"n0wnn4og7tgrav8"},{"rt":null,"stimulus":"<div style=\"font-size:60px;\">+</div>","key_press":null,"trial_type":"html-keyboard-response","trial_index":20,"time_elapsed":39714,"internal_node_id":"0.0-8.0-1.3","subject":"n0wnn4og7tgrav8"},{"trial_type":"turing-test","trial_index":21,"time_elapsed":43266,"internal_node_id":"0.0-8.0-2.3","subject":"n0wnn4og7tgrav8"},{"rt":465,"stimulus":"<p>Welche Sequenz haben Sie als natürlicher empfunden?</p>","key_press":74,"test_part":"response","test_stimulus":{"position":1,"left":"bvh/vr_prediction_models/model(vcgpdm)-dataset(return-bottle-hold)-mode(ELBO)-parts(1)-dyn(20)-lvm(20)-hold(1)/final-lines.txt","right":"bvh/return-bottle-hold-training1-lines.txt","att_check":false},"trial_type":"html-keyboard-response","trial_index":22,"time_elapsed":43734,"internal_node_id":"0.0-8.0-3.3","subject":"n0wnn4og7tgrav8"},{"rt":397.0000000000073,"stimulus":"<p>Bereit?</p>","key_press":32,"trial_type":"html-keyboard-response","trial_index":23,"time_elapsed":44133,"internal_node_id":"0.0-8.0-0.4","subject":"n0wnn4og7tgrav8"},{"rt":null,"stimulus":"<div style=\"font-size:60px;\">+</div>","key_press":null,"trial_type":"html-keyboard-response","trial_index":24,"time_elapsed":46135,"internal_node_id":"0.0-8.0-1.4","subject":"n0wnn4og7tgrav8"},{"trial_type":"turing-test","trial_index":25,"time_elapsed":52538,"internal_node_id":"0.0-8.0-2.4","subject":"n0wnn4og7tgrav8"},{"rt":546,"stimulus":"<p>Welche Sequenz haben Sie als natürlicher empfunden?</p>","key_press":74,"test_part":"response","test_stimulus":{"position":1,"left":"bvh/vr_prediction_models/model(dmp)-dataset(return-bottle)-npsi(10)-hold(2)/final-lines.txt","right":"bvh/return-bottle-training2-lines.txt","att_check":false},"trial_type":"html-keyboard-response","trial_index":26,"time_elapsed":53086,"internal_node_id":"0.0-8.0-3.4","subject":"n0wnn4og7tgrav8"},{"rt":677,"stimulus":"<p>Bereit?</p>","key_press":32,"trial_type":"html-keyboard-response","trial_index":27,"time_elapsed":53766,"internal_node_id":"0.0-8.0-0.5","subject":"n0wnn4og7tgrav8"},{"rt":null,"stimulus":"<div style=\"font-size:60px;\">+</div>","key_press":null,"trial_type":"html-keyboard-response","trial_index":28,"time_elapsed":55769,"internal_node_id":"0.0-8.0-1.5","subject":"n0wnn4og7tgrav8"}]