[{"rt":1675.91999983415,"stimulus":"<p>Welcome!<br> Please choose your language to start the experiment in the chosen language.</p><p>Willkommen!<br> Bitte wählen Sie eine Sprache, um das Experiment in der ausgewählten Sprache zu starten</p>","button_pressed":"1","trial_type":"html-button-response","trial_index":0,"time_elapsed":1702,"internal_node_id":"0.0-0.0","subject":"gosl95h7k0nkyks","sona":"8665"},{"view_history":"[{\"page_index\":0,\"viewing_time\":1345.8899999968708},{\"page_index\":1,\"viewing_time\":1228.8299999199808},{\"page_index\":2,\"viewing_time\":727.0200001075864},{\"page_index\":3,\"viewing_time\":1582.1400000713766},{\"page_index\":4,\"viewing_time\":1020.8499999716878}]","rt":5905.164999887347,"trial_type":"instructions","trial_index":1,"time_elapsed":7607,"internal_node_id":"0.0-1.0-0.0","subject":"gosl95h7k0nkyks","sona":"8665"},{"rt":1899.280000012368,"stimulus":"<p>Bereit?</p>","key_press":32,"trial_type":"html-keyboard-response","trial_index":2,"time_elapsed":9507,"internal_node_id":"0.0-3.0","subject":"gosl95h7k0nkyks","sona":"8665"},{"rt":null,"stimulus":"<div style=\"font-size:60px;\">+</div>","key_press":null,"trial_type":"html-keyboard-response","trial_index":3,"time_elapsed":11511,"internal_node_id":"0.0-4.0","subject":"gosl95h7k0nkyks","sona":"8665"},{"trial_type":"training","trial_index":4,"time_elapsed":14718,"internal_node_id":"0.0-5.0","subject":"gosl95h7k0nkyks","sona":"8665"},{"rt":188.27500008046627,"stimulus":"<p>Welche Sequenz haben Sie als natürlicher empfunden?</p>","key_press":70,"trial_type":"html-keyboard-response","trial_index":5,"time_elapsed":14907,"internal_node_id":"0.0-6.0","subject":"gosl95h7k0nkyks","sona":"8665"},{"rt":2163.38500007987,"stimulus":"<p>Das Experiment startet nun.</p><p><small>Bitte drücken Sie den Knopf, wenn Sie bereit sind.</small></p>","button_pressed":"0","trial_type":"html-button-response","trial_index":6,"time_elapsed":17071,"internal_node_id":"0.0-7.0","subject":"gosl95h7k0nkyks","sona":"8665"},{"rt":627.2899999748915,"stimulus":"<p>Bereit?</p>","key_press":32,"trial_type":"html-keyboard-response","trial_index":7,"time_elapsed":17699,"internal_node_id":"0.0-8.0-0.0","subject":"gosl95h7k0nkyks","sona":"8665"},{"rt":null,"stimulus":"<div style=\"font-size:60px;\">+</div>","key_press":null,"trial_type":"html-keyboard-response","trial_index":8,"time_elapsed":19703,"internal_node_id":"0.0-8.0-1.0","subject":"gosl95h7k0nkyks","sona":"8665"},{"trial_type":"turing-test","trial_index":9,"time_elapsed":23343,"internal_node_id":"0.0-8.0-2.0","subject":"gosl95h7k0nkyks","sona":"8665"},{"rt":1139.2500000074506,"stimulus":"<p>Welche Sequenz haben Sie als natürlicher empfunden?</p>","key_press":74,"test_part":"response","test_stimulus":{"position":0,"left":"bvh/return-bottle-hold-training3-lines.txt","right":"bvh/vr_prediction_models/model(vcgpdm)-dataset(return-bottle-hold)-mode(ELBO)-parts(1)-dyn(25)-lvm(35)-hold(3)/final-lines.txt","att_check":false},"trial_type":"html-keyboard-response","trial_index":10,"time_elapsed":24483,"internal_node_id":"0.0-8.0-3.0","subject":"gosl95h7k0nkyks","sona":"8665"},{"rt":215.0999999139458,"stimulus":"<p>Bereit?</p>","key_press":32,"trial_type":"html-keyboard-response","trial_index":11,"time_elapsed":24699,"internal_node_id":"0.0-8.0-0.1","subject":"gosl95h7k0nkyks","sona":"8665"},{"rt":null,"stimulus":"<div style=\"font-size:60px;\">+</div>","key_press":null,"trial_type":"html-keyboard-response","trial_index":12,"time_elapsed":26710,"internal_node_id":"0.0-8.0-1.1","subject":"gosl95h7k0nkyks","sona":"8665"},{"trial_type":"turing-test","trial_index":13,"time_elapsed":32802,"internal_node_id":"0.0-8.0-2.1","subject":"gosl95h7k0nkyks","sona":"8665"},{"rt":304.3500001076609,"stimulus":"<p>Welche Sequenz haben Sie als natürlicher empfunden?</p>","key_press":74,"test_part":"response","test_stimulus":{"position":1,"left":"bvh/vr_prediction_models/model(vcgpdm)-dataset(pass-bottle)-mode(ELBO)-parts(3)-dyn(35)-lvm(20)-hold(2)/final-lines.txt","right":"bvh/pass-bottle-training2-lines.txt","att_check":false},"trial_type":"html-keyboard-response","trial_index":14,"time_elapsed":33108,"internal_node_id":"0.0-8.0-3.1","subject":"gosl95h7k0nkyks","sona":"8665"},{"rt":286.22999996878207,"stimulus":"<p>Bereit?</p>","key_press":32,"trial_type":"html-keyboard-response","trial_index":15,"time_elapsed":33395,"internal_node_id":"0.0-8.0-0.2","subject":"gosl95h7k0nkyks","sona":"8665"},{"rt":null,"stimulus":"<div style=\"font-size:60px;\">+</div>","key_press":null,"trial_type":"html-keyboard-response","trial_index":16,"time_elapsed":35408,"internal_node_id":"0.0-8.0-1.2","subject":"gosl95h7k0nkyks","sona":"8665"},{"trial_type":"turing-test","trial_index":17,"time_elapsed":38906,"internal_node_id":"0.0-8.0-2.2","subject":"gosl95h7k0nkyks","sona":"8665"},{"rt":368.0699998512864,"stimulus":"<p>Welche Sequenz haben Sie als natürlicher empfunden?</p>","key_press":74,"test_part":"response","test_stimulus":{"position":1,"left":"bvh/vr_prediction_models/model(dmp)-dataset(pass-bottle-hold)-npsi(40)-hold(4)/final-lines.txt","right":"bvh/pass-bottle-hold-training4-lines.txt","att_check":false},"trial_type":"html-keyboard-response","trial_index":18,"time_elapsed":39275,"internal_node_id":"0.0-8.0-3.2","subject":"gosl95h7k0nkyks","sona":"8665"},{"rt":279.3699998874217,"stimulus":"<p>Bereit?</p>","key_press":32,"trial_type":"html-keyboard-response","trial_index":19,"time_elapsed":39555,"internal_node_id":"0.0-8.0-0.3","subject":"gosl95h7k0nkyks","sona":"8665"},{"rt":null,"stimulus":"<div style=\"font-size:60px;\">+</div>","key_press":null,"trial_type":"html-keyboard-response","trial_index":20,"time_elapsed":41565,"internal_node_id":"0.0-8.0-1.3","subject":"gosl95h7k0nkyks","sona":"8665"},{"trial_type":"turing-test","trial_index":21,"time_elapsed":47250,"internal_node_id":"0.0-8.0-2.3","subject":"gosl95h7k0nkyks","sona":"8665"},{"rt":1568.2250000536442,"stimulus":"<p>Welche Sequenz haben Sie als natürlicher empfunden?</p>","key_press":74,"test_part":"response","test_stimulus":{"position":0,"left":"bvh/return-bottle-training4-lines.txt","right":"bvh/vr_prediction_models/model(tmp)-dataset(return-bottle)-numprim(10)-hold(4)/final-lines.txt","att_check":false},"trial_type":"html-keyboard-response","trial_index":22,"time_elapsed":48819,"internal_node_id":"0.0-8.0-3.3","subject":"gosl95h7k0nkyks","sona":"8665"},{"rt":270.63500019721687,"stimulus":"<p>Bereit?</p>","key_press":32,"trial_type":"html-keyboard-response","trial_index":23,"time_elapsed":49090,"internal_node_id":"0.0-8.0-0.4","subject":"gosl95h7k0nkyks","sona":"8665"},{"rt":null,"stimulus":"<div style=\"font-size:60px;\">+</div>","key_press":null,"trial_type":"html-keyboard-response","trial_index":24,"time_elapsed":51100,"internal_node_id":"0.0-8.0-1.4","subject":"gosl95h7k0nkyks","sona":"8665"},{"trial_type":"turing-test","trial_index":25,"time_elapsed":54572,"internal_node_id":"0.0-8.0-2.4","subject":"gosl95h7k0nkyks","sona":"8665"},{"rt":405.80000006593764,"stimulus":"<p>Welche Sequenz haben Sie als natürlicher empfunden?</p>","key_press":74,"test_part":"response","test_stimulus":{"position":1,"left":"bvh/vr_prediction_models/model(vcgpdm)-dataset(return-bottle-hold)-mode(ELBO)-parts(1)-dyn(10)-lvm(5)-hold(2)/final-lines.txt","right":"bvh/return-bottle-hold-training2-lines.txt","att_check":false},"trial_type":"html-keyboard-response","trial_index":26,"time_elapsed":54979,"internal_node_id":"0.0-8.0-3.4","subject":"gosl95h7k0nkyks","sona":"8665"},{"rt":271.16500004194677,"stimulus":"<p>Bereit?</p>","key_press":32,"trial_type":"html-keyboard-response","trial_index":27,"time_elapsed":55251,"internal_node_id":"0.0-8.0-0.5","subject":"gosl95h7k0nkyks","sona":"8665"},{"rt":null,"stimulus":"<div style=\"font-size:60px;\">+</div>","key_press":null,"trial_type":"html-keyboard-response","trial_index":28,"time_elapsed":57261,"internal_node_id":"0.0-8.0-1.5","subject":"gosl95h7k0nkyks","sona":"8665"},{"trial_type":"turing-test","trial_index":29,"time_elapsed":63966,"internal_node_id":"0.0-8.0-2.5","subject":"gosl95h7k0nkyks","sona":"8665"},{"rt":371.684999903664,"stimulus":"<p>Welche Sequenz haben Sie als natürlicher empfunden?</p>","key_press":70,"test_part":"response","test_stimulus":{"position":0,"left":"bvh/pass-bottle-training0-lines.txt","right":"bvh/vr_prediction_models/model(vcgpdm)-dataset(pass-bottle)-mode(ELBO)-parts(3)-dyn(25)-lvm(25)-hold(0)/final-lines.txt","att_check":false},"trial_type":"html-keyboard-response","trial_index":30,"time_elapsed":64339,"internal_node_id":"0.0-8.0-3.5","subject":"gosl95h7k0nkyks","sona":"8665"},{"rt":335.30499995686114,"stimulus":"<p>Bereit?</p>","key_press":32,"trial_type":"html-keyboard-response","trial_index":31,"time_elapsed":64675,"internal_node_id":"0.0-8.0-0.6","subject":"gosl95h7k0nkyks","sona":"8665"},{"rt":null,"stimulus":"<div style=\"font-size:60px;\">+</div>","key_press":null,"trial_type":"html-keyboard-response","trial_index":32,"time_elapsed":66689,"internal_node_id":"0.0-8.0-1.6","subject":"gosl95h7k0nkyks","sona":"8665"},{"trial_type":"turing-test","trial_index":33,"time_elapsed":69935,"internal_node_id":"0.0-8.0-2.6","subject":"gosl95h7k0nkyks","sona":"8665"},{"rt":298.6999999266118,"stimulus":"<p>Welche Sequenz haben Sie als natürlicher empfunden?</p>","key_press":70,"test_part":"response","test_stimulus":{"position":0,"left":"bvh/pass-bottle-hold-training0-lines.txt","right":"bvh/vr_prediction_models/model(tmp)-dataset(pass-bottle-hold)-numprim(3)-hold(0)/final-lines.txt","att_check":false},"trial_type":"html-keyboard-response","trial_index":34,"time_elapsed":70235,"internal_node_id":"0.0-8.0-3.6","subject":"gosl95h7k0nkyks","sona":"8665"},{"rt":367.714999942109,"stimulus":"<p>Bereit?</p>","key_press":32,"trial_type":"html-keyboard-response","trial_index":35,"time_elapsed":70603,"internal_node_id":"0.0-8.0-0.7","subject":"gosl95h7k0nkyks","sona":"8665"},{"rt":null,"stimulus":"<div style=\"font-size:60px;\">+</div>","key_press":null,"trial_type":"html-keyboard-response","trial_index":36,"time_elapsed":72613,"internal_node_id":"0.0-8.0-1.7","subject":"gosl95h7k0nkyks","sona":"8665"},{"trial_type":"turing-test","trial_index":37,"time_elapsed":78689,"internal_node_id":"0.0-8.0-2.7","subject":"gosl95h7k0nkyks","sona":"8665"},{"rt":9.64499986730516,"stimulus":"<p>Welche Sequenz haben Sie als natürlicher empfunden?</p>","key_press":70,"test_part":"response","test_stimulus":{"position":0,"left":"bvh/return-bottle-training1-lines.txt","right":"bvh/vr_prediction_models/model(vcgpdm)-dataset(return-bottle)-mode(ELBO)-parts(1)-dyn(10)-lvm(5)-hold(1)/final-lines.txt","att_check":false},"trial_type":"html-keyboard-response","trial_index":38,"time_elapsed":78700,"internal_node_id":"0.0-8.0-3.7","subject":"gosl95h7k0nkyks","sona":"8665"},{"rt":950.8100000675768,"stimulus":"<p>Bereit?</p>","key_press":32,"trial_type":"html-keyboard-response","trial_index":39,"time_elapsed":79651,"internal_node_id":"0.0-8.0-0.8","subject":"gosl95h7k0nkyks","sona":"8665"},{"rt":null,"stimulus":"<div style=\"font-size:60px;\">+</div>","key_press":null,"trial_type":"html-keyboard-response","trial_index":40,"time_elapsed":81675,"internal_node_id":"0.0-8.0-1.8","subject":"gosl95h7k0nkyks","sona":"8665"},{"trial_type":"turing-test","trial_index":41,"time_elapsed":87457,"internal_node_id":"0.0-8.0-2.8","subject":"gosl95h7k0nkyks","sona":"8665"},{"rt":345.07500007748604,"stimulus":"<p>Welche Sequenz haben Sie als natürlicher empfunden?</p>","key_press":74,"test_part":"response","test_stimulus":{"position":1,"left":"bvh/vr_prediction_models/model(vcgpdm)-dataset(pass-bottle)-mode(ELBO)-parts(1)-dyn(30)-lvm(35)-hold(3)/final-lines.txt","right":"bvh/pass-bottle-training3-lines.txt","att_check":false},"trial_type":"html-keyboard-response","trial_index":42,"time_elapsed":87803,"internal_node_id":"0.0-8.0-3.8","subject":"gosl95h7k0nkyks","sona":"8665"},{"rt":279.3050000909716,"stimulus":"<p>Bereit?</p>","key_press":32,"trial_type":"html-keyboard-response","trial_index":43,"time_elapsed":88083,"internal_node_id":"0.0-8.0-0.9","subject":"gosl95h7k0nkyks","sona":"8665"},{"rt":null,"stimulus":"<div style=\"font-size:60px;\">+</div>","key_press":null,"trial_type":"html-keyboard-response","trial_index":44,"time_elapsed":90097,"internal_node_id":"0.0-8.0-1.9","subject":"gosl95h7k0nkyks","sona":"8665"},{"trial_type":"turing-test","trial_index":45,"time_elapsed":93455,"internal_node_id":"0.0-8.0-2.9","subject":"gosl95h7k0nkyks","sona":"8665"},{"rt":139.10500006750226,"stimulus":"<p>Welche Sequenz haben Sie als natürlicher empfunden?</p>","key_press":74,"test_part":"response","test_stimulus":{"position":1,"left":"bvh/vr_prediction_models/model(vcgpdm)-dataset(pass-bottle-hold)-mode(ELBO)-parts(3)-dyn(25)-lvm(15)-hold(0)/final-lines.txt","right":"bvh/pass-bottle-hold-training0-lines.txt","att_check":false},"trial_type":"html-keyboard-response","trial_index":46,"time_elapsed":93595,"internal_node_id":"0.0-8.0-3.9","subject":"gosl95h7k0nkyks","sona":"8665"},{"rt":367.47499997727573,"stimulus":"<p>Bereit?</p>","key_press":32,"trial_type":"html-keyboard-response","trial_index":47,"time_elapsed":93963,"internal_node_id":"0.0-8.0-0.10","subject":"gosl95h7k0nkyks","sona":"8665"},{"rt":null,"stimulus":"<div style=\"font-size:60px;\">+</div>","key_press":null,"trial_type":"html-keyboard-response","trial_index":48,"time_elapsed":95973,"internal_node_id":"0.0-8.0-1.10","subject":"gosl95h7k0nkyks","sona":"8665"},{"trial_type":"turing-test","trial_index":49,"time_elapsed":102526,"internal_node_id":"0.0-8.0-2.10","subject":"gosl95h7k0nkyks","sona":"8665"},{"rt":340.33000003546476,"stimulus":"<p>Welche Sequenz haben Sie als natürlicher empfunden?</p>","key_press":74,"test_part":"response","test_stimulus":{"position":1,"left":"bvh/vr_prediction_models/model(vcgpdm)-dataset(return-bottle)-mode(ELBO)-parts(3)-dyn(10)-lvm(25)-hold(2)/final-lines.txt","right":"bvh/return-bottle-training2-lines.txt","att_check":false},"trial_type":"html-keyboard-response","trial_index":50,"time_elapsed":102867,"internal_node_id":"0.0-8.0-3.10","subject":"gosl95h7k0nkyks","sona":"8665"},{"rt":350.1450000330806,"stimulus":"<p>Bereit?</p>","key_press":32,"trial_type":"html-keyboard-response","trial_index":51,"time_elapsed":103219,"internal_node_id":"0.0-8.0-0.11","subject":"gosl95h7k0nkyks","sona":"8665"},{"rt":null,"stimulus":"<div style=\"font-size:60px;\">+</div>","key_press":null,"trial_type":"html-keyboard-response","trial_index":52,"time_elapsed":105228,"internal_node_id":"0.0-8.0-1.11","subject":"gosl95h7k0nkyks","sona":"8665"}]