[{"rt":2845,"stimulus":"<p>Welcome!<br> Please choose your language to start the experiment in the chosen language.</p><p>Willkommen!<br> Bitte wählen Sie eine Sprache, um das Experiment in der ausgewählten Sprache zu starten</p>","button_pressed":"1","trial_type":"html-button-response","trial_index":0,"time_elapsed":2854,"internal_node_id":"0.0-0.0","subject":"7916b0ha9yula8f","sona":"7345"},{"view_history":"[{\"page_index\":0,\"viewing_time\":6964},{\"page_index\":1,\"viewing_time\":1691},{\"page_index\":2,\"viewing_time\":1268},{\"page_index\":3,\"viewing_time\":2648},{\"page_index\":4,\"viewing_time\":1404}]","rt":13975,"trial_type":"instructions","trial_index":1,"time_elapsed":16831,"internal_node_id":"0.0-1.0-0.0","subject":"7916b0ha9yula8f","sona":"7345"},{"rt":11528,"stimulus":"<p>Bereit?</p>","key_press":32,"trial_type":"html-keyboard-response","trial_index":2,"time_elapsed":28362,"internal_node_id":"0.0-3.0","subject":"7916b0ha9yula8f","sona":"7345"},{"rt":null,"stimulus":"<div style=\"font-size:60px;\">+</div>","key_press":null,"trial_type":"html-keyboard-response","trial_index":3,"time_elapsed":30369,"internal_node_id":"0.0-4.0","subject":"7916b0ha9yula8f","sona":"7345"},{"trial_type":"training","trial_index":4,"time_elapsed":33749,"internal_node_id":"0.0-5.0","subject":"7916b0ha9yula8f","sona":"7345"},{"rt":314,"stimulus":"<p>Welche Sequenz haben Sie als natürlicher empfunden?</p>","key_press":70,"trial_type":"html-keyboard-response","trial_index":5,"time_elapsed":34063,"internal_node_id":"0.0-6.0","subject":"7916b0ha9yula8f","sona":"7345"},{"rt":3954,"stimulus":"<p>Das Experiment startet nun.</p><p><small>Bitte drücken Sie den Knopf, wenn Sie bereit sind.</small></p>","button_pressed":"0","trial_type":"html-button-response","trial_index":6,"time_elapsed":38018,"internal_node_id":"0.0-7.0","subject":"7916b0ha9yula8f","sona":"7345"},{"rt":4148,"stimulus":"<p>Bereit?</p>","key_press":32,"trial_type":"html-keyboard-response","trial_index":7,"time_elapsed":42168,"internal_node_id":"0.0-8.0-0.0","subject":"7916b0ha9yula8f","sona":"7345"},{"rt":null,"stimulus":"<div style=\"font-size:60px;\">+</div>","key_press":null,"trial_type":"html-keyboard-response","trial_index":8,"time_elapsed":44172,"internal_node_id":"0.0-8.0-1.0","subject":"7916b0ha9yula8f","sona":"7345"},{"trial_type":"turing-test","trial_index":9,"time_elapsed":50439,"internal_node_id":"0.0-8.0-2.0","subject":"7916b0ha9yula8f","sona":"7345"},{"rt":31967,"stimulus":"<p>Welche Sequenz haben Sie als natürlicher empfunden?</p>","key_press":74,"test_part":"response","test_stimulus":{"position":0,"left":"bvh/return-bottle-training1-lines.txt","right":"bvh/vr_prediction_models/model(vcgpdm)-dataset(return-bottle)-mode(ELBO)-parts(1)-dyn(10)-lvm(5)-hold(1)/final-lines.txt","att_check":false},"trial_type":"html-keyboard-response","trial_index":10,"time_elapsed":82406,"internal_node_id":"0.0-8.0-3.0","subject":"7916b0ha9yula8f","sona":"7345"},{"rt":940,"stimulus":"<p>Bereit?</p>","key_press":32,"trial_type":"html-keyboard-response","trial_index":11,"time_elapsed":83348,"internal_node_id":"0.0-8.0-0.1","subject":"7916b0ha9yula8f","sona":"7345"},{"rt":null,"stimulus":"<div style=\"font-size:60px;\">+</div>","key_press":null,"trial_type":"html-keyboard-response","trial_index":12,"time_elapsed":85357,"internal_node_id":"0.0-8.0-1.1","subject":"7916b0ha9yula8f","sona":"7345"},{"trial_type":"turing-test","trial_index":13,"time_elapsed":91452,"internal_node_id":"0.0-8.0-2.1","subject":"7916b0ha9yula8f","sona":"7345"},{"rt":917,"stimulus":"<p>Welche Sequenz haben Sie als natürlicher empfunden?</p>","key_press":74,"test_part":"response","test_stimulus":{"position":1,"left":"bvh/vr_prediction_models/model(dmp)-dataset(return-bottle)-npsi(20)-hold(1)/final-lines.txt","right":"bvh/return-bottle-training1-lines.txt","att_check":false},"trial_type":"html-keyboard-response","trial_index":14,"time_elapsed":92371,"internal_node_id":"0.0-8.0-3.1","subject":"7916b0ha9yula8f","sona":"7345"},{"rt":4580,"stimulus":"<p>Bereit?</p>","key_press":32,"trial_type":"html-keyboard-response","trial_index":15,"time_elapsed":96953,"internal_node_id":"0.0-8.0-0.2","subject":"7916b0ha9yula8f","sona":"7345"},{"rt":null,"stimulus":"<div style=\"font-size:60px;\">+</div>","key_press":null,"trial_type":"html-keyboard-response","trial_index":16,"time_elapsed":98959,"internal_node_id":"0.0-8.0-1.2","subject":"7916b0ha9yula8f","sona":"7345"},{"trial_type":"turing-test","trial_index":17,"time_elapsed":105375,"internal_node_id":"0.0-8.0-2.2","subject":"7916b0ha9yula8f","sona":"7345"},{"rt":828,"stimulus":"<p>Welche Sequenz haben Sie als natürlicher empfunden?</p>","key_press":74,"test_part":"response","test_stimulus":{"position":1,"left":"bvh/vr_prediction_models/model(dmp)-dataset(pass-bottle)-npsi(90)-hold(2)/final-lines.txt","right":"bvh/pass-bottle-training2-lines.txt","att_check":true},"trial_type":"html-keyboard-response","trial_index":18,"time_elapsed":106204,"internal_node_id":"0.0-8.0-3.2","subject":"7916b0ha9yula8f","sona":"7345"},{"rt":751,"stimulus":"<p>Bereit?</p>","key_press":32,"trial_type":"html-keyboard-response","trial_index":19,"time_elapsed":106956,"internal_node_id":"0.0-8.0-0.3","subject":"7916b0ha9yula8f","sona":"7345"},{"rt":null,"stimulus":"<div style=\"font-size:60px;\">+</div>","key_press":null,"trial_type":"html-keyboard-response","trial_index":20,"time_elapsed":108962,"internal_node_id":"0.0-8.0-1.3","subject":"7916b0ha9yula8f","sona":"7345"},{"trial_type":"turing-test","trial_index":21,"time_elapsed":112361,"internal_node_id":"0.0-8.0-2.3","subject":"7916b0ha9yula8f","sona":"7345"},{"rt":628,"stimulus":"<p>Welche Sequenz haben Sie als natürlicher empfunden?</p>","key_press":70,"test_part":"response","test_stimulus":{"position":0,"left":"bvh/pass-bottle-hold-training1-lines.txt","right":"bvh/vr_prediction_models/model(tmp)-dataset(pass-bottle-hold)-numprim(4)-hold(1)/final-lines.txt","att_check":false},"trial_type":"html-keyboard-response","trial_index":22,"time_elapsed":112989,"internal_node_id":"0.0-8.0-3.3","subject":"7916b0ha9yula8f","sona":"7345"},{"rt":2422,"stimulus":"<p>Bereit?</p>","key_press":32,"trial_type":"html-keyboard-response","trial_index":23,"time_elapsed":115413,"internal_node_id":"0.0-8.0-0.4","subject":"7916b0ha9yula8f","sona":"7345"},{"rt":null,"stimulus":"<div style=\"font-size:60px;\">+</div>","key_press":null,"trial_type":"html-keyboard-response","trial_index":24,"time_elapsed":117417,"internal_node_id":"0.0-8.0-1.4","subject":"7916b0ha9yula8f","sona":"7345"},{"trial_type":"turing-test","trial_index":25,"time_elapsed":123526,"internal_node_id":"0.0-8.0-2.4","subject":"7916b0ha9yula8f","sona":"7345"},{"rt":12827,"stimulus":"<p>Welche Sequenz haben Sie als natürlicher empfunden?</p>","key_press":74,"test_part":"response","test_stimulus":{"position":1,"left":"bvh/vr_prediction_models/model(tmp)-dataset(pass-bottle)-numprim(13)-hold(2)/final-lines.txt","right":"bvh/pass-bottle-training2-lines.txt","att_check":false},"trial_type":"html-keyboard-response","trial_index":26,"time_elapsed":136354,"internal_node_id":"0.0-8.0-3.4","subject":"7916b0ha9yula8f","sona":"7345"},{"rt":22917,"stimulus":"<p>Bereit?</p>","key_press":32,"trial_type":"html-keyboard-response","trial_index":27,"time_elapsed":159272,"internal_node_id":"0.0-8.0-0.5","subject":"7916b0ha9yula8f","sona":"7345"},{"rt":null,"stimulus":"<div style=\"font-size:60px;\">+</div>","key_press":null,"trial_type":"html-keyboard-response","trial_index":28,"time_elapsed":161281,"internal_node_id":"0.0-8.0-1.5","subject":"7916b0ha9yula8f","sona":"7345"},{"trial_type":"turing-test","trial_index":29,"time_elapsed":168360,"internal_node_id":"0.0-8.0-2.5","subject":"7916b0ha9yula8f","sona":"7345"},{"rt":1980,"stimulus":"<p>Welche Sequenz haben Sie als natürlicher empfunden?</p>","key_press":70,"test_part":"response","test_stimulus":{"position":0,"left":"bvh/pass-bottle-training0-lines.txt","right":"bvh/vr_prediction_models/model(vcgpdm)-dataset(pass-bottle)-mode(ELBO)-parts(3)-dyn(25)-lvm(30)-hold(0)/final-lines.txt","att_check":false},"trial_type":"html-keyboard-response","trial_index":30,"time_elapsed":170341,"internal_node_id":"0.0-8.0-3.5","subject":"7916b0ha9yula8f","sona":"7345"},{"rt":918,"stimulus":"<p>Bereit?</p>","key_press":32,"trial_type":"html-keyboard-response","trial_index":31,"time_elapsed":171261,"internal_node_id":"0.0-8.0-0.6","subject":"7916b0ha9yula8f","sona":"7345"},{"rt":null,"stimulus":"<div style=\"font-size:60px;\">+</div>","key_press":null,"trial_type":"html-keyboard-response","trial_index":32,"time_elapsed":173269,"internal_node_id":"0.0-8.0-1.6","subject":"7916b0ha9yula8f","sona":"7345"},{"trial_type":"turing-test","trial_index":33,"time_elapsed":179619,"internal_node_id":"0.0-8.0-2.6","subject":"7916b0ha9yula8f","sona":"7345"},{"rt":627,"stimulus":"<p>Welche Sequenz haben Sie als natürlicher empfunden?</p>","key_press":74,"test_part":"response","test_stimulus":{"position":1,"left":"bvh/vr_prediction_models/model(vcgpdm)-dataset(return-bottle)-mode(ELBO)-parts(1)-dyn(20)-lvm(20)-hold(1)/final-lines.txt","right":"bvh/return-bottle-training1-lines.txt","att_check":false},"trial_type":"html-keyboard-response","trial_index":34,"time_elapsed":180247,"internal_node_id":"0.0-8.0-3.6","subject":"7916b0ha9yula8f","sona":"7345"},{"rt":4925,"stimulus":"<p>Bereit?</p>","key_press":32,"trial_type":"html-keyboard-response","trial_index":35,"time_elapsed":185174,"internal_node_id":"0.0-8.0-0.7","subject":"7916b0ha9yula8f","sona":"7345"},{"rt":null,"stimulus":"<div style=\"font-size:60px;\">+</div>","key_press":null,"trial_type":"html-keyboard-response","trial_index":36,"time_elapsed":187178,"internal_node_id":"0.0-8.0-1.7","subject":"7916b0ha9yula8f","sona":"7345"},{"trial_type":"turing-test","trial_index":37,"time_elapsed":191148,"internal_node_id":"0.0-8.0-2.7","subject":"7916b0ha9yula8f","sona":"7345"},{"rt":796,"stimulus":"<p>Welche Sequenz haben Sie als natürlicher empfunden?</p>","key_press":74,"test_part":"response","test_stimulus":{"position":1,"left":"bvh/vr_prediction_models/model(vcgpdm)-dataset(return-bottle-hold)-mode(MAP)-parts(3)-hold(3)/final-lines.txt","right":"bvh/return-bottle-hold-training3-lines.txt","att_check":false},"trial_type":"html-keyboard-response","trial_index":38,"time_elapsed":191945,"internal_node_id":"0.0-8.0-3.7","subject":"7916b0ha9yula8f","sona":"7345"},{"rt":3582,"stimulus":"<p>Bereit?</p>","key_press":32,"trial_type":"html-keyboard-response","trial_index":39,"time_elapsed":195530,"internal_node_id":"0.0-8.0-0.8","subject":"7916b0ha9yula8f","sona":"7345"},{"rt":null,"stimulus":"<div style=\"font-size:60px;\">+</div>","key_press":null,"trial_type":"html-keyboard-response","trial_index":40,"time_elapsed":197533,"internal_node_id":"0.0-8.0-1.8","subject":"7916b0ha9yula8f","sona":"7345"},{"trial_type":"turing-test","trial_index":41,"time_elapsed":203389,"internal_node_id":"0.0-8.0-2.8","subject":"7916b0ha9yula8f","sona":"7345"},{"rt":6197,"stimulus":"<p>Welche Sequenz haben Sie als natürlicher empfunden?</p>","key_press":74,"test_part":"response","test_stimulus":{"position":0,"left":"bvh/return-bottle-training0-lines.txt","right":"bvh/vr_prediction_models/model(vcgpdm)-dataset(return-bottle)-mode(ELBO)-parts(1)-dyn(10)-lvm(30)-hold(0)/final-lines.txt","att_check":false},"trial_type":"html-keyboard-response","trial_index":42,"time_elapsed":209587,"internal_node_id":"0.0-8.0-3.8","subject":"7916b0ha9yula8f","sona":"7345"},{"rt":8998,"stimulus":"<p>Bereit?</p>","key_press":32,"trial_type":"html-keyboard-response","trial_index":43,"time_elapsed":218585,"internal_node_id":"0.0-8.0-0.9","subject":"7916b0ha9yula8f","sona":"7345"},{"rt":null,"stimulus":"<div style=\"font-size:60px;\">+</div>","key_press":null,"trial_type":"html-keyboard-response","trial_index":44,"time_elapsed":220588,"internal_node_id":"0.0-8.0-1.9","subject":"7916b0ha9yula8f","sona":"7345"},{"trial_type":"turing-test","trial_index":45,"time_elapsed":224065,"internal_node_id":"0.0-8.0-2.9","subject":"7916b0ha9yula8f","sona":"7345"},{"rt":59,"stimulus":"<p>Welche Sequenz haben Sie als natürlicher empfunden?</p>","key_press":74,"test_part":"response","test_stimulus":{"position":0,"left":"bvh/return-bottle-hold-training2-lines.txt","right":"bvh/vr_prediction_models/model(dmp)-dataset(return-bottle-hold)-npsi(60)-hold(2)/final-lines.txt","att_check":false},"trial_type":"html-keyboard-response","trial_index":46,"time_elapsed":224125,"internal_node_id":"0.0-8.0-3.9","subject":"7916b0ha9yula8f","sona":"7345"},{"rt":10038,"stimulus":"<p>Bereit?</p>","key_press":32,"trial_type":"html-keyboard-response","trial_index":47,"time_elapsed":234164,"internal_node_id":"0.0-8.0-0.10","subject":"7916b0ha9yula8f","sona":"7345"},{"rt":null,"stimulus":"<div style=\"font-size:60px;\">+</div>","key_press":null,"trial_type":"html-keyboard-response","trial_index":48,"time_elapsed":236169,"internal_node_id":"0.0-8.0-1.10","subject":"7916b0ha9yula8f","sona":"7345"},{"trial_type":"turing-test","trial_index":49,"time_elapsed":243036,"internal_node_id":"0.0-8.0-2.10","subject":"7916b0ha9yula8f","sona":"7345"},{"rt":887,"stimulus":"<p>Welche Sequenz haben Sie als natürlicher empfunden?</p>","key_press":70,"test_part":"response","test_stimulus":{"position":0,"left":"bvh/pass-bottle-training2-lines.txt","right":"bvh/vr_prediction_models/model(vcgpdm)-dataset(pass-bottle)-mode(ELBO)-parts(3)-dyn(20)-lvm(15)-hold(2)/final-lines.txt","att_check":false},"trial_type":"html-keyboard-response","trial_index":50,"time_elapsed":243924,"internal_node_id":"0.0-8.0-3.10","subject":"7916b0ha9yula8f","sona":"7345"},{"rt":7930,"stimulus":"<p>Bereit?</p>","key_press":32,"trial_type":"html-keyboard-response","trial_index":51,"time_elapsed":251855,"internal_node_id":"0.0-8.0-0.11","subject":"7916b0ha9yula8f","sona":"7345"},{"rt":null,"stimulus":"<div style=\"font-size:60px;\">+</div>","key_press":null,"trial_type":"html-keyboard-response","trial_index":52,"time_elapsed":253859,"internal_node_id":"0.0-8.0-1.11","subject":"7916b0ha9yula8f","sona":"7345"},{"trial_type":"turing-test","trial_index":53,"time_elapsed":259194,"internal_node_id":"0.0-8.0-2.11","subject":"7916b0ha9yula8f","sona":"7345"}]