[{"rt":5672.819999977946,"stimulus":"<p>Welcome!<br> Please choose your language to start the experiment in the chosen language.</p><p>Willkommen!<br> Bitte wählen Sie eine Sprache, um das Experiment in der ausgewählten Sprache zu starten</p>","button_pressed":"1","trial_type":"html-button-response","trial_index":0,"time_elapsed":5694,"internal_node_id":"0.0-0.0","subject":"5o6brh06dz3s291","sona":"9277"},{"view_history":"[{\"page_index\":0,\"viewing_time\":7734.725000103936},{\"page_index\":1,\"viewing_time\":3420.739999972284},{\"page_index\":2,\"viewing_time\":6800.805000122637},{\"page_index\":3,\"viewing_time\":5232.19499993138},{\"page_index\":4,\"viewing_time\":2168.5649999417365}]","rt":25358.310000039637,"trial_type":"instructions","trial_index":1,"time_elapsed":31055,"internal_node_id":"0.0-1.0-0.0","subject":"5o6brh06dz3s291","sona":"9277"},{"rt":1703.1499999575317,"stimulus":"<p>Bereit?</p>","key_press":32,"trial_type":"html-keyboard-response","trial_index":2,"time_elapsed":32761,"internal_node_id":"0.0-3.0","subject":"5o6brh06dz3s291","sona":"9277"},{"rt":null,"stimulus":"<div style=\"font-size:60px;\">+</div>","key_press":null,"trial_type":"html-keyboard-response","trial_index":3,"time_elapsed":34764,"internal_node_id":"0.0-4.0","subject":"5o6brh06dz3s291","sona":"9277"},{"trial_type":"training","trial_index":4,"time_elapsed":38275,"internal_node_id":"0.0-5.0","subject":"5o6brh06dz3s291","sona":"9277"},{"rt":1796.3199999649078,"stimulus":"<p>Welche Sequenz haben Sie als natürlicher empfunden?</p>","key_press":70,"trial_type":"html-keyboard-response","trial_index":5,"time_elapsed":40073,"internal_node_id":"0.0-6.0","subject":"5o6brh06dz3s291","sona":"9277"},{"rt":1813.1899998988956,"stimulus":"<p>Das Experiment startet nun.</p><p><small>Bitte drücken Sie den Knopf, wenn Sie bereit sind.</small></p>","button_pressed":"0","trial_type":"html-button-response","trial_index":6,"time_elapsed":41887,"internal_node_id":"0.0-7.0","subject":"5o6brh06dz3s291","sona":"9277"},{"rt":610.0200000219047,"stimulus":"<p>Bereit?</p>","key_press":32,"trial_type":"html-keyboard-response","trial_index":7,"time_elapsed":42499,"internal_node_id":"0.0-8.0-0.0","subject":"5o6brh06dz3s291","sona":"9277"},{"rt":null,"stimulus":"<div style=\"font-size:60px;\">+</div>","key_press":null,"trial_type":"html-keyboard-response","trial_index":8,"time_elapsed":44504,"internal_node_id":"0.0-8.0-1.0","subject":"5o6brh06dz3s291","sona":"9277"},{"trial_type":"turing-test","trial_index":9,"time_elapsed":48131,"internal_node_id":"0.0-8.0-2.0","subject":"5o6brh06dz3s291","sona":"9277"},{"rt":1079.1949999984354,"stimulus":"<p>Welche Sequenz haben Sie als natürlicher empfunden?</p>","key_press":74,"test_part":"response","test_stimulus":{"position":1,"left":"bvh/vr_prediction_models/model(vcgpdm)-dataset(return-bottle-hold)-mode(ELBO)-parts(1)-dyn(10)-lvm(30)-hold(2)/final-lines.txt","right":"bvh/return-bottle-hold-training2-lines.txt","att_check":false},"trial_type":"html-keyboard-response","trial_index":10,"time_elapsed":49214,"internal_node_id":"0.0-8.0-3.0","subject":"5o6brh06dz3s291","sona":"9277"},{"rt":1104.0449999272823,"stimulus":"<p>Bereit?</p>","key_press":32,"trial_type":"html-keyboard-response","trial_index":11,"time_elapsed":50320,"internal_node_id":"0.0-8.0-0.1","subject":"5o6brh06dz3s291","sona":"9277"},{"rt":null,"stimulus":"<div style=\"font-size:60px;\">+</div>","key_press":null,"trial_type":"html-keyboard-response","trial_index":12,"time_elapsed":52327,"internal_node_id":"0.0-8.0-1.1","subject":"5o6brh06dz3s291","sona":"9277"},{"trial_type":"turing-test","trial_index":13,"time_elapsed":58463,"internal_node_id":"0.0-8.0-2.1","subject":"5o6brh06dz3s291","sona":"9277"},{"rt":2734.2750001698732,"stimulus":"<p>Welche Sequenz haben Sie als natürlicher empfunden?</p>","key_press":74,"test_part":"response","test_stimulus":{"position":1,"left":"bvh/vr_prediction_models/model(tmp)-dataset(pass-bottle)-numprim(5)-hold(2)/final-lines.txt","right":"bvh/pass-bottle-training2-lines.txt","att_check":false},"trial_type":"html-keyboard-response","trial_index":14,"time_elapsed":61201,"internal_node_id":"0.0-8.0-3.1","subject":"5o6brh06dz3s291","sona":"9277"},{"rt":787.2150000184774,"stimulus":"<p>Bereit?</p>","key_press":32,"trial_type":"html-keyboard-response","trial_index":15,"time_elapsed":61991,"internal_node_id":"0.0-8.0-0.2","subject":"5o6brh06dz3s291","sona":"9277"},{"rt":null,"stimulus":"<div style=\"font-size:60px;\">+</div>","key_press":null,"trial_type":"html-keyboard-response","trial_index":16,"time_elapsed":63999,"internal_node_id":"0.0-8.0-1.2","subject":"5o6brh06dz3s291","sona":"9277"},{"trial_type":"turing-test","trial_index":17,"time_elapsed":69407,"internal_node_id":"0.0-8.0-2.2","subject":"5o6brh06dz3s291","sona":"9277"},{"rt":809.5900001935661,"stimulus":"<p>Welche Sequenz haben Sie als natürlicher empfunden?</p>","key_press":70,"test_part":"response","test_stimulus":{"position":0,"left":"bvh/return-bottle-training0-lines.txt","right":"bvh/vr_prediction_models/model(tmp)-dataset(return-bottle)-numprim(8)-hold(0)/final-lines.txt","att_check":false},"trial_type":"html-keyboard-response","trial_index":18,"time_elapsed":70220,"internal_node_id":"0.0-8.0-3.2","subject":"5o6brh06dz3s291","sona":"9277"},{"rt":754.9550000112504,"stimulus":"<p>Bereit?</p>","key_press":32,"trial_type":"html-keyboard-response","trial_index":19,"time_elapsed":70978,"internal_node_id":"0.0-8.0-0.3","subject":"5o6brh06dz3s291","sona":"9277"},{"rt":null,"stimulus":"<div style=\"font-size:60px;\">+</div>","key_press":null,"trial_type":"html-keyboard-response","trial_index":20,"time_elapsed":72988,"internal_node_id":"0.0-8.0-1.3","subject":"5o6brh06dz3s291","sona":"9277"},{"trial_type":"turing-test","trial_index":21,"time_elapsed":78829,"internal_node_id":"0.0-8.0-2.3","subject":"5o6brh06dz3s291","sona":"9277"},{"rt":276.9049999769777,"stimulus":"<p>Welche Sequenz haben Sie als natürlicher empfunden?</p>","key_press":70,"test_part":"response","test_stimulus":{"position":0,"left":"bvh/return-bottle-training3-lines.txt","right":"bvh/vr_prediction_models/model(vcgpdm)-dataset(return-bottle)-mode(ELBO)-parts(3)-dyn(20)-lvm(20)-hold(3)/final-lines.txt","att_check":false},"trial_type":"html-keyboard-response","trial_index":22,"time_elapsed":79109,"internal_node_id":"0.0-8.0-3.3","subject":"5o6brh06dz3s291","sona":"9277"},{"rt":544.8199999518692,"stimulus":"<p>Bereit?</p>","key_press":32,"trial_type":"html-keyboard-response","trial_index":23,"time_elapsed":79656,"internal_node_id":"0.0-8.0-0.4","subject":"5o6brh06dz3s291","sona":"9277"},{"rt":null,"stimulus":"<div style=\"font-size:60px;\">+</div>","key_press":null,"trial_type":"html-keyboard-response","trial_index":24,"time_elapsed":81663,"internal_node_id":"0.0-8.0-1.4","subject":"5o6brh06dz3s291","sona":"9277"},{"trial_type":"turing-test","trial_index":25,"time_elapsed":87030,"internal_node_id":"0.0-8.0-2.4","subject":"5o6brh06dz3s291","sona":"9277"},{"rt":931.7900000605732,"stimulus":"<p>Welche Sequenz haben Sie als natürlicher empfunden?</p>","key_press":74,"test_part":"response","test_stimulus":{"position":1,"left":"bvh/vr_prediction_models/model(tmp)-dataset(return-bottle)-numprim(10)-hold(0)/final-lines.txt","right":"bvh/return-bottle-training0-lines.txt","att_check":false},"trial_type":"html-keyboard-response","trial_index":26,"time_elapsed":87965,"internal_node_id":"0.0-8.0-3.4","subject":"5o6brh06dz3s291","sona":"9277"},{"rt":853.0449999962002,"stimulus":"<p>Bereit?</p>","key_press":32,"trial_type":"html-keyboard-response","trial_index":27,"time_elapsed":88821,"internal_node_id":"0.0-8.0-0.5","subject":"5o6brh06dz3s291","sona":"9277"},{"rt":null,"stimulus":"<div style=\"font-size:60px;\">+</div>","key_press":null,"trial_type":"html-keyboard-response","trial_index":28,"time_elapsed":90830,"internal_node_id":"0.0-8.0-1.5","subject":"5o6brh06dz3s291","sona":"9277"},{"trial_type":"turing-test","trial_index":29,"time_elapsed":96568,"internal_node_id":"0.0-8.0-2.5","subject":"5o6brh06dz3s291","sona":"9277"},{"rt":1621.6450000647455,"stimulus":"<p>Welche Sequenz haben Sie als natürlicher empfunden?</p>","key_press":74,"test_part":"response","test_stimulus":{"position":1,"left":"bvh/vr_prediction_models/model(tmp)-dataset(return-bottle)-numprim(11)-hold(3)/final-lines.txt","right":"bvh/return-bottle-training3-lines.txt","att_check":false},"trial_type":"html-keyboard-response","trial_index":30,"time_elapsed":98192,"internal_node_id":"0.0-8.0-3.5","subject":"5o6brh06dz3s291","sona":"9277"},{"rt":973.1650000903755,"stimulus":"<p>Bereit?</p>","key_press":32,"trial_type":"html-keyboard-response","trial_index":31,"time_elapsed":99167,"internal_node_id":"0.0-8.0-0.6","subject":"5o6brh06dz3s291","sona":"9277"},{"rt":null,"stimulus":"<div style=\"font-size:60px;\">+</div>","key_press":null,"trial_type":"html-keyboard-response","trial_index":32,"time_elapsed":101176,"internal_node_id":"0.0-8.0-1.6","subject":"5o6brh06dz3s291","sona":"9277"},{"trial_type":"turing-test","trial_index":33,"time_elapsed":107112,"internal_node_id":"0.0-8.0-2.6","subject":"5o6brh06dz3s291","sona":"9277"},{"rt":538.5999998543411,"stimulus":"<p>Welche Sequenz haben Sie als natürlicher empfunden?</p>","key_press":70,"test_part":"response","test_stimulus":{"position":0,"left":"bvh/pass-bottle-training3-lines.txt","right":"bvh/vr_prediction_models/model(vcgpdm)-dataset(pass-bottle)-mode(ELBO)-parts(1)-dyn(25)-lvm(35)-hold(3)/final-lines.txt","att_check":false},"trial_type":"html-keyboard-response","trial_index":34,"time_elapsed":107655,"internal_node_id":"0.0-8.0-3.6","subject":"5o6brh06dz3s291","sona":"9277"},{"rt":793.4600000735372,"stimulus":"<p>Bereit?</p>","key_press":32,"trial_type":"html-keyboard-response","trial_index":35,"time_elapsed":108451,"internal_node_id":"0.0-8.0-0.7","subject":"5o6brh06dz3s291","sona":"9277"},{"rt":null,"stimulus":"<div style=\"font-size:60px;\">+</div>","key_press":null,"trial_type":"html-keyboard-response","trial_index":36,"time_elapsed":110460,"internal_node_id":"0.0-8.0-1.7","subject":"5o6brh06dz3s291","sona":"9277"},{"trial_type":"turing-test","trial_index":37,"time_elapsed":114144,"internal_node_id":"0.0-8.0-2.7","subject":"5o6brh06dz3s291","sona":"9277"},{"rt":926.430000225082,"stimulus":"<p>Welche Sequenz haben Sie als natürlicher empfunden?</p>","key_press":70,"test_part":"response","test_stimulus":{"position":0,"left":"bvh/pass-bottle-hold-training3-lines.txt","right":"bvh/vr_prediction_models/model(vcgpdm)-dataset(pass-bottle-hold)-mode(ELBO)-parts(1)-dyn(30)-lvm(30)-hold(3)/final-lines.txt","att_check":false},"trial_type":"html-keyboard-response","trial_index":38,"time_elapsed":115074,"internal_node_id":"0.0-8.0-3.7","subject":"5o6brh06dz3s291","sona":"9277"},{"rt":678.3799999393523,"stimulus":"<p>Bereit?</p>","key_press":32,"trial_type":"html-keyboard-response","trial_index":39,"time_elapsed":115754,"internal_node_id":"0.0-8.0-0.8","subject":"5o6brh06dz3s291","sona":"9277"},{"rt":null,"stimulus":"<div style=\"font-size:60px;\">+</div>","key_press":null,"trial_type":"html-keyboard-response","trial_index":40,"time_elapsed":117764,"internal_node_id":"0.0-8.0-1.8","subject":"5o6brh06dz3s291","sona":"9277"},{"trial_type":"turing-test","trial_index":41,"time_elapsed":121401,"internal_node_id":"0.0-8.0-2.8","subject":"5o6brh06dz3s291","sona":"9277"},{"rt":109.32000004686415,"stimulus":"<p>Welche Sequenz haben Sie als natürlicher empfunden?</p>","key_press":70,"test_part":"response","test_stimulus":{"position":0,"left":"bvh/pass-bottle-hold-training3-lines.txt","right":"bvh/vr_prediction_models/model(vcgpdm)-dataset(pass-bottle-hold)-mode(ELBO)-parts(3)-dyn(10)-lvm(30)-hold(3)/final-lines.txt","att_check":false},"trial_type":"html-keyboard-response","trial_index":42,"time_elapsed":121512,"internal_node_id":"0.0-8.0-3.8","subject":"5o6brh06dz3s291","sona":"9277"},{"rt":776.7300000414252,"stimulus":"<p>Bereit?</p>","key_press":32,"trial_type":"html-keyboard-response","trial_index":43,"time_elapsed":122291,"internal_node_id":"0.0-8.0-0.9","subject":"5o6brh06dz3s291","sona":"9277"},{"rt":null,"stimulus":"<div style=\"font-size:60px;\">+</div>","key_press":null,"trial_type":"html-keyboard-response","trial_index":44,"time_elapsed":124301,"internal_node_id":"0.0-8.0-1.9","subject":"5o6brh06dz3s291","sona":"9277"},{"trial_type":"turing-test","trial_index":45,"time_elapsed":127751,"internal_node_id":"0.0-8.0-2.9","subject":"5o6brh06dz3s291","sona":"9277"},{"rt":476.035000057891,"stimulus":"<p>Welche Sequenz haben Sie als natürlicher empfunden?</p>","key_press":70,"test_part":"response","test_stimulus":{"position":0,"left":"bvh/pass-bottle-hold-training0-lines.txt","right":"bvh/vr_prediction_models/model(vcgpdm)-dataset(pass-bottle-hold)-mode(ELBO)-parts(1)-dyn(10)-lvm(25)-hold(0)/final-lines.txt","att_check":false},"trial_type":"html-keyboard-response","trial_index":46,"time_elapsed":128230,"internal_node_id":"0.0-8.0-3.9","subject":"5o6brh06dz3s291","sona":"9277"},{"rt":1365.3550001326948,"stimulus":"<p>Bereit?</p>","key_press":32,"trial_type":"html-keyboard-response","trial_index":47,"time_elapsed":129599,"internal_node_id":"0.0-8.0-0.10","subject":"5o6brh06dz3s291","sona":"9277"},{"rt":null,"stimulus":"<div style=\"font-size:60px;\">+</div>","key_press":null,"trial_type":"html-keyboard-response","trial_index":48,"time_elapsed":131608,"internal_node_id":"0.0-8.0-1.10","subject":"5o6brh06dz3s291","sona":"9277"},{"trial_type":"turing-test","trial_index":49,"time_elapsed":136770,"internal_node_id":"0.0-8.0-2.10","subject":"5o6brh06dz3s291","sona":"9277"},{"rt":2528.550000162795,"stimulus":"<p>Welche Sequenz haben Sie als natürlicher empfunden?</p>","key_press":74,"test_part":"response","test_stimulus":{"position":1,"left":"bvh/vr_prediction_models/model(dmp)-dataset(return-bottle-hold)-npsi(10)-hold(0)/final-lines.txt","right":"bvh/return-bottle-hold-training0-lines.txt","att_check":false},"trial_type":"html-keyboard-response","trial_index":50,"time_elapsed":139301,"internal_node_id":"0.0-8.0-3.10","subject":"5o6brh06dz3s291","sona":"9277"},{"rt":865.8149999100715,"stimulus":"<p>Bereit?</p>","key_press":32,"trial_type":"html-keyboard-response","trial_index":51,"time_elapsed":140169,"internal_node_id":"0.0-8.0-0.11","subject":"5o6brh06dz3s291","sona":"9277"},{"rt":null,"stimulus":"<div style=\"font-size:60px;\">+</div>","key_press":null,"trial_type":"html-keyboard-response","trial_index":52,"time_elapsed":142180,"internal_node_id":"0.0-8.0-1.11","subject":"5o6brh06dz3s291","sona":"9277"}]