[{"rt":2098,"stimulus":"<p>Welcome!<br> Please choose your language to start the experiment in the chosen language.</p><p>Willkommen!<br> Bitte wählen Sie eine Sprache, um das Experiment in der ausgewählten Sprache zu starten</p>","button_pressed":"1","trial_type":"html-button-response","trial_index":0,"time_elapsed":2104,"internal_node_id":"0.0-0.0","subject":"ssbt6p7rrf9as66","sona":"9643"},{"view_history":"[{\"page_index\":0,\"viewing_time\":1100},{\"page_index\":1,\"viewing_time\":7200},{\"page_index\":2,\"viewing_time\":561},{\"page_index\":3,\"viewing_time\":967},{\"page_index\":4,\"viewing_time\":1176}]","rt":11004,"trial_type":"instructions","trial_index":1,"time_elapsed":13112,"internal_node_id":"0.0-1.0-0.0","subject":"ssbt6p7rrf9as66","sona":"9643"},{"rt":1515,"stimulus":"<p>Bereit?</p>","key_press":32,"trial_type":"html-keyboard-response","trial_index":2,"time_elapsed":14631,"internal_node_id":"0.0-3.0","subject":"ssbt6p7rrf9as66","sona":"9643"},{"rt":null,"stimulus":"<div style=\"font-size:60px;\">+</div>","key_press":null,"trial_type":"html-keyboard-response","trial_index":3,"time_elapsed":16656,"internal_node_id":"0.0-4.0","subject":"ssbt6p7rrf9as66","sona":"9643"},{"trial_type":"training","trial_index":4,"time_elapsed":20158,"internal_node_id":"0.0-5.0","subject":"ssbt6p7rrf9as66","sona":"9643"},{"rt":251,"stimulus":"<p>Welche Sequenz haben Sie als natürlicher empfunden?</p>","key_press":70,"trial_type":"html-keyboard-response","trial_index":5,"time_elapsed":20409,"internal_node_id":"0.0-6.0","subject":"ssbt6p7rrf9as66","sona":"9643"},{"rt":2142,"stimulus":"<p>Das Experiment startet nun.</p><p><small>Bitte drücken Sie den Knopf, wenn Sie bereit sind.</small></p>","button_pressed":"0","trial_type":"html-button-response","trial_index":6,"time_elapsed":22551,"internal_node_id":"0.0-7.0","subject":"ssbt6p7rrf9as66","sona":"9643"},{"rt":2323,"stimulus":"<p>Bereit?</p>","key_press":32,"trial_type":"html-keyboard-response","trial_index":7,"time_elapsed":24877,"internal_node_id":"0.0-8.0-0.0","subject":"ssbt6p7rrf9as66","sona":"9643"},{"rt":null,"stimulus":"<div style=\"font-size:60px;\">+</div>","key_press":null,"trial_type":"html-keyboard-response","trial_index":8,"time_elapsed":26908,"internal_node_id":"0.0-8.0-1.0","subject":"ssbt6p7rrf9as66","sona":"9643"},{"trial_type":"turing-test","trial_index":9,"time_elapsed":32767,"internal_node_id":"0.0-8.0-2.0","subject":"ssbt6p7rrf9as66","sona":"9643"},{"rt":295,"stimulus":"<p>Welche Sequenz haben Sie als natürlicher empfunden?</p>","key_press":70,"test_part":"response","test_stimulus":{"position":0,"left":"bvh/return-bottle-training3-lines.txt","right":"bvh/vr_prediction_models/model(vcgpdm)-dataset(return-bottle)-mode(ELBO)-parts(3)-dyn(20)-lvm(15)-hold(3)/final-lines.txt","att_check":false},"trial_type":"html-keyboard-response","trial_index":10,"time_elapsed":33067,"internal_node_id":"0.0-8.0-3.0","subject":"ssbt6p7rrf9as66","sona":"9643"},{"rt":256,"stimulus":"<p>Bereit?</p>","key_press":32,"trial_type":"html-keyboard-response","trial_index":11,"time_elapsed":33325,"internal_node_id":"0.0-8.0-0.1","subject":"ssbt6p7rrf9as66","sona":"9643"},{"rt":null,"stimulus":"<div style=\"font-size:60px;\">+</div>","key_press":null,"trial_type":"html-keyboard-response","trial_index":12,"time_elapsed":35336,"internal_node_id":"0.0-8.0-1.1","subject":"ssbt6p7rrf9as66","sona":"9643"},{"trial_type":"turing-test","trial_index":13,"time_elapsed":41238,"internal_node_id":"0.0-8.0-2.1","subject":"ssbt6p7rrf9as66","sona":"9643"},{"rt":261,"stimulus":"<p>Welche Sequenz haben Sie als natürlicher empfunden?</p>","key_press":74,"test_part":"response","test_stimulus":{"position":1,"left":"bvh/vr_prediction_models/model(vcgpdm)-dataset(pass-bottle)-mode(ELBO)-parts(3)-dyn(10)-lvm(30)-hold(3)/final-lines.txt","right":"bvh/pass-bottle-training3-lines.txt","att_check":false},"trial_type":"html-keyboard-response","trial_index":14,"time_elapsed":41505,"internal_node_id":"0.0-8.0-3.1","subject":"ssbt6p7rrf9as66","sona":"9643"},{"rt":174,"stimulus":"<p>Bereit?</p>","key_press":32,"trial_type":"html-keyboard-response","trial_index":15,"time_elapsed":41683,"internal_node_id":"0.0-8.0-0.2","subject":"ssbt6p7rrf9as66","sona":"9643"},{"rt":null,"stimulus":"<div style=\"font-size:60px;\">+</div>","key_press":null,"trial_type":"html-keyboard-response","trial_index":16,"time_elapsed":43718,"internal_node_id":"0.0-8.0-1.2","subject":"ssbt6p7rrf9as66","sona":"9643"},{"trial_type":"turing-test","trial_index":17,"time_elapsed":49467,"internal_node_id":"0.0-8.0-2.2","subject":"ssbt6p7rrf9as66","sona":"9643"},{"rt":329,"stimulus":"<p>Welche Sequenz haben Sie als natürlicher empfunden?</p>","key_press":74,"test_part":"response","test_stimulus":{"position":1,"left":"bvh/vr_prediction_models/model(tmp)-dataset(return-bottle)-numprim(14)-hold(3)/final-lines.txt","right":"bvh/return-bottle-training3-lines.txt","att_check":false},"trial_type":"html-keyboard-response","trial_index":18,"time_elapsed":49801,"internal_node_id":"0.0-8.0-3.2","subject":"ssbt6p7rrf9as66","sona":"9643"},{"rt":312,"stimulus":"<p>Bereit?</p>","key_press":32,"trial_type":"html-keyboard-response","trial_index":19,"time_elapsed":50116,"internal_node_id":"0.0-8.0-0.3","subject":"ssbt6p7rrf9as66","sona":"9643"},{"rt":null,"stimulus":"<div style=\"font-size:60px;\">+</div>","key_press":null,"trial_type":"html-keyboard-response","trial_index":20,"time_elapsed":52137,"internal_node_id":"0.0-8.0-1.3","subject":"ssbt6p7rrf9as66","sona":"9643"},{"trial_type":"turing-test","trial_index":21,"time_elapsed":55488,"internal_node_id":"0.0-8.0-2.3","subject":"ssbt6p7rrf9as66","sona":"9643"},{"rt":204,"stimulus":"<p>Welche Sequenz haben Sie als natürlicher empfunden?</p>","key_press":70,"test_part":"response","test_stimulus":{"position":0,"left":"bvh/pass-bottle-hold-training2-lines.txt","right":"bvh/vr_prediction_models/model(tmp)-dataset(pass-bottle-hold)-numprim(14)-hold(2)/final-lines.txt","att_check":false},"trial_type":"html-keyboard-response","trial_index":22,"time_elapsed":55697,"internal_node_id":"0.0-8.0-3.3","subject":"ssbt6p7rrf9as66","sona":"9643"},{"rt":212,"stimulus":"<p>Bereit?</p>","key_press":32,"trial_type":"html-keyboard-response","trial_index":23,"time_elapsed":55911,"internal_node_id":"0.0-8.0-0.4","subject":"ssbt6p7rrf9as66","sona":"9643"},{"rt":null,"stimulus":"<div style=\"font-size:60px;\">+</div>","key_press":null,"trial_type":"html-keyboard-response","trial_index":24,"time_elapsed":57937,"internal_node_id":"0.0-8.0-1.4","subject":"ssbt6p7rrf9as66","sona":"9643"},{"trial_type":"turing-test","trial_index":25,"time_elapsed":61358,"internal_node_id":"0.0-8.0-2.4","subject":"ssbt6p7rrf9as66","sona":"9643"},{"rt":248,"stimulus":"<p>Welche Sequenz haben Sie als natürlicher empfunden?</p>","key_press":74,"test_part":"response","test_stimulus":{"position":1,"left":"bvh/vr_prediction_models/model(vcgpdm)-dataset(pass-bottle-hold)-mode(ELBO)-parts(3)-dyn(10)-lvm(25)-hold(0)/final-lines.txt","right":"bvh/pass-bottle-hold-training0-lines.txt","att_check":false},"trial_type":"html-keyboard-response","trial_index":26,"time_elapsed":61609,"internal_node_id":"0.0-8.0-3.4","subject":"ssbt6p7rrf9as66","sona":"9643"},{"rt":127,"stimulus":"<p>Bereit?</p>","key_press":32,"trial_type":"html-keyboard-response","trial_index":27,"time_elapsed":61738,"internal_node_id":"0.0-8.0-0.5","subject":"ssbt6p7rrf9as66","sona":"9643"},{"rt":null,"stimulus":"<div style=\"font-size:60px;\">+</div>","key_press":null,"trial_type":"html-keyboard-response","trial_index":28,"time_elapsed":63768,"internal_node_id":"0.0-8.0-1.5","subject":"ssbt6p7rrf9as66","sona":"9643"},{"trial_type":"turing-test","trial_index":29,"time_elapsed":69186,"internal_node_id":"0.0-8.0-2.5","subject":"ssbt6p7rrf9as66","sona":"9643"},{"rt":393,"stimulus":"<p>Welche Sequenz haben Sie als natürlicher empfunden?</p>","key_press":70,"test_part":"response","test_stimulus":{"position":0,"left":"bvh/pass-bottle-training1-lines.txt","right":"bvh/vr_prediction_models/model(dmp)-dataset(pass-bottle)-npsi(100)-hold(1)/final-lines.txt","att_check":false},"trial_type":"html-keyboard-response","trial_index":30,"time_elapsed":69584,"internal_node_id":"0.0-8.0-3.5","subject":"ssbt6p7rrf9as66","sona":"9643"},{"rt":243,"stimulus":"<p>Bereit?</p>","key_press":32,"trial_type":"html-keyboard-response","trial_index":31,"time_elapsed":69830,"internal_node_id":"0.0-8.0-0.6","subject":"ssbt6p7rrf9as66","sona":"9643"},{"rt":null,"stimulus":"<div style=\"font-size:60px;\">+</div>","key_press":null,"trial_type":"html-keyboard-response","trial_index":32,"time_elapsed":71859,"internal_node_id":"0.0-8.0-1.6","subject":"ssbt6p7rrf9as66","sona":"9643"},{"trial_type":"turing-test","trial_index":33,"time_elapsed":75406,"internal_node_id":"0.0-8.0-2.6","subject":"ssbt6p7rrf9as66","sona":"9643"},{"rt":373,"stimulus":"<p>Welche Sequenz haben Sie als natürlicher empfunden?</p>","key_press":70,"test_part":"response","test_stimulus":{"position":1,"left":"bvh/vr_prediction_models/model(vcgpdm)-dataset(pass-bottle-hold)-mode(ELBO)-parts(1)-dyn(10)-lvm(30)-hold(3)/final-lines.txt","right":"bvh/pass-bottle-hold-training3-lines.txt","att_check":false},"trial_type":"html-keyboard-response","trial_index":34,"time_elapsed":75785,"internal_node_id":"0.0-8.0-3.6","subject":"ssbt6p7rrf9as66","sona":"9643"},{"rt":199,"stimulus":"<p>Bereit?</p>","key_press":32,"trial_type":"html-keyboard-response","trial_index":35,"time_elapsed":75991,"internal_node_id":"0.0-8.0-0.7","subject":"ssbt6p7rrf9as66","sona":"9643"},{"rt":null,"stimulus":"<div style=\"font-size:60px;\">+</div>","key_press":null,"trial_type":"html-keyboard-response","trial_index":36,"time_elapsed":78023,"internal_node_id":"0.0-8.0-1.7","subject":"ssbt6p7rrf9as66","sona":"9643"},{"trial_type":"turing-test","trial_index":37,"time_elapsed":81329,"internal_node_id":"0.0-8.0-2.7","subject":"ssbt6p7rrf9as66","sona":"9643"},{"rt":149,"stimulus":"<p>Welche Sequenz haben Sie als natürlicher empfunden?</p>","key_press":70,"test_part":"response","test_stimulus":{"position":0,"left":"bvh/pass-bottle-hold-training0-lines.txt","right":"bvh/vr_prediction_models/model(vcgpdm)-dataset(pass-bottle-hold)-mode(ELBO)-parts(1)-dyn(30)-lvm(35)-hold(0)/final-lines.txt","att_check":false},"trial_type":"html-keyboard-response","trial_index":38,"time_elapsed":81483,"internal_node_id":"0.0-8.0-3.7","subject":"ssbt6p7rrf9as66","sona":"9643"},{"rt":300,"stimulus":"<p>Bereit?</p>","key_press":32,"trial_type":"html-keyboard-response","trial_index":39,"time_elapsed":81787,"internal_node_id":"0.0-8.0-0.8","subject":"ssbt6p7rrf9as66","sona":"9643"},{"rt":null,"stimulus":"<div style=\"font-size:60px;\">+</div>","key_press":null,"trial_type":"html-keyboard-response","trial_index":40,"time_elapsed":83829,"internal_node_id":"0.0-8.0-1.8","subject":"ssbt6p7rrf9as66","sona":"9643"},{"trial_type":"turing-test","trial_index":41,"time_elapsed":89370,"internal_node_id":"0.0-8.0-2.8","subject":"ssbt6p7rrf9as66","sona":"9643"},{"rt":342,"stimulus":"<p>Welche Sequenz haben Sie als natürlicher empfunden?</p>","key_press":70,"test_part":"response","test_stimulus":{"position":0,"left":"bvh/pass-bottle-training1-lines.txt","right":"bvh/vr_prediction_models/model(vcgpdm)-dataset(pass-bottle)-mode(ELBO)-parts(3)-dyn(20)-lvm(35)-hold(1)/final-lines.txt","att_check":false},"trial_type":"html-keyboard-response","trial_index":42,"time_elapsed":89715,"internal_node_id":"0.0-8.0-3.8","subject":"ssbt6p7rrf9as66","sona":"9643"},{"rt":158,"stimulus":"<p>Bereit?</p>","key_press":32,"trial_type":"html-keyboard-response","trial_index":43,"time_elapsed":89876,"internal_node_id":"0.0-8.0-0.9","subject":"ssbt6p7rrf9as66","sona":"9643"},{"rt":null,"stimulus":"<div style=\"font-size:60px;\">+</div>","key_press":null,"trial_type":"html-keyboard-response","trial_index":44,"time_elapsed":91899,"internal_node_id":"0.0-8.0-1.9","subject":"ssbt6p7rrf9as66","sona":"9643"},{"trial_type":"turing-test","trial_index":45,"time_elapsed":98143,"internal_node_id":"0.0-8.0-2.9","subject":"ssbt6p7rrf9as66","sona":"9643"},{"rt":358,"stimulus":"<p>Welche Sequenz haben Sie als natürlicher empfunden?</p>","key_press":74,"test_part":"response","test_stimulus":{"position":1,"left":"bvh/vr_prediction_models/model(vcgpdm)-dataset(pass-bottle)-mode(ELBO)-parts(1)-dyn(30)-lvm(35)-hold(2)/final-lines.txt","right":"bvh/pass-bottle-training2-lines.txt","att_check":false},"trial_type":"html-keyboard-response","trial_index":46,"time_elapsed":98505,"internal_node_id":"0.0-8.0-3.9","subject":"ssbt6p7rrf9as66","sona":"9643"},{"rt":205,"stimulus":"<p>Bereit?</p>","key_press":32,"trial_type":"html-keyboard-response","trial_index":47,"time_elapsed":98714,"internal_node_id":"0.0-8.0-0.10","subject":"ssbt6p7rrf9as66","sona":"9643"},{"rt":null,"stimulus":"<div style=\"font-size:60px;\">+</div>","key_press":null,"trial_type":"html-keyboard-response","trial_index":48,"time_elapsed":100733,"internal_node_id":"0.0-8.0-1.10","subject":"ssbt6p7rrf9as66","sona":"9643"},{"trial_type":"turing-test","trial_index":49,"time_elapsed":104161,"internal_node_id":"0.0-8.0-2.10","subject":"ssbt6p7rrf9as66","sona":"9643"},{"rt":317,"stimulus":"<p>Welche Sequenz haben Sie als natürlicher empfunden?</p>","key_press":74,"test_part":"response","test_stimulus":{"position":1,"left":"bvh/vr_prediction_models/model(vcgpdm)-dataset(pass-bottle-hold)-mode(ELBO)-parts(3)-dyn(15)-lvm(30)-hold(1)/final-lines.txt","right":"bvh/pass-bottle-hold-training1-lines.txt","att_check":false},"trial_type":"html-keyboard-response","trial_index":50,"time_elapsed":104481,"internal_node_id":"0.0-8.0-3.10","subject":"ssbt6p7rrf9as66","sona":"9643"},{"rt":120,"stimulus":"<p>Bereit?</p>","key_press":32,"trial_type":"html-keyboard-response","trial_index":51,"time_elapsed":104605,"internal_node_id":"0.0-8.0-0.11","subject":"ssbt6p7rrf9as66","sona":"9643"},{"rt":null,"stimulus":"<div style=\"font-size:60px;\">+</div>","key_press":null,"trial_type":"html-keyboard-response","trial_index":52,"time_elapsed":106632,"internal_node_id":"0.0-8.0-1.11","subject":"ssbt6p7rrf9as66","sona":"9643"},{"trial_type":"turing-test","trial_index":53,"time_elapsed":112803,"internal_node_id":"0.0-8.0-2.11","subject":"ssbt6p7rrf9as66","sona":"9643"}]