[{"rt":1341,"stimulus":"<p>Welcome!<br> Please choose your language to start the experiment in the chosen language.</p><p>Willkommen!<br> Bitte wählen Sie eine Sprache um das Experiment in der ausgewählten Sprache zu starten</p>","button_pressed":"0","trial_type":"html-button-response","trial_index":0,"time_elapsed":1348,"internal_node_id":"0.0-0.0","subject":"gmtg8wzak6mbe0r"},{"view_history":"[{\"page_index\":0,\"viewing_time\":836},{\"page_index\":1,\"viewing_time\":664},{\"page_index\":2,\"viewing_time\":405},{\"page_index\":3,\"viewing_time\":390}]","rt":2296,"trial_type":"instructions","trial_index":1,"time_elapsed":3646,"internal_node_id":"0.0-2.0-0.0","subject":"gmtg8wzak6mbe0r"},{"rt":715,"stimulus":"<p>Ready?</p>","button_pressed":"0","trial_type":"html-button-response","trial_index":2,"time_elapsed":4363,"internal_node_id":"0.0-3.0","subject":"gmtg8wzak6mbe0r"},{"rt":null,"stimulus":"<div style=\"font-size:60px;\">+</div>","key_press":null,"trial_type":"html-keyboard-response","trial_index":3,"time_elapsed":6365,"internal_node_id":"0.0-4.0","subject":"gmtg8wzak6mbe0r"},{"trial_type":"training","trial_index":4,"time_elapsed":9595,"internal_node_id":"0.0-5.0","subject":"gmtg8wzak6mbe0r"},{"rt":822,"stimulus":"<p>Which sequence did you perceive as more natural?</p>","button_pressed":"1","trial_type":"html-button-response","trial_index":5,"time_elapsed":10418,"internal_node_id":"0.0-6.0","subject":"gmtg8wzak6mbe0r"},{"rt":590,"stimulus":"<p>The experiment starts now.</p><p>Please click the button if you are ready.</p>","button_pressed":"0","trial_type":"html-button-response","trial_index":6,"time_elapsed":11009,"internal_node_id":"0.0-7.0","subject":"gmtg8wzak6mbe0r"},{"rt":685,"stimulus":"<p>Ready?</p>","button_pressed":"0","trial_type":"html-button-response","trial_index":7,"time_elapsed":11697,"internal_node_id":"0.0-8.0-0.0","subject":"gmtg8wzak6mbe0r"},{"rt":null,"stimulus":"<div style=\"font-size:60px;\">+</div>","key_press":null,"trial_type":"html-keyboard-response","trial_index":8,"time_elapsed":13699,"internal_node_id":"0.0-8.0-1.0","subject":"gmtg8wzak6mbe0r"},{"trial_type":"turing-test","trial_index":9,"time_elapsed":17012,"internal_node_id":"0.0-8.0-2.0","subject":"gmtg8wzak6mbe0r"},{"rt":941,"stimulus":"<p>Which sequence did you perceive as more natural?</p>","button_pressed":"1","test_part":"response","test_stimulus":{"position":0,"left":"bvh/return-bottle-hold-training1-lines.txt","right":"bvh/vr_prediction_models/model(tmp)-dataset(return-bottle-hold)-numprim(3)-hold(1)/final-lines.txt","att_check":false},"trial_type":"html-button-response","trial_index":10,"time_elapsed":17956,"internal_node_id":"0.0-8.0-3.0","subject":"gmtg8wzak6mbe0r"},{"rt":817,"stimulus":"<p>Ready?</p>","button_pressed":"0","trial_type":"html-button-response","trial_index":11,"time_elapsed":18775,"internal_node_id":"0.0-8.0-0.1","subject":"gmtg8wzak6mbe0r"},{"rt":null,"stimulus":"<div style=\"font-size:60px;\">+</div>","key_press":null,"trial_type":"html-keyboard-response","trial_index":12,"time_elapsed":20777,"internal_node_id":"0.0-8.0-1.1","subject":"gmtg8wzak6mbe0r"},{"trial_type":"turing-test","trial_index":13,"time_elapsed":24065,"internal_node_id":"0.0-8.0-2.1","subject":"gmtg8wzak6mbe0r"},{"rt":1143,"stimulus":"<p>Which sequence did you perceive as more natural?</p>","button_pressed":"0","test_part":"response","test_stimulus":{"position":1,"left":"bvh/vr_prediction_models/model(tmp)-dataset(pass-bottle-hold)-numprim(6)-hold(2)/final-lines.txt","right":"bvh/pass-bottle-hold-training2-lines.txt","att_check":false},"trial_type":"html-button-response","trial_index":14,"time_elapsed":25210,"internal_node_id":"0.0-8.0-3.1","subject":"gmtg8wzak6mbe0r"},{"rt":812,"stimulus":"<p>Ready?</p>","button_pressed":"0","trial_type":"html-button-response","trial_index":15,"time_elapsed":26023,"internal_node_id":"0.0-8.0-0.2","subject":"gmtg8wzak6mbe0r"},{"rt":null,"stimulus":"<div style=\"font-size:60px;\">+</div>","key_press":null,"trial_type":"html-keyboard-response","trial_index":16,"time_elapsed":28026,"internal_node_id":"0.0-8.0-1.2","subject":"gmtg8wzak6mbe0r"},{"trial_type":"turing-test","trial_index":17,"time_elapsed":33932,"internal_node_id":"0.0-8.0-2.2","subject":"gmtg8wzak6mbe0r"},{"rt":1346,"stimulus":"<p>Which sequence did you perceive as more natural?</p>","button_pressed":"0","test_part":"response","test_stimulus":{"position":1,"left":"bvh/vr_prediction_models/model(vcgpdm)-dataset(return-bottle)-mode(ELBO)-parts(3)-dyn(10)-lvm(10)-hold(3)/final-lines.txt","right":"bvh/return-bottle-training3-lines.txt","att_check":false},"trial_type":"html-button-response","trial_index":18,"time_elapsed":35284,"internal_node_id":"0.0-8.0-3.2","subject":"gmtg8wzak6mbe0r"},{"rt":1055,"stimulus":"<p>Ready?</p>","button_pressed":"0","trial_type":"html-button-response","trial_index":19,"time_elapsed":36342,"internal_node_id":"0.0-8.0-0.3","subject":"gmtg8wzak6mbe0r"},{"rt":null,"stimulus":"<div style=\"font-size:60px;\">+</div>","key_press":null,"trial_type":"html-keyboard-response","trial_index":20,"time_elapsed":38345,"internal_node_id":"0.0-8.0-1.3","subject":"gmtg8wzak6mbe0r"},{"trial_type":"turing-test","trial_index":21,"time_elapsed":44985,"internal_node_id":"0.0-8.0-2.3","subject":"gmtg8wzak6mbe0r"},{"rt":2388,"stimulus":"<p>Which sequence did you perceive as more natural?</p>","button_pressed":"0","test_part":"response","test_stimulus":{"position":1,"left":"bvh/vr_prediction_models/model(vcgpdm)-dataset(return-bottle)-mode(ELBO)-parts(3)-dyn(35)-lvm(20)-hold(2)/final-lines.txt","right":"bvh/return-bottle-training2-lines.txt","att_check":false},"trial_type":"html-button-response","trial_index":22,"time_elapsed":47378,"internal_node_id":"0.0-8.0-3.3","subject":"gmtg8wzak6mbe0r"},{"rt":1234,"stimulus":"<p>Ready?</p>","button_pressed":"0","trial_type":"html-button-response","trial_index":23,"time_elapsed":48616,"internal_node_id":"0.0-8.0-0.4","subject":"gmtg8wzak6mbe0r"},{"rt":null,"stimulus":"<div style=\"font-size:60px;\">+</div>","key_press":null,"trial_type":"html-keyboard-response","trial_index":24,"time_elapsed":50618,"internal_node_id":"0.0-8.0-1.4","subject":"gmtg8wzak6mbe0r"},{"trial_type":"turing-test","trial_index":25,"time_elapsed":54104,"internal_node_id":"0.0-8.0-2.4","subject":"gmtg8wzak6mbe0r"},{"rt":44131,"stimulus":"<p>Which sequence did you perceive as more natural?</p>","button_pressed":"1","test_part":"response","test_stimulus":{"position":1,"left":"bvh/vr_prediction_models/model(vcgpdm)-dataset(pass-bottle-hold)-mode(ELBO)-parts(3)-dyn(15)-lvm(30)-hold(2)/final-lines.txt","right":"bvh/pass-bottle-hold-training2-lines.txt","att_check":false},"trial_type":"html-button-response","trial_index":26,"time_elapsed":98239,"internal_node_id":"0.0-8.0-3.4","subject":"gmtg8wzak6mbe0r"},{"rt":708,"stimulus":"<p>Ready?</p>","button_pressed":"0","trial_type":"html-button-response","trial_index":27,"time_elapsed":98953,"internal_node_id":"0.0-8.0-0.5","subject":"gmtg8wzak6mbe0r"},{"rt":null,"stimulus":"<div style=\"font-size:60px;\">+</div>","key_press":null,"trial_type":"html-keyboard-response","trial_index":28,"time_elapsed":100954,"internal_node_id":"0.0-8.0-1.5","subject":"gmtg8wzak6mbe0r"},{"trial_type":"turing-test","trial_index":29,"time_elapsed":104708,"internal_node_id":"0.0-8.0-2.5","subject":"gmtg8wzak6mbe0r"},{"rt":1090,"stimulus":"<p>Which sequence did you perceive as more natural?</p>","button_pressed":"1","test_part":"response","test_stimulus":{"position":1,"left":"bvh/vr_prediction_models/model(vcgpdm)-dataset(return-bottle-hold)-mode(ELBO)-parts(1)-dyn(20)-lvm(20)-hold(3)/final-lines.txt","right":"bvh/return-bottle-hold-training3-lines.txt","att_check":false},"trial_type":"html-button-response","trial_index":30,"time_elapsed":105802,"internal_node_id":"0.0-8.0-3.5","subject":"gmtg8wzak6mbe0r"},{"rt":842,"stimulus":"<p>Ready?</p>","button_pressed":"0","trial_type":"html-button-response","trial_index":31,"time_elapsed":106647,"internal_node_id":"0.0-8.0-0.6","subject":"gmtg8wzak6mbe0r"},{"rt":null,"stimulus":"<div style=\"font-size:60px;\">+</div>","key_press":null,"trial_type":"html-keyboard-response","trial_index":32,"time_elapsed":108649,"internal_node_id":"0.0-8.0-1.6","subject":"gmtg8wzak6mbe0r"},{"trial_type":"turing-test","trial_index":33,"time_elapsed":112204,"internal_node_id":"0.0-8.0-2.6","subject":"gmtg8wzak6mbe0r"},{"rt":955,"stimulus":"<p>Which sequence did you perceive as more natural?</p>","button_pressed":"0","test_part":"response","test_stimulus":{"position":0,"left":"bvh/pass-bottle-hold-training4-lines.txt","right":"bvh/vr_prediction_models/model(dmp)-dataset(pass-bottle-hold)-npsi(40)-hold(4)/final-lines.txt","att_check":true},"trial_type":"html-button-response","trial_index":34,"time_elapsed":113162,"internal_node_id":"0.0-8.0-3.6","subject":"gmtg8wzak6mbe0r"},{"rt":678,"stimulus":"<p>Ready?</p>","button_pressed":"0","trial_type":"html-button-response","trial_index":35,"time_elapsed":113844,"internal_node_id":"0.0-8.0-0.7","subject":"gmtg8wzak6mbe0r"},{"rt":null,"stimulus":"<div style=\"font-size:60px;\">+</div>","key_press":null,"trial_type":"html-keyboard-response","trial_index":36,"time_elapsed":115846,"internal_node_id":"0.0-8.0-1.7","subject":"gmtg8wzak6mbe0r"},{"trial_type":"turing-test","trial_index":37,"time_elapsed":121718,"internal_node_id":"0.0-8.0-2.7","subject":"gmtg8wzak6mbe0r"},{"rt":879,"stimulus":"<p>Which sequence did you perceive as more natural?</p>","button_pressed":"1","test_part":"response","test_stimulus":{"position":1,"left":"bvh/vr_prediction_models/model(vcgpdm)-dataset(pass-bottle)-mode(ELBO)-parts(3)-dyn(20)-lvm(20)-hold(3)/final-lines.txt","right":"bvh/pass-bottle-training3-lines.txt","att_check":false},"trial_type":"html-button-response","trial_index":38,"time_elapsed":122599,"internal_node_id":"0.0-8.0-3.7","subject":"gmtg8wzak6mbe0r"},{"rt":1256,"stimulus":"<p>Ready?</p>","button_pressed":"0","trial_type":"html-button-response","trial_index":39,"time_elapsed":123859,"internal_node_id":"0.0-8.0-0.8","subject":"gmtg8wzak6mbe0r"},{"rt":null,"stimulus":"<div style=\"font-size:60px;\">+</div>","key_press":null,"trial_type":"html-keyboard-response","trial_index":40,"time_elapsed":125860,"internal_node_id":"0.0-8.0-1.8","subject":"gmtg8wzak6mbe0r"},{"trial_type":"turing-test","trial_index":41,"time_elapsed":131681,"internal_node_id":"0.0-8.0-2.8","subject":"gmtg8wzak6mbe0r"},{"rt":905,"stimulus":"<p>Which sequence did you perceive as more natural?</p>","button_pressed":"1","test_part":"response","test_stimulus":{"position":1,"left":"bvh/vr_prediction_models/model(vcgpdm)-dataset(pass-bottle)-mode(ELBO)-parts(3)-dyn(25)-lvm(30)-hold(4)/final-lines.txt","right":"bvh/pass-bottle-training4-lines.txt","att_check":false},"trial_type":"html-button-response","trial_index":42,"time_elapsed":132592,"internal_node_id":"0.0-8.0-3.8","subject":"gmtg8wzak6mbe0r"},{"rt":731,"stimulus":"<p>Ready?</p>","button_pressed":"0","trial_type":"html-button-response","trial_index":43,"time_elapsed":133325,"internal_node_id":"0.0-8.0-0.9","subject":"gmtg8wzak6mbe0r"},{"rt":null,"stimulus":"<div style=\"font-size:60px;\">+</div>","key_press":null,"trial_type":"html-keyboard-response","trial_index":44,"time_elapsed":135326,"internal_node_id":"0.0-8.0-1.9","subject":"gmtg8wzak6mbe0r"},{"trial_type":"turing-test","trial_index":45,"time_elapsed":139219,"internal_node_id":"0.0-8.0-2.9","subject":"gmtg8wzak6mbe0r"},{"rt":984,"stimulus":"<p>Which sequence did you perceive as more natural?</p>","button_pressed":"1","test_part":"response","test_stimulus":{"position":1,"left":"bvh/vr_prediction_models/model(vcgpdm)-dataset(return-bottle-hold)-mode(ELBO)-parts(3)-dyn(25)-lvm(15)-hold(4)/final-lines.txt","right":"bvh/return-bottle-hold-training4-lines.txt","att_check":false},"trial_type":"html-button-response","trial_index":46,"time_elapsed":140207,"internal_node_id":"0.0-8.0-3.9","subject":"gmtg8wzak6mbe0r"},{"rt":640,"stimulus":"<p>Ready?</p>","button_pressed":"0","trial_type":"html-button-response","trial_index":47,"time_elapsed":140850,"internal_node_id":"0.0-8.0-0.10","subject":"gmtg8wzak6mbe0r"},{"rt":null,"stimulus":"<div style=\"font-size:60px;\">+</div>","key_press":null,"trial_type":"html-keyboard-response","trial_index":48,"time_elapsed":142851,"internal_node_id":"0.0-8.0-1.10","subject":"gmtg8wzak6mbe0r"},{"trial_type":"turing-test","trial_index":49,"time_elapsed":147929,"internal_node_id":"0.0-8.0-2.10","subject":"gmtg8wzak6mbe0r"},{"rt":872,"stimulus":"<p>Which sequence did you perceive as more natural?</p>","button_pressed":"1","test_part":"response","test_stimulus":{"position":1,"left":"bvh/vr_prediction_models/model(tmp)-dataset(return-bottle-hold)-numprim(6)-hold(0)/final-lines.txt","right":"bvh/return-bottle-hold-training0-lines.txt","att_check":false},"trial_type":"html-button-response","trial_index":50,"time_elapsed":148804,"internal_node_id":"0.0-8.0-3.10","subject":"gmtg8wzak6mbe0r"},{"rt":812,"stimulus":"<p>Ready?</p>","button_pressed":"0","trial_type":"html-button-response","trial_index":51,"time_elapsed":149619,"internal_node_id":"0.0-8.0-0.11","subject":"gmtg8wzak6mbe0r"},{"rt":null,"stimulus":"<div style=\"font-size:60px;\">+</div>","key_press":null,"trial_type":"html-keyboard-response","trial_index":52,"time_elapsed":151620,"internal_node_id":"0.0-8.0-1.11","subject":"gmtg8wzak6mbe0r"},{"trial_type":"turing-test","trial_index":53,"time_elapsed":158141,"internal_node_id":"0.0-8.0-2.11","subject":"gmtg8wzak6mbe0r"},{"rt":1152,"stimulus":"<p>Which sequence did you perceive as more natural?</p>","button_pressed":"1","test_part":"response","test_stimulus":{"position":1,"left":"bvh/vr_prediction_models/model(dmp)-dataset(return-bottle)-npsi(10)-hold(2)/final-lines.txt","right":"bvh/return-bottle-training2-lines.txt","att_check":true},"trial_type":"html-button-response","trial_index":54,"time_elapsed":159295,"internal_node_id":"0.0-8.0-3.11","subject":"gmtg8wzak6mbe0r"},{"rt":808,"stimulus":"<p>Ready?</p>","button_pressed":"0","trial_type":"html-button-response","trial_index":55,"time_elapsed":160108,"internal_node_id":"0.0-8.0-0.12","subject":"gmtg8wzak6mbe0r"},{"rt":null,"stimulus":"<div style=\"font-size:60px;\">+</div>","key_press":null,"trial_type":"html-keyboard-response","trial_index":56,"time_elapsed":162110,"internal_node_id":"0.0-8.0-1.12","subject":"gmtg8wzak6mbe0r"},{"trial_type":"turing-test","trial_index":57,"time_elapsed":167872,"internal_node_id":"0.0-8.0-2.12","subject":"gmtg8wzak6mbe0r"},{"rt":804,"stimulus":"<p>Which sequence did you perceive as more natural?</p>","button_pressed":"1","test_part":"response","test_stimulus":{"position":1,"left":"bvh/vr_prediction_models/model(tmp)-dataset(return-bottle)-numprim(12)-hold(4)/final-lines.txt","right":"bvh/return-bottle-training4-lines.txt","att_check":false},"trial_type":"html-button-response","trial_index":58,"time_elapsed":168678,"internal_node_id":"0.0-8.0-3.12","subject":"gmtg8wzak6mbe0r"},{"rt":738,"stimulus":"<p>Ready?</p>","button_pressed":"0","trial_type":"html-button-response","trial_index":59,"time_elapsed":169418,"internal_node_id":"0.0-8.0-0.13","subject":"gmtg8wzak6mbe0r"},{"rt":null,"stimulus":"<div style=\"font-size:60px;\">+</div>","key_press":null,"trial_type":"html-keyboard-response","trial_index":60,"time_elapsed":171420,"internal_node_id":"0.0-8.0-1.13","subject":"gmtg8wzak6mbe0r"},{"trial_type":"turing-test","trial_index":61,"time_elapsed":175016,"internal_node_id":"0.0-8.0-2.13","subject":"gmtg8wzak6mbe0r"},{"rt":843,"stimulus":"<p>Which sequence did you perceive as more natural?</p>","button_pressed":"1","test_part":"response","test_stimulus":{"position":1,"left":"bvh/vr_prediction_models/model(vcgpdm)-dataset(return-bottle-hold)-mode(ELBO)-parts(3)-dyn(25)-lvm(25)-hold(2)/final-lines.txt","right":"bvh/return-bottle-hold-training2-lines.txt","att_check":false},"trial_type":"html-button-response","trial_index":62,"time_elapsed":175862,"internal_node_id":"0.0-8.0-3.13","subject":"gmtg8wzak6mbe0r"},{"rt":591,"stimulus":"<p>Ready?</p>","button_pressed":"0","trial_type":"html-button-response","trial_index":63,"time_elapsed":176456,"internal_node_id":"0.0-8.0-0.14","subject":"gmtg8wzak6mbe0r"},{"rt":null,"stimulus":"<div style=\"font-size:60px;\">+</div>","key_press":null,"trial_type":"html-keyboard-response","trial_index":64,"time_elapsed":178457,"internal_node_id":"0.0-8.0-1.14","subject":"gmtg8wzak6mbe0r"},{"trial_type":"turing-test","trial_index":65,"time_elapsed":184561,"internal_node_id":"0.0-8.0-2.14","subject":"gmtg8wzak6mbe0r"},{"rt":896,"stimulus":"<p>Which sequence did you perceive as more natural?</p>","button_pressed":"1","test_part":"response","test_stimulus":{"position":0,"left":"bvh/return-bottle-training1-lines.txt","right":"bvh/vr_prediction_models/model(tmp)-dataset(return-bottle)-numprim(9)-hold(1)/final-lines.txt","att_check":false},"trial_type":"html-button-response","trial_index":66,"time_elapsed":185463,"internal_node_id":"0.0-8.0-3.14","subject":"gmtg8wzak6mbe0r"},{"rt":748,"stimulus":"<p>Ready?</p>","button_pressed":"0","trial_type":"html-button-response","trial_index":67,"time_elapsed":186216,"internal_node_id":"0.0-8.0-0.15","subject":"gmtg8wzak6mbe0r"},{"rt":null,"stimulus":"<div style=\"font-size:60px;\">+</div>","key_press":null,"trial_type":"html-keyboard-response","trial_index":68,"time_elapsed":188217,"internal_node_id":"0.0-8.0-1.15","subject":"gmtg8wzak6mbe0r"},{"trial_type":"turing-test","trial_index":69,"time_elapsed":191881,"internal_node_id":"0.0-8.0-2.15","subject":"gmtg8wzak6mbe0r"},{"rt":883,"stimulus":"<p>Which sequence did you perceive as more natural?</p>","button_pressed":"1","test_part":"response","test_stimulus":{"position":0,"left":"bvh/pass-bottle-hold-training3-lines.txt","right":"bvh/vr_prediction_models/model(vcgpdm)-dataset(pass-bottle-hold)-mode(ELBO)-parts(1)-dyn(35)-lvm(10)-hold(3)/final-lines.txt","att_check":false},"trial_type":"html-button-response","trial_index":70,"time_elapsed":192766,"internal_node_id":"0.0-8.0-3.15","subject":"gmtg8wzak6mbe0r"},{"rt":786,"stimulus":"<p>Ready?</p>","button_pressed":"0","trial_type":"html-button-response","trial_index":71,"time_elapsed":193557,"internal_node_id":"0.0-8.0-0.16","subject":"gmtg8wzak6mbe0r"},{"rt":null,"stimulus":"<div style=\"font-size:60px;\">+</div>","key_press":null,"trial_type":"html-keyboard-response","trial_index":72,"time_elapsed":195558,"internal_node_id":"0.0-8.0-1.16","subject":"gmtg8wzak6mbe0r"},{"trial_type":"turing-test","trial_index":73,"time_elapsed":202359,"internal_node_id":"0.0-8.0-2.16","subject":"gmtg8wzak6mbe0r"},{"rt":925,"stimulus":"<p>Which sequence did you perceive as more natural?</p>","button_pressed":"1","test_part":"response","test_stimulus":{"position":0,"left":"bvh/pass-bottle-training0-lines.txt","right":"bvh/vr_prediction_models/model(vcgpdm)-dataset(pass-bottle)-mode(ELBO)-parts(3)-dyn(10)-lvm(30)-hold(0)/final-lines.txt","att_check":false},"trial_type":"html-button-response","trial_index":74,"time_elapsed":203288,"internal_node_id":"0.0-8.0-3.16","subject":"gmtg8wzak6mbe0r"},{"rt":812,"stimulus":"<p>Ready?</p>","button_pressed":"0","trial_type":"html-button-response","trial_index":75,"time_elapsed":204103,"internal_node_id":"0.0-8.0-0.17","subject":"gmtg8wzak6mbe0r"},{"rt":null,"stimulus":"<div style=\"font-size:60px;\">+</div>","key_press":null,"trial_type":"html-keyboard-response","trial_index":76,"time_elapsed":206105,"internal_node_id":"0.0-8.0-1.17","subject":"gmtg8wzak6mbe0r"},{"trial_type":"turing-test","trial_index":77,"time_elapsed":211896,"internal_node_id":"0.0-8.0-2.17","subject":"gmtg8wzak6mbe0r"},{"rt":654,"stimulus":"<p>Which sequence did you perceive as more natural?</p>","button_pressed":"1","test_part":"response","test_stimulus":{"position":1,"left":"bvh/vr_prediction_models/model(dmp)-dataset(pass-bottle)-npsi(80)-hold(3)/final-lines.txt","right":"bvh/pass-bottle-training3-lines.txt","att_check":true},"trial_type":"html-button-response","trial_index":78,"time_elapsed":212553,"internal_node_id":"0.0-8.0-3.17","subject":"gmtg8wzak6mbe0r"},{"rt":1199,"stimulus":"<p>Ready?</p>","button_pressed":"0","trial_type":"html-button-response","trial_index":79,"time_elapsed":213755,"internal_node_id":"0.0-8.0-0.18","subject":"gmtg8wzak6mbe0r"},{"rt":null,"stimulus":"<div style=\"font-size:60px;\">+</div>","key_press":null,"trial_type":"html-keyboard-response","trial_index":80,"time_elapsed":215756,"internal_node_id":"0.0-8.0-1.18","subject":"gmtg8wzak6mbe0r"},{"trial_type":"turing-test","trial_index":81,"time_elapsed":221614,"internal_node_id":"0.0-8.0-2.18","subject":"gmtg8wzak6mbe0r"},{"rt":774,"stimulus":"<p>Which sequence did you perceive as more natural?</p>","button_pressed":"1","test_part":"response","test_stimulus":{"position":1,"left":"bvh/vr_prediction_models/model(vcgpdm)-dataset(return-bottle)-mode(ELBO)-parts(3)-dyn(10)-lvm(25)-hold(4)/final-lines.txt","right":"bvh/return-bottle-training4-lines.txt","att_check":false},"trial_type":"html-button-response","trial_index":82,"time_elapsed":222391,"internal_node_id":"0.0-8.0-3.18","subject":"gmtg8wzak6mbe0r"},{"rt":645,"stimulus":"<p>Ready?</p>","button_pressed":"0","trial_type":"html-button-response","trial_index":83,"time_elapsed":223039,"internal_node_id":"0.0-8.0-0.19","subject":"gmtg8wzak6mbe0r"},{"rt":null,"stimulus":"<div style=\"font-size:60px;\">+</div>","key_press":null,"trial_type":"html-keyboard-response","trial_index":84,"time_elapsed":225040,"internal_node_id":"0.0-8.0-1.19","subject":"gmtg8wzak6mbe0r"},{"trial_type":"turing-test","trial_index":85,"time_elapsed":231199,"internal_node_id":"0.0-8.0-2.19","subject":"gmtg8wzak6mbe0r"},{"rt":1491,"stimulus":"<p>Which sequence did you perceive as more natural?</p>","button_pressed":"1","test_part":"response","test_stimulus":{"position":0,"left":"bvh/pass-bottle-training2-lines.txt","right":"bvh/vr_prediction_models/model(tmp)-dataset(pass-bottle)-numprim(5)-hold(2)/final-lines.txt","att_check":false},"trial_type":"html-button-response","trial_index":86,"time_elapsed":232693,"internal_node_id":"0.0-8.0-3.19","subject":"gmtg8wzak6mbe0r"},{"rt":713,"stimulus":"<p>Ready?</p>","button_pressed":"0","trial_type":"html-button-response","trial_index":87,"time_elapsed":233408,"internal_node_id":"0.0-8.0-0.20","subject":"gmtg8wzak6mbe0r"},{"rt":null,"stimulus":"<div style=\"font-size:60px;\">+</div>","key_press":null,"trial_type":"html-keyboard-response","trial_index":88,"time_elapsed":235410,"internal_node_id":"0.0-8.0-1.20","subject":"gmtg8wzak6mbe0r"},{"trial_type":"turing-test","trial_index":89,"time_elapsed":241099,"internal_node_id":"0.0-8.0-2.20","subject":"gmtg8wzak6mbe0r"},{"rt":1063,"stimulus":"<p>Which sequence did you perceive as more natural?</p>","button_pressed":"1","test_part":"response","test_stimulus":{"position":0,"left":"bvh/return-bottle-training3-lines.txt","right":"bvh/vr_prediction_models/model(dmp)-dataset(return-bottle)-npsi(70)-hold(3)/final-lines.txt","att_check":false},"trial_type":"html-button-response","trial_index":90,"time_elapsed":242169,"internal_node_id":"0.0-8.0-3.20","subject":"gmtg8wzak6mbe0r"},{"rt":713,"stimulus":"<p>Ready?</p>","button_pressed":"0","trial_type":"html-button-response","trial_index":91,"time_elapsed":242885,"internal_node_id":"0.0-8.0-0.21","subject":"gmtg8wzak6mbe0r"},{"rt":null,"stimulus":"<div style=\"font-size:60px;\">+</div>","key_press":null,"trial_type":"html-keyboard-response","trial_index":92,"time_elapsed":244886,"internal_node_id":"0.0-8.0-1.21","subject":"gmtg8wzak6mbe0r"},{"trial_type":"turing-test","trial_index":93,"time_elapsed":248299,"internal_node_id":"0.0-8.0-2.21","subject":"gmtg8wzak6mbe0r"},{"rt":626,"stimulus":"<p>Which sequence did you perceive as more natural?</p>","button_pressed":"1","test_part":"response","test_stimulus":{"position":1,"left":"bvh/vr_prediction_models/model(vcgpdm)-dataset(return-bottle-hold)-mode(ELBO)-parts(1)-dyn(15)-lvm(35)-hold(1)/final-lines.txt","right":"bvh/return-bottle-hold-training1-lines.txt","att_check":false},"trial_type":"html-button-response","trial_index":94,"time_elapsed":248928,"internal_node_id":"0.0-8.0-3.21","subject":"gmtg8wzak6mbe0r"},{"rt":544,"stimulus":"<p>Ready?</p>","button_pressed":"0","trial_type":"html-button-response","trial_index":95,"time_elapsed":249475,"internal_node_id":"0.0-8.0-0.22","subject":"gmtg8wzak6mbe0r"},{"rt":null,"stimulus":"<div style=\"font-size:60px;\">+</div>","key_press":null,"trial_type":"html-keyboard-response","trial_index":96,"time_elapsed":251477,"internal_node_id":"0.0-8.0-1.22","subject":"gmtg8wzak6mbe0r"},{"trial_type":"turing-test","trial_index":97,"time_elapsed":257620,"internal_node_id":"0.0-8.0-2.22","subject":"gmtg8wzak6mbe0r"},{"rt":1166,"stimulus":"<p>Which sequence did you perceive as more natural?</p>","button_pressed":"0","test_part":"response","test_stimulus":{"position":0,"left":"bvh/pass-bottle-training2-lines.txt","right":"bvh/vr_prediction_models/model(vcgpdm)-dataset(pass-bottle)-mode(ELBO)-parts(3)-dyn(35)-lvm(20)-hold(2)/final-lines.txt","att_check":false},"trial_type":"html-button-response","trial_index":98,"time_elapsed":258790,"internal_node_id":"0.0-8.0-3.22","subject":"gmtg8wzak6mbe0r"},{"rt":678,"stimulus":"<p>Ready?</p>","button_pressed":"0","trial_type":"html-button-response","trial_index":99,"time_elapsed":259472,"internal_node_id":"0.0-8.0-0.23","subject":"gmtg8wzak6mbe0r"},{"rt":null,"stimulus":"<div style=\"font-size:60px;\">+</div>","key_press":null,"trial_type":"html-keyboard-response","trial_index":100,"time_elapsed":261475,"internal_node_id":"0.0-8.0-1.23","subject":"gmtg8wzak6mbe0r"},{"trial_type":"turing-test","trial_index":101,"time_elapsed":264749,"internal_node_id":"0.0-8.0-2.23","subject":"gmtg8wzak6mbe0r"},{"rt":1133,"stimulus":"<p>Which sequence did you perceive as more natural?</p>","button_pressed":"1","test_part":"response","test_stimulus":{"position":1,"left":"bvh/vr_prediction_models/model(dmp)-dataset(return-bottle-hold)-npsi(50)-hold(1)/final-lines.txt","right":"bvh/return-bottle-hold-training1-lines.txt","att_check":false},"trial_type":"html-button-response","trial_index":102,"time_elapsed":265886,"internal_node_id":"0.0-8.0-3.23","subject":"gmtg8wzak6mbe0r"},{"rt":758,"stimulus":"<p>Ready?</p>","button_pressed":"0","trial_type":"html-button-response","trial_index":103,"time_elapsed":266647,"internal_node_id":"0.0-8.0-0.24","subject":"gmtg8wzak6mbe0r"},{"rt":null,"stimulus":"<div style=\"font-size:60px;\">+</div>","key_press":null,"trial_type":"html-keyboard-response","trial_index":104,"time_elapsed":268649,"internal_node_id":"0.0-8.0-1.24","subject":"gmtg8wzak6mbe0r"},{"trial_type":"turing-test","trial_index":105,"time_elapsed":275077,"internal_node_id":"0.0-8.0-2.24","subject":"gmtg8wzak6mbe0r"},{"rt":1209,"stimulus":"<p>Which sequence did you perceive as more natural?</p>","button_pressed":"1","test_part":"response","test_stimulus":{"position":0,"left":"bvh/return-bottle-training2-lines.txt","right":"bvh/vr_prediction_models/model(vcgpdm)-dataset(return-bottle)-mode(ELBO)-parts(3)-dyn(35)-lvm(20)-hold(2)/final-lines.txt","att_check":false},"trial_type":"html-button-response","trial_index":106,"time_elapsed":276289,"internal_node_id":"0.0-8.0-3.24","subject":"gmtg8wzak6mbe0r"},{"rt":763,"stimulus":"<p>Ready?</p>","button_pressed":"0","trial_type":"html-button-response","trial_index":107,"time_elapsed":277057,"internal_node_id":"0.0-8.0-0.25","subject":"gmtg8wzak6mbe0r"},{"rt":null,"stimulus":"<div style=\"font-size:60px;\">+</div>","key_press":null,"trial_type":"html-keyboard-response","trial_index":108,"time_elapsed":279058,"internal_node_id":"0.0-8.0-1.25","subject":"gmtg8wzak6mbe0r"},{"trial_type":"turing-test","trial_index":109,"time_elapsed":284827,"internal_node_id":"0.0-8.0-2.25","subject":"gmtg8wzak6mbe0r"},{"rt":1052,"stimulus":"<p>Which sequence did you perceive as more natural?</p>","button_pressed":"1","test_part":"response","test_stimulus":{"position":1,"left":"bvh/vr_prediction_models/model(dmp)-dataset(pass-bottle)-npsi(10)-hold(3)/final-lines.txt","right":"bvh/pass-bottle-training3-lines.txt","att_check":false},"trial_type":"html-button-response","trial_index":110,"time_elapsed":285882,"internal_node_id":"0.0-8.0-3.25","subject":"gmtg8wzak6mbe0r"},{"rt":794,"stimulus":"<p>Ready?</p>","button_pressed":"0","trial_type":"html-button-response","trial_index":111,"time_elapsed":286679,"internal_node_id":"0.0-8.0-0.26","subject":"gmtg8wzak6mbe0r"},{"rt":null,"stimulus":"<div style=\"font-size:60px;\">+</div>","key_press":null,"trial_type":"html-keyboard-response","trial_index":112,"time_elapsed":288680,"internal_node_id":"0.0-8.0-1.26","subject":"gmtg8wzak6mbe0r"},{"trial_type":"turing-test","trial_index":113,"time_elapsed":294696,"internal_node_id":"0.0-8.0-2.26","subject":"gmtg8wzak6mbe0r"},{"rt":883,"stimulus":"<p>Which sequence did you perceive as more natural?</p>","button_pressed":"1","test_part":"response","test_stimulus":{"position":1,"left":"bvh/vr_prediction_models/model(dmp)-dataset(return-bottle)-npsi(20)-hold(1)/final-lines.txt","right":"bvh/return-bottle-training1-lines.txt","att_check":false},"trial_type":"html-button-response","trial_index":114,"time_elapsed":295583,"internal_node_id":"0.0-8.0-3.26","subject":"gmtg8wzak6mbe0r"},{"rt":842,"stimulus":"<p>Ready?</p>","button_pressed":"0","trial_type":"html-button-response","trial_index":115,"time_elapsed":296428,"internal_node_id":"0.0-8.0-0.27","subject":"gmtg8wzak6mbe0r"},{"rt":null,"stimulus":"<div style=\"font-size:60px;\">+</div>","key_press":null,"trial_type":"html-keyboard-response","trial_index":116,"time_elapsed":298430,"internal_node_id":"0.0-8.0-1.27","subject":"gmtg8wzak6mbe0r"},{"trial_type":"turing-test","trial_index":117,"time_elapsed":302127,"internal_node_id":"0.0-8.0-2.27","subject":"gmtg8wzak6mbe0r"},{"rt":674,"stimulus":"<p>Which sequence did you perceive as more natural?</p>","button_pressed":"1","test_part":"response","test_stimulus":{"position":0,"left":"bvh/return-bottle-hold-training4-lines.txt","right":"bvh/vr_prediction_models/model(tmp)-dataset(return-bottle-hold)-numprim(11)-hold(4)/final-lines.txt","att_check":false},"trial_type":"html-button-response","trial_index":118,"time_elapsed":302805,"internal_node_id":"0.0-8.0-3.27","subject":"gmtg8wzak6mbe0r"},{"rt":665,"stimulus":"<p>Ready?</p>","button_pressed":"0","trial_type":"html-button-response","trial_index":119,"time_elapsed":303473,"internal_node_id":"0.0-8.0-0.28","subject":"gmtg8wzak6mbe0r"},{"rt":null,"stimulus":"<div style=\"font-size:60px;\">+</div>","key_press":null,"trial_type":"html-keyboard-response","trial_index":120,"time_elapsed":305474,"internal_node_id":"0.0-8.0-1.28","subject":"gmtg8wzak6mbe0r"},{"trial_type":"turing-test","trial_index":121,"time_elapsed":311244,"internal_node_id":"0.0-8.0-2.28","subject":"gmtg8wzak6mbe0r"},{"rt":718,"stimulus":"<p>Which sequence did you perceive as more natural?</p>","button_pressed":"1","test_part":"response","test_stimulus":{"position":0,"left":"bvh/pass-bottle-training4-lines.txt","right":"bvh/vr_prediction_models/model(vcgpdm)-dataset(pass-bottle)-mode(ELBO)-parts(1)-dyn(35)-lvm(10)-hold(4)/final-lines.txt","att_check":false},"trial_type":"html-button-response","trial_index":122,"time_elapsed":311965,"internal_node_id":"0.0-8.0-3.28","subject":"gmtg8wzak6mbe0r"},{"rt":542,"stimulus":"<p>Ready?</p>","button_pressed":"0","trial_type":"html-button-response","trial_index":123,"time_elapsed":312510,"internal_node_id":"0.0-8.0-0.29","subject":"gmtg8wzak6mbe0r"},{"rt":null,"stimulus":"<div style=\"font-size:60px;\">+</div>","key_press":null,"trial_type":"html-keyboard-response","trial_index":124,"time_elapsed":314512,"internal_node_id":"0.0-8.0-1.29","subject":"gmtg8wzak6mbe0r"},{"trial_type":"turing-test","trial_index":125,"time_elapsed":317789,"internal_node_id":"0.0-8.0-2.29","subject":"gmtg8wzak6mbe0r"},{"rt":1088,"stimulus":"<p>Which sequence did you perceive as more natural?</p>","button_pressed":"1","test_part":"response","test_stimulus":{"position":1,"left":"bvh/vr_prediction_models/model(dmp)-dataset(return-bottle-hold)-npsi(40)-hold(1)/final-lines.txt","right":"bvh/return-bottle-hold-training1-lines.txt","att_check":false},"trial_type":"html-button-response","trial_index":126,"time_elapsed":318882,"internal_node_id":"0.0-8.0-3.29","subject":"gmtg8wzak6mbe0r"},{"rt":2442,"stimulus":"<p>Ready?</p>","button_pressed":"0","trial_type":"html-button-response","trial_index":127,"time_elapsed":321327,"internal_node_id":"0.0-8.0-0.30","subject":"gmtg8wzak6mbe0r"},{"rt":null,"stimulus":"<div style=\"font-size:60px;\">+</div>","key_press":null,"trial_type":"html-keyboard-response","trial_index":128,"time_elapsed":323327,"internal_node_id":"0.0-8.0-1.30","subject":"gmtg8wzak6mbe0r"},{"trial_type":"turing-test","trial_index":129,"time_elapsed":326621,"internal_node_id":"0.0-8.0-2.30","subject":"gmtg8wzak6mbe0r"},{"rt":1079,"stimulus":"<p>Which sequence did you perceive as more natural?</p>","button_pressed":"1","test_part":"response","test_stimulus":{"position":1,"left":"bvh/vr_prediction_models/model(vcgpdm)-dataset(pass-bottle-hold)-mode(ELBO)-parts(3)-dyn(30)-lvm(15)-hold(1)/final-lines.txt","right":"bvh/pass-bottle-hold-training1-lines.txt","att_check":false},"trial_type":"html-button-response","trial_index":130,"time_elapsed":327702,"internal_node_id":"0.0-8.0-3.30","subject":"gmtg8wzak6mbe0r"},{"rt":1768,"stimulus":"<p>Ready?</p>","button_pressed":"0","trial_type":"html-button-response","trial_index":131,"time_elapsed":329477,"internal_node_id":"0.0-8.0-0.31","subject":"gmtg8wzak6mbe0r"},{"rt":null,"stimulus":"<div style=\"font-size:60px;\">+</div>","key_press":null,"trial_type":"html-keyboard-response","trial_index":132,"time_elapsed":331479,"internal_node_id":"0.0-8.0-1.31","subject":"gmtg8wzak6mbe0r"},{"trial_type":"turing-test","trial_index":133,"time_elapsed":334813,"internal_node_id":"0.0-8.0-2.31","subject":"gmtg8wzak6mbe0r"},{"rt":985,"stimulus":"<p>Which sequence did you perceive as more natural?</p>","button_pressed":"1","test_part":"response","test_stimulus":{"position":0,"left":"bvh/return-bottle-hold-training1-lines.txt","right":"bvh/vr_prediction_models/model(tmp)-dataset(return-bottle-hold)-numprim(9)-hold(1)/final-lines.txt","att_check":false},"trial_type":"html-button-response","trial_index":134,"time_elapsed":335800,"internal_node_id":"0.0-8.0-3.31","subject":"gmtg8wzak6mbe0r"},{"rt":631,"stimulus":"<p>Ready?</p>","button_pressed":"0","trial_type":"html-button-response","trial_index":135,"time_elapsed":336434,"internal_node_id":"0.0-8.0-0.32","subject":"gmtg8wzak6mbe0r"},{"rt":null,"stimulus":"<div style=\"font-size:60px;\">+</div>","key_press":null,"trial_type":"html-keyboard-response","trial_index":136,"time_elapsed":338436,"internal_node_id":"0.0-8.0-1.32","subject":"gmtg8wzak6mbe0r"},{"trial_type":"turing-test","trial_index":137,"time_elapsed":345052,"internal_node_id":"0.0-8.0-2.32","subject":"gmtg8wzak6mbe0r"},{"rt":897,"stimulus":"<p>Which sequence did you perceive as more natural?</p>","button_pressed":"1","test_part":"response","test_stimulus":{"position":0,"left":"bvh/return-bottle-training2-lines.txt","right":"bvh/vr_prediction_models/model(dmp)-dataset(return-bottle)-npsi(30)-hold(2)/final-lines.txt","att_check":false},"trial_type":"html-button-response","trial_index":138,"time_elapsed":345952,"internal_node_id":"0.0-8.0-3.32","subject":"gmtg8wzak6mbe0r"},{"rt":703,"stimulus":"<p>Ready?</p>","button_pressed":"0","trial_type":"html-button-response","trial_index":139,"time_elapsed":346659,"internal_node_id":"0.0-8.0-0.33","subject":"gmtg8wzak6mbe0r"},{"rt":null,"stimulus":"<div style=\"font-size:60px;\">+</div>","key_press":null,"trial_type":"html-keyboard-response","trial_index":140,"time_elapsed":348660,"internal_node_id":"0.0-8.0-1.33","subject":"gmtg8wzak6mbe0r"},{"trial_type":"turing-test","trial_index":141,"time_elapsed":355078,"internal_node_id":"0.0-8.0-2.33","subject":"gmtg8wzak6mbe0r"},{"rt":722,"stimulus":"<p>Which sequence did you perceive as more natural?</p>","button_pressed":"1","test_part":"response","test_stimulus":{"position":0,"left":"bvh/return-bottle-training2-lines.txt","right":"bvh/vr_prediction_models/model(dmp)-dataset(return-bottle)-npsi(30)-hold(2)/final-lines.txt","att_check":false},"trial_type":"html-button-response","trial_index":142,"time_elapsed":355802,"internal_node_id":"0.0-8.0-3.33","subject":"gmtg8wzak6mbe0r"},{"rt":503,"stimulus":"<p>Ready?</p>","button_pressed":"0","trial_type":"html-button-response","trial_index":143,"time_elapsed":356308,"internal_node_id":"0.0-8.0-0.34","subject":"gmtg8wzak6mbe0r"},{"rt":null,"stimulus":"<div style=\"font-size:60px;\">+</div>","key_press":null,"trial_type":"html-keyboard-response","trial_index":144,"time_elapsed":358309,"internal_node_id":"0.0-8.0-1.34","subject":"gmtg8wzak6mbe0r"},{"trial_type":"turing-test","trial_index":145,"time_elapsed":364995,"internal_node_id":"0.0-8.0-2.34","subject":"gmtg8wzak6mbe0r"},{"rt":977,"stimulus":"<p>Which sequence did you perceive as more natural?</p>","button_pressed":"1","test_part":"response","test_stimulus":{"position":1,"left":"bvh/vr_prediction_models/model(tmp)-dataset(pass-bottle)-numprim(13)-hold(0)/final-lines.txt","right":"bvh/pass-bottle-training0-lines.txt","att_check":false},"trial_type":"html-button-response","trial_index":146,"time_elapsed":365975,"internal_node_id":"0.0-8.0-3.34","subject":"gmtg8wzak6mbe0r"},{"rt":554,"stimulus":"<p>Ready?</p>","button_pressed":"0","trial_type":"html-button-response","trial_index":147,"time_elapsed":366532,"internal_node_id":"0.0-8.0-0.35","subject":"gmtg8wzak6mbe0r"},{"rt":null,"stimulus":"<div style=\"font-size:60px;\">+</div>","key_press":null,"trial_type":"html-keyboard-response","trial_index":148,"time_elapsed":368534,"internal_node_id":"0.0-8.0-1.35","subject":"gmtg8wzak6mbe0r"},{"trial_type":"turing-test","trial_index":149,"time_elapsed":374395,"internal_node_id":"0.0-8.0-2.35","subject":"gmtg8wzak6mbe0r"},{"rt":1183,"stimulus":"<p>Which sequence did you perceive as more natural?</p>","button_pressed":"0","test_part":"response","test_stimulus":{"position":0,"left":"bvh/pass-bottle-training3-lines.txt","right":"bvh/vr_prediction_models/model(vcgpdm)-dataset(pass-bottle)-mode(ELBO)-parts(1)-dyn(20)-lvm(30)-hold(3)/final-lines.txt","att_check":false},"trial_type":"html-button-response","trial_index":150,"time_elapsed":375583,"internal_node_id":"0.0-8.0-3.35","subject":"gmtg8wzak6mbe0r"},{"rt":661,"stimulus":"<p>Ready?</p>","button_pressed":"0","trial_type":"html-button-response","trial_index":151,"time_elapsed":376248,"internal_node_id":"0.0-8.0-0.36","subject":"gmtg8wzak6mbe0r"},{"rt":null,"stimulus":"<div style=\"font-size:60px;\">+</div>","key_press":null,"trial_type":"html-keyboard-response","trial_index":152,"time_elapsed":378249,"internal_node_id":"0.0-8.0-1.36","subject":"gmtg8wzak6mbe0r"},{"trial_type":"turing-test","trial_index":153,"time_elapsed":385149,"internal_node_id":"0.0-8.0-2.36","subject":"gmtg8wzak6mbe0r"},{"rt":1674,"stimulus":"<p>Which sequence did you perceive as more natural?</p>","button_pressed":"0","test_part":"response","test_stimulus":{"position":1,"left":"bvh/vr_prediction_models/model(vcgpdm)-dataset(pass-bottle)-mode(ELBO)-parts(1)-dyn(25)-lvm(35)-hold(0)/final-lines.txt","right":"bvh/pass-bottle-training0-lines.txt","att_check":false},"trial_type":"html-button-response","trial_index":154,"time_elapsed":386824,"internal_node_id":"0.0-8.0-3.36","subject":"gmtg8wzak6mbe0r"},{"rt":683,"stimulus":"<p>Ready?</p>","button_pressed":"0","trial_type":"html-button-response","trial_index":155,"time_elapsed":387511,"internal_node_id":"0.0-8.0-0.37","subject":"gmtg8wzak6mbe0r"},{"rt":null,"stimulus":"<div style=\"font-size:60px;\">+</div>","key_press":null,"trial_type":"html-keyboard-response","trial_index":156,"time_elapsed":389513,"internal_node_id":"0.0-8.0-1.37","subject":"gmtg8wzak6mbe0r"},{"trial_type":"turing-test","trial_index":157,"time_elapsed":395275,"internal_node_id":"0.0-8.0-2.37","subject":"gmtg8wzak6mbe0r"},{"rt":1254,"stimulus":"<p>Which sequence did you perceive as more natural?</p>","button_pressed":"1","test_part":"response","test_stimulus":{"position":1,"left":"bvh/vr_prediction_models/model(vcgpdm)-dataset(pass-bottle)-mode(ELBO)-parts(1)-dyn(30)-lvm(30)-hold(4)/final-lines.txt","right":"bvh/pass-bottle-training4-lines.txt","att_check":false},"trial_type":"html-button-response","trial_index":158,"time_elapsed":396534,"internal_node_id":"0.0-8.0-3.37","subject":"gmtg8wzak6mbe0r"},{"rt":693,"stimulus":"<p>Ready?</p>","button_pressed":"0","trial_type":"html-button-response","trial_index":159,"time_elapsed":397230,"internal_node_id":"0.0-8.0-0.38","subject":"gmtg8wzak6mbe0r"},{"rt":null,"stimulus":"<div style=\"font-size:60px;\">+</div>","key_press":null,"trial_type":"html-keyboard-response","trial_index":160,"time_elapsed":399231,"internal_node_id":"0.0-8.0-1.38","subject":"gmtg8wzak6mbe0r"},{"trial_type":"turing-test","trial_index":161,"time_elapsed":405051,"internal_node_id":"0.0-8.0-2.38","subject":"gmtg8wzak6mbe0r"},{"rt":1743,"stimulus":"<p>Which sequence did you perceive as more natural?</p>","button_pressed":"1","test_part":"response","test_stimulus":{"position":0,"left":"bvh/return-bottle-training4-lines.txt","right":"bvh/vr_prediction_models/model(tmp)-dataset(return-bottle)-numprim(5)-hold(4)/final-lines.txt","att_check":false},"trial_type":"html-button-response","trial_index":162,"time_elapsed":406796,"internal_node_id":"0.0-8.0-3.38","subject":"gmtg8wzak6mbe0r"},{"rt":1104,"stimulus":"<p>Ready?</p>","button_pressed":"0","trial_type":"html-button-response","trial_index":163,"time_elapsed":407903,"internal_node_id":"0.0-8.0-0.39","subject":"gmtg8wzak6mbe0r"},{"rt":null,"stimulus":"<div style=\"font-size:60px;\">+</div>","key_press":null,"trial_type":"html-keyboard-response","trial_index":164,"time_elapsed":409905,"internal_node_id":"0.0-8.0-1.39","subject":"gmtg8wzak6mbe0r"},{"trial_type":"turing-test","trial_index":165,"time_elapsed":413490,"internal_node_id":"0.0-8.0-2.39","subject":"gmtg8wzak6mbe0r"},{"rt":1492,"stimulus":"<p>Which sequence did you perceive as more natural?</p>","button_pressed":"1","test_part":"response","test_stimulus":{"position":1,"left":"bvh/vr_prediction_models/model(tmp)-dataset(pass-bottle-hold)-numprim(7)-hold(4)/final-lines.txt","right":"bvh/pass-bottle-hold-training4-lines.txt","att_check":false},"trial_type":"html-button-response","trial_index":166,"time_elapsed":414985,"internal_node_id":"0.0-8.0-3.39","subject":"gmtg8wzak6mbe0r"},{"rt":748,"stimulus":"<p>Ready?</p>","button_pressed":"0","trial_type":"html-button-response","trial_index":167,"time_elapsed":415736,"internal_node_id":"0.0-8.0-0.40","subject":"gmtg8wzak6mbe0r"},{"rt":null,"stimulus":"<div style=\"font-size:60px;\">+</div>","key_press":null,"trial_type":"html-keyboard-response","trial_index":168,"time_elapsed":417738,"internal_node_id":"0.0-8.0-1.40","subject":"gmtg8wzak6mbe0r"},{"trial_type":"turing-test","trial_index":169,"time_elapsed":423942,"internal_node_id":"0.0-8.0-2.40","subject":"gmtg8wzak6mbe0r"},{"rt":818,"stimulus":"<p>Which sequence did you perceive as more natural?</p>","button_pressed":"1","test_part":"response","test_stimulus":{"position":1,"left":"bvh/vr_prediction_models/model(vcgpdm)-dataset(return-bottle)-mode(MAP)-parts(1)-hold(1)/final-lines.txt","right":"bvh/return-bottle-training1-lines.txt","att_check":false},"trial_type":"html-button-response","trial_index":170,"time_elapsed":424763,"internal_node_id":"0.0-8.0-3.40","subject":"gmtg8wzak6mbe0r"},{"rt":743,"stimulus":"<p>Ready?</p>","button_pressed":"0","trial_type":"html-button-response","trial_index":171,"time_elapsed":425509,"internal_node_id":"0.0-8.0-0.41","subject":"gmtg8wzak6mbe0r"},{"rt":null,"stimulus":"<div style=\"font-size:60px;\">+</div>","key_press":null,"trial_type":"html-keyboard-response","trial_index":172,"time_elapsed":427510,"internal_node_id":"0.0-8.0-1.41","subject":"gmtg8wzak6mbe0r"},{"trial_type":"turing-test","trial_index":173,"time_elapsed":434224,"internal_node_id":"0.0-8.0-2.41","subject":"gmtg8wzak6mbe0r"},{"rt":882,"stimulus":"<p>Which sequence did you perceive as more natural?</p>","button_pressed":"1","test_part":"response","test_stimulus":{"position":1,"left":"bvh/vr_prediction_models/model(dmp)-dataset(pass-bottle)-npsi(40)-hold(0)/final-lines.txt","right":"bvh/pass-bottle-training0-lines.txt","att_check":true},"trial_type":"html-button-response","trial_index":174,"time_elapsed":435109,"internal_node_id":"0.0-8.0-3.41","subject":"gmtg8wzak6mbe0r"},{"rt":681,"stimulus":"<p>Ready?</p>","button_pressed":"0","trial_type":"html-button-response","trial_index":175,"time_elapsed":435794,"internal_node_id":"0.0-8.0-0.42","subject":"gmtg8wzak6mbe0r"},{"rt":null,"stimulus":"<div style=\"font-size:60px;\">+</div>","key_press":null,"trial_type":"html-keyboard-response","trial_index":176,"time_elapsed":437796,"internal_node_id":"0.0-8.0-1.42","subject":"gmtg8wzak6mbe0r"},{"trial_type":"turing-test","trial_index":177,"time_elapsed":444016,"internal_node_id":"0.0-8.0-2.42","subject":"gmtg8wzak6mbe0r"},{"rt":961,"stimulus":"<p>Which sequence did you perceive as more natural?</p>","button_pressed":"1","test_part":"response","test_stimulus":{"position":0,"left":"bvh/pass-bottle-training2-lines.txt","right":"bvh/vr_prediction_models/model(vcgpdm)-dataset(pass-bottle)-mode(ELBO)-parts(3)-dyn(10)-lvm(30)-hold(2)/final-lines.txt","att_check":false},"trial_type":"html-button-response","trial_index":178,"time_elapsed":444979,"internal_node_id":"0.0-8.0-3.42","subject":"gmtg8wzak6mbe0r"},{"rt":3299,"stimulus":"<p>Ready?</p>","button_pressed":"0","trial_type":"html-button-response","trial_index":179,"time_elapsed":448283,"internal_node_id":"0.0-8.0-0.43","subject":"gmtg8wzak6mbe0r"},{"rt":null,"stimulus":"<div style=\"font-size:60px;\">+</div>","key_press":null,"trial_type":"html-keyboard-response","trial_index":180,"time_elapsed":450285,"internal_node_id":"0.0-8.0-1.43","subject":"gmtg8wzak6mbe0r"},{"trial_type":"turing-test","trial_index":181,"time_elapsed":454147,"internal_node_id":"0.0-8.0-2.43","subject":"gmtg8wzak6mbe0r"},{"rt":965,"stimulus":"<p>Which sequence did you perceive as more natural?</p>","button_pressed":"0","test_part":"response","test_stimulus":{"position":0,"left":"bvh/return-bottle-hold-training4-lines.txt","right":"bvh/vr_prediction_models/model(vcgpdm)-dataset(return-bottle-hold)-mode(ELBO)-parts(1)-dyn(10)-lvm(30)-hold(4)/final-lines.txt","att_check":false},"trial_type":"html-button-response","trial_index":182,"time_elapsed":455117,"internal_node_id":"0.0-8.0-3.43","subject":"gmtg8wzak6mbe0r"},{"rt":1262,"stimulus":"<p>Ready?</p>","button_pressed":"0","trial_type":"html-button-response","trial_index":183,"time_elapsed":456381,"internal_node_id":"0.0-8.0-0.44","subject":"gmtg8wzak6mbe0r"},{"rt":null,"stimulus":"<div style=\"font-size:60px;\">+</div>","key_press":null,"trial_type":"html-keyboard-response","trial_index":184,"time_elapsed":458383,"internal_node_id":"0.0-8.0-1.44","subject":"gmtg8wzak6mbe0r"},{"trial_type":"turing-test","trial_index":185,"time_elapsed":461961,"internal_node_id":"0.0-8.0-2.44","subject":"gmtg8wzak6mbe0r"},{"rt":903,"stimulus":"<p>Which sequence did you perceive as more natural?</p>","button_pressed":"0","test_part":"response","test_stimulus":{"position":0,"left":"bvh/return-bottle-hold-training3-lines.txt","right":"bvh/vr_prediction_models/model(dmp)-dataset(return-bottle-hold)-npsi(20)-hold(3)/final-lines.txt","att_check":false},"trial_type":"html-button-response","trial_index":186,"time_elapsed":462865,"internal_node_id":"0.0-8.0-3.44","subject":"gmtg8wzak6mbe0r"},{"rt":753,"stimulus":"<p>Ready?</p>","button_pressed":"0","trial_type":"html-button-response","trial_index":187,"time_elapsed":463621,"internal_node_id":"0.0-8.0-0.45","subject":"gmtg8wzak6mbe0r"},{"rt":null,"stimulus":"<div style=\"font-size:60px;\">+</div>","key_press":null,"trial_type":"html-keyboard-response","trial_index":188,"time_elapsed":465622,"internal_node_id":"0.0-8.0-1.45","subject":"gmtg8wzak6mbe0r"},{"trial_type":"turing-test","trial_index":189,"time_elapsed":468900,"internal_node_id":"0.0-8.0-2.45","subject":"gmtg8wzak6mbe0r"},{"rt":867,"stimulus":"<p>Which sequence did you perceive as more natural?</p>","button_pressed":"0","test_part":"response","test_stimulus":{"position":1,"left":"bvh/vr_prediction_models/model(dmp)-dataset(pass-bottle-hold)-npsi(100)-hold(0)/final-lines.txt","right":"bvh/pass-bottle-hold-training0-lines.txt","att_check":false},"trial_type":"html-button-response","trial_index":190,"time_elapsed":469769,"internal_node_id":"0.0-8.0-3.45","subject":"gmtg8wzak6mbe0r"},{"rt":778,"stimulus":"<p>Ready?</p>","button_pressed":"0","trial_type":"html-button-response","trial_index":191,"time_elapsed":470550,"internal_node_id":"0.0-8.0-0.46","subject":"gmtg8wzak6mbe0r"},{"rt":null,"stimulus":"<div style=\"font-size:60px;\">+</div>","key_press":null,"trial_type":"html-keyboard-response","trial_index":192,"time_elapsed":472552,"internal_node_id":"0.0-8.0-1.46","subject":"gmtg8wzak6mbe0r"},{"trial_type":"turing-test","trial_index":193,"time_elapsed":478309,"internal_node_id":"0.0-8.0-2.46","subject":"gmtg8wzak6mbe0r"},{"rt":1242,"stimulus":"<p>Which sequence did you perceive as more natural?</p>","button_pressed":"0","test_part":"response","test_stimulus":{"position":0,"left":"bvh/pass-bottle-training4-lines.txt","right":"bvh/vr_prediction_models/model(tmp)-dataset(pass-bottle)-numprim(13)-hold(4)/final-lines.txt","att_check":false},"trial_type":"html-button-response","trial_index":194,"time_elapsed":479558,"internal_node_id":"0.0-8.0-3.46","subject":"gmtg8wzak6mbe0r"},{"rt":704,"stimulus":"<p>Ready?</p>","button_pressed":"0","trial_type":"html-button-response","trial_index":195,"time_elapsed":480268,"internal_node_id":"0.0-8.0-0.47","subject":"gmtg8wzak6mbe0r"},{"rt":null,"stimulus":"<div style=\"font-size:60px;\">+</div>","key_press":null,"trial_type":"html-keyboard-response","trial_index":196,"time_elapsed":482269,"internal_node_id":"0.0-8.0-1.47","subject":"gmtg8wzak6mbe0r"},{"trial_type":"turing-test","trial_index":197,"time_elapsed":485686,"internal_node_id":"0.0-8.0-2.47","subject":"gmtg8wzak6mbe0r"},{"rt":1278,"stimulus":"<p>Which sequence did you perceive as more natural?</p>","button_pressed":"0","test_part":"response","test_stimulus":{"position":0,"left":"bvh/return-bottle-hold-training2-lines.txt","right":"bvh/vr_prediction_models/model(dmp)-dataset(return-bottle-hold)-npsi(100)-hold(2)/final-lines.txt","att_check":false},"trial_type":"html-button-response","trial_index":198,"time_elapsed":486967,"internal_node_id":"0.0-8.0-3.47","subject":"gmtg8wzak6mbe0r"},{"rt":656,"stimulus":"<p>Ready?</p>","button_pressed":"0","trial_type":"html-button-response","trial_index":199,"time_elapsed":487626,"internal_node_id":"0.0-8.0-0.48","subject":"gmtg8wzak6mbe0r"},{"rt":null,"stimulus":"<div style=\"font-size:60px;\">+</div>","key_press":null,"trial_type":"html-keyboard-response","trial_index":200,"time_elapsed":489628,"internal_node_id":"0.0-8.0-1.48","subject":"gmtg8wzak6mbe0r"},{"trial_type":"turing-test","trial_index":201,"time_elapsed":495410,"internal_node_id":"0.0-8.0-2.48","subject":"gmtg8wzak6mbe0r"},{"rt":760,"stimulus":"<p>Which sequence did you perceive as more natural?</p>","button_pressed":"0","test_part":"response","test_stimulus":{"position":0,"left":"bvh/pass-bottle-training3-lines.txt","right":"bvh/vr_prediction_models/model(tmp)-dataset(pass-bottle)-numprim(10)-hold(3)/final-lines.txt","att_check":false},"trial_type":"html-button-response","trial_index":202,"time_elapsed":496173,"internal_node_id":"0.0-8.0-3.48","subject":"gmtg8wzak6mbe0r"},{"rt":674,"stimulus":"<p>Ready?</p>","button_pressed":"0","trial_type":"html-button-response","trial_index":203,"time_elapsed":496852,"internal_node_id":"0.0-8.0-0.49","subject":"gmtg8wzak6mbe0r"},{"rt":null,"stimulus":"<div style=\"font-size:60px;\">+</div>","key_press":null,"trial_type":"html-keyboard-response","trial_index":204,"time_elapsed":498854,"internal_node_id":"0.0-8.0-1.49","subject":"gmtg8wzak6mbe0r"},{"trial_type":"turing-test","trial_index":205,"time_elapsed":505377,"internal_node_id":"0.0-8.0-2.49","subject":"gmtg8wzak6mbe0r"},{"rt":933,"stimulus":"<p>Which sequence did you perceive as more natural?</p>","button_pressed":"1","test_part":"response","test_stimulus":{"position":1,"left":"bvh/vr_prediction_models/model(dmp)-dataset(return-bottle)-npsi(70)-hold(2)/final-lines.txt","right":"bvh/return-bottle-training2-lines.txt","att_check":false},"trial_type":"html-button-response","trial_index":206,"time_elapsed":506315,"internal_node_id":"0.0-8.0-3.49","subject":"gmtg8wzak6mbe0r"},{"rt":654,"stimulus":"<p>Ready?</p>","button_pressed":"0","trial_type":"html-button-response","trial_index":207,"time_elapsed":506972,"internal_node_id":"0.0-8.0-0.50","subject":"gmtg8wzak6mbe0r"},{"rt":null,"stimulus":"<div style=\"font-size:60px;\">+</div>","key_press":null,"trial_type":"html-keyboard-response","trial_index":208,"time_elapsed":508974,"internal_node_id":"0.0-8.0-1.50","subject":"gmtg8wzak6mbe0r"},{"trial_type":"turing-test","trial_index":209,"time_elapsed":512736,"internal_node_id":"0.0-8.0-2.50","subject":"gmtg8wzak6mbe0r"},{"rt":618,"stimulus":"<p>Which sequence did you perceive as more natural?</p>","button_pressed":"1","test_part":"response","test_stimulus":{"position":1,"left":"bvh/vr_prediction_models/model(vcgpdm)-dataset(return-bottle-hold)-mode(MAP)-parts(3)-hold(3)/final-lines.txt","right":"bvh/return-bottle-hold-training3-lines.txt","att_check":false},"trial_type":"html-button-response","trial_index":210,"time_elapsed":513357,"internal_node_id":"0.0-8.0-3.50","subject":"gmtg8wzak6mbe0r"},{"rt":660,"stimulus":"<p>Ready?</p>","button_pressed":"0","trial_type":"html-button-response","trial_index":211,"time_elapsed":514020,"internal_node_id":"0.0-8.0-0.51","subject":"gmtg8wzak6mbe0r"},{"rt":null,"stimulus":"<div style=\"font-size:60px;\">+</div>","key_press":null,"trial_type":"html-keyboard-response","trial_index":212,"time_elapsed":516021,"internal_node_id":"0.0-8.0-1.51","subject":"gmtg8wzak6mbe0r"},{"trial_type":"turing-test","trial_index":213,"time_elapsed":519454,"internal_node_id":"0.0-8.0-2.51","subject":"gmtg8wzak6mbe0r"},{"rt":1401,"stimulus":"<p>Which sequence did you perceive as more natural?</p>","button_pressed":"1","test_part":"response","test_stimulus":{"position":0,"left":"bvh/return-bottle-hold-training2-lines.txt","right":"bvh/vr_prediction_models/model(dmp)-dataset(return-bottle-hold)-npsi(60)-hold(2)/final-lines.txt","att_check":false},"trial_type":"html-button-response","trial_index":214,"time_elapsed":520858,"internal_node_id":"0.0-8.0-3.51","subject":"gmtg8wzak6mbe0r"},{"rt":1168,"stimulus":"<p>Ready?</p>","button_pressed":"0","trial_type":"html-button-response","trial_index":215,"time_elapsed":522031,"internal_node_id":"0.0-8.0-0.52","subject":"gmtg8wzak6mbe0r"},{"rt":null,"stimulus":"<div style=\"font-size:60px;\">+</div>","key_press":null,"trial_type":"html-keyboard-response","trial_index":216,"time_elapsed":524032,"internal_node_id":"0.0-8.0-1.52","subject":"gmtg8wzak6mbe0r"},{"trial_type":"turing-test","trial_index":217,"time_elapsed":529644,"internal_node_id":"0.0-8.0-2.52","subject":"gmtg8wzak6mbe0r"},{"rt":1079,"stimulus":"<p>Which sequence did you perceive as more natural?</p>","button_pressed":"0","test_part":"response","test_stimulus":{"position":0,"left":"bvh/return-bottle-training3-lines.txt","right":"bvh/vr_prediction_models/model(vcgpdm)-dataset(return-bottle)-mode(ELBO)-parts(3)-dyn(10)-lvm(10)-hold(3)/final-lines.txt","att_check":false},"trial_type":"html-button-response","trial_index":218,"time_elapsed":530725,"internal_node_id":"0.0-8.0-3.52","subject":"gmtg8wzak6mbe0r"},{"rt":816,"stimulus":"<p>Ready?</p>","button_pressed":"0","trial_type":"html-button-response","trial_index":219,"time_elapsed":531545,"internal_node_id":"0.0-8.0-0.53","subject":"gmtg8wzak6mbe0r"},{"rt":null,"stimulus":"<div style=\"font-size:60px;\">+</div>","key_press":null,"trial_type":"html-keyboard-response","trial_index":220,"time_elapsed":533546,"internal_node_id":"0.0-8.0-1.53","subject":"gmtg8wzak6mbe0r"},{"trial_type":"turing-test","trial_index":221,"time_elapsed":538748,"internal_node_id":"0.0-8.0-2.53","subject":"gmtg8wzak6mbe0r"},{"rt":876,"stimulus":"<p>Which sequence did you perceive as more natural?</p>","button_pressed":"1","test_part":"response","test_stimulus":{"position":1,"left":"bvh/vr_prediction_models/model(vcgpdm)-dataset(return-bottle-hold)-mode(ELBO)-parts(1)-dyn(35)-lvm(30)-hold(0)/final-lines.txt","right":"bvh/return-bottle-hold-training0-lines.txt","att_check":false},"trial_type":"html-button-response","trial_index":222,"time_elapsed":539627,"internal_node_id":"0.0-8.0-3.53","subject":"gmtg8wzak6mbe0r"},{"rt":568,"stimulus":"<p>Ready?</p>","button_pressed":"0","trial_type":"html-button-response","trial_index":223,"time_elapsed":540199,"internal_node_id":"0.0-8.0-0.54","subject":"gmtg8wzak6mbe0r"},{"rt":null,"stimulus":"<div style=\"font-size:60px;\">+</div>","key_press":null,"trial_type":"html-keyboard-response","trial_index":224,"time_elapsed":542200,"internal_node_id":"0.0-8.0-1.54","subject":"gmtg8wzak6mbe0r"},{"trial_type":"turing-test","trial_index":225,"time_elapsed":548862,"internal_node_id":"0.0-8.0-2.54","subject":"gmtg8wzak6mbe0r"},{"rt":941,"stimulus":"<p>Which sequence did you perceive as more natural?</p>","button_pressed":"0","test_part":"response","test_stimulus":{"position":1,"left":"bvh/vr_prediction_models/model(vcgpdm)-dataset(return-bottle)-mode(ELBO)-parts(3)-dyn(10)-lvm(10)-hold(2)/final-lines.txt","right":"bvh/return-bottle-training2-lines.txt","att_check":false},"trial_type":"html-button-response","trial_index":226,"time_elapsed":549807,"internal_node_id":"0.0-8.0-3.54","subject":"gmtg8wzak6mbe0r"},{"rt":683,"stimulus":"<p>Ready?</p>","button_pressed":"0","trial_type":"html-button-response","trial_index":227,"time_elapsed":550492,"internal_node_id":"0.0-8.0-0.55","subject":"gmtg8wzak6mbe0r"},{"rt":null,"stimulus":"<div style=\"font-size:60px;\">+</div>","key_press":null,"trial_type":"html-keyboard-response","trial_index":228,"time_elapsed":552494,"internal_node_id":"0.0-8.0-1.55","subject":"gmtg8wzak6mbe0r"},{"trial_type":"turing-test","trial_index":229,"time_elapsed":558672,"internal_node_id":"0.0-8.0-2.55","subject":"gmtg8wzak6mbe0r"},{"rt":781,"stimulus":"<p>Which sequence did you perceive as more natural?</p>","button_pressed":"1","test_part":"response","test_stimulus":{"position":0,"left":"bvh/return-bottle-training1-lines.txt","right":"bvh/vr_prediction_models/model(vcgpdm)-dataset(return-bottle)-mode(ELBO)-parts(3)-dyn(25)-lvm(15)-hold(1)/final-lines.txt","att_check":false},"trial_type":"html-button-response","trial_index":230,"time_elapsed":559457,"internal_node_id":"0.0-8.0-3.55","subject":"gmtg8wzak6mbe0r"},{"rt":702,"stimulus":"<p>Ready?</p>","button_pressed":"0","trial_type":"html-button-response","trial_index":231,"time_elapsed":560161,"internal_node_id":"0.0-8.0-0.56","subject":"gmtg8wzak6mbe0r"},{"rt":null,"stimulus":"<div style=\"font-size:60px;\">+</div>","key_press":null,"trial_type":"html-keyboard-response","trial_index":232,"time_elapsed":562164,"internal_node_id":"0.0-8.0-1.56","subject":"gmtg8wzak6mbe0r"},{"trial_type":"turing-test","trial_index":233,"time_elapsed":565912,"internal_node_id":"0.0-8.0-2.56","subject":"gmtg8wzak6mbe0r"},{"rt":1382,"stimulus":"<p>Which sequence did you perceive as more natural?</p>","button_pressed":"0","test_part":"response","test_stimulus":{"position":0,"left":"bvh/return-bottle-hold-training4-lines.txt","right":"bvh/vr_prediction_models/model(dmp)-dataset(return-bottle-hold)-npsi(80)-hold(4)/final-lines.txt","att_check":true},"trial_type":"html-button-response","trial_index":234,"time_elapsed":567298,"internal_node_id":"0.0-8.0-3.56","subject":"gmtg8wzak6mbe0r"},{"rt":745,"stimulus":"<p>Ready?</p>","button_pressed":"0","trial_type":"html-button-response","trial_index":235,"time_elapsed":568046,"internal_node_id":"0.0-8.0-0.57","subject":"gmtg8wzak6mbe0r"},{"rt":null,"stimulus":"<div style=\"font-size:60px;\">+</div>","key_press":null,"trial_type":"html-keyboard-response","trial_index":236,"time_elapsed":570048,"internal_node_id":"0.0-8.0-1.57","subject":"gmtg8wzak6mbe0r"},{"trial_type":"turing-test","trial_index":237,"time_elapsed":573652,"internal_node_id":"0.0-8.0-2.57","subject":"gmtg8wzak6mbe0r"},{"rt":1341,"stimulus":"<p>Which sequence did you perceive as more natural?</p>","button_pressed":"0","test_part":"response","test_stimulus":{"position":0,"left":"bvh/return-bottle-hold-training3-lines.txt","right":"bvh/vr_prediction_models/model(dmp)-dataset(return-bottle-hold)-npsi(50)-hold(3)/final-lines.txt","att_check":true},"trial_type":"html-button-response","trial_index":238,"time_elapsed":574995,"internal_node_id":"0.0-8.0-3.57","subject":"gmtg8wzak6mbe0r"},{"rt":597,"stimulus":"<p>Ready?</p>","button_pressed":"0","trial_type":"html-button-response","trial_index":239,"time_elapsed":575597,"internal_node_id":"0.0-8.0-0.58","subject":"gmtg8wzak6mbe0r"},{"rt":null,"stimulus":"<div style=\"font-size:60px;\">+</div>","key_press":null,"trial_type":"html-keyboard-response","trial_index":240,"time_elapsed":577599,"internal_node_id":"0.0-8.0-1.58","subject":"gmtg8wzak6mbe0r"},{"trial_type":"turing-test","trial_index":241,"time_elapsed":581103,"internal_node_id":"0.0-8.0-2.58","subject":"gmtg8wzak6mbe0r"},{"rt":1105,"stimulus":"<p>Which sequence did you perceive as more natural?</p>","button_pressed":"0","test_part":"response","test_stimulus":{"position":0,"left":"bvh/return-bottle-hold-training1-lines.txt","right":"bvh/vr_prediction_models/model(vcgpdm)-dataset(return-bottle-hold)-mode(ELBO)-parts(1)-dyn(25)-lvm(35)-hold(1)/final-lines.txt","att_check":false},"trial_type":"html-button-response","trial_index":242,"time_elapsed":582210,"internal_node_id":"0.0-8.0-3.58","subject":"gmtg8wzak6mbe0r"},{"rt":721,"stimulus":"<p>Ready?</p>","button_pressed":"0","trial_type":"html-button-response","trial_index":243,"time_elapsed":582935,"internal_node_id":"0.0-8.0-0.59","subject":"gmtg8wzak6mbe0r"},{"rt":null,"stimulus":"<div style=\"font-size:60px;\">+</div>","key_press":null,"trial_type":"html-keyboard-response","trial_index":244,"time_elapsed":584937,"internal_node_id":"0.0-8.0-1.59","subject":"gmtg8wzak6mbe0r"},{"trial_type":"turing-test","trial_index":245,"time_elapsed":588699,"internal_node_id":"0.0-8.0-2.59","subject":"gmtg8wzak6mbe0r"},{"rt":782,"stimulus":"<p>Which sequence did you perceive as more natural?</p>","button_pressed":"0","test_part":"response","test_stimulus":{"position":1,"left":"bvh/vr_prediction_models/model(vcgpdm)-dataset(return-bottle-hold)-mode(ELBO)-parts(3)-dyn(30)-lvm(15)-hold(3)/final-lines.txt","right":"bvh/return-bottle-hold-training3-lines.txt","att_check":false},"trial_type":"html-button-response","trial_index":246,"time_elapsed":589486,"internal_node_id":"0.0-8.0-3.59","subject":"gmtg8wzak6mbe0r"},{"rt":540,"stimulus":"<p>Ready?</p>","button_pressed":"0","trial_type":"html-button-response","trial_index":247,"time_elapsed":590029,"internal_node_id":"0.0-8.0-0.60","subject":"gmtg8wzak6mbe0r"},{"rt":null,"stimulus":"<div style=\"font-size:60px;\">+</div>","key_press":null,"trial_type":"html-keyboard-response","trial_index":248,"time_elapsed":592029,"internal_node_id":"0.0-8.0-1.60","subject":"gmtg8wzak6mbe0r"},{"trial_type":"turing-test","trial_index":249,"time_elapsed":595548,"internal_node_id":"0.0-8.0-2.60","subject":"gmtg8wzak6mbe0r"},{"rt":1006,"stimulus":"<p>Which sequence did you perceive as more natural?</p>","button_pressed":"0","test_part":"response","test_stimulus":{"position":0,"left":"bvh/return-bottle-hold-training2-lines.txt","right":"bvh/vr_prediction_models/model(vcgpdm)-dataset(return-bottle-hold)-mode(ELBO)-parts(1)-dyn(30)-lvm(35)-hold(2)/final-lines.txt","att_check":false},"trial_type":"html-button-response","trial_index":250,"time_elapsed":596557,"internal_node_id":"0.0-8.0-3.60","subject":"gmtg8wzak6mbe0r"},{"rt":602,"stimulus":"<p>Ready?</p>","button_pressed":"0","trial_type":"html-button-response","trial_index":251,"time_elapsed":597162,"internal_node_id":"0.0-8.0-0.61","subject":"gmtg8wzak6mbe0r"},{"rt":null,"stimulus":"<div style=\"font-size:60px;\">+</div>","key_press":null,"trial_type":"html-keyboard-response","trial_index":252,"time_elapsed":599165,"internal_node_id":"0.0-8.0-1.61","subject":"gmtg8wzak6mbe0r"},{"trial_type":"turing-test","trial_index":253,"time_elapsed":602678,"internal_node_id":"0.0-8.0-2.61","subject":"gmtg8wzak6mbe0r"},{"rt":930,"stimulus":"<p>Which sequence did you perceive as more natural?</p>","button_pressed":"1","test_part":"response","test_stimulus":{"position":1,"left":"bvh/vr_prediction_models/model(vcgpdm)-dataset(pass-bottle-hold)-mode(ELBO)-parts(1)-dyn(30)-lvm(30)-hold(0)/final-lines.txt","right":"bvh/pass-bottle-hold-training0-lines.txt","att_check":false},"trial_type":"html-button-response","trial_index":254,"time_elapsed":603611,"internal_node_id":"0.0-8.0-3.61","subject":"gmtg8wzak6mbe0r"},{"rt":721,"stimulus":"<p>Ready?</p>","button_pressed":"0","trial_type":"html-button-response","trial_index":255,"time_elapsed":604335,"internal_node_id":"0.0-8.0-0.62","subject":"gmtg8wzak6mbe0r"},{"rt":null,"stimulus":"<div style=\"font-size:60px;\">+</div>","key_press":null,"trial_type":"html-keyboard-response","trial_index":256,"time_elapsed":606336,"internal_node_id":"0.0-8.0-1.62","subject":"gmtg8wzak6mbe0r"},{"trial_type":"turing-test","trial_index":257,"time_elapsed":612108,"internal_node_id":"0.0-8.0-2.62","subject":"gmtg8wzak6mbe0r"},{"rt":1099,"stimulus":"<p>Which sequence did you perceive as more natural?</p>","button_pressed":"0","test_part":"response","test_stimulus":{"position":1,"left":"bvh/vr_prediction_models/model(vcgpdm)-dataset(return-bottle)-mode(ELBO)-parts(3)-dyn(20)-lvm(20)-hold(3)/final-lines.txt","right":"bvh/return-bottle-training3-lines.txt","att_check":false},"trial_type":"html-button-response","trial_index":258,"time_elapsed":613210,"internal_node_id":"0.0-8.0-3.62","subject":"gmtg8wzak6mbe0r"},{"rt":598,"stimulus":"<p>Ready?</p>","button_pressed":"0","trial_type":"html-button-response","trial_index":259,"time_elapsed":613811,"internal_node_id":"0.0-8.0-0.63","subject":"gmtg8wzak6mbe0r"},{"rt":null,"stimulus":"<div style=\"font-size:60px;\">+</div>","key_press":null,"trial_type":"html-keyboard-response","trial_index":260,"time_elapsed":615813,"internal_node_id":"0.0-8.0-1.63","subject":"gmtg8wzak6mbe0r"},{"trial_type":"turing-test","trial_index":261,"time_elapsed":619368,"internal_node_id":"0.0-8.0-2.63","subject":"gmtg8wzak6mbe0r"},{"rt":1042,"stimulus":"<p>Which sequence did you perceive as more natural?</p>","button_pressed":"0","test_part":"response","test_stimulus":{"position":0,"left":"bvh/pass-bottle-hold-training4-lines.txt","right":"bvh/vr_prediction_models/model(dmp)-dataset(pass-bottle-hold)-npsi(10)-hold(4)/final-lines.txt","att_check":true},"trial_type":"html-button-response","trial_index":262,"time_elapsed":620415,"internal_node_id":"0.0-8.0-3.63","subject":"gmtg8wzak6mbe0r"},{"rt":590,"stimulus":"<p>Ready?</p>","button_pressed":"0","trial_type":"html-button-response","trial_index":263,"time_elapsed":621010,"internal_node_id":"0.0-8.0-0.64","subject":"gmtg8wzak6mbe0r"},{"rt":null,"stimulus":"<div style=\"font-size:60px;\">+</div>","key_press":null,"trial_type":"html-keyboard-response","trial_index":264,"time_elapsed":623011,"internal_node_id":"0.0-8.0-1.64","subject":"gmtg8wzak6mbe0r"},{"trial_type":"turing-test","trial_index":265,"time_elapsed":628805,"internal_node_id":"0.0-8.0-2.64","subject":"gmtg8wzak6mbe0r"},{"rt":1047,"stimulus":"<p>Which sequence did you perceive as more natural?</p>","button_pressed":"1","test_part":"response","test_stimulus":{"position":0,"left":"bvh/pass-bottle-training3-lines.txt","right":"bvh/vr_prediction_models/model(tmp)-dataset(pass-bottle)-numprim(6)-hold(3)/final-lines.txt","att_check":false},"trial_type":"html-button-response","trial_index":266,"time_elapsed":629854,"internal_node_id":"0.0-8.0-3.64","subject":"gmtg8wzak6mbe0r"},{"rt":683,"stimulus":"<p>Ready?</p>","button_pressed":"0","trial_type":"html-button-response","trial_index":267,"time_elapsed":630540,"internal_node_id":"0.0-8.0-0.65","subject":"gmtg8wzak6mbe0r"},{"rt":null,"stimulus":"<div style=\"font-size:60px;\">+</div>","key_press":null,"trial_type":"html-keyboard-response","trial_index":268,"time_elapsed":632542,"internal_node_id":"0.0-8.0-1.65","subject":"gmtg8wzak6mbe0r"},{"trial_type":"turing-test","trial_index":269,"time_elapsed":635718,"internal_node_id":"0.0-8.0-2.65","subject":"gmtg8wzak6mbe0r"},{"rt":787,"stimulus":"<p>Which sequence did you perceive as more natural?</p>","button_pressed":"0","test_part":"response","test_stimulus":{"position":0,"left":"bvh/pass-bottle-hold-training1-lines.txt","right":"bvh/vr_prediction_models/model(dmp)-dataset(pass-bottle-hold)-npsi(100)-hold(1)/final-lines.txt","att_check":false},"trial_type":"html-button-response","trial_index":270,"time_elapsed":636509,"internal_node_id":"0.0-8.0-3.65","subject":"gmtg8wzak6mbe0r"},{"rt":1382,"stimulus":"<p>Ready?</p>","button_pressed":"0","trial_type":"html-button-response","trial_index":271,"time_elapsed":637894,"internal_node_id":"0.0-8.0-0.66","subject":"gmtg8wzak6mbe0r"},{"rt":null,"stimulus":"<div style=\"font-size:60px;\">+</div>","key_press":null,"trial_type":"html-keyboard-response","trial_index":272,"time_elapsed":639896,"internal_node_id":"0.0-8.0-1.66","subject":"gmtg8wzak6mbe0r"},{"trial_type":"turing-test","trial_index":273,"time_elapsed":645726,"internal_node_id":"0.0-8.0-2.66","subject":"gmtg8wzak6mbe0r"},{"rt":1019,"stimulus":"<p>Which sequence did you perceive as more natural?</p>","button_pressed":"0","test_part":"response","test_stimulus":{"position":1,"left":"bvh/vr_prediction_models/model(vcgpdm)-dataset(return-bottle)-mode(ELBO)-parts(3)-dyn(20)-lvm(15)-hold(4)/final-lines.txt","right":"bvh/return-bottle-training4-lines.txt","att_check":false},"trial_type":"html-button-response","trial_index":274,"time_elapsed":646748,"internal_node_id":"0.0-8.0-3.66","subject":"gmtg8wzak6mbe0r"},{"rt":764,"stimulus":"<p>Ready?</p>","button_pressed":"0","trial_type":"html-button-response","trial_index":275,"time_elapsed":647516,"internal_node_id":"0.0-8.0-0.67","subject":"gmtg8wzak6mbe0r"},{"rt":null,"stimulus":"<div style=\"font-size:60px;\">+</div>","key_press":null,"trial_type":"html-keyboard-response","trial_index":276,"time_elapsed":649518,"internal_node_id":"0.0-8.0-1.67","subject":"gmtg8wzak6mbe0r"},{"trial_type":"turing-test","trial_index":277,"time_elapsed":653035,"internal_node_id":"0.0-8.0-2.67","subject":"gmtg8wzak6mbe0r"},{"rt":975,"stimulus":"<p>Which sequence did you perceive as more natural?</p>","button_pressed":"0","test_part":"response","test_stimulus":{"position":1,"left":"bvh/vr_prediction_models/model(tmp)-dataset(pass-bottle-hold)-numprim(15)-hold(3)/final-lines.txt","right":"bvh/pass-bottle-hold-training3-lines.txt","att_check":false},"trial_type":"html-button-response","trial_index":278,"time_elapsed":654013,"internal_node_id":"0.0-8.0-3.67","subject":"gmtg8wzak6mbe0r"},{"rt":568,"stimulus":"<p>Ready?</p>","button_pressed":"0","trial_type":"html-button-response","trial_index":279,"time_elapsed":654584,"internal_node_id":"0.0-8.0-0.68","subject":"gmtg8wzak6mbe0r"},{"rt":null,"stimulus":"<div style=\"font-size:60px;\">+</div>","key_press":null,"trial_type":"html-keyboard-response","trial_index":280,"time_elapsed":656586,"internal_node_id":"0.0-8.0-1.68","subject":"gmtg8wzak6mbe0r"},{"trial_type":"turing-test","trial_index":281,"time_elapsed":659999,"internal_node_id":"0.0-8.0-2.68","subject":"gmtg8wzak6mbe0r"},{"rt":921,"stimulus":"<p>Which sequence did you perceive as more natural?</p>","button_pressed":"1","test_part":"response","test_stimulus":{"position":0,"left":"bvh/return-bottle-hold-training2-lines.txt","right":"bvh/vr_prediction_models/model(tmp)-dataset(return-bottle-hold)-numprim(15)-hold(2)/final-lines.txt","att_check":false},"trial_type":"html-button-response","trial_index":282,"time_elapsed":660924,"internal_node_id":"0.0-8.0-3.68","subject":"gmtg8wzak6mbe0r"},{"rt":664,"stimulus":"<p>Ready?</p>","button_pressed":"0","trial_type":"html-button-response","trial_index":283,"time_elapsed":661591,"internal_node_id":"0.0-8.0-0.69","subject":"gmtg8wzak6mbe0r"},{"rt":null,"stimulus":"<div style=\"font-size:60px;\">+</div>","key_press":null,"trial_type":"html-keyboard-response","trial_index":284,"time_elapsed":663593,"internal_node_id":"0.0-8.0-1.69","subject":"gmtg8wzak6mbe0r"},{"trial_type":"turing-test","trial_index":285,"time_elapsed":669780,"internal_node_id":"0.0-8.0-2.69","subject":"gmtg8wzak6mbe0r"},{"rt":1125,"stimulus":"<p>Which sequence did you perceive as more natural?</p>","button_pressed":"1","test_part":"response","test_stimulus":{"position":1,"left":"bvh/vr_prediction_models/model(vcgpdm)-dataset(pass-bottle)-mode(ELBO)-parts(1)-dyn(30)-lvm(30)-hold(2)/final-lines.txt","right":"bvh/pass-bottle-training2-lines.txt","att_check":false},"trial_type":"html-button-response","trial_index":286,"time_elapsed":670909,"internal_node_id":"0.0-8.0-3.69","subject":"gmtg8wzak6mbe0r"},{"rt":722,"stimulus":"<p>Ready?</p>","button_pressed":"0","trial_type":"html-button-response","trial_index":287,"time_elapsed":671635,"internal_node_id":"0.0-8.0-0.70","subject":"gmtg8wzak6mbe0r"},{"rt":null,"stimulus":"<div style=\"font-size:60px;\">+</div>","key_press":null,"trial_type":"html-keyboard-response","trial_index":288,"time_elapsed":673637,"internal_node_id":"0.0-8.0-1.70","subject":"gmtg8wzak6mbe0r"},{"trial_type":"turing-test","trial_index":289,"time_elapsed":677029,"internal_node_id":"0.0-8.0-2.70","subject":"gmtg8wzak6mbe0r"},{"rt":722,"stimulus":"<p>Which sequence did you perceive as more natural?</p>","button_pressed":"0","test_part":"response","test_stimulus":{"position":0,"left":"bvh/return-bottle-hold-training1-lines.txt","right":"bvh/vr_prediction_models/model(dmp)-dataset(return-bottle-hold)-npsi(30)-hold(1)/final-lines.txt","att_check":false},"trial_type":"html-button-response","trial_index":290,"time_elapsed":677756,"internal_node_id":"0.0-8.0-3.70","subject":"gmtg8wzak6mbe0r"},{"rt":713,"stimulus":"<p>Ready?</p>","button_pressed":"0","trial_type":"html-button-response","trial_index":291,"time_elapsed":678472,"internal_node_id":"0.0-8.0-0.71","subject":"gmtg8wzak6mbe0r"},{"rt":null,"stimulus":"<div style=\"font-size:60px;\">+</div>","key_press":null,"trial_type":"html-keyboard-response","trial_index":292,"time_elapsed":680473,"internal_node_id":"0.0-8.0-1.71","subject":"gmtg8wzak6mbe0r"},{"trial_type":"turing-test","trial_index":293,"time_elapsed":685637,"internal_node_id":"0.0-8.0-2.71","subject":"gmtg8wzak6mbe0r"},{"rt":3961,"stimulus":"<p>Which sequence did you perceive as more natural?</p>","button_pressed":"0","test_part":"response","test_stimulus":{"position":1,"left":"bvh/vr_prediction_models/model(vcgpdm)-dataset(return-bottle-hold)-mode(ELBO)-parts(3)-dyn(25)-lvm(15)-hold(0)/final-lines.txt","right":"bvh/return-bottle-hold-training0-lines.txt","att_check":false},"trial_type":"html-button-response","trial_index":294,"time_elapsed":689601,"internal_node_id":"0.0-8.0-3.71","subject":"gmtg8wzak6mbe0r"},{"rt":580,"stimulus":"<p>Ready?</p>","button_pressed":"0","trial_type":"html-button-response","trial_index":295,"time_elapsed":690185,"internal_node_id":"0.0-8.0-0.72","subject":"gmtg8wzak6mbe0r"},{"rt":null,"stimulus":"<div style=\"font-size:60px;\">+</div>","key_press":null,"trial_type":"html-keyboard-response","trial_index":296,"time_elapsed":692186,"internal_node_id":"0.0-8.0-1.72","subject":"gmtg8wzak6mbe0r"},{"trial_type":"turing-test","trial_index":297,"time_elapsed":695602,"internal_node_id":"0.0-8.0-2.72","subject":"gmtg8wzak6mbe0r"},{"rt":1762,"stimulus":"<p>Which sequence did you perceive as more natural?</p>","button_pressed":"0","test_part":"response","test_stimulus":{"position":1,"left":"bvh/vr_prediction_models/model(tmp)-dataset(return-bottle-hold)-numprim(7)-hold(2)/final-lines.txt","right":"bvh/return-bottle-hold-training2-lines.txt","att_check":false},"trial_type":"html-button-response","trial_index":298,"time_elapsed":697367,"internal_node_id":"0.0-8.0-3.72","subject":"gmtg8wzak6mbe0r"},{"rt":703,"stimulus":"<p>Ready?</p>","button_pressed":"0","trial_type":"html-button-response","trial_index":299,"time_elapsed":698074,"internal_node_id":"0.0-8.0-0.73","subject":"gmtg8wzak6mbe0r"},{"rt":null,"stimulus":"<div style=\"font-size:60px;\">+</div>","key_press":null,"trial_type":"html-keyboard-response","trial_index":300,"time_elapsed":700075,"internal_node_id":"0.0-8.0-1.73","subject":"gmtg8wzak6mbe0r"},{"trial_type":"turing-test","trial_index":301,"time_elapsed":703478,"internal_node_id":"0.0-8.0-2.73","subject":"gmtg8wzak6mbe0r"},{"rt":888,"stimulus":"<p>Which sequence did you perceive as more natural?</p>","button_pressed":"0","test_part":"response","test_stimulus":{"position":0,"left":"bvh/return-bottle-hold-training2-lines.txt","right":"bvh/vr_prediction_models/model(dmp)-dataset(return-bottle-hold)-npsi(30)-hold(2)/final-lines.txt","att_check":true},"trial_type":"html-button-response","trial_index":302,"time_elapsed":704372,"internal_node_id":"0.0-8.0-3.73","subject":"gmtg8wzak6mbe0r"},{"rt":740,"stimulus":"<p>Ready?</p>","button_pressed":"0","trial_type":"html-button-response","trial_index":303,"time_elapsed":705116,"internal_node_id":"0.0-8.0-0.74","subject":"gmtg8wzak6mbe0r"},{"rt":null,"stimulus":"<div style=\"font-size:60px;\">+</div>","key_press":null,"trial_type":"html-keyboard-response","trial_index":304,"time_elapsed":707118,"internal_node_id":"0.0-8.0-1.74","subject":"gmtg8wzak6mbe0r"},{"trial_type":"turing-test","trial_index":305,"time_elapsed":710297,"internal_node_id":"0.0-8.0-2.74","subject":"gmtg8wzak6mbe0r"},{"rt":1149,"stimulus":"<p>Which sequence did you perceive as more natural?</p>","button_pressed":"0","test_part":"response","test_stimulus":{"position":0,"left":"bvh/pass-bottle-hold-training1-lines.txt","right":"bvh/vr_prediction_models/model(dmp)-dataset(pass-bottle-hold)-npsi(10)-hold(1)/final-lines.txt","att_check":false},"trial_type":"html-button-response","trial_index":306,"time_elapsed":711450,"internal_node_id":"0.0-8.0-3.74","subject":"gmtg8wzak6mbe0r"},{"rt":989,"stimulus":"<p>Ready?</p>","button_pressed":"0","trial_type":"html-button-response","trial_index":307,"time_elapsed":712442,"internal_node_id":"0.0-8.0-0.75","subject":"gmtg8wzak6mbe0r"},{"rt":null,"stimulus":"<div style=\"font-size:60px;\">+</div>","key_press":null,"trial_type":"html-keyboard-response","trial_index":308,"time_elapsed":714444,"internal_node_id":"0.0-8.0-1.75","subject":"gmtg8wzak6mbe0r"},{"trial_type":"turing-test","trial_index":309,"time_elapsed":720165,"internal_node_id":"0.0-8.0-2.75","subject":"gmtg8wzak6mbe0r"},{"rt":1120,"stimulus":"<p>Which sequence did you perceive as more natural?</p>","button_pressed":"0","test_part":"response","test_stimulus":{"position":0,"left":"bvh/return-bottle-training4-lines.txt","right":"bvh/vr_prediction_models/model(dmp)-dataset(return-bottle)-npsi(50)-hold(4)/final-lines.txt","att_check":false},"trial_type":"html-button-response","trial_index":310,"time_elapsed":721292,"internal_node_id":"0.0-8.0-3.75","subject":"gmtg8wzak6mbe0r"},{"rt":866,"stimulus":"<p>Ready?</p>","button_pressed":"0","trial_type":"html-button-response","trial_index":311,"time_elapsed":722161,"internal_node_id":"0.0-8.0-0.76","subject":"gmtg8wzak6mbe0r"},{"rt":null,"stimulus":"<div style=\"font-size:60px;\">+</div>","key_press":null,"trial_type":"html-keyboard-response","trial_index":312,"time_elapsed":724161,"internal_node_id":"0.0-8.0-1.76","subject":"gmtg8wzak6mbe0r"},{"trial_type":"turing-test","trial_index":313,"time_elapsed":727454,"internal_node_id":"0.0-8.0-2.76","subject":"gmtg8wzak6mbe0r"},{"rt":1453,"stimulus":"<p>Which sequence did you perceive as more natural?</p>","button_pressed":"1","test_part":"response","test_stimulus":{"position":0,"left":"bvh/pass-bottle-hold-training2-lines.txt","right":"bvh/vr_prediction_models/model(tmp)-dataset(pass-bottle-hold)-numprim(4)-hold(2)/final-lines.txt","att_check":false},"trial_type":"html-button-response","trial_index":314,"time_elapsed":728912,"internal_node_id":"0.0-8.0-3.76","subject":"gmtg8wzak6mbe0r"},{"rt":639,"stimulus":"<p>Ready?</p>","button_pressed":"0","trial_type":"html-button-response","trial_index":315,"time_elapsed":729559,"internal_node_id":"0.0-8.0-0.77","subject":"gmtg8wzak6mbe0r"},{"rt":null,"stimulus":"<div style=\"font-size:60px;\">+</div>","key_press":null,"trial_type":"html-keyboard-response","trial_index":316,"time_elapsed":731562,"internal_node_id":"0.0-8.0-1.77","subject":"gmtg8wzak6mbe0r"},{"trial_type":"turing-test","trial_index":317,"time_elapsed":735186,"internal_node_id":"0.0-8.0-2.77","subject":"gmtg8wzak6mbe0r"},{"rt":1158,"stimulus":"<p>Which sequence did you perceive as more natural?</p>","button_pressed":"1","test_part":"response","test_stimulus":{"position":1,"left":"bvh/vr_prediction_models/model(vcgpdm)-dataset(return-bottle-hold)-mode(ELBO)-parts(3)-dyn(15)-lvm(30)-hold(2)/final-lines.txt","right":"bvh/return-bottle-hold-training2-lines.txt","att_check":false},"trial_type":"html-button-response","trial_index":318,"time_elapsed":736348,"internal_node_id":"0.0-8.0-3.77","subject":"gmtg8wzak6mbe0r"},{"rt":727,"stimulus":"<p>Ready?</p>","button_pressed":"0","trial_type":"html-button-response","trial_index":319,"time_elapsed":737080,"internal_node_id":"0.0-8.0-0.78","subject":"gmtg8wzak6mbe0r"},{"rt":null,"stimulus":"<div style=\"font-size:60px;\">+</div>","key_press":null,"trial_type":"html-keyboard-response","trial_index":320,"time_elapsed":739081,"internal_node_id":"0.0-8.0-1.78","subject":"gmtg8wzak6mbe0r"},{"trial_type":"turing-test","trial_index":321,"time_elapsed":744794,"internal_node_id":"0.0-8.0-2.78","subject":"gmtg8wzak6mbe0r"},{"rt":883,"stimulus":"<p>Which sequence did you perceive as more natural?</p>","button_pressed":"1","test_part":"response","test_stimulus":{"position":1,"left":"bvh/vr_prediction_models/model(tmp)-dataset(return-bottle)-numprim(6)-hold(3)/final-lines.txt","right":"bvh/return-bottle-training3-lines.txt","att_check":false},"trial_type":"html-button-response","trial_index":322,"time_elapsed":745681,"internal_node_id":"0.0-8.0-3.78","subject":"gmtg8wzak6mbe0r"},{"rt":671,"stimulus":"<p>Ready?</p>","button_pressed":"0","trial_type":"html-button-response","trial_index":323,"time_elapsed":746358,"internal_node_id":"0.0-8.0-0.79","subject":"gmtg8wzak6mbe0r"},{"rt":null,"stimulus":"<div style=\"font-size:60px;\">+</div>","key_press":null,"trial_type":"html-keyboard-response","trial_index":324,"time_elapsed":748359,"internal_node_id":"0.0-8.0-1.79","subject":"gmtg8wzak6mbe0r"},{"trial_type":"turing-test","trial_index":325,"time_elapsed":754200,"internal_node_id":"0.0-8.0-2.79","subject":"gmtg8wzak6mbe0r"},{"rt":1081,"stimulus":"<p>Which sequence did you perceive as more natural?</p>","button_pressed":"0","test_part":"response","test_stimulus":{"position":1,"left":"bvh/vr_prediction_models/model(vcgpdm)-dataset(pass-bottle)-mode(ELBO)-parts(1)-dyn(30)-lvm(20)-hold(4)/final-lines.txt","right":"bvh/pass-bottle-training4-lines.txt","att_check":false},"trial_type":"html-button-response","trial_index":326,"time_elapsed":755284,"internal_node_id":"0.0-8.0-3.79","subject":"gmtg8wzak6mbe0r"},{"rt":678,"stimulus":"<p>Ready?</p>","button_pressed":"0","trial_type":"html-button-response","trial_index":327,"time_elapsed":755965,"internal_node_id":"0.0-8.0-0.80","subject":"gmtg8wzak6mbe0r"},{"rt":null,"stimulus":"<div style=\"font-size:60px;\">+</div>","key_press":null,"trial_type":"html-keyboard-response","trial_index":328,"time_elapsed":757968,"internal_node_id":"0.0-8.0-1.80","subject":"gmtg8wzak6mbe0r"},{"trial_type":"turing-test","trial_index":329,"time_elapsed":761676,"internal_node_id":"0.0-8.0-2.80","subject":"gmtg8wzak6mbe0r"},{"rt":969,"stimulus":"<p>Which sequence did you perceive as more natural?</p>","button_pressed":"1","test_part":"response","test_stimulus":{"position":1,"left":"bvh/vr_prediction_models/model(vcgpdm)-dataset(return-bottle-hold)-mode(ELBO)-parts(1)-dyn(10)-lvm(5)-hold(3)/final-lines.txt","right":"bvh/return-bottle-hold-training3-lines.txt","att_check":false},"trial_type":"html-button-response","trial_index":330,"time_elapsed":762649,"internal_node_id":"0.0-8.0-3.80","subject":"gmtg8wzak6mbe0r"},{"rt":684,"stimulus":"<p>Ready?</p>","button_pressed":"0","trial_type":"html-button-response","trial_index":331,"time_elapsed":763337,"internal_node_id":"0.0-8.0-0.81","subject":"gmtg8wzak6mbe0r"},{"rt":null,"stimulus":"<div style=\"font-size:60px;\">+</div>","key_press":null,"trial_type":"html-keyboard-response","trial_index":332,"time_elapsed":765338,"internal_node_id":"0.0-8.0-1.81","subject":"gmtg8wzak6mbe0r"},{"trial_type":"turing-test","trial_index":333,"time_elapsed":771081,"internal_node_id":"0.0-8.0-2.81","subject":"gmtg8wzak6mbe0r"},{"rt":1647,"stimulus":"<p>Which sequence did you perceive as more natural?</p>","button_pressed":"1","test_part":"response","test_stimulus":{"position":0,"left":"bvh/return-bottle-training4-lines.txt","right":"bvh/vr_prediction_models/model(dmp)-dataset(return-bottle)-npsi(10)-hold(4)/final-lines.txt","att_check":false},"trial_type":"html-button-response","trial_index":334,"time_elapsed":772730,"internal_node_id":"0.0-8.0-3.81","subject":"gmtg8wzak6mbe0r"},{"rt":715,"stimulus":"<p>Ready?</p>","button_pressed":"0","trial_type":"html-button-response","trial_index":335,"time_elapsed":773450,"internal_node_id":"0.0-8.0-0.82","subject":"gmtg8wzak6mbe0r"},{"rt":null,"stimulus":"<div style=\"font-size:60px;\">+</div>","key_press":null,"trial_type":"html-keyboard-response","trial_index":336,"time_elapsed":775452,"internal_node_id":"0.0-8.0-1.82","subject":"gmtg8wzak6mbe0r"},{"trial_type":"turing-test","trial_index":337,"time_elapsed":779046,"internal_node_id":"0.0-8.0-2.82","subject":"gmtg8wzak6mbe0r"},{"rt":1093,"stimulus":"<p>Which sequence did you perceive as more natural?</p>","button_pressed":"0","test_part":"response","test_stimulus":{"position":1,"left":"bvh/vr_prediction_models/model(tmp)-dataset(return-bottle-hold)-numprim(9)-hold(3)/final-lines.txt","right":"bvh/return-bottle-hold-training3-lines.txt","att_check":false},"trial_type":"html-button-response","trial_index":338,"time_elapsed":780143,"internal_node_id":"0.0-8.0-3.82","subject":"gmtg8wzak6mbe0r"},{"rt":617,"stimulus":"<p>Ready?</p>","button_pressed":"0","trial_type":"html-button-response","trial_index":339,"time_elapsed":780763,"internal_node_id":"0.0-8.0-0.83","subject":"gmtg8wzak6mbe0r"},{"rt":null,"stimulus":"<div style=\"font-size:60px;\">+</div>","key_press":null,"trial_type":"html-keyboard-response","trial_index":340,"time_elapsed":782765,"internal_node_id":"0.0-8.0-1.83","subject":"gmtg8wzak6mbe0r"},{"trial_type":"turing-test","trial_index":341,"time_elapsed":788815,"internal_node_id":"0.0-8.0-2.83","subject":"gmtg8wzak6mbe0r"},{"rt":794,"stimulus":"<p>Which sequence did you perceive as more natural?</p>","button_pressed":"1","test_part":"response","test_stimulus":{"position":1,"left":"bvh/vr_prediction_models/model(dmp)-dataset(return-bottle)-npsi(80)-hold(1)/final-lines.txt","right":"bvh/return-bottle-training1-lines.txt","att_check":false},"trial_type":"html-button-response","trial_index":342,"time_elapsed":789610,"internal_node_id":"0.0-8.0-3.83","subject":"gmtg8wzak6mbe0r"},{"rt":732,"stimulus":"<p>Ready?</p>","button_pressed":"0","trial_type":"html-button-response","trial_index":343,"time_elapsed":790350,"internal_node_id":"0.0-8.0-0.84","subject":"gmtg8wzak6mbe0r"},{"rt":null,"stimulus":"<div style=\"font-size:60px;\">+</div>","key_press":null,"trial_type":"html-keyboard-response","trial_index":344,"time_elapsed":792351,"internal_node_id":"0.0-8.0-1.84","subject":"gmtg8wzak6mbe0r"},{"trial_type":"turing-test","trial_index":345,"time_elapsed":797809,"internal_node_id":"0.0-8.0-2.84","subject":"gmtg8wzak6mbe0r"},{"rt":1103,"stimulus":"<p>Which sequence did you perceive as more natural?</p>","button_pressed":"0","test_part":"response","test_stimulus":{"position":1,"left":"bvh/vr_prediction_models/model(tmp)-dataset(return-bottle)-numprim(15)-hold(0)/final-lines.txt","right":"bvh/return-bottle-training0-lines.txt","att_check":false},"trial_type":"html-button-response","trial_index":346,"time_elapsed":798923,"internal_node_id":"0.0-8.0-3.84","subject":"gmtg8wzak6mbe0r"},{"rt":908,"stimulus":"<p>Ready?</p>","button_pressed":"0","trial_type":"html-button-response","trial_index":347,"time_elapsed":799836,"internal_node_id":"0.0-8.0-0.85","subject":"gmtg8wzak6mbe0r"},{"rt":null,"stimulus":"<div style=\"font-size:60px;\">+</div>","key_press":null,"trial_type":"html-keyboard-response","trial_index":348,"time_elapsed":801837,"internal_node_id":"0.0-8.0-1.85","subject":"gmtg8wzak6mbe0r"},{"trial_type":"turing-test","trial_index":349,"time_elapsed":805121,"internal_node_id":"0.0-8.0-2.85","subject":"gmtg8wzak6mbe0r"},{"rt":1251,"stimulus":"<p>Which sequence did you perceive as more natural?</p>","button_pressed":"0","test_part":"response","test_stimulus":{"position":0,"left":"bvh/pass-bottle-hold-training0-lines.txt","right":"bvh/vr_prediction_models/model(dmp)-dataset(pass-bottle-hold)-npsi(40)-hold(0)/final-lines.txt","att_check":false},"trial_type":"html-button-response","trial_index":350,"time_elapsed":806375,"internal_node_id":"0.0-8.0-3.85","subject":"gmtg8wzak6mbe0r"},{"rt":1109,"stimulus":"<p>Ready?</p>","button_pressed":"0","trial_type":"html-button-response","trial_index":351,"time_elapsed":807488,"internal_node_id":"0.0-8.0-0.86","subject":"gmtg8wzak6mbe0r"},{"rt":null,"stimulus":"<div style=\"font-size:60px;\">+</div>","key_press":null,"trial_type":"html-keyboard-response","trial_index":352,"time_elapsed":809490,"internal_node_id":"0.0-8.0-1.86","subject":"gmtg8wzak6mbe0r"},{"trial_type":"turing-test","trial_index":353,"time_elapsed":815343,"internal_node_id":"0.0-8.0-2.86","subject":"gmtg8wzak6mbe0r"},{"rt":18961,"stimulus":"<p>Which sequence did you perceive as more natural?</p>","button_pressed":"1","test_part":"response","test_stimulus":{"position":0,"left":"bvh/pass-bottle-training3-lines.txt","right":"bvh/vr_prediction_models/model(vcgpdm)-dataset(pass-bottle)-mode(ELBO)-parts(1)-dyn(30)-lvm(30)-hold(3)/final-lines.txt","att_check":false},"trial_type":"html-button-response","trial_index":354,"time_elapsed":834309,"internal_node_id":"0.0-8.0-3.86","subject":"gmtg8wzak6mbe0r"},{"rt":667,"stimulus":"<p>Ready?</p>","button_pressed":"0","trial_type":"html-button-response","trial_index":355,"time_elapsed":834979,"internal_node_id":"0.0-8.0-0.87","subject":"gmtg8wzak6mbe0r"},{"rt":null,"stimulus":"<div style=\"font-size:60px;\">+</div>","key_press":null,"trial_type":"html-keyboard-response","trial_index":356,"time_elapsed":836981,"internal_node_id":"0.0-8.0-1.87","subject":"gmtg8wzak6mbe0r"},{"trial_type":"turing-test","trial_index":357,"time_elapsed":842625,"internal_node_id":"0.0-8.0-2.87","subject":"gmtg8wzak6mbe0r"},{"rt":4915,"stimulus":"<p>Which sequence did you perceive as more natural?</p>","button_pressed":"1","test_part":"response","test_stimulus":{"position":0,"left":"bvh/pass-bottle-training1-lines.txt","right":"bvh/vr_prediction_models/model(vcgpdm)-dataset(pass-bottle)-mode(ELBO)-parts(1)-dyn(20)-lvm(30)-hold(1)/final-lines.txt","att_check":false},"trial_type":"html-button-response","trial_index":358,"time_elapsed":847545,"internal_node_id":"0.0-8.0-3.87","subject":"gmtg8wzak6mbe0r"},{"rt":655,"stimulus":"<p>Ready?</p>","button_pressed":"0","trial_type":"html-button-response","trial_index":359,"time_elapsed":848205,"internal_node_id":"0.0-8.0-0.88","subject":"gmtg8wzak6mbe0r"},{"rt":null,"stimulus":"<div style=\"font-size:60px;\">+</div>","key_press":null,"trial_type":"html-keyboard-response","trial_index":360,"time_elapsed":850206,"internal_node_id":"0.0-8.0-1.88","subject":"gmtg8wzak6mbe0r"},{"trial_type":"turing-test","trial_index":361,"time_elapsed":856537,"internal_node_id":"0.0-8.0-2.88","subject":"gmtg8wzak6mbe0r"},{"rt":889,"stimulus":"<p>Which sequence did you perceive as more natural?</p>","button_pressed":"0","test_part":"response","test_stimulus":{"position":0,"left":"bvh/return-bottle-training1-lines.txt","right":"bvh/vr_prediction_models/model(vcgpdm)-dataset(return-bottle)-mode(ELBO)-parts(1)-dyn(20)-lvm(5)-hold(1)/final-lines.txt","att_check":false},"trial_type":"html-button-response","trial_index":362,"time_elapsed":857431,"internal_node_id":"0.0-8.0-3.88","subject":"gmtg8wzak6mbe0r"},{"rt":658,"stimulus":"<p>Ready?</p>","button_pressed":"0","trial_type":"html-button-response","trial_index":363,"time_elapsed":858095,"internal_node_id":"0.0-8.0-0.89","subject":"gmtg8wzak6mbe0r"},{"rt":null,"stimulus":"<div style=\"font-size:60px;\">+</div>","key_press":null,"trial_type":"html-keyboard-response","trial_index":364,"time_elapsed":860097,"internal_node_id":"0.0-8.0-1.89","subject":"gmtg8wzak6mbe0r"},{"trial_type":"turing-test","trial_index":365,"time_elapsed":864080,"internal_node_id":"0.0-8.0-2.89","subject":"gmtg8wzak6mbe0r"},{"rt":1464,"stimulus":"<p>Which sequence did you perceive as more natural?</p>","button_pressed":"1","test_part":"response","test_stimulus":{"position":1,"left":"bvh/vr_prediction_models/model(vcgpdm)-dataset(return-bottle-hold)-mode(ELBO)-parts(1)-dyn(10)-lvm(25)-hold(4)/final-lines.txt","right":"bvh/return-bottle-hold-training4-lines.txt","att_check":false},"trial_type":"html-button-response","trial_index":366,"time_elapsed":865548,"internal_node_id":"0.0-8.0-3.89","subject":"gmtg8wzak6mbe0r"},{"rt":3955,"stimulus":"<p>Ready?</p>","button_pressed":"0","trial_type":"html-button-response","trial_index":367,"time_elapsed":869507,"internal_node_id":"0.0-8.0-0.90","subject":"gmtg8wzak6mbe0r"},{"rt":null,"stimulus":"<div style=\"font-size:60px;\">+</div>","key_press":null,"trial_type":"html-keyboard-response","trial_index":368,"time_elapsed":871509,"internal_node_id":"0.0-8.0-1.90","subject":"gmtg8wzak6mbe0r"},{"trial_type":"turing-test","trial_index":369,"time_elapsed":877680,"internal_node_id":"0.0-8.0-2.90","subject":"gmtg8wzak6mbe0r"},{"rt":8722,"stimulus":"<p>Which sequence did you perceive as more natural?</p>","button_pressed":"0","test_part":"response","test_stimulus":{"position":0,"left":"bvh/return-bottle-training1-lines.txt","right":"bvh/vr_prediction_models/model(vcgpdm)-dataset(return-bottle)-mode(ELBO)-parts(3)-dyn(25)-lvm(25)-hold(1)/final-lines.txt","att_check":false},"trial_type":"html-button-response","trial_index":370,"time_elapsed":886408,"internal_node_id":"0.0-8.0-3.90","subject":"gmtg8wzak6mbe0r"},{"rt":1015,"stimulus":"<p>Ready?</p>","button_pressed":"0","trial_type":"html-button-response","trial_index":371,"time_elapsed":887428,"internal_node_id":"0.0-8.0-0.91","subject":"gmtg8wzak6mbe0r"},{"rt":null,"stimulus":"<div style=\"font-size:60px;\">+</div>","key_press":null,"trial_type":"html-keyboard-response","trial_index":372,"time_elapsed":889429,"internal_node_id":"0.0-8.0-1.91","subject":"gmtg8wzak6mbe0r"},{"trial_type":"turing-test","trial_index":373,"time_elapsed":896233,"internal_node_id":"0.0-8.0-2.91","subject":"gmtg8wzak6mbe0r"},{"rt":1221,"stimulus":"<p>Which sequence did you perceive as more natural?</p>","button_pressed":"1","test_part":"response","test_stimulus":{"position":1,"left":"bvh/vr_prediction_models/model(vcgpdm)-dataset(pass-bottle)-mode(ELBO)-parts(1)-dyn(20)-lvm(30)-hold(0)/final-lines.txt","right":"bvh/pass-bottle-training0-lines.txt","att_check":false},"trial_type":"html-button-response","trial_index":374,"time_elapsed":897463,"internal_node_id":"0.0-8.0-3.91","subject":"gmtg8wzak6mbe0r"},{"rt":770,"stimulus":"<p>Ready?</p>","button_pressed":"0","trial_type":"html-button-response","trial_index":375,"time_elapsed":898239,"internal_node_id":"0.0-8.0-0.92","subject":"gmtg8wzak6mbe0r"},{"rt":null,"stimulus":"<div style=\"font-size:60px;\">+</div>","key_press":null,"trial_type":"html-keyboard-response","trial_index":376,"time_elapsed":900242,"internal_node_id":"0.0-8.0-1.92","subject":"gmtg8wzak6mbe0r"},{"trial_type":"turing-test","trial_index":377,"time_elapsed":903673,"internal_node_id":"0.0-8.0-2.92","subject":"gmtg8wzak6mbe0r"},{"rt":978,"stimulus":"<p>Which sequence did you perceive as more natural?</p>","button_pressed":"0","test_part":"response","test_stimulus":{"position":0,"left":"bvh/pass-bottle-hold-training2-lines.txt","right":"bvh/vr_prediction_models/model(vcgpdm)-dataset(pass-bottle-hold)-mode(ELBO)-parts(1)-dyn(25)-lvm(35)-hold(2)/final-lines.txt","att_check":false},"trial_type":"html-button-response","trial_index":378,"time_elapsed":904654,"internal_node_id":"0.0-8.0-3.92","subject":"gmtg8wzak6mbe0r"},{"rt":674,"stimulus":"<p>Ready?</p>","button_pressed":"0","trial_type":"html-button-response","trial_index":379,"time_elapsed":905332,"internal_node_id":"0.0-8.0-0.93","subject":"gmtg8wzak6mbe0r"},{"rt":null,"stimulus":"<div style=\"font-size:60px;\">+</div>","key_press":null,"trial_type":"html-keyboard-response","trial_index":380,"time_elapsed":907334,"internal_node_id":"0.0-8.0-1.93","subject":"gmtg8wzak6mbe0r"},{"trial_type":"turing-test","trial_index":381,"time_elapsed":914069,"internal_node_id":"0.0-8.0-2.93","subject":"gmtg8wzak6mbe0r"},{"rt":1075,"stimulus":"<p>Which sequence did you perceive as more natural?</p>","button_pressed":"1","test_part":"response","test_stimulus":{"position":1,"left":"bvh/vr_prediction_models/model(tmp)-dataset(pass-bottle)-numprim(15)-hold(0)/final-lines.txt","right":"bvh/pass-bottle-training0-lines.txt","att_check":false},"trial_type":"html-button-response","trial_index":382,"time_elapsed":915147,"internal_node_id":"0.0-8.0-3.93","subject":"gmtg8wzak6mbe0r"},{"rt":722,"stimulus":"<p>Ready?</p>","button_pressed":"0","trial_type":"html-button-response","trial_index":383,"time_elapsed":915873,"internal_node_id":"0.0-8.0-0.94","subject":"gmtg8wzak6mbe0r"},{"rt":null,"stimulus":"<div style=\"font-size:60px;\">+</div>","key_press":null,"trial_type":"html-keyboard-response","trial_index":384,"time_elapsed":917874,"internal_node_id":"0.0-8.0-1.94","subject":"gmtg8wzak6mbe0r"},{"trial_type":"turing-test","trial_index":385,"time_elapsed":923332,"internal_node_id":"0.0-8.0-2.94","subject":"gmtg8wzak6mbe0r"},{"rt":5712,"stimulus":"<p>Which sequence did you perceive as more natural?</p>","button_pressed":"1","test_part":"response","test_stimulus":{"position":0,"left":"bvh/return-bottle-training0-lines.txt","right":"bvh/vr_prediction_models/model(vcgpdm)-dataset(return-bottle)-mode(ELBO)-parts(3)-dyn(35)-lvm(20)-hold(0)/final-lines.txt","att_check":false},"trial_type":"html-button-response","trial_index":386,"time_elapsed":929050,"internal_node_id":"0.0-8.0-3.94","subject":"gmtg8wzak6mbe0r"},{"rt":646,"stimulus":"<p>Ready?</p>","button_pressed":"0","trial_type":"html-button-response","trial_index":387,"time_elapsed":929700,"internal_node_id":"0.0-8.0-0.95","subject":"gmtg8wzak6mbe0r"},{"rt":null,"stimulus":"<div style=\"font-size:60px;\">+</div>","key_press":null,"trial_type":"html-keyboard-response","trial_index":388,"time_elapsed":931702,"internal_node_id":"0.0-8.0-1.95","subject":"gmtg8wzak6mbe0r"},{"trial_type":"turing-test","trial_index":389,"time_elapsed":935325,"internal_node_id":"0.0-8.0-2.95","subject":"gmtg8wzak6mbe0r"},{"rt":5061,"stimulus":"<p>Which sequence did you perceive as more natural?</p>","button_pressed":"1","test_part":"response","test_stimulus":{"position":1,"left":"bvh/vr_prediction_models/model(dmp)-dataset(return-bottle-hold)-npsi(10)-hold(3)/final-lines.txt","right":"bvh/return-bottle-hold-t