[{"rt":2034.609999973327,"stimulus":"<p>Welcome!<br> Please choose your language to start the experiment in the chosen language.</p><p>Willkommen!<br> Bitte wählen Sie eine Sprache, um das Experiment in der ausgewählten Sprache zu starten</p>","button_pressed":"1","trial_type":"html-button-response","trial_index":0,"time_elapsed":2052,"internal_node_id":"0.0-0.0","subject":"77fvuhfn245rntf","sona":"9361"},{"view_history":"[{\"page_index\":0,\"viewing_time\":5232.130000018515},{\"page_index\":1,\"viewing_time\":2899.9649999896064},{\"page_index\":2,\"viewing_time\":5468.590000004042},{\"page_index\":3,\"viewing_time\":3633.7250000215136},{\"page_index\":4,\"viewing_time\":2189.5349999540485}]","rt":19425.225000013597,"trial_type":"instructions","trial_index":1,"time_elapsed":21479,"internal_node_id":"0.0-1.0-0.0","subject":"77fvuhfn245rntf","sona":"9361"},{"rt":1029.934999998659,"stimulus":"<p>Bereit?</p>","key_press":32,"trial_type":"html-keyboard-response","trial_index":2,"time_elapsed":22511,"internal_node_id":"0.0-3.0","subject":"77fvuhfn245rntf","sona":"9361"},{"rt":null,"stimulus":"<div style=\"font-size:60px;\">+</div>","key_press":null,"trial_type":"html-keyboard-response","trial_index":3,"time_elapsed":24524,"internal_node_id":"0.0-4.0","subject":"77fvuhfn245rntf","sona":"9361"},{"trial_type":"training","trial_index":4,"time_elapsed":28384,"internal_node_id":"0.0-5.0","subject":"77fvuhfn245rntf","sona":"9361"},{"rt":2298.975000041537,"stimulus":"<p>Welche Sequenz haben Sie als natürlicher empfunden?</p>","key_press":70,"trial_type":"html-keyboard-response","trial_index":5,"time_elapsed":30685,"internal_node_id":"0.0-6.0","subject":"77fvuhfn245rntf","sona":"9361"},{"rt":2781.940000015311,"stimulus":"<p>Das Experiment startet nun.</p><p><small>Bitte drücken Sie den Knopf, wenn Sie bereit sind.</small></p>","button_pressed":"0","trial_type":"html-button-response","trial_index":6,"time_elapsed":33467,"internal_node_id":"0.0-7.0","subject":"77fvuhfn245rntf","sona":"9361"},{"rt":883.7000000057742,"stimulus":"<p>Bereit?</p>","key_press":32,"trial_type":"html-keyboard-response","trial_index":7,"time_elapsed":34353,"internal_node_id":"0.0-8.0-0.0","subject":"77fvuhfn245rntf","sona":"9361"},{"rt":null,"stimulus":"<div style=\"font-size:60px;\">+</div>","key_press":null,"trial_type":"html-keyboard-response","trial_index":8,"time_elapsed":36362,"internal_node_id":"0.0-8.0-1.0","subject":"77fvuhfn245rntf","sona":"9361"},{"trial_type":"turing-test","trial_index":9,"time_elapsed":42239,"internal_node_id":"0.0-8.0-2.0","subject":"77fvuhfn245rntf","sona":"9361"},{"rt":452.5599999469705,"stimulus":"<p>Welche Sequenz haben Sie als natürlicher empfunden?</p>","key_press":74,"test_part":"response","test_stimulus":{"position":1,"left":"bvh/vr_prediction_models/model(dmp)-dataset(pass-bottle)-npsi(10)-hold(3)/final-lines.txt","right":"bvh/pass-bottle-training3-lines.txt","att_check":false},"trial_type":"html-keyboard-response","trial_index":10,"time_elapsed":42696,"internal_node_id":"0.0-8.0-3.0","subject":"77fvuhfn245rntf","sona":"9361"},{"rt":1322.6900000008754,"stimulus":"<p>Bereit?</p>","key_press":32,"trial_type":"html-keyboard-response","trial_index":11,"time_elapsed":44021,"internal_node_id":"0.0-8.0-0.1","subject":"77fvuhfn245rntf","sona":"9361"},{"rt":null,"stimulus":"<div style=\"font-size:60px;\">+</div>","key_press":null,"trial_type":"html-keyboard-response","trial_index":12,"time_elapsed":46031,"internal_node_id":"0.0-8.0-1.1","subject":"77fvuhfn245rntf","sona":"9361"},{"trial_type":"turing-test","trial_index":13,"time_elapsed":51906,"internal_node_id":"0.0-8.0-2.1","subject":"77fvuhfn245rntf","sona":"9361"},{"rt":599.5049999910407,"stimulus":"<p>Welche Sequenz haben Sie als natürlicher empfunden?</p>","key_press":74,"test_part":"response","test_stimulus":{"position":1,"left":"bvh/vr_prediction_models/model(vcgpdm)-dataset(pass-bottle)-mode(ELBO)-parts(1)-dyn(30)-lvm(35)-hold(3)/final-lines.txt","right":"bvh/pass-bottle-training3-lines.txt","att_check":false},"trial_type":"html-keyboard-response","trial_index":14,"time_elapsed":52509,"internal_node_id":"0.0-8.0-3.1","subject":"77fvuhfn245rntf","sona":"9361"},{"rt":866.4599999901839,"stimulus":"<p>Bereit?</p>","key_press":32,"trial_type":"html-keyboard-response","trial_index":15,"time_elapsed":53378,"internal_node_id":"0.0-8.0-0.2","subject":"77fvuhfn245rntf","sona":"9361"},{"rt":null,"stimulus":"<div style=\"font-size:60px;\">+</div>","key_press":null,"trial_type":"html-keyboard-response","trial_index":16,"time_elapsed":55388,"internal_node_id":"0.0-8.0-1.2","subject":"77fvuhfn245rntf","sona":"9361"},{"trial_type":"turing-test","trial_index":17,"time_elapsed":60628,"internal_node_id":"0.0-8.0-2.2","subject":"77fvuhfn245rntf","sona":"9361"},{"rt":631.2250000191852,"stimulus":"<p>Welche Sequenz haben Sie als natürlicher empfunden?</p>","key_press":70,"test_part":"response","test_stimulus":{"position":1,"left":"bvh/vr_prediction_models/model(vcgpdm)-dataset(return-bottle-hold)-mode(ELBO)-parts(3)-dyn(30)-lvm(15)-hold(0)/final-lines.txt","right":"bvh/return-bottle-hold-training0-lines.txt","att_check":false},"trial_type":"html-keyboard-response","trial_index":18,"time_elapsed":61262,"internal_node_id":"0.0-8.0-3.2","subject":"77fvuhfn245rntf","sona":"9361"},{"rt":907.1950000361539,"stimulus":"<p>Bereit?</p>","key_press":32,"trial_type":"html-keyboard-response","trial_index":19,"time_elapsed":62172,"internal_node_id":"0.0-8.0-0.3","subject":"77fvuhfn245rntf","sona":"9361"},{"rt":null,"stimulus":"<div style=\"font-size:60px;\">+</div>","key_press":null,"trial_type":"html-keyboard-response","trial_index":20,"time_elapsed":64182,"internal_node_id":"0.0-8.0-1.3","subject":"77fvuhfn245rntf","sona":"9361"},{"trial_type":"turing-test","trial_index":21,"time_elapsed":70074,"internal_node_id":"0.0-8.0-2.3","subject":"77fvuhfn245rntf","sona":"9361"},{"rt":359.75499998312443,"stimulus":"<p>Welche Sequenz haben Sie als natürlicher empfunden?</p>","key_press":70,"test_part":"response","test_stimulus":{"position":0,"left":"bvh/pass-bottle-training1-lines.txt","right":"bvh/vr_prediction_models/model(vcgpdm)-dataset(pass-bottle)-mode(ELBO)-parts(1)-dyn(15)-lvm(35)-hold(1)/final-lines.txt","att_check":false},"trial_type":"html-keyboard-response","trial_index":22,"time_elapsed":70438,"internal_node_id":"0.0-8.0-3.3","subject":"77fvuhfn245rntf","sona":"9361"},{"rt":534.9250000435859,"stimulus":"<p>Bereit?</p>","key_press":32,"trial_type":"html-keyboard-response","trial_index":23,"time_elapsed":70975,"internal_node_id":"0.0-8.0-0.4","subject":"77fvuhfn245rntf","sona":"9361"},{"rt":null,"stimulus":"<div style=\"font-size:60px;\">+</div>","key_press":null,"trial_type":"html-keyboard-response","trial_index":24,"time_elapsed":72982,"internal_node_id":"0.0-8.0-1.4","subject":"77fvuhfn245rntf","sona":"9361"},{"trial_type":"turing-test","trial_index":25,"time_elapsed":79535,"internal_node_id":"0.0-8.0-2.4","subject":"77fvuhfn245rntf","sona":"9361"},{"rt":344.405000039842,"stimulus":"<p>Welche Sequenz haben Sie als natürlicher empfunden?</p>","key_press":70,"test_part":"response","test_stimulus":{"position":0,"left":"bvh/pass-bottle-training3-lines.txt","right":"bvh/vr_prediction_models/model(vcgpdm)-dataset(pass-bottle)-mode(ELBO)-parts(3)-dyn(15)-lvm(30)-hold(3)/final-lines.txt","att_check":false},"trial_type":"html-keyboard-response","trial_index":26,"time_elapsed":79882,"internal_node_id":"0.0-8.0-3.4","subject":"77fvuhfn245rntf","sona":"9361"},{"rt":511.6699999780394,"stimulus":"<p>Bereit?</p>","key_press":32,"trial_type":"html-keyboard-response","trial_index":27,"time_elapsed":80397,"internal_node_id":"0.0-8.0-0.5","subject":"77fvuhfn245rntf","sona":"9361"},{"rt":null,"stimulus":"<div style=\"font-size:60px;\">+</div>","key_press":null,"trial_type":"html-keyboard-response","trial_index":28,"time_elapsed":82410,"internal_node_id":"0.0-8.0-1.5","subject":"77fvuhfn245rntf","sona":"9361"},{"trial_type":"turing-test","trial_index":29,"time_elapsed":85643,"internal_node_id":"0.0-8.0-2.5","subject":"77fvuhfn245rntf","sona":"9361"},{"rt":478.41999999945983,"stimulus":"<p>Welche Sequenz haben Sie als natürlicher empfunden?</p>","key_press":74,"test_part":"response","test_stimulus":{"position":1,"left":"bvh/vr_prediction_models/model(dmp)-dataset(pass-bottle-hold)-npsi(10)-hold(1)/final-lines.txt","right":"bvh/pass-bottle-hold-training1-lines.txt","att_check":false},"trial_type":"html-keyboard-response","trial_index":30,"time_elapsed":86123,"internal_node_id":"0.0-8.0-3.5","subject":"77fvuhfn245rntf","sona":"9361"},{"rt":474.4700000155717,"stimulus":"<p>Bereit?</p>","key_press":32,"trial_type":"html-keyboard-response","trial_index":31,"time_elapsed":86601,"internal_node_id":"0.0-8.0-0.6","subject":"77fvuhfn245rntf","sona":"9361"},{"rt":null,"stimulus":"<div style=\"font-size:60px;\">+</div>","key_press":null,"trial_type":"html-keyboard-response","trial_index":32,"time_elapsed":88616,"internal_node_id":"0.0-8.0-1.6","subject":"77fvuhfn245rntf","sona":"9361"},{"trial_type":"turing-test","trial_index":33,"time_elapsed":94430,"internal_node_id":"0.0-8.0-2.6","subject":"77fvuhfn245rntf","sona":"9361"},{"rt":706.2349999905564,"stimulus":"<p>Welche Sequenz haben Sie als natürlicher empfunden?</p>","key_press":74,"test_part":"response","test_stimulus":{"position":1,"left":"bvh/vr_prediction_models/model(tmp)-dataset(pass-bottle)-numprim(3)-hold(3)/final-lines.txt","right":"bvh/pass-bottle-training3-lines.txt","att_check":false},"trial_type":"html-keyboard-response","trial_index":34,"time_elapsed":95141,"internal_node_id":"0.0-8.0-3.6","subject":"77fvuhfn245rntf","sona":"9361"},{"rt":542.9299999959767,"stimulus":"<p>Bereit?</p>","key_press":32,"trial_type":"html-keyboard-response","trial_index":35,"time_elapsed":95686,"internal_node_id":"0.0-8.0-0.7","subject":"77fvuhfn245rntf","sona":"9361"},{"rt":null,"stimulus":"<div style=\"font-size:60px;\">+</div>","key_press":null,"trial_type":"html-keyboard-response","trial_index":36,"time_elapsed":97693,"internal_node_id":"0.0-8.0-1.7","subject":"77fvuhfn245rntf","sona":"9361"},{"trial_type":"turing-test","trial_index":37,"time_elapsed":101412,"internal_node_id":"0.0-8.0-2.7","subject":"77fvuhfn245rntf","sona":"9361"},{"rt":550.0299999839626,"stimulus":"<p>Welche Sequenz haben Sie als natürlicher empfunden?</p>","key_press":74,"test_part":"response","test_stimulus":{"position":1,"left":"bvh/vr_prediction_models/model(vcgpdm)-dataset(return-bottle-hold)-mode(ELBO)-parts(1)-dyn(10)-lvm(5)-hold(2)/final-lines.txt","right":"bvh/return-bottle-hold-training2-lines.txt","att_check":false},"trial_type":"html-keyboard-response","trial_index":38,"time_elapsed":101966,"internal_node_id":"0.0-8.0-3.7","subject":"77fvuhfn245rntf","sona":"9361"},{"rt":635.1050000521354,"stimulus":"<p>Bereit?</p>","key_press":32,"trial_type":"html-keyboard-response","trial_index":39,"time_elapsed":102604,"internal_node_id":"0.0-8.0-0.8","subject":"77fvuhfn245rntf","sona":"9361"},{"rt":null,"stimulus":"<div style=\"font-size:60px;\">+</div>","key_press":null,"trial_type":"html-keyboard-response","trial_index":40,"time_elapsed":104613,"internal_node_id":"0.0-8.0-1.8","subject":"77fvuhfn245rntf","sona":"9361"},{"trial_type":"turing-test","trial_index":41,"time_elapsed":110512,"internal_node_id":"0.0-8.0-2.8","subject":"77fvuhfn245rntf","sona":"9361"},{"rt":629.4950000010431,"stimulus":"<p>Welche Sequenz haben Sie als natürlicher empfunden?</p>","key_press":74,"test_part":"response","test_stimulus":{"position":1,"left":"bvh/vr_prediction_models/model(vcgpdm)-dataset(return-bottle)-mode(ELBO)-parts(3)-dyn(25)-lvm(15)-hold(3)/final-lines.txt","right":"bvh/return-bottle-training3-lines.txt","att_check":false},"trial_type":"html-keyboard-response","trial_index":42,"time_elapsed":111145,"internal_node_id":"0.0-8.0-3.8","subject":"77fvuhfn245rntf","sona":"9361"},{"rt":325.80999995116144,"stimulus":"<p>Bereit?</p>","key_press":32,"trial_type":"html-keyboard-response","trial_index":43,"time_elapsed":111474,"internal_node_id":"0.0-8.0-0.9","subject":"77fvuhfn245rntf","sona":"9361"},{"rt":null,"stimulus":"<div style=\"font-size:60px;\">+</div>","key_press":null,"trial_type":"html-keyboard-response","trial_index":44,"time_elapsed":113490,"internal_node_id":"0.0-8.0-1.9","subject":"77fvuhfn245rntf","sona":"9361"},{"trial_type":"turing-test","trial_index":45,"time_elapsed":120064,"internal_node_id":"0.0-8.0-2.9","subject":"77fvuhfn245rntf","sona":"9361"},{"rt":1186.0100000048988,"stimulus":"<p>Welche Sequenz haben Sie als natürlicher empfunden?</p>","key_press":70,"test_part":"response","test_stimulus":{"position":0,"left":"bvh/return-bottle-training2-lines.txt","right":"bvh/vr_prediction_models/model(tmp)-dataset(return-bottle)-numprim(4)-hold(2)/final-lines.txt","att_check":false},"trial_type":"html-keyboard-response","trial_index":46,"time_elapsed":121254,"internal_node_id":"0.0-8.0-3.9","subject":"77fvuhfn245rntf","sona":"9361"},{"rt":1689.7699999972247,"stimulus":"<p>Bereit?</p>","key_press":32,"trial_type":"html-keyboard-response","trial_index":47,"time_elapsed":122946,"internal_node_id":"0.0-8.0-0.10","subject":"77fvuhfn245rntf","sona":"9361"},{"rt":null,"stimulus":"<div style=\"font-size:60px;\">+</div>","key_press":null,"trial_type":"html-keyboard-response","trial_index":48,"time_elapsed":124956,"internal_node_id":"0.0-8.0-1.10","subject":"77fvuhfn245rntf","sona":"9361"},{"trial_type":"turing-test","trial_index":49,"time_elapsed":130002,"internal_node_id":"0.0-8.0-2.10","subject":"77fvuhfn245rntf","sona":"9361"},{"rt":2951.009999960661,"stimulus":"<p>Welche Sequenz haben Sie als natürlicher empfunden?</p>","key_press":74,"test_part":"response","test_stimulus":{"position":0,"left":"bvh/return-bottle-hold-training0-lines.txt","right":"bvh/vr_prediction_models/model(dmp)-dataset(return-bottle-hold)-npsi(10)-hold(0)/final-lines.txt","att_check":true},"trial_type":"html-keyboard-response","trial_index":50,"time_elapsed":132957,"internal_node_id":"0.0-8.0-3.10","subject":"77fvuhfn245rntf","sona":"9361"},{"rt":345.42500000679865,"stimulus":"<p>Bereit?</p>","key_press":32,"trial_type":"html-keyboard-response","trial_index":51,"time_elapsed":133305,"internal_node_id":"0.0-8.0-0.11","subject":"77fvuhfn245rntf","sona":"9361"},{"rt":null,"stimulus":"<div style=\"font-size:60px;\">+</div>","key_press":null,"trial_type":"html-keyboard-response","trial_index":52,"time_elapsed":135317,"internal_node_id":"0.0-8.0-1.11","subject":"77fvuhfn245rntf","sona":"9361"}]