[{"rt":3816.134999971837,"stimulus":"<p>Welcome!<br> Please choose your language to start the experiment in the chosen language.</p><p>Willkommen!<br> Bitte wählen Sie eine Sprache, um das Experiment in der ausgewählten Sprache zu starten</p>","button_pressed":"1","trial_type":"html-button-response","trial_index":0,"time_elapsed":3818,"internal_node_id":"0.0-0.0","subject":"7wux2gm2sf6bjw8","sona":"9715"},{"view_history":"[{\"page_index\":0,\"viewing_time\":1564.530000090599},{\"page_index\":1,\"viewing_time\":2156.2550000380725},{\"page_index\":2,\"viewing_time\":1266.279999865219},{\"page_index\":3,\"viewing_time\":1484.825000166893},{\"page_index\":4,\"viewing_time\":1431.499999947846}]","rt":7903.919999953359,"trial_type":"instructions","trial_index":1,"time_elapsed":11723,"internal_node_id":"0.0-1.0-0.0","subject":"7wux2gm2sf6bjw8","sona":"9715"},{"rt":2669.1300000529736,"stimulus":"<p>Bereit?</p>","key_press":32,"trial_type":"html-keyboard-response","trial_index":2,"time_elapsed":14393,"internal_node_id":"0.0-3.0","subject":"7wux2gm2sf6bjw8","sona":"9715"},{"rt":null,"stimulus":"<div style=\"font-size:60px;\">+</div>","key_press":null,"trial_type":"html-keyboard-response","trial_index":3,"time_elapsed":16416,"internal_node_id":"0.0-4.0","subject":"7wux2gm2sf6bjw8","sona":"9715"},{"trial_type":"training","trial_index":4,"time_elapsed":19646,"internal_node_id":"0.0-5.0","subject":"7wux2gm2sf6bjw8","sona":"9715"},{"rt":914.6499999333173,"stimulus":"<p>Welche Sequenz haben Sie als natürlicher empfunden?</p>","key_press":70,"trial_type":"html-keyboard-response","trial_index":5,"time_elapsed":20563,"internal_node_id":"0.0-6.0","subject":"7wux2gm2sf6bjw8","sona":"9715"},{"rt":4059.1000001877546,"stimulus":"<p>Das Experiment startet nun.</p><p><small>Bitte drücken Sie den Knopf, wenn Sie bereit sind.</small></p>","button_pressed":"0","trial_type":"html-button-response","trial_index":6,"time_elapsed":24626,"internal_node_id":"0.0-7.0","subject":"7wux2gm2sf6bjw8","sona":"9715"},{"rt":986.0350000672042,"stimulus":"<p>Bereit?</p>","key_press":32,"trial_type":"html-keyboard-response","trial_index":7,"time_elapsed":25612,"internal_node_id":"0.0-8.0-0.0","subject":"7wux2gm2sf6bjw8","sona":"9715"},{"rt":null,"stimulus":"<div style=\"font-size:60px;\">+</div>","key_press":null,"trial_type":"html-keyboard-response","trial_index":8,"time_elapsed":27622,"internal_node_id":"0.0-8.0-1.0","subject":"7wux2gm2sf6bjw8","sona":"9715"},{"trial_type":"turing-test","trial_index":9,"time_elapsed":33849,"internal_node_id":"0.0-8.0-2.0","subject":"7wux2gm2sf6bjw8","sona":"9715"},{"rt":503.2249998766929,"stimulus":"<p>Welche Sequenz haben Sie als natürlicher empfunden?</p>","key_press":74,"test_part":"response","test_stimulus":{"position":1,"left":"bvh/vr_prediction_models/model(vcgpdm)-dataset(pass-bottle)-mode(ELBO)-parts(3)-dyn(25)-lvm(30)-hold(2)/final-lines.txt","right":"bvh/pass-bottle-training2-lines.txt","att_check":false},"trial_type":"html-keyboard-response","trial_index":10,"time_elapsed":34356,"internal_node_id":"0.0-8.0-3.0","subject":"7wux2gm2sf6bjw8","sona":"9715"},{"rt":421.69500002637506,"stimulus":"<p>Bereit?</p>","key_press":32,"trial_type":"html-keyboard-response","trial_index":11,"time_elapsed":34779,"internal_node_id":"0.0-8.0-0.1","subject":"7wux2gm2sf6bjw8","sona":"9715"},{"rt":null,"stimulus":"<div style=\"font-size:60px;\">+</div>","key_press":null,"trial_type":"html-keyboard-response","trial_index":12,"time_elapsed":36805,"internal_node_id":"0.0-8.0-1.1","subject":"7wux2gm2sf6bjw8","sona":"9715"},{"trial_type":"turing-test","trial_index":13,"time_elapsed":40299,"internal_node_id":"0.0-8.0-2.1","subject":"7wux2gm2sf6bjw8","sona":"9715"},{"rt":499.8700001742691,"stimulus":"<p>Welche Sequenz haben Sie als natürlicher empfunden?</p>","key_press":70,"test_part":"response","test_stimulus":{"position":0,"left":"bvh/pass-bottle-hold-training2-lines.txt","right":"bvh/vr_prediction_models/model(vcgpdm)-dataset(pass-bottle-hold)-mode(ELBO)-parts(1)-dyn(35)-lvm(10)-hold(2)/final-lines.txt","att_check":false},"trial_type":"html-keyboard-response","trial_index":14,"time_elapsed":40802,"internal_node_id":"0.0-8.0-3.1","subject":"7wux2gm2sf6bjw8","sona":"9715"},{"rt":335.8299999963492,"stimulus":"<p>Bereit?</p>","key_press":32,"trial_type":"html-keyboard-response","trial_index":15,"time_elapsed":41140,"internal_node_id":"0.0-8.0-0.2","subject":"7wux2gm2sf6bjw8","sona":"9715"},{"rt":null,"stimulus":"<div style=\"font-size:60px;\">+</div>","key_press":null,"trial_type":"html-keyboard-response","trial_index":16,"time_elapsed":43155,"internal_node_id":"0.0-8.0-1.2","subject":"7wux2gm2sf6bjw8","sona":"9715"},{"trial_type":"turing-test","trial_index":17,"time_elapsed":46484,"internal_node_id":"0.0-8.0-2.2","subject":"7wux2gm2sf6bjw8","sona":"9715"},{"rt":507.8350000549108,"stimulus":"<p>Welche Sequenz haben Sie als natürlicher empfunden?</p>","key_press":70,"test_part":"response","test_stimulus":{"position":0,"left":"bvh/pass-bottle-hold-training1-lines.txt","right":"bvh/vr_prediction_models/model(vcgpdm)-dataset(pass-bottle-hold)-mode(ELBO)-parts(1)-dyn(20)-lvm(20)-hold(1)/final-lines.txt","att_check":false},"trial_type":"html-keyboard-response","trial_index":18,"time_elapsed":46994,"internal_node_id":"0.0-8.0-3.2","subject":"7wux2gm2sf6bjw8","sona":"9715"},{"rt":251.72000005841255,"stimulus":"<p>Bereit?</p>","key_press":32,"trial_type":"html-keyboard-response","trial_index":19,"time_elapsed":47248,"internal_node_id":"0.0-8.0-0.3","subject":"7wux2gm2sf6bjw8","sona":"9715"},{"rt":null,"stimulus":"<div style=\"font-size:60px;\">+</div>","key_press":null,"trial_type":"html-keyboard-response","trial_index":20,"time_elapsed":49255,"internal_node_id":"0.0-8.0-1.3","subject":"7wux2gm2sf6bjw8","sona":"9715"},{"trial_type":"turing-test","trial_index":21,"time_elapsed":52718,"internal_node_id":"0.0-8.0-2.3","subject":"7wux2gm2sf6bjw8","sona":"9715"},{"rt":463.18500000052154,"stimulus":"<p>Welche Sequenz haben Sie als natürlicher empfunden?</p>","key_press":74,"test_part":"response","test_stimulus":{"position":1,"left":"bvh/vr_prediction_models/model(vcgpdm)-dataset(pass-bottle-hold)-mode(ELBO)-parts(1)-dyn(35)-lvm(10)-hold(0)/final-lines.txt","right":"bvh/pass-bottle-hold-training0-lines.txt","att_check":false},"trial_type":"html-keyboard-response","trial_index":22,"time_elapsed":53183,"internal_node_id":"0.0-8.0-3.3","subject":"7wux2gm2sf6bjw8","sona":"9715"},{"rt":240.58500002138317,"stimulus":"<p>Bereit?</p>","key_press":32,"trial_type":"html-keyboard-response","trial_index":23,"time_elapsed":53426,"internal_node_id":"0.0-8.0-0.4","subject":"7wux2gm2sf6bjw8","sona":"9715"},{"rt":null,"stimulus":"<div style=\"font-size:60px;\">+</div>","key_press":null,"trial_type":"html-keyboard-response","trial_index":24,"time_elapsed":55438,"internal_node_id":"0.0-8.0-1.4","subject":"7wux2gm2sf6bjw8","sona":"9715"},{"trial_type":"turing-test","trial_index":25,"time_elapsed":61574,"internal_node_id":"0.0-8.0-2.4","subject":"7wux2gm2sf6bjw8","sona":"9715"},{"rt":630.3949998691678,"stimulus":"<p>Welche Sequenz haben Sie als natürlicher empfunden?</p>","key_press":70,"test_part":"response","test_stimulus":{"position":0,"left":"bvh/pass-bottle-training2-lines.txt","right":"bvh/vr_prediction_models/model(tmp)-dataset(pass-bottle)-numprim(3)-hold(2)/final-lines.txt","att_check":false},"trial_type":"html-keyboard-response","trial_index":26,"time_elapsed":62207,"internal_node_id":"0.0-8.0-3.4","subject":"7wux2gm2sf6bjw8","sona":"9715"},{"rt":239.1300001181662,"stimulus":"<p>Bereit?</p>","key_press":32,"trial_type":"html-keyboard-response","trial_index":27,"time_elapsed":62447,"internal_node_id":"0.0-8.0-0.5","subject":"7wux2gm2sf6bjw8","sona":"9715"},{"rt":null,"stimulus":"<div style=\"font-size:60px;\">+</div>","key_press":null,"trial_type":"html-keyboard-response","trial_index":28,"time_elapsed":64456,"internal_node_id":"0.0-8.0-1.5","subject":"7wux2gm2sf6bjw8","sona":"9715"},{"trial_type":"turing-test","trial_index":29,"time_elapsed":68094,"internal_node_id":"0.0-8.0-2.5","subject":"7wux2gm2sf6bjw8","sona":"9715"},{"rt":575.2450001891702,"stimulus":"<p>Welche Sequenz haben Sie als natürlicher empfunden?</p>","key_press":74,"test_part":"response","test_stimulus":{"position":1,"left":"bvh/vr_prediction_models/model(tmp)-dataset(return-bottle-hold)-numprim(7)-hold(3)/final-lines.txt","right":"bvh/return-bottle-hold-training3-lines.txt","att_check":false},"trial_type":"html-keyboard-response","trial_index":30,"time_elapsed":68674,"internal_node_id":"0.0-8.0-3.5","subject":"7wux2gm2sf6bjw8","sona":"9715"},{"rt":364.4250000361353,"stimulus":"<p>Bereit?</p>","key_press":32,"trial_type":"html-keyboard-response","trial_index":31,"time_elapsed":69041,"internal_node_id":"0.0-8.0-0.6","subject":"7wux2gm2sf6bjw8","sona":"9715"},{"rt":null,"stimulus":"<div style=\"font-size:60px;\">+</div>","key_press":null,"trial_type":"html-keyboard-response","trial_index":32,"time_elapsed":71056,"internal_node_id":"0.0-8.0-1.6","subject":"7wux2gm2sf6bjw8","sona":"9715"},{"trial_type":"turing-test","trial_index":33,"time_elapsed":76663,"internal_node_id":"0.0-8.0-2.6","subject":"7wux2gm2sf6bjw8","sona":"9715"},{"rt":487.4749998562038,"stimulus":"<p>Welche Sequenz haben Sie als natürlicher empfunden?</p>","key_press":70,"test_part":"response","test_stimulus":{"position":0,"left":"bvh/pass-bottle-training1-lines.txt","right":"bvh/vr_prediction_models/model(vcgpdm)-dataset(pass-bottle)-mode(ELBO)-parts(1)-dyn(30)-lvm(20)-hold(1)/final-lines.txt","att_check":false},"trial_type":"html-keyboard-response","trial_index":34,"time_elapsed":77154,"internal_node_id":"0.0-8.0-3.6","subject":"7wux2gm2sf6bjw8","sona":"9715"},{"rt":329.1499998886138,"stimulus":"<p>Bereit?</p>","key_press":32,"trial_type":"html-keyboard-response","trial_index":35,"time_elapsed":77485,"internal_node_id":"0.0-8.0-0.7","subject":"7wux2gm2sf6bjw8","sona":"9715"},{"rt":null,"stimulus":"<div style=\"font-size:60px;\">+</div>","key_press":null,"trial_type":"html-keyboard-response","trial_index":36,"time_elapsed":79503,"internal_node_id":"0.0-8.0-1.7","subject":"7wux2gm2sf6bjw8","sona":"9715"},{"trial_type":"turing-test","trial_index":37,"time_elapsed":83812,"internal_node_id":"0.0-8.0-2.7","subject":"7wux2gm2sf6bjw8","sona":"9715"},{"rt":472.02999982982874,"stimulus":"<p>Welche Sequenz haben Sie als natürlicher empfunden?</p>","key_press":70,"test_part":"response","test_stimulus":{"position":0,"left":"bvh/pass-bottle-hold-training4-lines.txt","right":"bvh/vr_prediction_models/model(tmp)-dataset(pass-bottle-hold)-numprim(7)-hold(4)/final-lines.txt","att_check":false},"trial_type":"html-keyboard-response","trial_index":38,"time_elapsed":84288,"internal_node_id":"0.0-8.0-3.7","subject":"7wux2gm2sf6bjw8","sona":"9715"},{"rt":256.44499994814396,"stimulus":"<p>Bereit?</p>","key_press":32,"trial_type":"html-keyboard-response","trial_index":39,"time_elapsed":84546,"internal_node_id":"0.0-8.0-0.8","subject":"7wux2gm2sf6bjw8","sona":"9715"},{"rt":null,"stimulus":"<div style=\"font-size:60px;\">+</div>","key_press":null,"trial_type":"html-keyboard-response","trial_index":40,"time_elapsed":86555,"internal_node_id":"0.0-8.0-1.8","subject":"7wux2gm2sf6bjw8","sona":"9715"},{"trial_type":"turing-test","trial_index":41,"time_elapsed":92292,"internal_node_id":"0.0-8.0-2.8","subject":"7wux2gm2sf6bjw8","sona":"9715"},{"rt":1220.475000096485,"stimulus":"<p>Welche Sequenz haben Sie als natürlicher empfunden?</p>","key_press":70,"test_part":"response","test_stimulus":{"position":0,"left":"bvh/return-bottle-training3-lines.txt","right":"bvh/vr_prediction_models/model(dmp)-dataset(return-bottle)-npsi(50)-hold(3)/final-lines.txt","att_check":false},"trial_type":"html-keyboard-response","trial_index":42,"time_elapsed":93514,"internal_node_id":"0.0-8.0-3.8","subject":"7wux2gm2sf6bjw8","sona":"9715"},{"rt":1147.8850001003593,"stimulus":"<p>Bereit?</p>","key_press":32,"trial_type":"html-keyboard-response","trial_index":43,"time_elapsed":94663,"internal_node_id":"0.0-8.0-0.9","subject":"7wux2gm2sf6bjw8","sona":"9715"},{"rt":null,"stimulus":"<div style=\"font-size:60px;\">+</div>","key_press":null,"trial_type":"html-keyboard-response","trial_index":44,"time_elapsed":96673,"internal_node_id":"0.0-8.0-1.9","subject":"7wux2gm2sf6bjw8","sona":"9715"},{"trial_type":"turing-test","trial_index":45,"time_elapsed":102603,"internal_node_id":"0.0-8.0-2.9","subject":"7wux2gm2sf6bjw8","sona":"9715"},{"rt":476.1350001208484,"stimulus":"<p>Welche Sequenz haben Sie als natürlicher empfunden?</p>","key_press":74,"test_part":"response","test_stimulus":{"position":1,"left":"bvh/vr_prediction_models/model(tmp)-dataset(pass-bottle)-numprim(14)-hold(3)/final-lines.txt","right":"bvh/pass-bottle-training3-lines.txt","att_check":false},"trial_type":"html-keyboard-response","trial_index":46,"time_elapsed":103083,"internal_node_id":"0.0-8.0-3.9","subject":"7wux2gm2sf6bjw8","sona":"9715"},{"rt":389.7049999795854,"stimulus":"<p>Bereit?</p>","key_press":32,"trial_type":"html-keyboard-response","trial_index":47,"time_elapsed":103474,"internal_node_id":"0.0-8.0-0.10","subject":"7wux2gm2sf6bjw8","sona":"9715"},{"rt":null,"stimulus":"<div style=\"font-size:60px;\">+</div>","key_press":null,"trial_type":"html-keyboard-response","trial_index":48,"time_elapsed":105489,"internal_node_id":"0.0-8.0-1.10","subject":"7wux2gm2sf6bjw8","sona":"9715"},{"trial_type":"turing-test","trial_index":49,"time_elapsed":111397,"internal_node_id":"0.0-8.0-2.10","subject":"7wux2gm2sf6bjw8","sona":"9715"},{"rt":673.9600000437349,"stimulus":"<p>Welche Sequenz haben Sie als natürlicher empfunden?</p>","key_press":70,"test_part":"response","test_stimulus":{"position":0,"left":"bvh/return-bottle-training3-lines.txt","right":"bvh/vr_prediction_models/model(vcgpdm)-dataset(return-bottle)-mode(ELBO)-parts(3)-dyn(30)-lvm(15)-hold(3)/final-lines.txt","att_check":false},"trial_type":"html-keyboard-response","trial_index":50,"time_elapsed":112075,"internal_node_id":"0.0-8.0-3.10","subject":"7wux2gm2sf6bjw8","sona":"9715"},{"rt":399.0050000138581,"stimulus":"<p>Bereit?</p>","key_press":32,"trial_type":"html-keyboard-response","trial_index":51,"time_elapsed":112475,"internal_node_id":"0.0-8.0-0.11","subject":"7wux2gm2sf6bjw8","sona":"9715"},{"rt":null,"stimulus":"<div style=\"font-size:60px;\">+</div>","key_press":null,"trial_type":"html-keyboard-response","trial_index":52,"time_elapsed":114504,"internal_node_id":"0.0-8.0-1.11","subject":"7wux2gm2sf6bjw8","sona":"9715"}]