[{"rt":4572.364999999991,"stimulus":"<p>Welcome!<br> Please choose your language to start the experiment in the chosen language.</p><p>Willkommen!<br> Bitte wählen Sie eine Sprache, um das Experiment in der ausgewählten Sprache zu starten</p>","button_pressed":"1","trial_type":"html-button-response","trial_index":0,"time_elapsed":4584,"internal_node_id":"0.0-0.0","subject":"v2whp81tp2dxxma","sona":"9688"},{"view_history":"[{\"page_index\":0,\"viewing_time\":2200.2599999977974},{\"page_index\":1,\"viewing_time\":1557.650000002468},{\"page_index\":2,\"viewing_time\":2412.210000009509},{\"page_index\":3,\"viewing_time\":2469.889999993029},{\"page_index\":4,\"viewing_time\":1648.2249999971827}]","rt":10288.790000005974,"trial_type":"instructions","trial_index":1,"time_elapsed":14873,"internal_node_id":"0.0-1.0-0.0","subject":"v2whp81tp2dxxma","sona":"9688"},{"rt":846.9199999963166,"stimulus":"<p>Bereit?</p>","key_press":32,"trial_type":"html-keyboard-response","trial_index":2,"time_elapsed":15721,"internal_node_id":"0.0-3.0","subject":"v2whp81tp2dxxma","sona":"9688"},{"rt":null,"stimulus":"<div style=\"font-size:60px;\">+</div>","key_press":null,"trial_type":"html-keyboard-response","trial_index":3,"time_elapsed":17724,"internal_node_id":"0.0-4.0","subject":"v2whp81tp2dxxma","sona":"9688"},{"trial_type":"training","trial_index":4,"time_elapsed":20926,"internal_node_id":"0.0-5.0","subject":"v2whp81tp2dxxma","sona":"9688"},{"rt":573.275000002468,"stimulus":"<p>Welche Sequenz haben Sie als natürlicher empfunden?</p>","key_press":70,"trial_type":"html-keyboard-response","trial_index":5,"time_elapsed":21500,"internal_node_id":"0.0-6.0","subject":"v2whp81tp2dxxma","sona":"9688"},{"rt":2443.310000002384,"stimulus":"<p>Das Experiment startet nun.</p><p><small>Bitte drücken Sie den Knopf, wenn Sie bereit sind.</small></p>","button_pressed":"0","trial_type":"html-button-response","trial_index":6,"time_elapsed":23945,"internal_node_id":"0.0-7.0","subject":"v2whp81tp2dxxma","sona":"9688"},{"rt":1328.204999997979,"stimulus":"<p>Bereit?</p>","key_press":32,"trial_type":"html-keyboard-response","trial_index":7,"time_elapsed":25274,"internal_node_id":"0.0-8.0-0.0","subject":"v2whp81tp2dxxma","sona":"9688"},{"rt":null,"stimulus":"<div style=\"font-size:60px;\">+</div>","key_press":null,"trial_type":"html-keyboard-response","trial_index":8,"time_elapsed":27277,"internal_node_id":"0.0-8.0-1.0","subject":"v2whp81tp2dxxma","sona":"9688"},{"trial_type":"turing-test","trial_index":9,"time_elapsed":33299,"internal_node_id":"0.0-8.0-2.0","subject":"v2whp81tp2dxxma","sona":"9688"},{"rt":714.8600000073202,"stimulus":"<p>Welche Sequenz haben Sie als natürlicher empfunden?</p>","key_press":70,"test_part":"response","test_stimulus":{"position":0,"left":"bvh/pass-bottle-training2-lines.txt","right":"bvh/vr_prediction_models/model(tmp)-dataset(pass-bottle)-numprim(15)-hold(2)/final-lines.txt","att_check":false},"trial_type":"html-keyboard-response","trial_index":10,"time_elapsed":34015,"internal_node_id":"0.0-8.0-3.0","subject":"v2whp81tp2dxxma","sona":"9688"},{"rt":192.9950000048848,"stimulus":"<p>Bereit?</p>","key_press":32,"trial_type":"html-keyboard-response","trial_index":11,"time_elapsed":34210,"internal_node_id":"0.0-8.0-0.1","subject":"v2whp81tp2dxxma","sona":"9688"},{"rt":null,"stimulus":"<div style=\"font-size:60px;\">+</div>","key_press":null,"trial_type":"html-keyboard-response","trial_index":12,"time_elapsed":36212,"internal_node_id":"0.0-8.0-1.1","subject":"v2whp81tp2dxxma","sona":"9688"},{"trial_type":"turing-test","trial_index":13,"time_elapsed":39725,"internal_node_id":"0.0-8.0-2.1","subject":"v2whp81tp2dxxma","sona":"9688"},{"rt":427.1650000009686,"stimulus":"<p>Welche Sequenz haben Sie als natürlicher empfunden?</p>","key_press":70,"test_part":"response","test_stimulus":{"position":1,"left":"bvh/vr_prediction_models/model(tmp)-dataset(pass-bottle-hold)-numprim(4)-hold(4)/final-lines.txt","right":"bvh/pass-bottle-hold-training4-lines.txt","att_check":false},"trial_type":"html-keyboard-response","trial_index":14,"time_elapsed":40154,"internal_node_id":"0.0-8.0-3.1","subject":"v2whp81tp2dxxma","sona":"9688"},{"rt":254.43000000086613,"stimulus":"<p>Bereit?</p>","key_press":32,"trial_type":"html-keyboard-response","trial_index":15,"time_elapsed":40410,"internal_node_id":"0.0-8.0-0.2","subject":"v2whp81tp2dxxma","sona":"9688"},{"rt":null,"stimulus":"<div style=\"font-size:60px;\">+</div>","key_press":null,"trial_type":"html-keyboard-response","trial_index":16,"time_elapsed":42411,"internal_node_id":"0.0-8.0-1.2","subject":"v2whp81tp2dxxma","sona":"9688"},{"trial_type":"turing-test","trial_index":17,"time_elapsed":48004,"internal_node_id":"0.0-8.0-2.2","subject":"v2whp81tp2dxxma","sona":"9688"},{"rt":323.885000005248,"stimulus":"<p>Welche Sequenz haben Sie als natürlicher empfunden?</p>","key_press":70,"test_part":"response","test_stimulus":{"position":0,"left":"bvh/return-bottle-training3-lines.txt","right":"bvh/vr_prediction_models/model(vcgpdm)-dataset(return-bottle)-mode(MAP)-parts(3)-hold(3)/final-lines.txt","att_check":false},"trial_type":"html-keyboard-response","trial_index":18,"time_elapsed":48329,"internal_node_id":"0.0-8.0-3.2","subject":"v2whp81tp2dxxma","sona":"9688"},{"rt":4373.3700000011595,"stimulus":"<p>Bereit?</p>","key_press":32,"trial_type":"html-keyboard-response","trial_index":19,"time_elapsed":52704,"internal_node_id":"0.0-8.0-0.3","subject":"v2whp81tp2dxxma","sona":"9688"},{"rt":null,"stimulus":"<div style=\"font-size:60px;\">+</div>","key_press":null,"trial_type":"html-keyboard-response","trial_index":20,"time_elapsed":54705,"internal_node_id":"0.0-8.0-1.3","subject":"v2whp81tp2dxxma","sona":"9688"},{"trial_type":"turing-test","trial_index":21,"time_elapsed":60101,"internal_node_id":"0.0-8.0-2.3","subject":"v2whp81tp2dxxma","sona":"9688"},{"rt":425.7799999904819,"stimulus":"<p>Welche Sequenz haben Sie als natürlicher empfunden?</p>","key_press":70,"test_part":"response","test_stimulus":{"position":0,"left":"bvh/return-bottle-training0-lines.txt","right":"bvh/vr_prediction_models/model(vcgpdm)-dataset(return-bottle)-mode(ELBO)-parts(1)-dyn(15)-lvm(35)-hold(0)/final-lines.txt","att_check":false},"trial_type":"html-keyboard-response","trial_index":22,"time_elapsed":60528,"internal_node_id":"0.0-8.0-3.3","subject":"v2whp81tp2dxxma","sona":"9688"},{"rt":1436.9299999962095,"stimulus":"<p>Bereit?</p>","key_press":32,"trial_type":"html-keyboard-response","trial_index":23,"time_elapsed":61966,"internal_node_id":"0.0-8.0-0.4","subject":"v2whp81tp2dxxma","sona":"9688"},{"rt":null,"stimulus":"<div style=\"font-size:60px;\">+</div>","key_press":null,"trial_type":"html-keyboard-response","trial_index":24,"time_elapsed":63968,"internal_node_id":"0.0-8.0-1.4","subject":"v2whp81tp2dxxma","sona":"9688"},{"trial_type":"turing-test","trial_index":25,"time_elapsed":67423,"internal_node_id":"0.0-8.0-2.4","subject":"v2whp81tp2dxxma","sona":"9688"},{"rt":666.6750000003958,"stimulus":"<p>Welche Sequenz haben Sie als natürlicher empfunden?</p>","key_press":70,"test_part":"response","test_stimulus":{"position":1,"left":"bvh/vr_prediction_models/model(dmp)-dataset(pass-bottle-hold)-npsi(80)-hold(3)/final-lines.txt","right":"bvh/pass-bottle-hold-training3-lines.txt","att_check":false},"trial_type":"html-keyboard-response","trial_index":26,"time_elapsed":68091,"internal_node_id":"0.0-8.0-3.4","subject":"v2whp81tp2dxxma","sona":"9688"},{"rt":320.2049999963492,"stimulus":"<p>Bereit?</p>","key_press":32,"trial_type":"html-keyboard-response","trial_index":27,"time_elapsed":68412,"internal_node_id":"0.0-8.0-0.5","subject":"v2whp81tp2dxxma","sona":"9688"},{"rt":null,"stimulus":"<div style=\"font-size:60px;\">+</div>","key_press":null,"trial_type":"html-keyboard-response","trial_index":28,"time_elapsed":70413,"internal_node_id":"0.0-8.0-1.5","subject":"v2whp81tp2dxxma","sona":"9688"},{"trial_type":"turing-test","trial_index":29,"time_elapsed":76148,"internal_node_id":"0.0-8.0-2.5","subject":"v2whp81tp2dxxma","sona":"9688"},{"rt":1378.3600000024308,"stimulus":"<p>Welche Sequenz haben Sie als natürlicher empfunden?</p>","key_press":70,"test_part":"response","test_stimulus":{"position":0,"left":"bvh/return-bottle-training3-lines.txt","right":"bvh/vr_prediction_models/model(vcgpdm)-dataset(return-bottle)-mode(ELBO)-parts(1)-dyn(10)-lvm(30)-hold(3)/final-lines.txt","att_check":false},"trial_type":"html-keyboard-response","trial_index":30,"time_elapsed":77528,"internal_node_id":"0.0-8.0-3.5","subject":"v2whp81tp2dxxma","sona":"9688"},{"rt":209.99999999185093,"stimulus":"<p>Bereit?</p>","key_press":32,"trial_type":"html-keyboard-response","trial_index":31,"time_elapsed":77739,"internal_node_id":"0.0-8.0-0.6","subject":"v2whp81tp2dxxma","sona":"9688"},{"rt":null,"stimulus":"<div style=\"font-size:60px;\">+</div>","key_press":null,"trial_type":"html-keyboard-response","trial_index":32,"time_elapsed":79741,"internal_node_id":"0.0-8.0-1.6","subject":"v2whp81tp2dxxma","sona":"9688"},{"trial_type":"turing-test","trial_index":33,"time_elapsed":85770,"internal_node_id":"0.0-8.0-2.6","subject":"v2whp81tp2dxxma","sona":"9688"},{"rt":943.2400000077905,"stimulus":"<p>Welche Sequenz haben Sie als natürlicher empfunden?</p>","key_press":70,"test_part":"response","test_stimulus":{"position":1,"left":"bvh/vr_prediction_models/model(tmp)-dataset(pass-bottle)-numprim(10)-hold(2)/final-lines.txt","right":"bvh/pass-bottle-training2-lines.txt","att_check":false},"trial_type":"html-keyboard-response","trial_index":34,"time_elapsed":86715,"internal_node_id":"0.0-8.0-3.6","subject":"v2whp81tp2dxxma","sona":"9688"},{"rt":826.614999998128,"stimulus":"<p>Bereit?</p>","key_press":32,"trial_type":"html-keyboard-response","trial_index":35,"time_elapsed":87542,"internal_node_id":"0.0-8.0-0.7","subject":"v2whp81tp2dxxma","sona":"9688"},{"rt":null,"stimulus":"<div style=\"font-size:60px;\">+</div>","key_press":null,"trial_type":"html-keyboard-response","trial_index":36,"time_elapsed":89545,"internal_node_id":"0.0-8.0-1.7","subject":"v2whp81tp2dxxma","sona":"9688"},{"trial_type":"turing-test","trial_index":37,"time_elapsed":94854,"internal_node_id":"0.0-8.0-2.7","subject":"v2whp81tp2dxxma","sona":"9688"},{"rt":1115.7749999983935,"stimulus":"<p>Welche Sequenz haben Sie als natürlicher empfunden?</p>","key_press":74,"test_part":"response","test_stimulus":{"position":1,"left":"bvh/vr_prediction_models/model(dmp)-dataset(return-bottle)-npsi(60)-hold(0)/final-lines.txt","right":"bvh/return-bottle-training0-lines.txt","att_check":false},"trial_type":"html-keyboard-response","trial_index":38,"time_elapsed":95972,"internal_node_id":"0.0-8.0-3.7","subject":"v2whp81tp2dxxma","sona":"9688"},{"rt":399.3249999912223,"stimulus":"<p>Bereit?</p>","key_press":32,"trial_type":"html-keyboard-response","trial_index":39,"time_elapsed":96373,"internal_node_id":"0.0-8.0-0.8","subject":"v2whp81tp2dxxma","sona":"9688"},{"rt":null,"stimulus":"<div style=\"font-size:60px;\">+</div>","key_press":null,"trial_type":"html-keyboard-response","trial_index":40,"time_elapsed":98375,"internal_node_id":"0.0-8.0-1.8","subject":"v2whp81tp2dxxma","sona":"9688"},{"trial_type":"turing-test","trial_index":41,"time_elapsed":103831,"internal_node_id":"0.0-8.0-2.8","subject":"v2whp81tp2dxxma","sona":"9688"},{"rt":920.9850000042934,"stimulus":"<p>Welche Sequenz haben Sie als natürlicher empfunden?</p>","key_press":70,"test_part":"response","test_stimulus":{"position":0,"left":"bvh/pass-bottle-training1-lines.txt","right":"bvh/vr_prediction_models/model(vcgpdm)-dataset(pass-bottle)-mode(ELBO)-parts(3)-dyn(20)-lvm(20)-hold(1)/final-lines.txt","att_check":false},"trial_type":"html-keyboard-response","trial_index":42,"time_elapsed":104753,"internal_node_id":"0.0-8.0-3.8","subject":"v2whp81tp2dxxma","sona":"9688"},{"rt":208.52000000013504,"stimulus":"<p>Bereit?</p>","key_press":32,"trial_type":"html-keyboard-response","trial_index":43,"time_elapsed":104963,"internal_node_id":"0.0-8.0-0.9","subject":"v2whp81tp2dxxma","sona":"9688"},{"rt":null,"stimulus":"<div style=\"font-size:60px;\">+</div>","key_press":null,"trial_type":"html-keyboard-response","trial_index":44,"time_elapsed":106965,"internal_node_id":"0.0-8.0-1.9","subject":"v2whp81tp2dxxma","sona":"9688"},{"trial_type":"turing-test","trial_index":45,"time_elapsed":112078,"internal_node_id":"0.0-8.0-2.9","subject":"v2whp81tp2dxxma","sona":"9688"},{"rt":592.6699999981793,"stimulus":"<p>Welche Sequenz haben Sie als natürlicher empfunden?</p>","key_press":70,"test_part":"response","test_stimulus":{"position":0,"left":"bvh/return-bottle-hold-training0-lines.txt","right":"bvh/vr_prediction_models/model(vcgpdm)-dataset(return-bottle-hold)-mode(ELBO)-parts(3)-dyn(25)-lvm(15)-hold(0)/final-lines.txt","att_check":false},"trial_type":"html-keyboard-response","trial_index":46,"time_elapsed":112672,"internal_node_id":"0.0-8.0-3.9","subject":"v2whp81tp2dxxma","sona":"9688"},{"rt":5396.4450000057695,"stimulus":"<p>Bereit?</p>","key_press":32,"trial_type":"html-keyboard-response","trial_index":47,"time_elapsed":118070,"internal_node_id":"0.0-8.0-0.10","subject":"v2whp81tp2dxxma","sona":"9688"},{"rt":null,"stimulus":"<div style=\"font-size:60px;\">+</div>","key_press":null,"trial_type":"html-keyboard-response","trial_index":48,"time_elapsed":120072,"internal_node_id":"0.0-8.0-1.10","subject":"v2whp81tp2dxxma","sona":"9688"},{"trial_type":"turing-test","trial_index":49,"time_elapsed":123674,"internal_node_id":"0.0-8.0-2.10","subject":"v2whp81tp2dxxma","sona":"9688"},{"rt":393.19000000250526,"stimulus":"<p>Welche Sequenz haben Sie als natürlicher empfunden?</p>","key_press":70,"test_part":"response","test_stimulus":{"position":0,"left":"bvh/pass-bottle-hold-training4-lines.txt","right":"bvh/vr_prediction_models/model(vcgpdm)-dataset(pass-bottle-hold)-mode(ELBO)-parts(1)-dyn(25)-lvm(35)-hold(4)/final-lines.txt","att_check":false},"trial_type":"html-keyboard-response","trial_index":50,"time_elapsed":124069,"internal_node_id":"0.0-8.0-3.10","subject":"v2whp81tp2dxxma","sona":"9688"},{"rt":339.3050000013318,"stimulus":"<p>Bereit?</p>","key_press":32,"trial_type":"html-keyboard-response","trial_index":51,"time_elapsed":124409,"internal_node_id":"0.0-8.0-0.11","subject":"v2whp81tp2dxxma","sona":"9688"},{"rt":null,"stimulus":"<div style=\"font-size:60px;\">+</div>","key_press":null,"trial_type":"html-keyboard-response","trial_index":52,"time_elapsed":126412,"internal_node_id":"0.0-8.0-1.11","subject":"v2whp81tp2dxxma","sona":"9688"}]