[{"rt":4353.410000010626,"stimulus":"<p>Welcome!<br> Please choose your language to start the experiment in the chosen language.</p><p>Willkommen!<br> Bitte wählen Sie eine Sprache, um das Experiment in der ausgewählten Sprache zu starten</p>","button_pressed":"1","trial_type":"html-button-response","trial_index":0,"time_elapsed":4378,"internal_node_id":"0.0-0.0","subject":"bs4v59ajbwlwxcn","sona":"5332"},{"view_history":"[{\"page_index\":0,\"viewing_time\":4521.789999998873},{\"page_index\":1,\"viewing_time\":37845.63500000513},{\"page_index\":2,\"viewing_time\":3522.8949999873294},{\"page_index\":3,\"viewing_time\":6514.890000005835},{\"page_index\":4,\"viewing_time\":2411.454999994021}]","rt":54818.19999999425,"trial_type":"instructions","trial_index":1,"time_elapsed":59198,"internal_node_id":"0.0-1.0-0.0","subject":"bs4v59ajbwlwxcn","sona":"5332"},{"rt":1383.1200000131503,"stimulus":"<p>Bereit?</p>","key_press":32,"trial_type":"html-keyboard-response","trial_index":2,"time_elapsed":60584,"internal_node_id":"0.0-3.0","subject":"bs4v59ajbwlwxcn","sona":"5332"},{"rt":null,"stimulus":"<div style=\"font-size:60px;\">+</div>","key_press":null,"trial_type":"html-keyboard-response","trial_index":3,"time_elapsed":62587,"internal_node_id":"0.0-4.0","subject":"bs4v59ajbwlwxcn","sona":"5332"},{"trial_type":"training","trial_index":4,"time_elapsed":66114,"internal_node_id":"0.0-5.0","subject":"bs4v59ajbwlwxcn","sona":"5332"},{"rt":2929.534999988391,"stimulus":"<p>Welche Sequenz haben Sie als natürlicher empfunden?</p>","key_press":74,"trial_type":"html-keyboard-response","trial_index":5,"time_elapsed":69047,"internal_node_id":"0.0-6.0","subject":"bs4v59ajbwlwxcn","sona":"5332"},{"rt":2155.784999995376,"stimulus":"<p>Das Experiment startet nun.</p><p><small>Bitte drücken Sie den Knopf, wenn Sie bereit sind.</small></p>","button_pressed":"0","trial_type":"html-button-response","trial_index":6,"time_elapsed":71205,"internal_node_id":"0.0-7.0","subject":"bs4v59ajbwlwxcn","sona":"5332"},{"rt":956.1150000081398,"stimulus":"<p>Bereit?</p>","key_press":32,"trial_type":"html-keyboard-response","trial_index":7,"time_elapsed":72163,"internal_node_id":"0.0-8.0-0.0","subject":"bs4v59ajbwlwxcn","sona":"5332"},{"rt":null,"stimulus":"<div style=\"font-size:60px;\">+</div>","key_press":null,"trial_type":"html-keyboard-response","trial_index":8,"time_elapsed":74167,"internal_node_id":"0.0-8.0-1.0","subject":"bs4v59ajbwlwxcn","sona":"5332"},{"trial_type":"turing-test","trial_index":9,"time_elapsed":79845,"internal_node_id":"0.0-8.0-2.0","subject":"bs4v59ajbwlwxcn","sona":"5332"},{"rt":1253.9399999950547,"stimulus":"<p>Welche Sequenz haben Sie als natürlicher empfunden?</p>","key_press":70,"test_part":"response","test_stimulus":{"position":0,"left":"bvh/pass-bottle-training1-lines.txt","right":"bvh/vr_prediction_models/model(vcgpdm)-dataset(pass-bottle)-mode(ELBO)-parts(3)-dyn(20)-lvm(35)-hold(1)/final-lines.txt","att_check":false},"trial_type":"html-keyboard-response","trial_index":10,"time_elapsed":81105,"internal_node_id":"0.0-8.0-3.0","subject":"bs4v59ajbwlwxcn","sona":"5332"},{"rt":944.470000002184,"stimulus":"<p>Bereit?</p>","key_press":32,"trial_type":"html-keyboard-response","trial_index":11,"time_elapsed":82053,"internal_node_id":"0.0-8.0-0.1","subject":"bs4v59ajbwlwxcn","sona":"5332"},{"rt":null,"stimulus":"<div style=\"font-size:60px;\">+</div>","key_press":null,"trial_type":"html-keyboard-response","trial_index":12,"time_elapsed":84057,"internal_node_id":"0.0-8.0-1.1","subject":"bs4v59ajbwlwxcn","sona":"5332"},{"trial_type":"turing-test","trial_index":13,"time_elapsed":87742,"internal_node_id":"0.0-8.0-2.1","subject":"bs4v59ajbwlwxcn","sona":"5332"},{"rt":806.4999999915017,"stimulus":"<p>Welche Sequenz haben Sie als natürlicher empfunden?</p>","key_press":74,"test_part":"response","test_stimulus":{"position":0,"left":"bvh/return-bottle-hold-training3-lines.txt","right":"bvh/vr_prediction_models/model(dmp)-dataset(return-bottle-hold)-npsi(20)-hold(3)/final-lines.txt","att_check":false},"trial_type":"html-keyboard-response","trial_index":14,"time_elapsed":88556,"internal_node_id":"0.0-8.0-3.1","subject":"bs4v59ajbwlwxcn","sona":"5332"},{"rt":822.4649999901885,"stimulus":"<p>Bereit?</p>","key_press":32,"trial_type":"html-keyboard-response","trial_index":15,"time_elapsed":89380,"internal_node_id":"0.0-8.0-0.2","subject":"bs4v59ajbwlwxcn","sona":"5332"},{"rt":null,"stimulus":"<div style=\"font-size:60px;\">+</div>","key_press":null,"trial_type":"html-keyboard-response","trial_index":16,"time_elapsed":91383,"internal_node_id":"0.0-8.0-1.2","subject":"bs4v59ajbwlwxcn","sona":"5332"},{"trial_type":"turing-test","trial_index":17,"time_elapsed":94854,"internal_node_id":"0.0-8.0-2.2","subject":"bs4v59ajbwlwxcn","sona":"5332"},{"rt":2102.039999997942,"stimulus":"<p>Welche Sequenz haben Sie als natürlicher empfunden?</p>","key_press":74,"test_part":"response","test_stimulus":{"position":0,"left":"bvh/return-bottle-hold-training2-lines.txt","right":"bvh/vr_prediction_models/model(tmp)-dataset(return-bottle-hold)-numprim(11)-hold(2)/final-lines.txt","att_check":false},"trial_type":"html-keyboard-response","trial_index":18,"time_elapsed":96961,"internal_node_id":"0.0-8.0-3.2","subject":"bs4v59ajbwlwxcn","sona":"5332"},{"rt":948.3199999958742,"stimulus":"<p>Bereit?</p>","key_press":32,"trial_type":"html-keyboard-response","trial_index":19,"time_elapsed":97913,"internal_node_id":"0.0-8.0-0.3","subject":"bs4v59ajbwlwxcn","sona":"5332"},{"rt":null,"stimulus":"<div style=\"font-size:60px;\">+</div>","key_press":null,"trial_type":"html-keyboard-response","trial_index":20,"time_elapsed":99916,"internal_node_id":"0.0-8.0-1.3","subject":"bs4v59ajbwlwxcn","sona":"5332"},{"trial_type":"turing-test","trial_index":21,"time_elapsed":105545,"internal_node_id":"0.0-8.0-2.3","subject":"bs4v59ajbwlwxcn","sona":"5332"},{"rt":569.7999999974854,"stimulus":"<p>Welche Sequenz haben Sie als natürlicher empfunden?</p>","key_press":74,"test_part":"response","test_stimulus":{"position":0,"left":"bvh/return-bottle-training0-lines.txt","right":"bvh/vr_prediction_models/model(tmp)-dataset(return-bottle)-numprim(14)-hold(0)/final-lines.txt","att_check":false},"trial_type":"html-keyboard-response","trial_index":22,"time_elapsed":106118,"internal_node_id":"0.0-8.0-3.3","subject":"bs4v59ajbwlwxcn","sona":"5332"},{"rt":687.9599999956554,"stimulus":"<p>Bereit?</p>","key_press":32,"trial_type":"html-keyboard-response","trial_index":23,"time_elapsed":106807,"internal_node_id":"0.0-8.0-0.4","subject":"bs4v59ajbwlwxcn","sona":"5332"},{"rt":null,"stimulus":"<div style=\"font-size:60px;\">+</div>","key_press":null,"trial_type":"html-keyboard-response","trial_index":24,"time_elapsed":108810,"internal_node_id":"0.0-8.0-1.4","subject":"bs4v59ajbwlwxcn","sona":"5332"},{"trial_type":"turing-test","trial_index":25,"time_elapsed":112555,"internal_node_id":"0.0-8.0-2.4","subject":"bs4v59ajbwlwxcn","sona":"5332"},{"rt":358.66499999247026,"stimulus":"<p>Welche Sequenz haben Sie als natürlicher empfunden?</p>","key_press":70,"test_part":"response","test_stimulus":{"position":1,"left":"bvh/vr_prediction_models/model(tmp)-dataset(return-bottle-hold)-numprim(10)-hold(4)/final-lines.txt","right":"bvh/return-bottle-hold-training4-lines.txt","att_check":false},"trial_type":"html-keyboard-response","trial_index":26,"time_elapsed":112923,"internal_node_id":"0.0-8.0-3.4","subject":"bs4v59ajbwlwxcn","sona":"5332"},{"rt":719.9550000077579,"stimulus":"<p>Bereit?</p>","key_press":32,"trial_type":"html-keyboard-response","trial_index":27,"time_elapsed":113645,"internal_node_id":"0.0-8.0-0.5","subject":"bs4v59ajbwlwxcn","sona":"5332"},{"rt":null,"stimulus":"<div style=\"font-size:60px;\">+</div>","key_press":null,"trial_type":"html-keyboard-response","trial_index":28,"time_elapsed":115648,"internal_node_id":"0.0-8.0-1.5","subject":"bs4v59ajbwlwxcn","sona":"5332"},{"trial_type":"turing-test","trial_index":29,"time_elapsed":119761,"internal_node_id":"0.0-8.0-2.5","subject":"bs4v59ajbwlwxcn","sona":"5332"},{"rt":343.4399999969173,"stimulus":"<p>Welche Sequenz haben Sie als natürlicher empfunden?</p>","key_press":70,"test_part":"response","test_stimulus":{"position":0,"left":"bvh/pass-bottle-hold-training3-lines.txt","right":"bvh/vr_prediction_models/model(vcgpdm)-dataset(pass-bottle-hold)-mode(ELBO)-parts(1)-dyn(20)-lvm(20)-hold(3)/final-lines.txt","att_check":false},"trial_type":"html-keyboard-response","trial_index":30,"time_elapsed":120106,"internal_node_id":"0.0-8.0-3.5","subject":"bs4v59ajbwlwxcn","sona":"5332"},{"rt":656.25,"stimulus":"<p>Bereit?</p>","key_press":32,"trial_type":"html-keyboard-response","trial_index":31,"time_elapsed":120765,"internal_node_id":"0.0-8.0-0.6","subject":"bs4v59ajbwlwxcn","sona":"5332"},{"rt":null,"stimulus":"<div style=\"font-size:60px;\">+</div>","key_press":null,"trial_type":"html-keyboard-response","trial_index":32,"time_elapsed":122768,"internal_node_id":"0.0-8.0-1.6","subject":"bs4v59ajbwlwxcn","sona":"5332"},{"trial_type":"turing-test","trial_index":33,"time_elapsed":126569,"internal_node_id":"0.0-8.0-2.6","subject":"bs4v59ajbwlwxcn","sona":"5332"},{"rt":370.5600000103004,"stimulus":"<p>Welche Sequenz haben Sie als natürlicher empfunden?</p>","key_press":70,"test_part":"response","test_stimulus":{"position":1,"left":"bvh/vr_prediction_models/model(vcgpdm)-dataset(pass-bottle-hold)-mode(ELBO)-parts(3)-dyn(25)-lvm(15)-hold(4)/final-lines.txt","right":"bvh/pass-bottle-hold-training4-lines.txt","att_check":false},"trial_type":"html-keyboard-response","trial_index":34,"time_elapsed":126946,"internal_node_id":"0.0-8.0-3.6","subject":"bs4v59ajbwlwxcn","sona":"5332"},{"rt":529.900000008638,"stimulus":"<p>Bereit?</p>","key_press":32,"trial_type":"html-keyboard-response","trial_index":35,"time_elapsed":127480,"internal_node_id":"0.0-8.0-0.7","subject":"bs4v59ajbwlwxcn","sona":"5332"},{"rt":null,"stimulus":"<div style=\"font-size:60px;\">+</div>","key_press":null,"trial_type":"html-keyboard-response","trial_index":36,"time_elapsed":129483,"internal_node_id":"0.0-8.0-1.7","subject":"bs4v59ajbwlwxcn","sona":"5332"},{"trial_type":"turing-test","trial_index":37,"time_elapsed":136216,"internal_node_id":"0.0-8.0-2.7","subject":"bs4v59ajbwlwxcn","sona":"5332"},{"rt":470.2099999994971,"stimulus":"<p>Welche Sequenz haben Sie als natürlicher empfunden?</p>","key_press":74,"test_part":"response","test_stimulus":{"position":1,"left":"bvh/vr_prediction_models/model(vcgpdm)-dataset(return-bottle)-mode(ELBO)-parts(3)-dyn(10)-lvm(25)-hold(2)/final-lines.txt","right":"bvh/return-bottle-training2-lines.txt","att_check":false},"trial_type":"html-keyboard-response","trial_index":38,"time_elapsed":136694,"internal_node_id":"0.0-8.0-3.7","subject":"bs4v59ajbwlwxcn","sona":"5332"},{"rt":430.5250000033993,"stimulus":"<p>Bereit?</p>","key_press":32,"trial_type":"html-keyboard-response","trial_index":39,"time_elapsed":137130,"internal_node_id":"0.0-8.0-0.8","subject":"bs4v59ajbwlwxcn","sona":"5332"},{"rt":null,"stimulus":"<div style=\"font-size:60px;\">+</div>","key_press":null,"trial_type":"html-keyboard-response","trial_index":40,"time_elapsed":139134,"internal_node_id":"0.0-8.0-1.8","subject":"bs4v59ajbwlwxcn","sona":"5332"},{"trial_type":"turing-test","trial_index":41,"time_elapsed":142474,"internal_node_id":"0.0-8.0-2.8","subject":"bs4v59ajbwlwxcn","sona":"5332"},{"rt":1410.9799999860115,"stimulus":"<p>Welche Sequenz haben Sie als natürlicher empfunden?</p>","key_press":70,"test_part":"response","test_stimulus":{"position":0,"left":"bvh/pass-bottle-hold-training0-lines.txt","right":"bvh/vr_prediction_models/model(dmp)-dataset(pass-bottle-hold)-npsi(50)-hold(0)/final-lines.txt","att_check":false},"trial_type":"html-keyboard-response","trial_index":42,"time_elapsed":143892,"internal_node_id":"0.0-8.0-3.8","subject":"bs4v59ajbwlwxcn","sona":"5332"},{"rt":621.6899999999441,"stimulus":"<p>Bereit?</p>","key_press":32,"trial_type":"html-keyboard-response","trial_index":43,"time_elapsed":144522,"internal_node_id":"0.0-8.0-0.9","subject":"bs4v59ajbwlwxcn","sona":"5332"},{"rt":null,"stimulus":"<div style=\"font-size:60px;\">+</div>","key_press":null,"trial_type":"html-keyboard-response","trial_index":44,"time_elapsed":146525,"internal_node_id":"0.0-8.0-1.9","subject":"bs4v59ajbwlwxcn","sona":"5332"},{"trial_type":"turing-test","trial_index":45,"time_elapsed":150506,"internal_node_id":"0.0-8.0-2.9","subject":"bs4v59ajbwlwxcn","sona":"5332"},{"rt":354.9299999867799,"stimulus":"<p>Welche Sequenz haben Sie als natürlicher empfunden?</p>","key_press":70,"test_part":"response","test_stimulus":{"position":0,"left":"bvh/return-bottle-hold-training3-lines.txt","right":"bvh/vr_prediction_models/model(vcgpdm)-dataset(return-bottle-hold)-mode(ELBO)-parts(1)-dyn(15)-lvm(35)-hold(3)/final-lines.txt","att_check":false},"trial_type":"html-keyboard-response","trial_index":46,"time_elapsed":150865,"internal_node_id":"0.0-8.0-3.9","subject":"bs4v59ajbwlwxcn","sona":"5332"},{"rt":530.2349999983562,"stimulus":"<p>Bereit?</p>","key_press":32,"trial_type":"html-keyboard-response","trial_index":47,"time_elapsed":151398,"internal_node_id":"0.0-8.0-0.10","subject":"bs4v59ajbwlwxcn","sona":"5332"},{"rt":null,"stimulus":"<div style=\"font-size:60px;\">+</div>","key_press":null,"trial_type":"html-keyboard-response","trial_index":48,"time_elapsed":153401,"internal_node_id":"0.0-8.0-1.10","subject":"bs4v59ajbwlwxcn","sona":"5332"},{"trial_type":"turing-test","trial_index":49,"time_elapsed":160365,"internal_node_id":"0.0-8.0-2.10","subject":"bs4v59ajbwlwxcn","sona":"5332"},{"rt":340.21999999822583,"stimulus":"<p>Welche Sequenz haben Sie als natürlicher empfunden?</p>","key_press":70,"test_part":"response","test_stimulus":{"position":0,"left":"bvh/pass-bottle-training0-lines.txt","right":"bvh/vr_prediction_models/model(vcgpdm)-dataset(pass-bottle)-mode(ELBO)-parts(1)-dyn(20)-lvm(30)-hold(0)/final-lines.txt","att_check":false},"trial_type":"html-keyboard-response","trial_index":50,"time_elapsed":160712,"internal_node_id":"0.0-8.0-3.10","subject":"bs4v59ajbwlwxcn","sona":"5332"},{"rt":405.16999999817926,"stimulus":"<p>Bereit?</p>","key_press":32,"trial_type":"html-keyboard-response","trial_index":51,"time_elapsed":161122,"internal_node_id":"0.0-8.0-0.11","subject":"bs4v59ajbwlwxcn","sona":"5332"},{"rt":null,"stimulus":"<div style=\"font-size:60px;\">+</div>","key_press":null,"trial_type":"html-keyboard-response","trial_index":52,"time_elapsed":163125,"internal_node_id":"0.0-8.0-1.11","subject":"bs4v59ajbwlwxcn","sona":"5332"},{"trial_type":"turing-test","trial_index":53,"time_elapsed":168988,"internal_node_id":"0.0-8.0-2.11","subject":"bs4v59ajbwlwxcn","sona":"5332"},{"rt":562.8500000020722,"stimulus":"<p>Welche Sequenz haben Sie als natürlicher empfunden?</p>","key_press":74,"test_part":"response","test_stimulus":{"position":1,"left":"bvh/vr_prediction_models/model(dmp)-dataset(pass-bottle)-npsi(60)-hold(4)/final-lines.txt","right":"bvh/pass-bottle-training4-lines.txt","att_check":false},"trial_type":"html-keyboard-response","trial_index":54,"time_elapsed":169558,"internal_node_id":"0.0-8.0-3.11","subject":"bs4v59ajbwlwxcn","sona":"5332"},{"rt":478.88500000408385,"stimulus":"<p>Bereit?</p>","key_press":32,"trial_type":"html-keyboard-response","trial_index":55,"time_elapsed":170042,"internal_node_id":"0.0-8.0-0.12","subject":"bs4v59ajbwlwxcn","sona":"5332"},{"rt":null,"stimulus":"<div style=\"font-size:60px;\">+</div>","key_press":null,"trial_type":"html-keyboard-response","trial_index":56,"time_elapsed":172044,"internal_node_id":"0.0-8.0-1.12","subject":"bs4v59ajbwlwxcn","sona":"5332"},{"trial_type":"turing-test","trial_index":57,"time_elapsed":177464,"internal_node_id":"0.0-8.0-2.12","subject":"bs4v59ajbwlwxcn","sona":"5332"},{"rt":446.41499999852385,"stimulus":"<p>Welche Sequenz haben Sie als natürlicher empfunden?</p>","key_press":74,"test_part":"response","test_stimulus":{"position":0,"left":"bvh/return-bottle-training0-lines.txt","right":"bvh/vr_prediction_models/model(tmp)-dataset(return-bottle)-numprim(12)-hold(0)/final-lines.txt","att_check":false},"trial_type":"html-keyboard-response","trial_index":58,"time_elapsed":177919,"internal_node_id":"0.0-8.0-3.12","subject":"bs4v59ajbwlwxcn","sona":"5332"},{"rt":325.2899999934016,"stimulus":"<p>Bereit?</p>","key_press":32,"trial_type":"html-keyboard-response","trial_index":59,"time_elapsed":178249,"internal_node_id":"0.0-8.0-0.13","subject":"bs4v59ajbwlwxcn","sona":"5332"},{"rt":null,"stimulus":"<div style=\"font-size:60px;\">+</div>","key_press":null,"trial_type":"html-keyboard-response","trial_index":60,"time_elapsed":180252,"internal_node_id":"0.0-8.0-1.13","subject":"bs4v59ajbwlwxcn","sona":"5332"},{"trial_type":"turing-test","trial_index":61,"time_elapsed":186227,"internal_node_id":"0.0-8.0-2.13","subject":"bs4v59ajbwlwxcn","sona":"5332"},{"rt":328.11499999661464,"stimulus":"<p>Welche Sequenz haben Sie als natürlicher empfunden?</p>","key_press":70,"test_part":"response","test_stimulus":{"position":0,"left":"bvh/return-bottle-training4-lines.txt","right":"bvh/vr_prediction_models/model(vcgpdm)-dataset(return-bottle)-mode(ELBO)-parts(1)-dyn(15)-lvm(35)-hold(4)/final-lines.txt","att_check":false},"trial_type":"html-keyboard-response","trial_index":62,"time_elapsed":186567,"internal_node_id":"0.0-8.0-3.13","subject":"bs4v59ajbwlwxcn","sona":"5332"},{"rt":448.8500000006752,"stimulus":"<p>Bereit?</p>","key_press":32,"trial_type":"html-keyboard-response","trial_index":63,"time_elapsed":187021,"internal_node_id":"0.0-8.0-0.14","subject":"bs4v59ajbwlwxcn","sona":"5332"},{"rt":null,"stimulus":"<div style=\"font-size:60px;\">+</div>","key_press":null,"trial_type":"html-keyboard-response","trial_index":64,"time_elapsed":189024,"internal_node_id":"0.0-8.0-1.14","subject":"bs4v59ajbwlwxcn","sona":"5332"},{"trial_type":"turing-test","trial_index":65,"time_elapsed":194476,"internal_node_id":"0.0-8.0-2.14","subject":"bs4v59ajbwlwxcn","sona":"5332"},{"rt":322.0199999923352,"stimulus":"<p>Welche Sequenz haben Sie als natürlicher empfunden?</p>","key_press":70,"test_part":"response","test_stimulus":{"position":1,"left":"bvh/vr_prediction_models/model(tmp)-dataset(pass-bottle)-numprim(6)-hold(1)/final-lines.txt","right":"bvh/pass-bottle-training1-lines.txt","att_check":false},"trial_type":"html-keyboard-response","trial_index":66,"time_elapsed":194806,"internal_node_id":"0.0-8.0-3.14","subject":"bs4v59ajbwlwxcn","sona":"5332"},{"rt":506.45000000076834,"stimulus":"<p>Bereit?</p>","key_press":32,"trial_type":"html-keyboard-response","trial_index":67,"time_elapsed":195319,"internal_node_id":"0.0-8.0-0.15","subject":"bs4v59ajbwlwxcn","sona":"5332"},{"rt":null,"stimulus":"<div style=\"font-size:60px;\">+</div>","key_press":null,"trial_type":"html-keyboard-response","trial_index":68,"time_elapsed":197322,"internal_node_id":"0.0-8.0-1.15","subject":"bs4v59ajbwlwxcn","sona":"5332"},{"trial_type":"turing-test","trial_index":69,"time_elapsed":203633,"internal_node_id":"0.0-8.0-2.15","subject":"bs4v59ajbwlwxcn","sona":"5332"},{"rt":339.26499998779036,"stimulus":"<p>Welche Sequenz haben Sie als natürlicher empfunden?</p>","key_press":70,"test_part":"response","test_stimulus":{"position":1,"left":"bvh/vr_prediction_models/model(tmp)-dataset(pass-bottle)-numprim(13)-hold(2)/final-lines.txt","right":"bvh/pass-bottle-training2-lines.txt","att_check":false},"trial_type":"html-keyboard-response","trial_index":70,"time_elapsed":203979,"internal_node_id":"0.0-8.0-3.15","subject":"bs4v59ajbwlwxcn","sona":"5332"},{"rt":296.2100000004284,"stimulus":"<p>Bereit?</p>","key_press":32,"trial_type":"html-keyboard-response","trial_index":71,"time_elapsed":204282,"internal_node_id":"0.0-8.0-0.16","subject":"bs4v59ajbwlwxcn","sona":"5332"},{"rt":null,"stimulus":"<div style=\"font-size:60px;\">+</div>","key_press":null,"trial_type":"html-keyboard-response","trial_index":72,"time_elapsed":206286,"internal_node_id":"0.0-8.0-1.16","subject":"bs4v59ajbwlwxcn","sona":"5332"},{"trial_type":"turing-test","trial_index":73,"time_elapsed":212422,"internal_node_id":"0.0-8.0-2.16","subject":"bs4v59ajbwlwxcn","sona":"5332"},{"rt":1039.7200000006706,"stimulus":"<p>Welche Sequenz haben Sie als natürlicher empfunden?</p>","key_press":74,"test_part":"response","test_stimulus":{"position":0,"left":"bvh/return-bottle-training4-lines.txt","right":"bvh/vr_prediction_models/model(vcgpdm)-dataset(return-bottle)-mode(ELBO)-parts(3)-dyn(35)-lvm(20)-hold(4)/final-lines.txt","att_check":false},"trial_type":"html-keyboard-response","trial_index":74,"time_elapsed":213470,"internal_node_id":"0.0-8.0-3.16","subject":"bs4v59ajbwlwxcn","sona":"5332"},{"rt":344.90999999979977,"stimulus":"<p>Bereit?</p>","key_press":32,"trial_type":"html-keyboard-response","trial_index":75,"time_elapsed":213819,"internal_node_id":"0.0-8.0-0.17","subject":"bs4v59ajbwlwxcn","sona":"5332"},{"rt":null,"stimulus":"<div style=\"font-size:60px;\">+</div>","key_press":null,"trial_type":"html-keyboard-response","trial_index":76,"time_elapsed":215823,"internal_node_id":"0.0-8.0-1.17","subject":"bs4v59ajbwlwxcn","sona":"5332"},{"trial_type":"turing-test","trial_index":77,"time_elapsed":221954,"internal_node_id":"0.0-8.0-2.17","subject":"bs4v59ajbwlwxcn","sona":"5332"},{"rt":720.7499999931315,"stimulus":"<p>Welche Sequenz haben Sie als natürlicher empfunden?</p>","key_press":70,"test_part":"response","test_stimulus":{"position":1,"left":"bvh/vr_prediction_models/model(tmp)-dataset(pass-bottle)-numprim(4)-hold(2)/final-lines.txt","right":"bvh/pass-bottle-training2-lines.txt","att_check":false},"trial_type":"html-keyboard-response","trial_index":78,"time_elapsed":222683,"internal_node_id":"0.0-8.0-3.17","subject":"bs4v59ajbwlwxcn","sona":"5332"},{"rt":464.46500001184177,"stimulus":"<p>Bereit?</p>","key_press":32,"trial_type":"html-keyboard-response","trial_index":79,"time_elapsed":223152,"internal_node_id":"0.0-8.0-0.18","subject":"bs4v59ajbwlwxcn","sona":"5332"},{"rt":null,"stimulus":"<div style=\"font-size:60px;\">+</div>","key_press":null,"trial_type":"html-keyboard-response","trial_index":80,"time_elapsed":225154,"internal_node_id":"0.0-8.0-1.18","subject":"bs4v59ajbwlwxcn","sona":"5332"},{"trial_type":"turing-test","trial_index":81,"time_elapsed":231243,"internal_node_id":"0.0-8.0-2.18","subject":"bs4v59ajbwlwxcn","sona":"5332"},{"rt":318.9100000017788,"stimulus":"<p>Welche Sequenz haben Sie als natürlicher empfunden?</p>","key_press":70,"test_part":"response","test_stimulus":{"position":0,"left":"bvh/pass-bottle-training3-lines.txt","right":"bvh/vr_prediction_models/model(tmp)-dataset(pass-bottle)-numprim(10)-hold(3)/final-lines.txt","att_check":false},"trial_type":"html-keyboard-response","trial_index":82,"time_elapsed":231572,"internal_node_id":"0.0-8.0-3.18","subject":"bs4v59ajbwlwxcn","sona":"5332"},{"rt":511.754999999539,"stimulus":"<p>Bereit?</p>","key_press":32,"trial_type":"html-keyboard-response","trial_index":83,"time_elapsed":232093,"internal_node_id":"0.0-8.0-0.19","subject":"bs4v59ajbwlwxcn","sona":"5332"},{"rt":null,"stimulus":"<div style=\"font-size:60px;\">+</div>","key_press":null,"trial_type":"html-keyboard-response","trial_index":84,"time_elapsed":234096,"internal_node_id":"0.0-8.0-1.19","subject":"bs4v59ajbwlwxcn","sona":"5332"},{"trial_type":"turing-test","trial_index":85,"time_elapsed":240375,"internal_node_id":"0.0-8.0-2.19","subject":"bs4v59ajbwlwxcn","sona":"5332"},{"rt":678.3649999997579,"stimulus":"<p>Welche Sequenz haben Sie als natürlicher empfunden?</p>","key_press":70,"test_part":"response","test_stimulus":{"position":0,"left":"bvh/pass-bottle-training2-lines.txt","right":"bvh/vr_prediction_models/model(tmp)-dataset(pass-bottle)-numprim(12)-hold(2)/final-lines.txt","att_check":false},"trial_type":"html-keyboard-response","trial_index":86,"time_elapsed":241063,"internal_node_id":"0.0-8.0-3.19","subject":"bs4v59ajbwlwxcn","sona":"5332"},{"rt":376.975000006496,"stimulus":"<p>Bereit?</p>","key_press":32,"trial_type":"html-keyboard-response","trial_index":87,"time_elapsed":241442,"internal_node_id":"0.0-8.0-0.20","subject":"bs4v59ajbwlwxcn","sona":"5332"},{"rt":null,"stimulus":"<div style=\"font-size:60px;\">+</div>","key_press":null,"trial_type":"html-keyboard-response","trial_index":88,"time_elapsed":243446,"internal_node_id":"0.0-8.0-1.20","subject":"bs4v59ajbwlwxcn","sona":"5332"},{"trial_type":"turing-test","trial_index":89,"time_elapsed":249863,"internal_node_id":"0.0-8.0-2.20","subject":"bs4v59ajbwlwxcn","sona":"5332"},{"rt":549.9350000027334,"stimulus":"<p>Welche Sequenz haben Sie als natürlicher empfunden?</p>","key_press":70,"test_part":"response","test_stimulus":{"position":0,"left":"bvh/return-bottle-training3-lines.txt","right":"bvh/vr_prediction_models/model(vcgpdm)-dataset(return-bottle)-mode(ELBO)-parts(3)-dyn(20)-lvm(35)-hold(3)/final-lines.txt","att_check":false},"trial_type":"html-keyboard-response","trial_index":90,"time_elapsed":250418,"internal_node_id":"0.0-8.0-3.20","subject":"bs4v59ajbwlwxcn","sona":"5332"},{"rt":284.14999999222346,"stimulus":"<p>Bereit?</p>","key_press":32,"trial_type":"html-keyboard-response","trial_index":91,"time_elapsed":250707,"internal_node_id":"0.0-8.0-0.21","subject":"bs4v59ajbwlwxcn","sona":"5332"},{"rt":null,"stimulus":"<div style=\"font-size:60px;\">+</div>","key_press":null,"trial_type":"html-keyboard-response","trial_index":92,"time_elapsed":252710,"internal_node_id":"0.0-8.0-1.21","subject":"bs4v59ajbwlwxcn","sona":"5332"},{"trial_type":"turing-test","trial_index":93,"time_elapsed":258893,"internal_node_id":"0.0-8.0-2.21","subject":"bs4v59ajbwlwxcn","sona":"5332"},{"rt":377.61500000488013,"stimulus":"<p>Welche Sequenz haben Sie als natürlicher empfunden?</p>","key_press":74,"test_part":"response","test_stimulus":{"position":1,"left":"bvh/vr_prediction_models/model(vcgpdm)-dataset(pass-bottle)-mode(ELBO)-parts(1)-dyn(20)-lvm(5)-hold(3)/final-lines.txt","right":"bvh/pass-bottle-training3-lines.txt","att_check":false},"trial_type":"html-keyboard-response","trial_index":94,"time_elapsed":259277,"internal_node_id":"0.0-8.0-3.21","subject":"bs4v59ajbwlwxcn","sona":"5332"},{"rt":442.93000000470784,"stimulus":"<p>Bereit?</p>","key_press":32,"trial_type":"html-keyboard-response","trial_index":95,"time_elapsed":259727,"internal_node_id":"0.0-8.0-0.22","subject":"bs4v59ajbwlwxcn","sona":"5332"},{"rt":null,"stimulus":"<div style=\"font-size:60px;\">+</div>","key_press":null,"trial_type":"html-keyboard-response","trial_index":96,"time_elapsed":261731,"internal_node_id":"0.0-8.0-1.22","subject":"bs4v59ajbwlwxcn","sona":"5332"},{"trial_type":"turing-test","trial_index":97,"time_elapsed":267701,"internal_node_id":"0.0-8.0-2.22","subject":"bs4v59ajbwlwxcn","sona":"5332"},{"rt":315.01000000571366,"stimulus":"<p>Welche Sequenz haben Sie als natürlicher empfunden?</p>","key_press":70,"test_part":"response","test_stimulus":{"position":0,"left":"bvh/return-bottle-training4-lines.txt","right":"bvh/vr_prediction_models/model(vcgpdm)-dataset(return-bottle)-mode(ELBO)-parts(3)-dyn(20)-lvm(35)-hold(4)/final-lines.txt","att_check":false},"trial_type":"html-keyboard-response","trial_index":98,"time_elapsed":268024,"internal_node_id":"0.0-8.0-3.22","subject":"bs4v59ajbwlwxcn","sona":"5332"},{"rt":386.98999999905936,"stimulus":"<p>Bereit?</p>","key_press":32,"trial_type":"html-keyboard-response","trial_index":99,"time_elapsed":268418,"internal_node_id":"0.0-8.0-0.23","subject":"bs4v59ajbwlwxcn","sona":"5332"},{"rt":null,"stimulus":"<div style=\"font-size:60px;\">+</div>","key_press":null,"trial_type":"html-keyboard-response","trial_index":100,"time_elapsed":270421,"internal_node_id":"0.0-8.0-1.23","subject":"bs4v59ajbwlwxcn","sona":"5332"},{"trial_type":"turing-test","trial_index":101,"time_elapsed":275308,"internal_node_id":"0.0-8.0-2.23","subject":"bs4v59ajbwlwxcn","sona":"5332"},{"rt":662.8599999967264,"stimulus":"<p>Welche Sequenz haben Sie als natürlicher empfunden?</p>","key_press":74,"test_part":"response","test_stimulus":{"position":0,"left":"bvh/pass-bottle-hold-training4-lines.txt","right":"bvh/vr_prediction_models/model(vcgpdm)-dataset(pass-bottle-hold)-mode(ELBO)-parts(3)-dyn(35)-lvm(20)-hold(4)/final-lines.txt","att_check":false},"trial_type":"html-keyboard-response","trial_index":102,"time_elapsed":275978,"internal_node_id":"0.0-8.0-3.23","subject":"bs4v59ajbwlwxcn","sona":"5332"},{"rt":369.8399999993853,"stimulus":"<p>Bereit?</p>","key_press":32,"trial_type":"html-keyboard-response","trial_index":103,"time_elapsed":276352,"internal_node_id":"0.0-8.0-0.24","subject":"bs4v59ajbwlwxcn","sona":"5332"},{"rt":null,"stimulus":"<div style=\"font-size:60px;\">+</div>","key_press":null,"trial_type":"html-keyboard-response","trial_index":104,"time_elapsed":278355,"internal_node_id":"0.0-8.0-1.24","subject":"bs4v59ajbwlwxcn","sona":"5332"},{"trial_type":"turing-test","trial_index":105,"time_elapsed":282403,"internal_node_id":"0.0-8.0-2.24","subject":"bs4v59ajbwlwxcn","sona":"5332"},{"rt":374.40000000060536,"stimulus":"<p>Welche Sequenz haben Sie als natürlicher empfunden?</p>","key_press":70,"test_part":"response","test_stimulus":{"position":0,"left":"bvh/return-bottle-hold-training1-lines.txt","right":"bvh/vr_prediction_models/model(vcgpdm)-dataset(return-bottle-hold)-mode(ELBO)-parts(3)-dyn(10)-lvm(10)-hold(1)/final-lines.txt","att_check":false},"trial_type":"html-keyboard-response","trial_index":106,"time_elapsed":282782,"internal_node_id":"0.0-8.0-3.24","subject":"bs4v59ajbwlwxcn","sona":"5332"},{"rt":588.884999990114,"stimulus":"<p>Bereit?</p>","key_press":32,"trial_type":"html-keyboard-response","trial_index":107,"time_elapsed":283374,"internal_node_id":"0.0-8.0-0.25","subject":"bs4v59ajbwlwxcn","sona":"5332"},{"rt":null,"stimulus":"<div style=\"font-size:60px;\">+</div>","key_press":null,"trial_type":"html-keyboard-response","trial_index":108,"time_elapsed":285377,"internal_node_id":"0.0-8.0-1.25","subject":"bs4v59ajbwlwxcn","sona":"5332"},{"trial_type":"turing-test","trial_index":109,"time_elapsed":289036,"internal_node_id":"0.0-8.0-2.25","subject":"bs4v59ajbwlwxcn","sona":"5332"},{"rt":355.66000000108033,"stimulus":"<p>Welche Sequenz haben Sie als natürlicher empfunden?</p>","key_press":74,"test_part":"response","test_stimulus":{"position":1,"left":"bvh/vr_prediction_models/model(vcgpdm)-dataset(return-bottle-hold)-mode(ELBO)-parts(1)-dyn(10)-lvm(30)-hold(2)/final-lines.txt","right":"bvh/return-bottle-hold-training2-lines.txt","att_check":false},"trial_type":"html-keyboard-response","trial_index":110,"time_elapsed":289398,"internal_node_id":"0.0-8.0-3.25","subject":"bs4v59ajbwlwxcn","sona":"5332"},{"rt":479.83000001113396,"stimulus":"<p>Bereit?</p>","key_press":32,"trial_type":"html-keyboard-response","trial_index":111,"time_elapsed":289880,"internal_node_id":"0.0-8.0-0.26","subject":"bs4v59ajbwlwxcn","sona":"5332"},{"rt":null,"stimulus":"<div style=\"font-size:60px;\">+</div>","key_press":null,"trial_type":"html-keyboard-response","trial_index":112,"time_elapsed":291883,"internal_node_id":"0.0-8.0-1.26","subject":"bs4v59ajbwlwxcn","sona":"5332"},{"trial_type":"turing-test","trial_index":113,"time_elapsed":297470,"internal_node_id":"0.0-8.0-2.26","subject":"bs4v59ajbwlwxcn","sona":"5332"},{"rt":381.73499998811167,"stimulus":"<p>Welche Sequenz haben Sie als natürlicher empfunden?</p>","key_press":70,"test_part":"response","test_stimulus":{"position":0,"left":"bvh/return-bottle-hold-training0-lines.txt","right":"bvh/vr_prediction_models/model(vcgpdm)-dataset(return-bottle-hold)-mode(ELBO)-parts(3)-dyn(10)-lvm(30)-hold(0)/final-lines.txt","att_check":false},"trial_type":"html-keyboard-response","trial_index":114,"time_elapsed":297861,"internal_node_id":"0.0-8.0-3.26","subject":"bs4v59ajbwlwxcn","sona":"5332"},{"rt":403.57000000949483,"stimulus":"<p>Bereit?</p>","key_press":32,"trial_type":"html-keyboard-response","trial_index":115,"time_elapsed":298269,"internal_node_id":"0.0-8.0-0.27","subject":"bs4v59ajbwlwxcn","sona":"5332"},{"rt":null,"stimulus":"<div style=\"font-size:60px;\">+</div>","key_press":null,"trial_type":"html-keyboard-response","trial_index":116,"time_elapsed":300273,"internal_node_id":"0.0-8.0-1.27","subject":"bs4v59ajbwlwxcn","sona":"5332"},{"trial_type":"turing-test","trial_index":117,"time_elapsed":303796,"internal_node_id":"0.0-8.0-2.27","subject":"bs4v59ajbwlwxcn","sona":"5332"},{"rt":813.5999999940395,"stimulus":"<p>Welche Sequenz haben Sie als natürlicher empfunden?</p>","key_press":70,"test_part":"response","test_stimulus":{"position":0,"left":"bvh/pass-bottle-hold-training0-lines.txt","right":"bvh/vr_prediction_models/model(tmp)-dataset(pass-bottle-hold)-numprim(7)-hold(0)/final-lines.txt","att_check":false},"trial_type":"html-keyboard-response","trial_index":118,"time_elapsed":304616,"internal_node_id":"0.0-8.0-3.27","subject":"bs4v59ajbwlwxcn","sona":"5332"},{"rt":633.0799999996088,"stimulus":"<p>Bereit?</p>","key_press":32,"trial_type":"html-keyboard-response","trial_index":119,"time_elapsed":305251,"internal_node_id":"0.0-8.0-0.28","subject":"bs4v59ajbwlwxcn","sona":"5332"},{"rt":null,"stimulus":"<div style=\"font-size:60px;\">+</div>","key_press":null,"trial_type":"html-keyboard-response","trial_index":120,"time_elapsed":307254,"internal_node_id":"0.0-8.0-1.28","subject":"bs4v59ajbwlwxcn","sona":"5332"},{"trial_type":"turing-test","trial_index":121,"time_elapsed":313236,"internal_node_id":"0.0-8.0-2.28","subject":"bs4v59ajbwlwxcn","sona":"5332"},{"rt":351.0099999984959,"stimulus":"<p>Welche Sequenz haben Sie als natürlicher empfunden?</p>","key_press":74,"test_part":"response","test_stimulus":{"position":1,"left":"bvh/vr_prediction_models/model(vcgpdm)-dataset(return-bottle)-mode(ELBO)-parts(1)-dyn(10)-lvm(30)-hold(3)/final-lines.txt","right":"bvh/return-bottle-training3-lines.txt","att_check":false},"trial_type":"html-keyboard-response","trial_index":122,"time_elapsed":313598,"internal_node_id":"0.0-8.0-3.28","subject":"bs4v59ajbwlwxcn","sona":"5332"},{"rt":494.84000001393724,"stimulus":"<p>Bereit?</p>","key_press":32,"trial_type":"html-keyboard-response","trial_index":123,"time_elapsed":314101,"internal_node_id":"0.0-8.0-0.29","subject":"bs4v59ajbwlwxcn","sona":"5332"},{"rt":null,"stimulus":"<div style=\"font-size:60px;\">+</div>","key_press":null,"trial_type":"html-keyboard-response","trial_index":124,"time_elapsed":316104,"internal_node_id":"0.0-8.0-1.29","subject":"bs4v59ajbwlwxcn","sona":"5332"},{"trial_type":"turing-test","trial_index":125,"time_elapsed":319347,"internal_node_id":"0.0-8.0-2.29","subject":"bs4v59ajbwlwxcn","sona":"5332"},{"rt":763.729999991483,"stimulus":"<p>Welche Sequenz haben Sie als natürlicher empfunden?</p>","key_press":70,"test_part":"response","test_stimulus":{"position":0,"left":"bvh/return-bottle-hold-training1-lines.txt","right":"bvh/vr_prediction_models/model(vcgpdm)-dataset(return-bottle-hold)-mode(ELBO)-parts(3)-dyn(10)-lvm(10)-hold(1)/final-lines.txt","att_check":false},"trial_type":"html-keyboard-response","trial_index":126,"time_elapsed":320119,"internal_node_id":"0.0-8.0-3.29","subject":"bs4v59ajbwlwxcn","sona":"5332"},{"rt":375.04500000795815,"stimulus":"<p>Bereit?</p>","key_press":32,"trial_type":"html-keyboard-response","trial_index":127,"time_elapsed":320499,"internal_node_id":"0.0-8.0-0.30","subject":"bs4v59ajbwlwxcn","sona":"5332"},{"rt":null,"stimulus":"<div style=\"font-size:60px;\">+</div>","key_press":null,"trial_type":"html-keyboard-response","trial_index":128,"time_elapsed":322503,"internal_node_id":"0.0-8.0-1.30","subject":"bs4v59ajbwlwxcn","sona":"5332"},{"trial_type":"turing-test","trial_index":129,"time_elapsed":326074,"internal_node_id":"0.0-8.0-2.30","subject":"bs4v59ajbwlwxcn","sona":"5332"},{"rt":322.21000001300126,"stimulus":"<p>Welche Sequenz haben Sie als natürlicher empfunden?</p>","key_press":70,"test_part":"response","test_stimulus":{"position":0,"left":"bvh/return-bottle-hold-training1-lines.txt","right":"bvh/vr_prediction_models/model(dmp)-dataset(return-bottle-hold)-npsi(30)-hold(1)/final-lines.txt","att_check":false},"trial_type":"html-keyboard-response","trial_index":130,"time_elapsed":326403,"internal_node_id":"0.0-8.0-3.30","subject":"bs4v59ajbwlwxcn","sona":"5332"},{"rt":357.48000000603497,"stimulus":"<p>Bereit?</p>","key_press":32,"trial_type":"html-keyboard-response","trial_index":131,"time_elapsed":326766,"internal_node_id":"0.0-8.0-0.31","subject":"bs4v59ajbwlwxcn","sona":"5332"},{"rt":null,"stimulus":"<div style=\"font-size:60px;\">+</div>","key_press":null,"trial_type":"html-keyboard-response","trial_index":132,"time_elapsed":328772,"internal_node_id":"0.0-8.0-1.31","subject":"bs4v59ajbwlwxcn","sona":"5332"},{"trial_type":"turing-test","trial_index":133,"time_elapsed":332828,"internal_node_id":"0.0-8.0-2.31","subject":"bs4v59ajbwlwxcn","sona":"5332"},{"rt":658.8250000058906,"stimulus":"<p>Welche Sequenz haben Sie als natürlicher empfunden?</p>","key_press":74,"test_part":"response","test_stimulus":{"position":1,"left":"bvh/vr_prediction_models/model(dmp)-dataset(return-bottle-hold)-npsi(50)-hold(3)/final-lines.txt","right":"bvh/return-bottle-hold-training3-lines.txt","att_check":false},"trial_type":"html-keyboard-response","trial_index":134,"time_elapsed":333494,"internal_node_id":"0.0-8.0-3.31","subject":"bs4v59ajbwlwxcn","sona":"5332"},{"rt":574.6649999928195,"stimulus":"<p>Bereit?</p>","key_press":32,"trial_type":"html-keyboard-response","trial_index":135,"time_elapsed":334073,"internal_node_id":"0.0-8.0-0.32","subject":"bs4v59ajbwlwxcn","sona":"5332"},{"rt":null,"stimulus":"<div style=\"font-size:60px;\">+</div>","key_press":null,"trial_type":"html-keyboard-response","trial_index":136,"time_elapsed":336076,"internal_node_id":"0.0-8.0-1.32","subject":"bs4v59ajbwlwxcn","sona":"5332"},{"trial_type":"turing-test","trial_index":137,"time_elapsed":341563,"internal_node_id":"0.0-8.0-2.32","subject":"bs4v59ajbwlwxcn","sona":"5332"},{"rt":773.4500000078697,"stimulus":"<p>Welche Sequenz haben Sie als natürlicher empfunden?</p>","key_press":74,"test_part":"response","test_stimulus":{"position":1,"left":"bvh/vr_prediction_models/model(tmp)-dataset(return-bottle)-numprim(11)-hold(0)/final-lines.txt","right":"bvh/return-bottle-training0-lines.txt","att_check":false},"trial_type":"html-keyboard-response","trial_index":138,"time_elapsed":342347,"internal_node_id":"0.0-8.0-3.32","subject":"bs4v59ajbwlwxcn","sona":"5332"},{"rt":398.61000000382774,"stimulus":"<p>Bereit?</p>","key_press":32,"trial_type":"html-keyboard-response","trial_index":139,"time_elapsed":342756,"internal_node_id":"0.0-8.0-0.33","subject":"bs4v59ajbwlwxcn","sona":"5332"},{"rt":null,"stimulus":"<div style=\"font-size:60px;\">+</div>","key_press":null,"trial_type":"html-keyboard-response","trial_index":140,"time_elapsed":344760,"internal_node_id":"0.0-8.0-1.33","subject":"bs4v59ajbwlwxcn","sona":"5332"},{"trial_type":"turing-test","trial_index":141,"time_elapsed":348399,"internal_node_id":"0.0-8.0-2.33","subject":"bs4v59ajbwlwxcn","sona":"5332"},{"rt":1050.5700000067009,"stimulus":"<p>Welche Sequenz haben Sie als natürlicher empfunden?</p>","key_press":74,"test_part":"response","test_stimulus":{"position":1,"left":"bvh/vr_prediction_models/model(vcgpdm)-dataset(pass-bottle-hold)-mode(ELBO)-parts(1)-dyn(30)-lvm(35)-hold(1)/final-lines.txt","right":"bvh/pass-bottle-hold-training1-lines.txt","att_check":false},"trial_type":"html-keyboard-response","trial_index":142,"time_elapsed":349456,"internal_node_id":"0.0-8.0-3.33","subject":"bs4v59ajbwlwxcn","sona":"5332"},{"rt":312.5350000045728,"stimulus":"<p>Bereit?</p>","key_press":32,"trial_type":"html-keyboard-response","trial_index":143,"time_elapsed":349771,"internal_node_id":"0.0-8.0-0.34","subject":"bs4v59ajbwlwxcn","sona":"5332"},{"rt":null,"stimulus":"<div style=\"font-size:60px;\">+</div>","key_press":null,"trial_type":"html-keyboard-response","trial_index":144,"time_elapsed":351773,"internal_node_id":"0.0-8.0-1.34","subject":"bs4v59ajbwlwxcn","sona":"5332"},{"trial_type":"turing-test","trial_index":145,"time_elapsed":358174,"internal_node_id":"0.0-8.0-2.34","subject":"bs4v59ajbwlwxcn","sona":"5332"},{"rt":629.9250000010943,"stimulus":"<p>Welche Sequenz haben Sie als natürlicher empfunden?</p>","key_press":74,"test_part":"response","test_stimulus":{"position":1,"left":"bvh/vr_prediction_models/model(vcgpdm)-dataset(pass-bottle)-mode(ELBO)-parts(3)-dyn(10)-lvm(25)-hold(3)/final-lines.txt","right":"bvh/pass-bottle-training3-lines.txt","att_check":false},"trial_type":"html-keyboard-response","trial_index":146,"time_elapsed":358812,"internal_node_id":"0.0-8.0-3.34","subject":"bs4v59ajbwlwxcn","sona":"5332"},{"rt":219.54999999434222,"stimulus":"<p>Bereit?</p>","key_press":32,"trial_type":"html-keyboard-response","trial_index":147,"time_elapsed":359035,"internal_node_id":"0.0-8.0-0.35","subject":"bs4v59ajbwlwxcn","sona":"5332"},{"rt":null,"stimulus":"<div style=\"font-size:60px;\">+</div>","key_press":null,"trial_type":"html-keyboard-response","trial_index":148,"time_elapsed":361038,"internal_node_id":"0.0-8.0-1.35","subject":"bs4v59ajbwlwxcn","sona":"5332"},{"trial_type":"turing-test","trial_index":149,"time_elapsed":364536,"internal_node_id":"0.0-8.0-2.35","subject":"bs4v59ajbwlwxcn","sona":"5332"},{"rt":725.7549999922048,"stimulus":"<p>Welche Sequenz haben Sie als natürlicher empfunden?</p>","key_press":74,"test_part":"response","test_stimulus":{"position":1,"left":"bvh/vr_prediction_models/model(vcgpdm)-dataset(pass-bottle-hold)-mode(MAP)-parts(3)-hold(1)/final-lines.txt","right":"bvh/pass-bottle-hold-training1-lines.txt","att_check":false},"trial_type":"html-keyboard-response","trial_index":150,"time_elapsed":365269,"internal_node_id":"0.0-8.0-3.35","subject":"bs4v59ajbwlwxcn","sona":"5332"},{"rt":248.42000000353437,"stimulus":"<p>Bereit?</p>","key_press":32,"trial_type":"html-keyboard-response","trial_index":151,"time_elapsed":365524,"internal_node_id":"0.0-8.0-0.36","subject":"bs4v59ajbwlwxcn","sona":"5332"},{"rt":null,"stimulus":"<div style=\"font-size:60px;\">+</div>","key_press":null,"trial_type":"html-keyboard-response","trial_index":152,"time_elapsed":367526,"internal_node_id":"0.0-8.0-1.36","subject":"bs4v59ajbwlwxcn","sona":"5332"},{"trial_type":"turing-test","trial_index":153,"time_elapsed":370970,"internal_node_id":"0.0-8.0-2.36","subject":"bs4v59ajbwlwxcn","sona":"5332"},{"rt":718.7299999932293,"stimulus":"<p>Welche Sequenz haben Sie als natürlicher empfunden?</p>","key_press":74,"test_part":"response","test_stimulus":{"position":1,"left":"bvh/vr_prediction_models/model(dmp)-dataset(pass-bottle-hold)-npsi(30)-hold(0)/final-lines.txt","right":"bvh/pass-bottle-hold-training0-lines.txt","att_check":false},"trial_type":"html-keyboard-response","trial_index":154,"time_elapsed":371698,"internal_node_id":"0.0-8.0-3.36","subject":"bs4v59ajbwlwxcn","sona":"5332"},{"rt":251.09499999962281,"stimulus":"<p>Bereit?</p>","key_press":32,"trial_type":"html-keyboard-response","trial_index":155,"time_elapsed":371952,"internal_node_id":"0.0-8.0-0.37","subject":"bs4v59ajbwlwxcn","sona":"5332"},{"rt":null,"stimulus":"<div style=\"font-size:60px;\">+</div>","key_press":null,"trial_type":"html-keyboard-response","trial_index":156,"time_elapsed":373956,"internal_node_id":"0.0-8.0-1.37","subject":"bs4v59ajbwlwxcn","sona":"5332"},{"trial_type":"turing-test","trial_index":157,"time_elapsed":380801,"internal_node_id":"0.0-8.0-2.37","subject":"bs4v59ajbwlwxcn","sona":"5332"},{"rt":482.18000000633765,"stimulus":"<p>Welche Sequenz haben Sie als natürlicher empfunden?</p>","key_press":70,"test_part":"response","test_stimulus":{"position":1,"left":"bvh/vr_prediction_models/model(vcgpdm)-dataset(return-bottle)-mode(MAP)-parts(3)-hold(2)/final-lines.txt","right":"bvh/return-bottle-training2-lines.txt","att_check":false},"trial_type":"html-keyboard-response","trial_index":158,"time_elapsed":381290,"internal_node_id":"0.0-8.0-3.37","subject":"bs4v59ajbwlwxcn","sona":"5332"},{"rt":372.0049999974435,"stimulus":"<p>Bereit?</p>","key_press":32,"trial_type":"html-keyboard-response","trial_index":159,"time_elapsed":381671,"internal_node_id":"0.0-8.0-0.38","subject":"bs4v59ajbwlwxcn","sona":"5332"},{"rt":null,"stimulus":"<div style=\"font-size:60px;\">+</div>","key_press":null,"trial_type":"html-keyboard-response","trial_index":160,"time_elapsed":383674,"internal_node_id":"0.0-8.0-1.38","subject":"bs4v59ajbwlwxcn","sona":"5332"},{"trial_type":"turing-test","trial_index":161,"time_elapsed":390354,"internal_node_id":"0.0-8.0-2.38","subject":"bs4v59ajbwlwxcn","sona":"5332"},{"rt":381.4100000017788,"stimulus":"<p>Welche Sequenz haben Sie als natürlicher empfunden?</p>","key_press":70,"test_part":"response","test_stimulus":{"position":0,"left":"bvh/return-bottle-training2-lines.txt","right":"bvh/vr_prediction_models/model(tmp)-dataset(return-bottle)-numprim(3)-hold(2)/final-lines.txt","att_check":false},"trial_type":"html-keyboard-response","trial_index":162,"time_elapsed":390749,"internal_node_id":"0.0-8.0-3.38","subject":"bs4v59ajbwlwxcn","sona":"5332"},{"rt":399.9749999929918,"stimulus":"<p>Bereit?</p>","key_press":32,"trial_type":"html-keyboard-response","trial_index":163,"time_elapsed":391152,"internal_node_id":"0.0-8.0-0.39","subject":"bs4v59ajbwlwxcn","sona":"5332"},{"rt":null,"stimulus":"<div style=\"font-size:60px;\">+</div>","key_press":null,"trial_type":"html-keyboard-response","trial_index":164,"time_elapsed":393154,"internal_node_id":"0.0-8.0-1.39","subject":"bs4v59ajbwlwxcn","sona":"5332"},{"trial_type":"turing-test","trial_index":165,"time_elapsed":400393,"internal_node_id":"0.0-8.0-2.39","subject":"bs4v59ajbwlwxcn","sona":"5332"},{"rt":460.6099999946309,"stimulus":"<p>Welche Sequenz haben Sie als natürlicher empfunden?</p>","key_press":74,"test_part":"response","test_stimulus":{"position":1,"left":"bvh/vr_prediction_models/model(vcgpdm)-dataset(pass-bottle)-mode(ELBO)-parts(1)-dyn(35)-lvm(30)-hold(0)/final-lines.txt","right":"bvh/pass-bottle-training0-lines.txt","att_check":false},"trial_type":"html-keyboard-response","trial_index":166,"time_elapsed":400868,"internal_node_id":"0.0-8.0-3.39","subject":"bs4v59ajbwlwxcn","sona":"5332"},{"rt":332.68999999563675,"stimulus":"<p>Bereit?</p>","key_press":32,"trial_type":"html-keyboard-response","trial_index":167,"time_elapsed":401207,"internal_node_id":"0.0-8.0-0.40","subject":"bs4v59ajbwlwxcn","sona":"5332"},{"rt":null,"stimulus":"<div style=\"font-size:60px;\">+</div>","key_press":null,"trial_type":"html-keyboard-response","trial_index":168,"time_elapsed":403209,"internal_node_id":"0.0-8.0-1.40","subject":"bs4v59ajbwlwxcn","sona":"5332"},{"trial_type":"turing-test","trial_index":169,"time_elapsed":406892,"internal_node_id":"0.0-8.0-2.40","subject":"bs4v59ajbwlwxcn","sona":"5332"},{"rt":950.940000009723,"stimulus":"<p>Welche Sequenz haben Sie als natürlicher empfunden?</p>","key_press":70,"test_part":"response","test_stimulus":{"position":1,"left":"bvh/vr_prediction_models/model(tmp)-dataset(pass-bottle-hold)-numprim(15)-hold(4)/final-lines.txt","right":"bvh/pass-bottle-hold-training4-lines.txt","att_check":false},"trial_type":"html-keyboard-response","trial_index":170,"time_elapsed":407852,"internal_node_id":"0.0-8.0-3.40","subject":"bs4v59ajbwlwxcn","sona":"5332"},{"rt":429.0599999949336,"stimulus":"<p>Bereit?</p>","key_press":32,"trial_type":"html-keyboard-response","trial_index":171,"time_elapsed":408286,"internal_node_id":"0.0-8.0-0.41","subject":"bs4v59ajbwlwxcn","sona":"5332"},{"rt":null,"stimulus":"<div style=\"font-size:60px;\">+</div>","key_press":null,"trial_type":"html-keyboard-response","trial_index":172,"time_elapsed":410289,"internal_node_id":"0.0-8.0-1.41","subject":"bs4v59ajbwlwxcn","sona":"5332"},{"trial_type":"turing-test","trial_index":173,"time_elapsed":416245,"internal_node_id":"0.0-8.0-2.41","subject":"bs4v59ajbwlwxcn","sona":"5332"},{"rt":603.384999994887,"stimulus":"<p>Welche Sequenz haben Sie als natürlicher empfunden?</p>","key_press":74,"test_part":"response","test_stimulus":{"position":1,"left":"bvh/vr_prediction_models/model(dmp)-dataset(pass-bottle)-npsi(100)-hold(4)/final-lines.txt","right":"bvh/pass-bottle-training4-lines.txt","att_check":false},"trial_type":"html-keyboard-response","trial_index":174,"time_elapsed":416859,"internal_node_id":"0.0-8.0-3.41","subject":"bs4v59ajbwlwxcn","sona":"5332"},{"rt":366.3149999920279,"stimulus":"<p>Bereit?</p>","key_press":32,"trial_type":"html-keyboard-response","trial_index":175,"time_elapsed":417229,"internal_node_id":"0.0-8.0-0.42","subject":"bs4v59ajbwlwxcn","sona":"5332"},{"rt":null,"stimulus":"<div style=\"font-size:60px;\">+</div>","key_press":null,"trial_type":"html-keyboard-response","trial_index":176,"time_elapsed":419231,"internal_node_id":"0.0-8.0-1.42","subject":"bs4v59ajbwlwxcn","sona":"5332"},{"trial_type":"turing-test","trial_index":177,"time_elapsed":425491,"internal_node_id":"0.0-8.0-2.42","subject":"bs4v59ajbwlwxcn","sona":"5332"},{"rt":397.22500000789296,"stimulus":"<p>Welche Sequenz haben Sie als natürlicher empfunden?</p>","key_press":74,"test_part":"response","test_stimulus":{"position":1,"left":"bvh/vr_prediction_models/model(vcgpdm)-dataset(pass-bottle)-mode(ELBO)-parts(1)-dyn(30)-lvm(30)-hold(4)/final-lines.txt","right":"bvh/pass-bottle-training4-lines.txt","att_check":false},"trial_type":"html-keyboard-response","trial_index":178,"time_elapsed":425900,"internal_node_id":"0.0-8.0-3.42","subject":"bs4v59ajbwlwxcn","sona":"5332"},{"rt":561.344999994617,"stimulus":"<p>Bereit?</p>","key_press":32,"trial_type":"html-keyboard-response","trial_index":179,"time_elapsed":426464,"internal_node_id":"0.0-8.0-0.43","subject":"bs4v59ajbwlwxcn","sona":"5332"},{"rt":null,"stimulus":"<div style=\"font-size:60px;\">+</div>","key_press":null,"trial_type":"html-keyboard-response","trial_index":180,"time_elapsed":428468,"internal_node_id":"0.0-8.0-1.43","subject":"bs4v59ajbwlwxcn","sona":"5332"},{"trial_type":"turing-test","trial_index":181,"time_elapsed":435089,"internal_node_id":"0.0-8.0-2.43","subject":"bs4v59ajbwlwxcn","sona":"5332"},{"rt":330.98500000778586,"stimulus":"<p>Welche Sequenz haben Sie als natürlicher empfunden?</p>","key_press":70,"test_part":"response","test_stimulus":{"position":0,"left":"bvh/pass-bottle-training2-lines.txt","right":"bvh/vr_prediction_models/model(vcgpdm)-dataset(pass-bottle)-mode(ELBO)-parts(1)-dyn(10)-lvm(25)-hold(2)/final-lines.txt","att_check":false},"trial_type":"html-keyboard-response","trial_index":182,"time_elapsed":435434,"internal_node_id":"0.0-8.0-3.43","subject":"bs4v59ajbwlwxcn","sona":"5332"},{"rt":508.1249999930151,"stimulus":"<p>Bereit?</p>","key_press":32,"trial_type":"html-keyboard-response","trial_index":183,"time_elapsed":435948,"internal_node_id":"0.0-8.0-0.44","subject":"bs4v59ajbwlwxcn","sona":"5332"},{"rt":null,"stimulus":"<div style=\"font-size:60px;\">+</div>","key_press":null,"trial_type":"html-keyboard-response","trial_index":184,"time_elapsed":437952,"internal_node_id":"0.0-8.0-1.44","subject":"bs4v59ajbwlwxcn","sona":"5332"},{"trial_type":"turing-test","trial_index":185,"time_elapsed":443222,"internal_node_id":"0.0-8.0-2.44","subject":"bs4v59ajbwlwxcn","sona":"5332"},{"rt":667.2749999997905,"stimulus":"<p>Welche Sequenz haben Sie als natürlicher empfunden?</p>","key_press":74,"test_part":"response","test_stimulus":{"position":1,"left":"bvh/vr_prediction_models/model(tmp)-dataset(return-bottle)-numprim(14)-hold(0)/final-lines.txt","right":"bvh/return-bottle-training0-lines.txt","att_check":false},"trial_type":"html-keyboard-response","trial_index":186,"time_elapsed":443898,"internal_node_id":"0.0-8.0-3.44","subject":"bs4v59ajbwlwxcn","sona":"5332"},{"rt":248.99000000732485,"stimulus":"<p>Bereit?</p>","key_press":32,"trial_type":"html-keyboard-response","trial_index":187,"time_elapsed":444156,"internal_node_id":"0.0-8.0-0.45","subject":"bs4v59ajbwlwxcn","sona":"5332"},{"rt":null,"stimulus":"<div style=\"font-size:60px;\">+</div>","key_press":null,"trial_type":"html-keyboard-response","trial_index":188,"time_elapsed":446160,"internal_node_id":"0.0-8.0-1.45","subject":"bs4v59ajbwlwxcn","sona":"5332"},{"trial_type":"turing-test","trial_index":189,"time_elapsed":451851,"internal_node_id":"0.0-8.0-2.45","subject":"bs4v59ajbwlwxcn","sona":"5332"},{"rt":631.6950000036741,"stimulus":"<p>Welche Sequenz haben Sie als natürlicher empfunden?</p>","key_press":74,"test_part":"response","test_stimulus":{"position":1,"left":"bvh/vr_prediction_models/model(tmp)-dataset(return-bottle)-numprim(3)-hold(0)/final-lines.txt","right":"bvh/return-bottle-training0-lines.txt","att_check":false},"trial_type":"html-keyboard-response","trial_index":190,"time_elapsed":452489,"internal_node_id":"0.0-8.0-3.45","subject":"bs4v59ajbwlwxcn","sona":"5332"},{"rt":319.3699999974342,"stimulus":"<p>Bereit?</p>","key_press":32,"trial_type":"html-keyboard-response","trial_index":191,"time_elapsed":452817,"internal_node_id":"0.0-8.0-0.46","subject":"bs4v59ajbwlwxcn","sona":"5332"},{"rt":null,"stimulus":"<div style=\"font-size:60px;\">+</div>","key_press":null,"trial_type":"html-keyboard-response","trial_index":192,"time_elapsed":454821,"internal_node_id":"0.0-8.0-1.46","subject":"bs4v59ajbwlwxcn","sona":"5332"},{"trial_type":"turing-test","trial_index":193,"time_elapsed":460799,"internal_node_id":"0.0-8.0-2.46","subject":"bs4v59ajbwlwxcn","sona":"5332"},{"rt":611.8450000067241,"stimulus":"<p>Welche Sequenz haben Sie als natürlicher empfunden?</p>","key_press":74,"test_part":"response","test_stimulus":{"position":1,"left":"bvh/vr_prediction_models/model(tmp)-dataset(pass-bottle)-numprim(4)-hold(2)/final-lines.txt","right":"bvh/pass-bottle-training2-lines.txt","att_check":false},"trial_type":"html-keyboard-response","trial_index":194,"time_elapsed":461423,"internal_node_id":"0.0-8.0-3.46","subject":"bs4v59ajbwlwxcn","sona":"5332"},{"rt":241.2049999984447,"stimulus":"<p>Bereit?</p>","key_press":32,"trial_type":"html-keyboard-response","trial_index":195,"time_elapsed":461668,"internal_node_id":"0.0-8.0-0.47","subject":"bs4v59ajbwlwxcn","sona":"5332"},{"rt":null,"stimulus":"<div style=\"font-size:60px;\">+</div>","key_press":null,"trial_type":"html-keyboard-response","trial_index":196,"time_elapsed":463673,"internal_node_id":"0.0-8.0-1.47","subject":"bs4v59ajbwlwxcn","sona":"5332"},{"trial_type":"turing-test","trial_index":197,"time_elapsed":469733,"internal_node_id":"0.0-8.0-2.47","subject":"bs4v59ajbwlwxcn","sona":"5332"},{"rt":363.3799999952316,"stimulus":"<p>Welche Sequenz haben Sie als natürlicher empfunden?</p>","key_press":70,"test_part":"response","test_stimulus":{"position":0,"left":"bvh/pass-bottle-training1-lines.txt","right":"bvh/vr_prediction_models/model(vcgpdm)-dataset(pass-bottle)-mode(ELBO)-parts(1)-dyn(20)-lvm(30)-hold(1)/final-lines.txt","att_check":false},"trial_type":"html-keyboard-response","trial_index":198,"time_elapsed":470104,"internal_node_id":"0.0-8.0-3.47","subject":"bs4v59ajbwlwxcn","sona":"5332"},{"rt":455.6799999991199,"stimulus":"<p>Bereit?</p>","key_press":32,"trial_type":"html-keyboard-response","trial_index":199,"time_elapsed":470568,"internal_node_id":"0.0-8.0-0.48","subject":"bs4v59ajbwlwxcn","sona":"5332"},{"rt":null,"stimulus":"<div style=\"font-size:60px;\">+</div>","key_press":null,"trial_type":"html-keyboard-response","trial_index":200,"time_elapsed":472570,"internal_node_id":"0.0-8.0-1.48","subject":"bs4v59ajbwlwxcn","sona":"5332"},{"trial_type":"turing-test","trial_index":201,"time_elapsed":476042,"internal_node_id":"0.0-8.0-2.48","subject":"bs4v59ajbwlwxcn","sona":"5332"},{"rt":606.4550000010058,"stimulus":"<p>Welche Sequenz haben Sie als natürlicher empfunden?</p>","key_press":70,"test_part":"response","test_stimulus":{"position":0,"left":"bvh/pass-bottle-hold-training0-lines.txt","right":"bvh/vr_prediction_models/model(tmp)-dataset(pass-bottle-hold)-numprim(4)-hold(0)/final-lines.txt","att_check":false},"trial_type":"html-keyboard-response","trial_index":202,"time_elapsed":476655,"internal_node_id":"0.0-8.0-3.48","subject":"bs4v59ajbwlwxcn","sona":"5332"},{"rt":283.0299999914132,"stimulus":"<p>Bereit?</p>","key_press":32,"trial_type":"html-keyboard-response","trial_index":203,"time_elapsed":476947,"internal_node_id":"0.0-8.0-0.49","subject":"bs4v59ajbwlwxcn","sona":"5332"},{"rt":null,"stimulus":"<div style=\"font-size:60px;\">+</div>","key_press":null,"trial_type":"html-keyboard-response","trial_index":204,"time_elapsed":478952,"internal_node_id":"0.0-8.0-1.49","subject":"bs4v59ajbwlwxcn","sona":"5332"},{"trial_type":"turing-test","trial_index":205,"time_elapsed":485252,"internal_node_id":"0.0-8.0-2.49","subject":"bs4v59ajbwlwxcn","sona":"5332"},{"rt":484.42000000795815,"stimulus":"<p>Welche Sequenz haben Sie als natürlicher empfunden?</p>","key_press":70,"test_part":"response","test_stimulus":{"position":0,"left":"bvh/pass-bottle-training2-lines.txt","right":"bvh/vr_prediction_models/model(dmp)-dataset(pass-bottle)-npsi(40)-hold(2)/final-lines.txt","att_check":true},"trial_type":"html-keyboard-response","trial_index":206,"time_elapsed":485749,"internal_node_id":"0.0-8.0-3.49","subject":"bs4v59ajbwlwxcn","sona":"5332"},{"rt":375.9849999914877,"stimulus":"<p>Bereit?</p>","key_press":32,"trial_type":"html-keyboard-response","trial_index":207,"time_elapsed":486133,"internal_node_id":"0.0-8.0-0.50","subject":"bs4v59ajbwlwxcn","sona":"5332"},{"rt":null,"stimulus":"<div style=\"font-size:60px;\">+</div>","key_press":null,"trial_type":"html-keyboard-response","trial_index":208,"time_elapsed":488136,"internal_node_id":"0.0-8.0-1.50","subject":"bs4v59ajbwlwxcn","sona":"5332"},{"trial_type":"turing-test","trial_index":209,"time_elapsed":493905,"internal_node_id":"0.0-8.0-2.50","subject":"bs4v59ajbwlwxcn","sona":"5332"},{"rt":361.44499998772517,"stimulus":"<p>Welche Sequenz haben Sie als natürlicher empfunden?</p>","key_press":74,"test_part":"response","test_stimulus":{"position":1,"left":"bvh/vr_prediction_models/model(vcgpdm)-dataset(return-bottle)-mode(ELBO)-parts(3)-dyn(10)-lvm(10)-hold(0)/final-lines.txt","right":"bvh/return-bottle-training0-lines.txt","att_check":false},"trial_type":"html-keyboard-response","trial_index":210,"time_elapsed":494274,"internal_node_id":"0.0-8.0-3.50","subject":"bs4v59ajbwlwxcn","sona":"5332"},{"rt":225.17000000516418,"stimulus":"<p>Bereit?</p>","key_press":32,"trial_type":"html-keyboard-response","trial_index":211,"time_elapsed":494508,"internal_node_id":"0.0-8.0-0.51","subject":"bs4v59ajbwlwxcn","sona":"5332"},{"rt":null,"stimulus":"<div style=\"font-size:60px;\">+</div>","key_press":null,"trial_type":"html-keyboard-response","trial_index":212,"time_elapsed":496512,"internal_node_id":"0.0-8.0-1.51","subject":"bs4v59ajbwlwxcn","sona":"5332"},{"trial_type":"turing-test","trial_index":213,"time_elapsed":499766,"internal_node_id":"0.0-8.0-2.51","subject":"bs4v59ajbwlwxcn","sona":"5332"},{"rt":867.4449999962235,"stimulus":"<p>Welche Sequenz haben Sie als natürlicher empfunden?</p>","key_press":74,"test_part":"response","test_stimulus":{"position":0,"left":"bvh/pass-bottle-hold-training1-lines.txt","right":"bvh/vr_prediction_models/model(dmp)-dataset(pass-bottle-hold)-npsi(80)-hold(1)/final-lines.txt","att_check":false},"trial_type":"html-keyboard-response","trial_index":214,"time_elapsed":500644,"internal_node_id":"0.0-8.0-3.51","subject":"bs4v59ajbwlwxcn","sona":"5332"},{"rt":184.84499999613035,"stimulus":"<p>Bereit?</p>","key_press":32,"trial_type":"html-keyboard-response","trial_index":215,"time_elapsed":500834,"internal_node_id":"0.0-8.0-0.52","subject":"bs4v59ajbwlwxcn","sona":"5332"},{"rt":null,"stimulus":"<div style=\"font-size:60px;\">+</div>","key_press":null,"trial_type":"html-keyboard-response","trial_index":216,"time_elapsed":502837,"internal_node_id":"0.0-8.0-1.52","subject":"bs4v59ajbwlwxcn","sona":"5332"},{"trial_type":"turing-test","trial_index":217,"time_elapsed":508921,"internal_node_id":"0.0-8.0-2.52","subject":"bs4v59ajbwlwxcn","sona":"5332"},{"rt":963.0800000013551,"stimulus":"<p>Welche Sequenz haben Sie als natürlicher empfunden?</p>","key_press":74,"test_part":"response","test_stimulus":{"position":0,"left":"bvh/return-bottle-training3-lines.txt","right":"bvh/vr_prediction_models/model(vcgpdm)-dataset(return-bottle)-mode(ELBO)-parts(3)-dyn(10)-lvm(10)-hold(3)/final-lines.txt","att_check":false},"trial_type":"html-keyboard-response","trial_index":218,"time_elapsed":509888,"internal_node_id":"0.0-8.0-3.52","subject":"bs4v59ajbwlwxcn","sona":"5332"},{"rt":315.5950000073062,"stimulus":"<p>Bereit?</p>","key_press":32,"trial_type":"html-keyboard-response","trial_index":219,"time_elapsed":510207,"internal_node_id":"0.0-8.0-0.53","subject":"bs4v59ajbwlwxcn","sona":"5332"},{"rt":null,"stimulus":"<div style=\"font-size:60px;\">+</div>","key_press":null,"trial_type":"html-keyboard-response","trial_index":220,"time_elapsed":512211,"internal_node_id":"0.0-8.0-1.53","subject":"bs4v59ajbwlwxcn","sona":"5332"},{"trial_type":"turing-test","trial_index":221,"time_elapsed":519464,"internal_node_id":"0.0-8.0-2.53","subject":"bs4v59ajbwlwxcn","sona":"5332"},{"rt":333.98499999020714,"stimulus":"<p>Welche Sequenz haben Sie als natürlicher empfunden?</p>","key_press":70,"test_part":"response","test_stimulus":{"position":0,"left":"bvh/pass-bottle-training0-lines.txt","right":"bvh/vr_prediction_models/model(vcgpdm)-dataset(pass-bottle)-mode(ELBO)-parts(1)-dyn(30)-lvm(20)-hold(0)/final-lines.txt","att_check":false},"trial_type":"html-keyboard-response","trial_index":222,"time_elapsed":519804,"internal_node_id":"0.0-8.0-3.53","subject":"bs4v59ajbwlwxcn","sona":"5332"},{"rt":448.420000000624,"stimulus":"<p>Bereit?</p>","key_press":32,"trial_type":"html-keyboard-response","trial_index":223,"time_elapsed":520259,"internal_node_id":"0.0-8.0-0.54","subject":"bs4v59ajbwlwxcn","sona":"5332"},{"rt":null,"stimulus":"<div style=\"font-size:60px;\">+</div>","key_press":null,"trial_type":"html-keyboard-response","trial_index":224,"time_elapsed":522262,"internal_node_id":"0.0-8.0-1.54","subject":"bs4v59ajbwlwxcn","sona":"5332"},{"trial_type":"turing-test","trial_index":225,"time_elapsed":529219,"internal_node_id":"0.0-8.0-2.54","subject":"bs4v59ajbwlwxcn","sona":"5332"},{"rt":430.26999999710824,"stimulus":"<p>Welche Sequenz haben Sie als natürlicher empfunden?</p>","key_press":70,"test_part":"response","test_stimulus":{"position":0,"left":"bvh/pass-bottle-training0-lines.txt","right":"bvh/vr_prediction_models/model(dmp)-dataset(pass-bottle)-npsi(70)-hold(0)/final-lines.txt","att_check":false},"trial_type":"html-keyboard-response","trial_index":226,"time_elapsed":529665,"internal_node_id":"0.0-8.0-3.54","subject":"bs4v59ajbwlwxcn","sona":"5332"},{"rt":378.02499999816064,"stimulus":"<p>Bereit?</p>","key_press":32,"trial_type":"html-keyboard-response","trial_index":227,"time_elapsed":530050,"internal_node_id":"0.0-8.0-0.55","subject":"bs4v59ajbwlwxcn","sona":"5332"},{"rt":null,"stimulus":"<div style=\"font-size:60px;\">+</div>","key_press":null,"trial_type":"html-keyboard-response","trial_index":228,"time_elapsed":532053,"internal_node_id":"0.0-8.0-1.55","subject":"bs4v59ajbwlwxcn","sona":"5332"},{"trial_type":"turing-test","trial_index":229,"time_elapsed":535573,"internal_node_id":"0.0-8.0-2.55","subject":"bs4v59ajbwlwxcn","sona":"5332"},{"rt":745.7299999950919,"stimulus":"<p>Welche Sequenz haben Sie als natürlicher empfunden?</p>","key_press":70,"test_part":"response","test_stimulus":{"position":1,"left":"bvh/vr_prediction_models/model(tmp)-dataset(pass-bottle-hold)-numprim(15)-hold(0)/final-lines.txt","right":"bvh/pass-bottle-hold-training0-lines.txt","att_check":false},"trial_type":"html-keyboard-response","trial_index":230,"time_elapsed":536326,"internal_node_id":"0.0-8.0-3.55","subject":"bs4v59ajbwlwxcn","sona":"5332"},{"rt":367.88499999966007,"stimulus":"<p>Bereit?</p>","key_press":32,"trial_type":"html-keyboard-response","trial_index":231,"time_elapsed":536700,"internal_node_id":"0.0-8.0-0.56","subject":"bs4v59ajbwlwxcn","sona":"5332"},{"rt":null,"stimulus":"<div style=\"font-size:60px;\">+</div>","key_press":null,"trial_type":"html-keyboard-response","trial_index":232,"time_elapsed":538704,"internal_node_id":"0.0-8.0-1.56","subject":"bs4v59ajbwlwxcn","sona":"5332"},{"trial_type":"turing-test","trial_index":233,"time_elapsed":541798,"internal_node_id":"0.0-8.0-2.56","subject":"bs4v59ajbwlwxcn","sona":"5332"},{"rt":792.170000000624,"stimulus":"<p>Welche Sequenz haben Sie als natürlicher empfunden?</p>","key_press":74,"test_part":"response","test_stimulus":{"position":0,"left":"bvh/pass-bottle-hold-training1-lines.txt","right":"bvh/vr_prediction_models/model(dmp)-dataset(pass-bottle-hold)-npsi(80)-hold(1)/final-lines.txt","att_check":true},"trial_type":"html-keyboard-response","trial_index":234,"time_elapsed":542596,"internal_node_id":"0.0-8.0-3.56","subject":"bs4v59ajbwlwxcn","sona":"5332"},{"rt":319.629999998142,"stimulus":"<p>Bereit?</p>","key_press":32,"trial_type":"html-keyboard-response","trial_index":235,"time_elapsed":542921,"internal_node_id":"0.0-8.0-0.57","subject":"bs4v59ajbwlwxcn","sona":"5332"},{"rt":null,"stimulus":"<div style=\"font-size:60px;\">+</div>","key_press":null,"trial_type":"html-keyboard-response","trial_index":236,"time_elapsed":544924,"internal_node_id":"0.0-8.0-1.57","subject":"bs4v59ajbwlwxcn","sona":"5332"},{"trial_type":"turing-test","trial_index":237,"time_elapsed":551103,"internal_node_id":"0.0-8.0-2.57","subject":"bs4v59ajbwlwxcn","sona":"5332"},{"rt":354.56999999587424,"stimulus":"<p>Welche Sequenz haben Sie als natürlicher empfunden?</p>","key_press":74,"test_part":"response","test_stimulus":{"position":1,"left":"bvh/vr_prediction_models/model(tmp)-dataset(return-bottle)-numprim(3)-hold(1)/final-lines.txt","right":"bvh/return-bottle-training1-lines.txt","att_check":false},"trial_type":"html-keyboard-response","trial_index":238,"time_elapsed":551476,"internal_node_id":"0.0-8.0-3.57","subject":"bs4v59ajbwlwxcn","sona":"5332"},{"rt":336.6649999952642,"stimulus":"<p>Bereit?</p>","key_press":32,"trial_type":"html-keyboard-response","trial_index":239,"time_elapsed":551822,"internal_node_id":"0.0-8.0-0.58","subject":"bs4v59ajbwlwxcn","sona":"5332"},{"rt":null,"stimulus":"<div style=\"font-size:60px;\">+</div>","key_press":null,"trial_type":"html-keyboard-response","trial_index":240,"time_elapsed":553826,"internal_node_id":"0.0-8.0-1.58","subject":"bs4v59ajbwlwxcn","sona":"5332"},{"trial_type":"turing-test","trial_index":241,"time_elapsed":559894,"internal_node_id":"0.0-8.0-2.58","subject":"bs4v59ajbwlwxcn","sona":"5332"},{"rt":362.16499999864027,"stimulus":"<p>Welche Sequenz haben Sie als natürlicher empfunden?</p>","key_press":70,"test_part":"response","test_stimulus":{"position":0,"left":"bvh/pass-bottle-training3-lines.txt","right":"bvh/vr_prediction_models/model(vcgpdm)-dataset(pass-bottle)-mode(ELBO)-parts(1)-dyn(15)-lvm(35)-hold(3)/final-lines.txt","att_check":false},"trial_type":"html-keyboard-response","trial_index":242,"time_elapsed":560265,"internal_node_id":"0.0-8.0-3.58","subject":"bs4v59ajbwlwxcn","sona":"5332"},{"rt":341.81499999249354,"stimulus":"<p>Bereit?</p>","key_press":32,"trial_type":"html-keyboard-response","trial_index":243,"time_elapsed":560614,"internal_node_id":"0.0-8.0-0.59","subject":"bs4v59ajbwlwxcn","sona":"5332"},{"rt":null,"stimulus":"<div style=\"font-size:60px;\">+</div>","key_press":null,"trial_type":"html-keyboard-response","trial_index":244,"time_elapsed":562617,"internal_node_id":"0.0-8.0-1.59","subject":"bs4v59ajbwlwxcn","sona":"5332"},{"trial_type":"turing-test","trial_index":245,"time_elapsed":569477,"internal_node_id":"0.0-8.0-2.59","subject":"bs4v59ajbwlwxcn","sona":"5332"},{"rt":354.36499999195803,"stimulus":"<p>Welche Sequenz haben Sie als natürlicher empfunden?</p>","key_press":74,"test_part":"response","test_stimulus":{"position":0,"left":"bvh/return-bottle-training2-lines.txt","right":"bvh/vr_prediction_models/model(vcgpdm)-dataset(return-bottle)-mode(ELBO)-parts(1)-dyn(30)-lvm(20)-hold(2)/final-lines.txt","att_check":false},"trial_type":"html-keyboard-response","trial_index":246,"time_elapsed":569839,"internal_node_id":"0.0-8.0-3.59","subject":"bs4v59ajbwlwxcn","sona":"5332"},{"rt":251.2750000023516,"stimulus":"<p>Bereit?</p>","key_press":32,"trial_type":"html-keyboard-response","trial_index":247,"time_elapsed":570099,"internal_node_id":"0.0-8.0-0.60","subject":"bs4v59ajbwlwxcn","sona":"5332"},{"rt":null,"stimulus":"<div style=\"font-size:60px;\">+</div>","key_press":null,"trial_type":"html-keyboard-response","trial_index":248,"time_elapsed":572102,"internal_node_id":"0.0-8.0-1.60","subject":"bs4v59ajbwlwxcn","sona":"5332"},{"trial_type":"turing-test","trial_index":249,"time_elapsed":576592,"internal_node_id":"0.0-8.0-2.60","subject":"bs4v59ajbwlwxcn","sona":"5332"},{"rt":367.259999999078,"stimulus":"<p>Welche Sequenz haben Sie als natürlicher empfunden?</p>","key_press":70,"test_part":"response","test_stimulus":{"position":0,"left":"bvh/pass-bottle-hold-training4-lines.txt","right":"bvh/vr_prediction_models/model(vcgpdm)-dataset(pass-bottle-hold)-mode(ELBO)-parts(3)-dyn(20)-lvm(35)-hold(4)/final-lines.txt","att_check":false},"trial_type":"html-keyboard-response","trial_index":250,"time_elapsed":576966,"internal_node_id":"0.0-8.0-3.60","subject":"bs4v59ajbwlwxcn","sona":"5332"},{"rt":278.9199999970151,"stimulus":"<p>Bereit?</p>","key_press":32,"trial_type":"html-keyboard-response","trial_index":251,"time_elapsed":577254,"internal_node_id":"0.0-8.0-0.61","subject":"bs4v59ajbwlwxcn","sona":"5332"},{"rt":null,"stimulus":"<div style=\"font-size:60px;\">+</div>","key_press":null,"trial_type":"html-keyboard-response","trial_index":252,"time_elapsed":579257,"internal_node_id":"0.0-8.0-1.61","subject":"bs4v59ajbwlwxcn","sona":"5332"},{"trial_type":"turing-test","trial_index":253,"time_elapsed":582733,"internal_node_id":"0.0-8.0-2.61","subject":"bs4v59ajbwlwxcn","sona":"5332"},{"rt":399.4349999993574,"stimulus":"<p>Welche Sequenz haben Sie als natürlicher empfunden?</p>","key_press":70,"test_part":"response","test_stimulus":{"position":1,"left":"bvh/vr_prediction_models/model(dmp)-dataset(pass-bottle-hold)-npsi(60)-hold(1)/final-lines.txt","right":"bvh/pass-bottle-hold-training1-lines.txt","att_check":false},"trial_type":"html-keyboard-response","trial_index":254,"time_elapsed":583139,"internal_node_id":"0.0-8.0-3.61","subject":"bs4v59ajbwlwxcn","sona":"5332"},{"rt":385.93499999842606,"stimulus":"<p>Bereit?</p>","key_press":32,"trial_type":"html-keyboard-response","trial_index":255,"time_elapsed":583530,"internal_node_id":"0.0-8.0-0.62","subject":"bs4v59ajbwlwxcn","sona":"5332"},{"rt":null,"stimulus":"<div style=\"font-size:60px;\">+</div>","key_press":null,"trial_type":"html-keyboard-response","trial_index":256,"time_elapsed":585534,"internal_node_id":"0.0-8.0-1.62","subject":"bs4v59ajbwlwxcn","sona":"5332"},{"trial_type":"turing-test","trial_index":257,"time_elapsed":589460,"internal_node_id":"0.0-8.0-2.62","subject":"bs4v59ajbwlwxcn","sona":"5332"},{"rt":375.690000000759,"stimulus":"<p>Welche Sequenz haben Sie als natürlicher empfunden?</p>","key_press":74,"test_part":"response","test_stimulus":{"position":1,"left":"bvh/vr_prediction_models/model(dmp)-dataset(return-bottle-hold)-npsi(10)-hold(3)/final-lines.txt","right":"bvh/return-bottle-hold-training3-lines.txt","att_check":false},"trial_type":"html-keyboard-response","trial_index":258,"time_elapsed":589842,"internal_node_id":"0.0-8.0-3.62","subject":"bs4v59ajbwlwxcn","sona":"5332"},{"rt":225.40999999910127,"stimulus":"<p>Bereit?</p>","key_press":32,"trial_type":"html-keyboard-response","trial_index":259,"time_elapsed":590075,"internal_node_id":"0.0-8.0-0.63","subject":"bs4v59ajbwlwxcn","sona":"5332"},{"rt":null,"stimulus":"<div style=\"font-size:60px;\">+</div>","key_press":null,"trial_type":"html-keyboard-response","trial_index":260,"time_elapsed":592078,"internal_node_id":"0.0-8.0-1.63","subject":"bs4v59ajbwlwxcn","sona":"5332"},{"trial_type":"turing-test","trial_index":261,"time_elapsed":599022,"internal_node_id":"0.0-8.0-2.63","subject":"bs4v59ajbwlwxcn","sona":"5332"},{"rt":605.0499999983003,"stimulus":"<p>Welche Sequenz haben Sie als natürlicher empfunden?</p>","key_press":74,"test_part":"response","test_stimulus":{"position":0,"left":"bvh/pass-bottle-training0-lines.txt","right":"bvh/vr_prediction_models/model(vcgpdm)-dataset(pass-bottle)-mode(ELBO)-parts(1)-dyn(20)-lvm(5)-hold(0)/final-lines.txt","att_check":false},"trial_type":"html-keyboard-response","trial_index":262,"time_elapsed":599641,"internal_node_id":"0.0-8.0-3.63","subject":"bs4v59ajbwlwxcn","sona":"5332"},{"rt":254.3500000028871,"stimulus":"<p>Bereit?</p>","key_press":32,"trial_type":"html-keyboard-response","trial_index":263,"time_elapsed":599905,"internal_node_id":"0.0-8.0-0.64","subject":"bs4v59ajbwlwxcn","sona":"5332"},{"rt":null,"stimulus":"<div style=\"font-size:60px;\">+</div>","key_press":null,"trial_type":"html-keyboard-response","trial_index":264,"time_elapsed":601910,"internal_node_id":"0.0-8.0-1.64","subject":"bs4v59ajbwlwxcn","sona":"5332"},{"trial_type":"turing-test","trial_index":265,"time_elapsed":607599,"internal_node_id":"0.0-8.0-2.64","subject":"bs4v59ajbwlwxcn","sona":"5332"},{"rt":363.9249999978347,"stimulus":"<p>Welche Sequenz haben Sie als natürlicher empfunden?</p>","key_press":70,"test_part":"response","test_stimulus":{"position":0,"left":"bvh/return-bottle-training0-lines.txt","right":"bvh/vr_prediction_models/model(dmp)-dataset(return-bottle)-npsi(80)-hold(0)/final-lines.txt","att_check":false},"trial_type":"html-keyboard-response","trial_index":266,"time_elapsed":607977,"internal_node_id":"0.0-8.0-3.64","subject":"bs4v59ajbwlwxcn","sona":"5332"},{"rt":329.25999999861233,"stimulus":"<p>Bereit?</p>","key_press":32,"trial_type":"html-keyboard-response","trial_index":267,"time_elapsed":608316,"internal_node_id":"0.0-8.0-0.65","subject":"bs4v59ajbwlwxcn","sona":"5332"},{"rt":null,"stimulus":"<div style=\"font-size:60px;\">+</div>","key_press":null,"trial_type":"html-keyboard-response","trial_index":268,"time_elapsed":610319,"internal_node_id":"0.0-8.0-1.65","subject":"bs4v59ajbwlwxcn","sona":"5332"},{"trial_type":"turing-test","trial_index":269,"time_elapsed":616637,"internal_node_id":"0.0-8.0-2.65","subject":"bs4v59ajbwlwxcn","sona":"5332"},{"rt":731.6149999969639,"stimulus":"<p>Welche Sequenz haben Sie als natürlicher empfunden?</p>","key_press":70,"test_part":"response","test_stimulus":{"position":1,"left":"bvh/vr_prediction_models/model(vcgpdm)-dataset(pass-bottle)-mode(ELBO)-parts(3)-dyn(30)-lvm(15)-hold(2)/final-lines.txt","right":"bvh/pass-bottle-training2-lines.txt","att_check":false},"trial_type":"html-keyboard-response","trial_index":270,"time_elapsed":617384,"internal_node_id":"0.0-8.0-3.65","subject":"bs4v59ajbwlwxcn","sona":"5332"},{"rt":410.4349999979604,"stimulus":"<p>Bereit?</p>","key_press":32,"trial_type":"html-keyboard-response","trial_index":271,"time_elapsed":617798,"internal_node_id":"0.0-8.0-0.66","subject":"bs4v59ajbwlwxcn","sona":"5332"},{"rt":null,"stimulus":"<div style=\"font-size:60px;\">+</div>","key_press":null,"trial_type":"html-keyboard-response","trial_index":272,"time_elapsed":619802,"internal_node_id":"0.0-8.0-1.66","subject":"bs4v59ajbwlwxcn","sona":"5332"},{"trial_type":"turing-test","trial_index":273,"time_elapsed":623445,"internal_node_id":"0.0-8.0-2.66","subject":"bs4v59ajbwlwxcn","sona":"5332"},{"rt":784.3799999973271,"stimulus":"<p>Welche Sequenz haben Sie als natürlicher empfunden?</p>","key_press":70,"test_part":"response","test_stimulus":{"position":0,"left":"bvh/pass-bottle-hold-training4-lines.txt","right":"bvh/vr_prediction_models/model(dmp)-dataset(pass-bottle-hold)-npsi(20)-hold(4)/final-lines.txt","att_check":false},"trial_type":"html-keyboard-response","trial_index":274,"time_elapsed":624241,"internal_node_id":"0.0-8.0-3.66","subject":"bs4v59ajbwlwxcn","sona":"5332"},{"rt":455.22499999788124,"stimulus":"<p>Bereit?</p>","key_press":32,"trial_type":"html-keyboard-response","trial_index":275,"time_elapsed":624705,"internal_node_id":"0.0-8.0-0.67","subject":"bs4v59ajbwlwxcn","sona":"5332"},{"rt":null,"stimulus":"<div style=\"font-size:60px;\">+</div>","key_press":null,"trial_type":"html-keyboard-response","trial_index":276,"time_elapsed":626709,"internal_node_id":"0.0-8.0-1.67","subject":"bs4v59ajbwlwxcn","sona":"5332"},{"trial_type":"turing-test","trial_index":277,"time_elapsed":633488,"internal_node_id":"0.0-8.0-2.67","subject":"bs4v59ajbwlwxcn","sona":"5332"},{"rt":379.48999999207444,"stimulus":"<p>Welche Sequenz haben Sie als natürlicher empfunden?</p>","key_press":70,"test_part":"response","test_stimulus":{"position":0,"left":"bvh/return-bottle-training4-lines.txt","right":"bvh/vr_prediction_models/model(vcgpdm)-dataset(return-bottle)-mode(ELBO)-parts(3)-dyn(20)-lvm(20)-hold(4)/final-lines.txt","att_check":false},"trial_type":"html-keyboard-response","trial_index":278,"time_elapsed":633877,"internal_node_id":"0.0-8.0-3.67","subject":"bs4v59ajbwlwxcn","sona":"5332"},{"rt":389.92999999027234,"stimulus":"<p>Bereit?</p>","key_press":32,"trial_type":"html-keyboard-response","trial_index":279,"time_elapsed":634276,"internal_node_id":"0.0-8.0-0.68","subject":"bs4v59ajbwlwxcn","sona":"5332"},{"rt":null,"stimulus":"<div style=\"font-size:60px;\">+</div>","key_press":null,"trial_type":"html-keyboard-response","trial_index":280,"time_elapsed":636279,"internal_node_id":"0.0-8.0-1.68","subject":"bs4v59ajbwlwxcn","sona":"5332"},{"trial_type":"turing-test","trial_index":281,"time_elapsed":642781,"internal_node_id":"0.0-8.0-2.68","subject":"bs4v59ajbwlwxcn","sona":"5332"},{"rt":334.56000000296626,"stimulus":"<p>Welche Sequenz haben Sie als natürlicher empfunden?</p>","key_press":70,"test_part":"response","test_stimulus":{"position":0,"left":"bvh/pass-bottle-training1-lines.txt","right":"bvh/vr_prediction_models/model(vcgpdm)-dataset(pass-bottle)-mode(MAP)-parts(1)-hold(1)/final-lines.txt","att_check":false},"trial_type":"html-keyboard-response","trial_index":282,"time_elapsed":643123,"internal_node_id":"0.0-8.0-3.68","subject":"bs4v59ajbwlwxcn","sona":"5332"},{"rt":367.10499999753665,"stimulus":"<p>Bereit?</p>","key_press":32,"trial_type":"html-keyboard-response","trial_index":283,"time_elapsed":643493,"internal_node_id":"0.0-8.0-0.69","subject":"bs4v59ajbwlwxcn","sona":"5332"},{"rt":null,"stimulus":"<div style=\"font-size:60px;\">+</div>","key_press":null,"trial_type":"html-keyboard-response","trial_index":284,"time_elapsed":645498,"internal_node_id":"0.0-8.0-1.69","subject":"bs4v59ajbwlwxcn","sona":"5332"},{"trial_type":"turing-test","trial_index":285,"time_elapsed":649220,"internal_node_id":"0.0-8.0-2.69","subject":"bs4v59ajbwlwxcn","sona":"5332"},{"rt":455.61999999335967,"stimulus":"<p>Welche Sequenz haben Sie als natürlicher empfunden?</p>","key_press":74,"test_part":"response","test_stimulus":{"position":1,"left":"bvh/vr_prediction_models/model(vcgpdm)-dataset(pass-bottle-hold)-mode(ELBO)-parts(3)-dyn(10)-lvm(30)-hold(1)/final-lines.txt","right":"bvh/pass-bottle-hold-training1-lines.txt","att_check":false},"trial_type":"html-keyboard-response","trial_index":286,"time_elapsed":649687,"internal_node_id":"0.0-8.0-3.69","subject":"bs4v59ajbwlwxcn","sona":"5332"},{"rt":263.53999999992084,"stimulus":"<p>Bereit?</p>","key_press":32,"trial_type":"html-keyboard-response","trial_index":287,"time_elapsed":649960,"internal_node_id":"0.0-8.0-0.70","subject":"bs4v59ajbwlwxcn","sona":"5332"},{"rt":null,"stimulus":"<div style=\"font-size:60px;\">+</div>","key_press":null,"trial_type":"html-keyboard-response","trial_index":288,"time_elapsed":651964,"internal_node_id":"0.0-8.0-1.70","subject":"bs4v59ajbwlwxcn","sona":"5332"},{"trial_type":"turing-test","trial_index":289,"time_elapsed":657277,"internal_node_id":"0.0-8.0-2.70","subject":"bs4v59ajbwlwxcn","sona":"5332"},{"rt":384.71000001300126,"stimulus":"<p>Welche Sequenz haben Sie als natürlicher empfunden?</p>","key_press":70,"test_part":"response","test_stimulus":{"position":0,"left":"bvh/return-bottle-hold-training0-lines.txt","right":"bvh/vr_prediction_models/model(dmp)-dataset(return-bottle-hold)-npsi(50)-hold(0)/final-lines.txt","att_check":false},"trial_type":"html-keyboard-response","trial_index":290,"time_elapsed":657665,"internal_node_id":"0.0-8.0-3.70","subject":"bs4v59ajbwlwxcn","sona":"5332"},{"rt":262.8899999981513,"stimulus":"<p>Bereit?</p>","key_press":32,"trial_type":"html-keyboard-response","trial_index":291,"time_elapsed":657943,"internal_node_id":"0.0-8.0-0.71","subject":"bs4v59ajbwlwxcn","sona":"5332"},{"rt":null,"stimulus":"<div style=\"font-size:60px;\">+</div>","key_press":null,"trial_type":"html-keyboard-response","trial_index":292,"time_elapsed":659946,"internal_node_id":"0.0-8.0-1.71","subject":"bs4v59ajbwlwxcn","sona":"5332"},{"trial_type":"turing-test","trial_index":293,"time_elapsed":665388,"internal_node_id":"0.0-8.0-2.71","subject":"bs4v59ajbwlwxcn","sona":"5332"},{"rt":390.4900000052294,"stimulus":"<p>Welche Sequenz haben Sie als natürlicher empfunden?</p>","key_press":74,"test_part":"response","test_stimulus":{"position":0,"left":"bvh/return-bottle-hold-training0-lines.txt","right":"bvh/vr_prediction_models/model(vcgpdm)-dataset(return-bottle-hold)-mode(ELBO)-parts(1)-dyn(30)-lvm(30)-hold(0)/final-lines.txt","att_check":false},"trial_type":"html-keyboard-response","trial_index":294,"time_elapsed":665792,"internal_node_id":"0.0-8.0-3.71","subject":"bs4v59ajbwlwxcn","sona":"5332"},{"rt":370.5150000023423,"stimulus":"<p>Bereit?</p>","key_press":32,"trial_type":"html-keyboard-response","trial_index":295,"time_elapsed":666169,"internal_node_id":"0.0-8.0-0.72","subject":"bs4v59ajbwlwxcn","sona":"5332"},{"rt":null,"stimulus":"<div style=\"font-size:60px;\">+</div>","key_press":null,"trial_type":"html-keyboard-response","trial_index":296,"time_elapsed":668172,"internal_node_id":"0.0-8.0-1.72","subject":"bs4v59ajbwlwxcn","sona":"5332"},{"trial_type":"turing-test","trial_index":297,"time_elapsed":675177,"internal_node_id":"0.0-8.0-2.72","subject":"bs4v59ajbwlwxcn","sona":"5332"},{"rt":331.6049999993993,"stimulus":"<p>Welche Sequenz haben Sie als natürlicher empfunden?</p>","key_press":70,"test_part":"response","test_stimulus":{"position":0,"left":"bvh/pass-bottle-training0-lines.txt","right":"bvh/vr_prediction_models/model(vcgpdm)-dataset(pass-bottle)-mode(ELBO)-parts(3)-dyn(25)-lvm(25)-hold(0)/final-lines.txt","att_check":false},"trial_type":"html-keyboard-response","trial_index":298,"time_elapsed":675520,"internal_node_id":"0.0-8.0-3.72","subject":"bs4v59ajbwlwxcn","sona":"5332"},{"rt":316.11500000872184,"stimulus":"<p>Bereit?</p>","key_press":32,"trial_type":"html-keyboard-response","trial_index":299,"time_elapsed":675846,"internal_node_id":"0.0-8.0-0.73","subject":"bs4v59ajbwlwxcn","sona":"5332"},{"rt":null,"stimulus":"<div style=\"font-size:60px;\">+</div>","key_press":null,"trial_type":"html-keyboard-response","trial_index":300,"time_elapsed":677850,"internal_node_id":"0.0-8.0-1.73","subject":"bs4v59ajbwlwxcn","sona":"5332"},{"trial_type":"turing-test","trial_index":301,"time_elapsed":683092,"internal_node_id":"0.0-8.0-2.73","subject":"bs4v59ajbwlwxcn","sona":"5332"},{"rt":437.9600000102073,"stimulus":"<p>Welche Sequenz haben Sie als natürlicher empfunden?</p>","key_press":70,"test_part":"response","test_stimulus":{"position":0,"left":"bvh/pass-bottle-hold-training3-lines.txt","right":"bvh/vr_prediction_models/model(vcgpdm)-dataset(pass-bottle-hold)-mode(ELBO)-parts(1)-dyn(20)-lvm(30)-hold(3)/final-lines.txt","att_check":false},"trial_type":"html-keyboard-response","trial_index":302,"time_elapsed":683537,"internal_node_id":"0.0-8.0-3.73","subject":"bs4v59ajbwlwxcn","sona":"5332"},{"rt":333.4750000067288,"stimulus":"<p>Bereit?</p>","key_press":32,"trial_type":"html-keyboard-response","trial_index":303,"time_elapsed":683880,"internal_node_id":"0.0-8.0-0.74","subject":"bs4v59ajbwlwxcn","sona":"5332"},{"rt":null,"stimulus":"<div style=\"font-size:60px;\">+</div>","key_press":null,"trial_type":"html-keyboard-response","trial_index":304,"time_elapsed":685884,"internal_node_id":"0.0-8.0-1.74","subject":"bs4v59ajbwlwxcn","sona":"5332"},{"trial_type":"turing-test","trial_index":305,"time_elapsed":689618,"internal_node_id":"0.0-8.0-2.74","subject":"bs4v59ajbwlwxcn","sona":"5332"},{"rt":565.7999999966705,"stimulus":"<p>Welche Sequenz haben Sie als natürlicher empfunden?</p>","key_press":74,"test_part":"response","test_stimulus":{"position":0,"left":"bvh/pass-bottle-hold-training3-lines.txt","right":"bvh/vr_prediction_models/model(dmp)-dataset(pass-bottle-hold)-npsi(70)-hold(3)/final-lines.txt","att_check":false},"trial_type":"html-keyboard-response","trial_index":306,"time_elapsed":690195,"internal_node_id":"0.0-8.0-3.74","subject":"bs4v59ajbwlwxcn","sona":"5332"},{"rt":271.5100000059465,"stimulus":"<p>Bereit?</p>","key_press":32,"trial_type":"html-keyboard-response","trial_index":307,"time_elapsed":690478,"internal_node_id":"0.0-8.0-0.75","subject":"bs4v59ajbwlwxcn","sona":"5332"},{"rt":null,"stimulus":"<div style=\"font-size:60px;\">+</div>","key_press":null,"trial_type":"html-keyboard-response","trial_index":308,"time_elapsed":692482,"internal_node_id":"0.0-8.0-1.75","subject":"bs4v59ajbwlwxcn","sona":"5332"},{"trial_type":"turing-test","trial_index":309,"time_elapsed":695721,"internal_node_id":"0.0-8.0-2.75","subject":"bs4v59ajbwlwxcn","sona":"5332"},{"rt":462.91000000201166,"stimulus":"<p>Welche Sequenz haben Sie als natürlicher empfunden?</p>","key_press":70,"test_part":"response","test_stimulus":{"position":1,"left":"bvh/vr_prediction_models/model(dmp)-dataset(pass-bottle-hold)-npsi(50)-hold(0)/final-lines.txt","right":"bvh/pass-bottle-hold-training0-lines.txt","att_check":false},"trial_type":"html-keyboard-response","trial_index":310,"time_elapsed":696193,"internal_node_id":"0.0-8.0-3.75","subject":"bs4v59ajbwlwxcn","sona":"5332"},{"rt":258.00999999046326,"stimulus":"<p>Bereit?</p>","key_press":32,"trial_type":"html-keyboard-response","trial_index":311,"time_elapsed":696461,"internal_node_id":"0.0-8.0-0.76","subject":"bs4v59ajbwlwxcn","sona":"5332"},{"rt":null,"stimulus":"<div style=\"font-size:60px;\">+</div>","key_press":null,"trial_type":"html-keyboard-response","trial_index":312,"time_elapsed":698464,"internal_node_id":"0.0-8.0-1.76","subject":"bs4v59ajbwlwxcn","sona":"5332"},{"trial_type":"turing-test","trial_index":313,"time_elapsed":702149,"internal_node_id":"0.0-8.0-2.76","subject":"bs4v59ajbwlwxcn","sona":"5332"},{"rt":1325.4299999971408,"stimulus":"<p>Welche Sequenz haben Sie als natürlicher empfunden?</p>","key_press":74,"test_part":"response","test_stimulus":{"position":0,"left":"bvh/pass-bottle-hold-training3-lines.txt","right":"bvh/vr_prediction_models/model(dmp)-dataset(pass-bottle-hold)-npsi(80)-hold(3)/final-lines.txt","att_check":true},"trial_type":"html-keyboard-response","trial_index":314,"time_elapsed":703486,"internal_node_id":"0.0-8.0-3.76","subject":"bs4v59ajbwlwxcn","sona":"5332"},{"rt":249.88000000303145,"stimulus":"<p>Bereit?</p>","key_press":32,"trial_type":"html-keyboard-response","trial_index":315,"time_elapsed":703747,"internal_node_id":"0.0-8.0-0.77","subject":"bs4v59ajbwlwxcn","sona":"5332"},{"rt":null,"stimulus":"<div style=\"font-size:60px;\">+</div>","key_press":null,"trial_type":"html-keyboard-response","trial_index":316,"time_elapsed":705751,"internal_node_id":"0.0-8.0-1.77","subject":"bs4v59ajbwlwxcn","sona":"5332"},{"trial_type":"turing-test","trial_index":317,"time_elapsed":709316,"internal_node_id":"0.0-8.0-2.77","subject":"bs4v59ajbwlwxcn","sona":"5332"},{"rt":428.635000003851,"stimulus":"<p>Welche Sequenz haben Sie als natürlicher empfunden?</p>","key_press":70,"test_part":"response","test_stimulus":{"position":1,"left":"bvh/vr_prediction_models/model(vcgpdm)-dataset(pass-bottle-hold)-mode(ELBO)-parts(3)-dyn(10)-lvm(25)-hold(1)/final-lines.txt","right":"bvh/pass-bottle-hold-training1-lines.txt","att_check":false},"trial_type":"html-keyboard-response","trial_index":318,"time_elapsed":709754,"internal_node_id":"0.0-8.0-3.77","subject":"bs4v59ajbwlwxcn","sona":"5332"},{"rt":357.42000000027474,"stimulus":"<p>Bereit?</p>","key_press":32,"trial_type":"html-keyboard-response","trial_index":319,"time_elapsed":710121,"internal_node_id":"0.0-8.0-0.78","subject":"bs4v59ajbwlwxcn","sona":"5332"},{"rt":null,"stimulus":"<div style=\"font-size:60px;\">+</div>","key_press":null,"trial_type":"html-keyboard-response","trial_index":320,"time_elapsed":712123,"internal_node_id":"0.0-8.0-1.78","subject":"bs4v59ajbwlwxcn","sona":"5332"},{"trial_type":"turing-test","trial_index":321,"time_elapsed":716667,"internal_node_id":"0.0-8.0-2.78","subject":"bs4v59ajbwlwxcn","sona":"5332"},{"rt":324.11500001035165,"stimulus":"<p>Welche Sequenz haben Sie als natürlicher empfunden?</p>","key_press":70,"test_part":"response","test_stimulus":{"position":0,"left":"bvh/return-bottle-hold-training3-lines.txt","right":"bvh/vr_prediction_models/model(vcgpdm)-dataset(return-bottle-hold)-mode(ELBO)-parts(1)-dyn(25)-lvm(35)-hold(3)/final-lines.txt","att_check":false},"trial_type":"html-keyboard-response","trial_index":322,"time_elapsed":717001,"internal_node_id":"0.0-8.0-3.78","subject":"bs4v59ajbwlwxcn","sona":"5332"},{"rt":281.0299999982817,"stimulus":"<p>Bereit?</p>","key_press":32,"trial_type":"html-keyboard-response","trial_index":323,"time_elapsed":717289,"internal_node_id":"0.0-8.0-0.79","subject":"bs4v59ajbwlwxcn","sona":"5332"},{"rt":null,"stimulus":"<div style=\"font-size:60px;\">+</div>","key_press":null,"trial_type":"html-keyboard-response","trial_index":324,"time_elapsed":719292,"internal_node_id":"0.0-8.0-1.79","subject":"bs4v59ajbwlwxcn","sona":"5332"},{"trial_type":"turing-test","trial_index":325,"time_elapsed":726914,"internal_node_id":"0.0-8.0-2.79","subject":"bs4v59ajbwlwxcn","sona":"5332"},{"rt":405.1599999947939,"stimulus":"<p>Welche Sequenz haben Sie als natürlicher empfunden?</p>","key_press":74,"test_part":"response","test_stimulus":{"position":1,"left":"bvh/vr_prediction_models/model(vcgpdm)-dataset(pass-bottle)-mode(ELBO)-parts(1)-dyn(20)-lvm(30)-hold(4)/final-lines.txt","right":"bvh/pass-bottle-training4-lines.txt","att_check":false},"trial_type":"html-keyboard-response","trial_index":326,"time_elapsed":727329,"internal_node_id":"0.0-8.0-3.79","subject":"bs4v59ajbwlwxcn","sona":"5332"},{"rt":11662.67499999958,"responses":"{\"age\":\" 21\",\"gender\":\"weiblich\"}","trial_type":"survey-text","trial_index":327,"time_elapsed":739003,"internal_node_id":"0.0-10.0-0.0","subject":"bs4v59ajbwlwxcn","sona":"5332"},{"rt":84985.89000001084,"responses":"{\"area\":\"Arme\",\"Q1\":\"sehr schnelle Bewegung\",\"Q2\":\"schnelle Drehungen, schnelles hoch und herunter\"}","trial_type":"survey-text","trial_index":328,"time_elapsed":824017,"internal_node_id":"0.0-10.0-1.0","subject":"bs4v59ajbwlwxcn","sona":"5332"}]