[{"rt":2292.5549999345094,"stimulus":"<p>Welcome!<br> Please choose your language to start the experiment in the chosen language.</p><p>Willkommen!<br> Bitte wählen Sie eine Sprache, um das Experiment in der ausgewählten Sprache zu starten</p>","button_pressed":"1","trial_type":"html-button-response","trial_index":0,"time_elapsed":2313,"internal_node_id":"0.0-0.0","subject":"allq6sox509zv0v","sona":"9604"},{"view_history":"[{\"page_index\":0,\"viewing_time\":17457.690000068396},{\"page_index\":1,\"viewing_time\":2531.0100000351667},{\"page_index\":2,\"viewing_time\":5739.635000005364},{\"page_index\":3,\"viewing_time\":3385.000000009313},{\"page_index\":4,\"viewing_time\":2239.060000050813}]","rt":31353.610000107437,"trial_type":"instructions","trial_index":1,"time_elapsed":33668,"internal_node_id":"0.0-1.0-0.0","subject":"allq6sox509zv0v","sona":"9604"},{"rt":1395.289999898523,"stimulus":"<p>Bereit?</p>","key_press":32,"trial_type":"html-keyboard-response","trial_index":2,"time_elapsed":35065,"internal_node_id":"0.0-3.0","subject":"allq6sox509zv0v","sona":"9604"},{"rt":null,"stimulus":"<div style=\"font-size:60px;\">+</div>","key_press":null,"trial_type":"html-keyboard-response","trial_index":3,"time_elapsed":37070,"internal_node_id":"0.0-4.0","subject":"allq6sox509zv0v","sona":"9604"},{"trial_type":"training","trial_index":4,"time_elapsed":40702,"internal_node_id":"0.0-5.0","subject":"allq6sox509zv0v","sona":"9604"},{"rt":1757.1650000754744,"stimulus":"<p>Welche Sequenz haben Sie als natürlicher empfunden?</p>","key_press":70,"trial_type":"html-keyboard-response","trial_index":5,"time_elapsed":42461,"internal_node_id":"0.0-6.0","subject":"allq6sox509zv0v","sona":"9604"},{"rt":3523.329999996349,"stimulus":"<p>Das Experiment startet nun.</p><p><small>Bitte drücken Sie den Knopf, wenn Sie bereit sind.</small></p>","button_pressed":"0","trial_type":"html-button-response","trial_index":6,"time_elapsed":45987,"internal_node_id":"0.0-7.0","subject":"allq6sox509zv0v","sona":"9604"},{"rt":1743.4000000357628,"stimulus":"<p>Bereit?</p>","key_press":32,"trial_type":"html-keyboard-response","trial_index":7,"time_elapsed":47732,"internal_node_id":"0.0-8.0-0.0","subject":"allq6sox509zv0v","sona":"9604"},{"rt":null,"stimulus":"<div style=\"font-size:60px;\">+</div>","key_press":null,"trial_type":"html-keyboard-response","trial_index":8,"time_elapsed":49735,"internal_node_id":"0.0-8.0-1.0","subject":"allq6sox509zv0v","sona":"9604"},{"trial_type":"turing-test","trial_index":9,"time_elapsed":54347,"internal_node_id":"0.0-8.0-2.0","subject":"allq6sox509zv0v","sona":"9604"},{"rt":836.0699999611825,"stimulus":"<p>Welche Sequenz haben Sie als natürlicher empfunden?</p>","key_press":74,"test_part":"response","test_stimulus":{"position":1,"left":"bvh/vr_prediction_models/model(vcgpdm)-dataset(pass-bottle-hold)-mode(ELBO)-parts(3)-dyn(25)-lvm(30)-hold(0)/final-lines.txt","right":"bvh/pass-bottle-hold-training0-lines.txt","att_check":false},"trial_type":"html-keyboard-response","trial_index":10,"time_elapsed":55185,"internal_node_id":"0.0-8.0-3.0","subject":"allq6sox509zv0v","sona":"9604"},{"rt":1414.3749999348074,"stimulus":"<p>Bereit?</p>","key_press":32,"trial_type":"html-keyboard-response","trial_index":11,"time_elapsed":56603,"internal_node_id":"0.0-8.0-0.1","subject":"allq6sox509zv0v","sona":"9604"},{"rt":null,"stimulus":"<div style=\"font-size:60px;\">+</div>","key_press":null,"trial_type":"html-keyboard-response","trial_index":12,"time_elapsed":58606,"internal_node_id":"0.0-8.0-1.1","subject":"allq6sox509zv0v","sona":"9604"},{"trial_type":"turing-test","trial_index":13,"time_elapsed":63214,"internal_node_id":"0.0-8.0-2.1","subject":"allq6sox509zv0v","sona":"9604"},{"rt":950.9449999313802,"stimulus":"<p>Welche Sequenz haben Sie als natürlicher empfunden?</p>","key_press":70,"test_part":"response","test_stimulus":{"position":1,"left":"bvh/vr_prediction_models/model(vcgpdm)-dataset(pass-bottle-hold)-mode(ELBO)-parts(1)-dyn(30)-lvm(30)-hold(1)/final-lines.txt","right":"bvh/pass-bottle-hold-training1-lines.txt","att_check":false},"trial_type":"html-keyboard-response","trial_index":14,"time_elapsed":64168,"internal_node_id":"0.0-8.0-3.1","subject":"allq6sox509zv0v","sona":"9604"},{"rt":6664.1600001603365,"stimulus":"<p>Bereit?</p>","key_press":32,"trial_type":"html-keyboard-response","trial_index":15,"time_elapsed":70835,"internal_node_id":"0.0-8.0-0.2","subject":"allq6sox509zv0v","sona":"9604"},{"rt":null,"stimulus":"<div style=\"font-size:60px;\">+</div>","key_press":null,"trial_type":"html-keyboard-response","trial_index":16,"time_elapsed":72839,"internal_node_id":"0.0-8.0-1.2","subject":"allq6sox509zv0v","sona":"9604"},{"trial_type":"turing-test","trial_index":17,"time_elapsed":78565,"internal_node_id":"0.0-8.0-2.2","subject":"allq6sox509zv0v","sona":"9604"},{"rt":261.1450001131743,"stimulus":"<p>Welche Sequenz haben Sie als natürlicher empfunden?</p>","key_press":74,"test_part":"response","test_stimulus":{"position":1,"left":"bvh/vr_prediction_models/model(tmp)-dataset(return-bottle)-numprim(7)-hold(0)/final-lines.txt","right":"bvh/return-bottle-training0-lines.txt","att_check":false},"trial_type":"html-keyboard-response","trial_index":18,"time_elapsed":78831,"internal_node_id":"0.0-8.0-3.2","subject":"allq6sox509zv0v","sona":"9604"},{"rt":1226.3550001662225,"stimulus":"<p>Bereit?</p>","key_press":32,"trial_type":"html-keyboard-response","trial_index":19,"time_elapsed":80059,"internal_node_id":"0.0-8.0-0.3","subject":"allq6sox509zv0v","sona":"9604"},{"rt":null,"stimulus":"<div style=\"font-size:60px;\">+</div>","key_press":null,"trial_type":"html-keyboard-response","trial_index":20,"time_elapsed":82062,"internal_node_id":"0.0-8.0-1.3","subject":"allq6sox509zv0v","sona":"9604"},{"trial_type":"turing-test","trial_index":21,"time_elapsed":86840,"internal_node_id":"0.0-8.0-2.3","subject":"allq6sox509zv0v","sona":"9604"},{"rt":406.9699998944998,"stimulus":"<p>Welche Sequenz haben Sie als natürlicher empfunden?</p>","key_press":70,"test_part":"response","test_stimulus":{"position":0,"left":"bvh/return-bottle-hold-training1-lines.txt","right":"bvh/vr_prediction_models/model(vcgpdm)-dataset(return-bottle-hold)-mode(ELBO)-parts(3)-dyn(20)-lvm(35)-hold(1)/final-lines.txt","att_check":false},"trial_type":"html-keyboard-response","trial_index":22,"time_elapsed":87251,"internal_node_id":"0.0-8.0-3.3","subject":"allq6sox509zv0v","sona":"9604"},{"rt":1048.4050000086427,"stimulus":"<p>Bereit?</p>","key_press":32,"trial_type":"html-keyboard-response","trial_index":23,"time_elapsed":88303,"internal_node_id":"0.0-8.0-0.4","subject":"allq6sox509zv0v","sona":"9604"},{"rt":null,"stimulus":"<div style=\"font-size:60px;\">+</div>","key_press":null,"trial_type":"html-keyboard-response","trial_index":24,"time_elapsed":90307,"internal_node_id":"0.0-8.0-1.4","subject":"allq6sox509zv0v","sona":"9604"},{"trial_type":"turing-test","trial_index":25,"time_elapsed":93963,"internal_node_id":"0.0-8.0-2.4","subject":"allq6sox509zv0v","sona":"9604"},{"rt":370.094999903813,"stimulus":"<p>Welche Sequenz haben Sie als natürlicher empfunden?</p>","key_press":74,"test_part":"response","test_stimulus":{"position":1,"left":"bvh/vr_prediction_models/model(dmp)-dataset(return-bottle-hold)-npsi(60)-hold(2)/final-lines.txt","right":"bvh/return-bottle-hold-training2-lines.txt","att_check":false},"trial_type":"html-keyboard-response","trial_index":26,"time_elapsed":94339,"internal_node_id":"0.0-8.0-3.4","subject":"allq6sox509zv0v","sona":"9604"},{"rt":824.0300000179559,"stimulus":"<p>Bereit?</p>","key_press":32,"trial_type":"html-keyboard-response","trial_index":27,"time_elapsed":95166,"internal_node_id":"0.0-8.0-0.5","subject":"allq6sox509zv0v","sona":"9604"},{"rt":null,"stimulus":"<div style=\"font-size:60px;\">+</div>","key_press":null,"trial_type":"html-keyboard-response","trial_index":28,"time_elapsed":97168,"internal_node_id":"0.0-8.0-1.5","subject":"allq6sox509zv0v","sona":"9604"},{"trial_type":"turing-test","trial_index":29,"time_elapsed":103227,"internal_node_id":"0.0-8.0-2.5","subject":"allq6sox509zv0v","sona":"9604"},{"rt":289.55000010319054,"stimulus":"<p>Welche Sequenz haben Sie als natürlicher empfunden?</p>","key_press":70,"test_part":"response","test_stimulus":{"position":1,"left":"bvh/vr_prediction_models/model(dmp)-dataset(return-bottle)-npsi(20)-hold(3)/final-lines.txt","right":"bvh/return-bottle-training3-lines.txt","att_check":false},"trial_type":"html-keyboard-response","trial_index":30,"time_elapsed":103521,"internal_node_id":"0.0-8.0-3.5","subject":"allq6sox509zv0v","sona":"9604"},{"rt":753.2550001051277,"stimulus":"<p>Bereit?</p>","key_press":32,"trial_type":"html-keyboard-response","trial_index":31,"time_elapsed":104278,"internal_node_id":"0.0-8.0-0.6","subject":"allq6sox509zv0v","sona":"9604"},{"rt":null,"stimulus":"<div style=\"font-size:60px;\">+</div>","key_press":null,"trial_type":"html-keyboard-response","trial_index":32,"time_elapsed":106280,"internal_node_id":"0.0-8.0-1.6","subject":"allq6sox509zv0v","sona":"9604"},{"trial_type":"turing-test","trial_index":33,"time_elapsed":113858,"internal_node_id":"0.0-8.0-2.6","subject":"allq6sox509zv0v","sona":"9604"},{"rt":312.9100000951439,"stimulus":"<p>Welche Sequenz haben Sie als natürlicher empfunden?</p>","key_press":70,"test_part":"response","test_stimulus":{"position":1,"left":"bvh/vr_prediction_models/model(vcgpdm)-dataset(pass-bottle)-mode(ELBO)-parts(1)-dyn(30)-lvm(35)-hold(2)/final-lines.txt","right":"bvh/pass-bottle-training2-lines.txt","att_check":false},"trial_type":"html-keyboard-response","trial_index":34,"time_elapsed":114176,"internal_node_id":"0.0-8.0-3.6","subject":"allq6sox509zv0v","sona":"9604"},{"rt":620.1849998906255,"stimulus":"<p>Bereit?</p>","key_press":32,"trial_type":"html-keyboard-response","trial_index":35,"time_elapsed":114800,"internal_node_id":"0.0-8.0-0.7","subject":"allq6sox509zv0v","sona":"9604"},{"rt":null,"stimulus":"<div style=\"font-size:60px;\">+</div>","key_press":null,"trial_type":"html-keyboard-response","trial_index":36,"time_elapsed":116804,"internal_node_id":"0.0-8.0-1.7","subject":"allq6sox509zv0v","sona":"9604"},{"trial_type":"turing-test","trial_index":37,"time_elapsed":120315,"internal_node_id":"0.0-8.0-2.7","subject":"allq6sox509zv0v","sona":"9604"},{"rt":608.0700000748038,"stimulus":"<p>Welche Sequenz haben Sie als natürlicher empfunden?</p>","key_press":74,"test_part":"response","test_stimulus":{"position":0,"left":"bvh/pass-bottle-hold-training2-lines.txt","right":"bvh/vr_prediction_models/model(dmp)-dataset(pass-bottle-hold)-npsi(50)-hold(2)/final-lines.txt","att_check":false},"trial_type":"html-keyboard-response","trial_index":38,"time_elapsed":120925,"internal_node_id":"0.0-8.0-3.7","subject":"allq6sox509zv0v","sona":"9604"},{"rt":883.8299999479204,"stimulus":"<p>Bereit?</p>","key_press":32,"trial_type":"html-keyboard-response","trial_index":39,"time_elapsed":121813,"internal_node_id":"0.0-8.0-0.8","subject":"allq6sox509zv0v","sona":"9604"},{"rt":null,"stimulus":"<div style=\"font-size:60px;\">+</div>","key_press":null,"trial_type":"html-keyboard-response","trial_index":40,"time_elapsed":123816,"internal_node_id":"0.0-8.0-1.8","subject":"allq6sox509zv0v","sona":"9604"},{"trial_type":"turing-test","trial_index":41,"time_elapsed":127054,"internal_node_id":"0.0-8.0-2.8","subject":"allq6sox509zv0v","sona":"9604"},{"rt":403.8400000426918,"stimulus":"<p>Welche Sequenz haben Sie als natürlicher empfunden?</p>","key_press":74,"test_part":"response","test_stimulus":{"position":0,"left":"bvh/pass-bottle-hold-training1-lines.txt","right":"bvh/vr_prediction_models/model(dmp)-dataset(pass-bottle-hold)-npsi(20)-hold(1)/final-lines.txt","att_check":false},"trial_type":"html-keyboard-response","trial_index":42,"time_elapsed":127462,"internal_node_id":"0.0-8.0-3.8","subject":"allq6sox509zv0v","sona":"9604"},{"rt":746.0500001907349,"stimulus":"<p>Bereit?</p>","key_press":32,"trial_type":"html-keyboard-response","trial_index":43,"time_elapsed":128212,"internal_node_id":"0.0-8.0-0.9","subject":"allq6sox509zv0v","sona":"9604"},{"rt":null,"stimulus":"<div style=\"font-size:60px;\">+</div>","key_press":null,"trial_type":"html-keyboard-response","trial_index":44,"time_elapsed":130215,"internal_node_id":"0.0-8.0-1.9","subject":"allq6sox509zv0v","sona":"9604"},{"trial_type":"turing-test","trial_index":45,"time_elapsed":133587,"internal_node_id":"0.0-8.0-2.9","subject":"allq6sox509zv0v","sona":"9604"},{"rt":461.7749999742955,"stimulus":"<p>Welche Sequenz haben Sie als natürlicher empfunden?</p>","key_press":70,"test_part":"response","test_stimulus":{"position":1,"left":"bvh/vr_prediction_models/model(dmp)-dataset(return-bottle-hold)-npsi(60)-hold(1)/final-lines.txt","right":"bvh/return-bottle-hold-training1-lines.txt","att_check":false},"trial_type":"html-keyboard-response","trial_index":46,"time_elapsed":134050,"internal_node_id":"0.0-8.0-3.9","subject":"allq6sox509zv0v","sona":"9604"},{"rt":575.5549999885261,"stimulus":"<p>Bereit?</p>","key_press":32,"trial_type":"html-keyboard-response","trial_index":47,"time_elapsed":134627,"internal_node_id":"0.0-8.0-0.10","subject":"allq6sox509zv0v","sona":"9604"},{"rt":null,"stimulus":"<div style=\"font-size:60px;\">+</div>","key_press":null,"trial_type":"html-keyboard-response","trial_index":48,"time_elapsed":136632,"internal_node_id":"0.0-8.0-1.10","subject":"allq6sox509zv0v","sona":"9604"},{"trial_type":"turing-test","trial_index":49,"time_elapsed":141372,"internal_node_id":"0.0-8.0-2.10","subject":"allq6sox509zv0v","sona":"9604"},{"rt":394.51500005088747,"stimulus":"<p>Welche Sequenz haben Sie als natürlicher empfunden?</p>","key_press":70,"test_part":"response","test_stimulus":{"position":1,"left":"bvh/vr_prediction_models/model(vcgpdm)-dataset(return-bottle-hold)-mode(ELBO)-parts(1)-dyn(10)-lvm(30)-hold(2)/final-lines.txt","right":"bvh/return-bottle-hold-training2-lines.txt","att_check":false},"trial_type":"html-keyboard-response","trial_index":50,"time_elapsed":141772,"internal_node_id":"0.0-8.0-3.10","subject":"allq6sox509zv0v","sona":"9604"},{"rt":612.3349999543279,"stimulus":"<p>Bereit?</p>","key_press":32,"trial_type":"html-keyboard-response","trial_index":51,"time_elapsed":142386,"internal_node_id":"0.0-8.0-0.11","subject":"allq6sox509zv0v","sona":"9604"},{"rt":null,"stimulus":"<div style=\"font-size:60px;\">+</div>","key_press":null,"trial_type":"html-keyboard-response","trial_index":52,"time_elapsed":144391,"internal_node_id":"0.0-8.0-1.11","subject":"allq6sox509zv0v","sona":"9604"}]