[{"rt":2823.7799999769777,"stimulus":"<p>Welcome!<br> Please choose your language to start the experiment in the chosen language.</p><p>Willkommen!<br> Bitte wählen Sie eine Sprache, um das Experiment in der ausgewählten Sprache zu starten</p>","button_pressed":"1","trial_type":"html-button-response","trial_index":0,"time_elapsed":2915,"internal_node_id":"0.0-0.0","subject":"lnow3p5vwj63dhn","sona":"7567"},{"view_history":"[{\"page_index\":0,\"viewing_time\":11787.02000004705},{\"page_index\":1,\"viewing_time\":6061.879999935627},{\"page_index\":2,\"viewing_time\":12123.59000009019},{\"page_index\":3,\"viewing_time\":11389.749999972992},{\"page_index\":4,\"viewing_time\":3665.129999979399}]","rt":45028.26000005007,"trial_type":"instructions","trial_index":1,"time_elapsed":47943,"internal_node_id":"0.0-1.0-0.0","subject":"lnow3p5vwj63dhn","sona":"7567"},{"rt":2343.6600000131875,"stimulus":"<p>Bereit?</p>","key_press":32,"trial_type":"html-keyboard-response","trial_index":2,"time_elapsed":50289,"internal_node_id":"0.0-3.0","subject":"lnow3p5vwj63dhn","sona":"7567"},{"rt":null,"stimulus":"<div style=\"font-size:60px;\">+</div>","key_press":null,"trial_type":"html-keyboard-response","trial_index":3,"time_elapsed":52306,"internal_node_id":"0.0-4.0","subject":"lnow3p5vwj63dhn","sona":"7567"},{"trial_type":"training","trial_index":4,"time_elapsed":55969,"internal_node_id":"0.0-5.0","subject":"lnow3p5vwj63dhn","sona":"7567"},{"rt":590.12999990955,"stimulus":"<p>Welche Sequenz haben Sie als natürlicher empfunden?</p>","key_press":70,"trial_type":"html-keyboard-response","trial_index":5,"time_elapsed":56562,"internal_node_id":"0.0-6.0","subject":"lnow3p5vwj63dhn","sona":"7567"},{"rt":3434.1049999929965,"stimulus":"<p>Das Experiment startet nun.</p><p><small>Bitte drücken Sie den Knopf, wenn Sie bereit sind.</small></p>","button_pressed":"0","trial_type":"html-button-response","trial_index":6,"time_elapsed":59997,"internal_node_id":"0.0-7.0","subject":"lnow3p5vwj63dhn","sona":"7567"},{"rt":1746.3950000237674,"stimulus":"<p>Bereit?</p>","key_press":32,"trial_type":"html-keyboard-response","trial_index":7,"time_elapsed":61745,"internal_node_id":"0.0-8.0-0.0","subject":"lnow3p5vwj63dhn","sona":"7567"},{"rt":null,"stimulus":"<div style=\"font-size:60px;\">+</div>","key_press":null,"trial_type":"html-keyboard-response","trial_index":8,"time_elapsed":63764,"internal_node_id":"0.0-8.0-1.0","subject":"lnow3p5vwj63dhn","sona":"7567"},{"trial_type":"turing-test","trial_index":9,"time_elapsed":67104,"internal_node_id":"0.0-8.0-2.0","subject":"lnow3p5vwj63dhn","sona":"7567"},{"rt":279.3149999342859,"stimulus":"<p>Welche Sequenz haben Sie als natürlicher empfunden?</p>","key_press":74,"test_part":"response","test_stimulus":{"position":1,"left":"bvh/vr_prediction_models/model(dmp)-dataset(return-bottle-hold)-npsi(80)-hold(1)/final-lines.txt","right":"bvh/return-bottle-hold-training1-lines.txt","att_check":false},"trial_type":"html-keyboard-response","trial_index":10,"time_elapsed":67387,"internal_node_id":"0.0-8.0-3.0","subject":"lnow3p5vwj63dhn","sona":"7567"},{"rt":1621.10499991104,"stimulus":"<p>Bereit?</p>","key_press":32,"trial_type":"html-keyboard-response","trial_index":11,"time_elapsed":69015,"internal_node_id":"0.0-8.0-0.1","subject":"lnow3p5vwj63dhn","sona":"7567"},{"rt":null,"stimulus":"<div style=\"font-size:60px;\">+</div>","key_press":null,"trial_type":"html-keyboard-response","trial_index":12,"time_elapsed":71039,"internal_node_id":"0.0-8.0-1.1","subject":"lnow3p5vwj63dhn","sona":"7567"},{"trial_type":"turing-test","trial_index":13,"time_elapsed":77786,"internal_node_id":"0.0-8.0-2.1","subject":"lnow3p5vwj63dhn","sona":"7567"},{"rt":4396.56499994453,"stimulus":"<p>Welche Sequenz haben Sie als natürlicher empfunden?</p>","key_press":74,"test_part":"response","test_stimulus":{"position":1,"left":"bvh/vr_prediction_models/model(tmp)-dataset(pass-bottle)-numprim(6)-hold(0)/final-lines.txt","right":"bvh/pass-bottle-training0-lines.txt","att_check":false},"trial_type":"html-keyboard-response","trial_index":14,"time_elapsed":82187,"internal_node_id":"0.0-8.0-3.1","subject":"lnow3p5vwj63dhn","sona":"7567"},{"rt":1258.6949999677017,"stimulus":"<p>Bereit?</p>","key_press":32,"trial_type":"html-keyboard-response","trial_index":15,"time_elapsed":83449,"internal_node_id":"0.0-8.0-0.2","subject":"lnow3p5vwj63dhn","sona":"7567"},{"rt":null,"stimulus":"<div style=\"font-size:60px;\">+</div>","key_press":null,"trial_type":"html-keyboard-response","trial_index":16,"time_elapsed":85470,"internal_node_id":"0.0-8.0-1.2","subject":"lnow3p5vwj63dhn","sona":"7567"},{"trial_type":"turing-test","trial_index":17,"time_elapsed":90961,"internal_node_id":"0.0-8.0-2.2","subject":"lnow3p5vwj63dhn","sona":"7567"},{"rt":1219.2350000841543,"stimulus":"<p>Welche Sequenz haben Sie als natürlicher empfunden?</p>","key_press":74,"test_part":"response","test_stimulus":{"position":1,"left":"bvh/vr_prediction_models/model(dmp)-dataset(return-bottle)-npsi(20)-hold(0)/final-lines.txt","right":"bvh/return-bottle-training0-lines.txt","att_check":false},"trial_type":"html-keyboard-response","trial_index":18,"time_elapsed":92190,"internal_node_id":"0.0-8.0-3.2","subject":"lnow3p5vwj63dhn","sona":"7567"},{"rt":816.4200000464916,"stimulus":"<p>Bereit?</p>","key_press":32,"trial_type":"html-keyboard-response","trial_index":19,"time_elapsed":93010,"internal_node_id":"0.0-8.0-0.3","subject":"lnow3p5vwj63dhn","sona":"7567"},{"rt":null,"stimulus":"<div style=\"font-size:60px;\">+</div>","key_press":null,"trial_type":"html-keyboard-response","trial_index":20,"time_elapsed":95024,"internal_node_id":"0.0-8.0-1.3","subject":"lnow3p5vwj63dhn","sona":"7567"},{"trial_type":"turing-test","trial_index":21,"time_elapsed":101702,"internal_node_id":"0.0-8.0-2.3","subject":"lnow3p5vwj63dhn","sona":"7567"},{"rt":725.0549999298528,"stimulus":"<p>Welche Sequenz haben Sie als natürlicher empfunden?</p>","key_press":74,"test_part":"response","test_stimulus":{"position":1,"left":"bvh/vr_prediction_models/model(vcgpdm)-dataset(return-bottle)-mode(ELBO)-parts(3)-dyn(15)-lvm(30)-hold(2)/final-lines.txt","right":"bvh/return-bottle-training2-lines.txt","att_check":false},"trial_type":"html-keyboard-response","trial_index":22,"time_elapsed":102436,"internal_node_id":"0.0-8.0-3.3","subject":"lnow3p5vwj63dhn","sona":"7567"},{"rt":622.8750000009313,"stimulus":"<p>Bereit?</p>","key_press":32,"trial_type":"html-keyboard-response","trial_index":23,"time_elapsed":103060,"internal_node_id":"0.0-8.0-0.4","subject":"lnow3p5vwj63dhn","sona":"7567"},{"rt":null,"stimulus":"<div style=\"font-size:60px;\">+</div>","key_press":null,"trial_type":"html-keyboard-response","trial_index":24,"time_elapsed":105083,"internal_node_id":"0.0-8.0-1.4","subject":"lnow3p5vwj63dhn","sona":"7567"},{"trial_type":"turing-test","trial_index":25,"time_elapsed":111004,"internal_node_id":"0.0-8.0-2.4","subject":"lnow3p5vwj63dhn","sona":"7567"},{"rt":609.3049999326468,"stimulus":"<p>Welche Sequenz haben Sie als natürlicher empfunden?</p>","key_press":74,"test_part":"response","test_stimulus":{"position":0,"left":"bvh/return-bottle-training4-lines.txt","right":"bvh/vr_prediction_models/model(dmp)-dataset(return-bottle)-npsi(70)-hold(4)/final-lines.txt","att_check":false},"trial_type":"html-keyboard-response","trial_index":26,"time_elapsed":111620,"internal_node_id":"0.0-8.0-3.4","subject":"lnow3p5vwj63dhn","sona":"7567"},{"rt":593.529999954626,"stimulus":"<p>Bereit?</p>","key_press":32,"trial_type":"html-keyboard-response","trial_index":27,"time_elapsed":112219,"internal_node_id":"0.0-8.0-0.5","subject":"lnow3p5vwj63dhn","sona":"7567"},{"rt":null,"stimulus":"<div style=\"font-size:60px;\">+</div>","key_press":null,"trial_type":"html-keyboard-response","trial_index":28,"time_elapsed":114235,"internal_node_id":"0.0-8.0-1.5","subject":"lnow3p5vwj63dhn","sona":"7567"},{"trial_type":"turing-test","trial_index":29,"time_elapsed":120079,"internal_node_id":"0.0-8.0-2.5","subject":"lnow3p5vwj63dhn","sona":"7567"},{"rt":335.2400000439957,"stimulus":"<p>Welche Sequenz haben Sie als natürlicher empfunden?</p>","key_press":70,"test_part":"response","test_stimulus":{"position":1,"left":"bvh/vr_prediction_models/model(dmp)-dataset(pass-bottle)-npsi(60)-hold(3)/final-lines.txt","right":"bvh/pass-bottle-training3-lines.txt","att_check":false},"trial_type":"html-keyboard-response","trial_index":30,"time_elapsed":120423,"internal_node_id":"0.0-8.0-3.5","subject":"lnow3p5vwj63dhn","sona":"7567"},{"rt":773.1200000271201,"stimulus":"<p>Bereit?</p>","key_press":32,"trial_type":"html-keyboard-response","trial_index":31,"time_elapsed":121198,"internal_node_id":"0.0-8.0-0.6","subject":"lnow3p5vwj63dhn","sona":"7567"},{"rt":null,"stimulus":"<div style=\"font-size:60px;\">+</div>","key_press":null,"trial_type":"html-keyboard-response","trial_index":32,"time_elapsed":123205,"internal_node_id":"0.0-8.0-1.6","subject":"lnow3p5vwj63dhn","sona":"7567"},{"trial_type":"turing-test","trial_index":33,"time_elapsed":126634,"internal_node_id":"0.0-8.0-2.6","subject":"lnow3p5vwj63dhn","sona":"7567"},{"rt":782.0800000336021,"stimulus":"<p>Welche Sequenz haben Sie als natürlicher empfunden?</p>","key_press":74,"test_part":"response","test_stimulus":{"position":0,"left":"bvh/pass-bottle-hold-training2-lines.txt","right":"bvh/vr_prediction_models/model(dmp)-dataset(pass-bottle-hold)-npsi(100)-hold(2)/final-lines.txt","att_check":false},"trial_type":"html-keyboard-response","trial_index":34,"time_elapsed":127420,"internal_node_id":"0.0-8.0-3.6","subject":"lnow3p5vwj63dhn","sona":"7567"},{"rt":381.93000003229827,"stimulus":"<p>Bereit?</p>","key_press":32,"trial_type":"html-keyboard-response","trial_index":35,"time_elapsed":127806,"internal_node_id":"0.0-8.0-0.7","subject":"lnow3p5vwj63dhn","sona":"7567"},{"rt":null,"stimulus":"<div style=\"font-size:60px;\">+</div>","key_press":null,"trial_type":"html-keyboard-response","trial_index":36,"time_elapsed":129850,"internal_node_id":"0.0-8.0-1.7","subject":"lnow3p5vwj63dhn","sona":"7567"},{"trial_type":"turing-test","trial_index":37,"time_elapsed":136063,"internal_node_id":"0.0-8.0-2.7","subject":"lnow3p5vwj63dhn","sona":"7567"},{"rt":388.99500004481524,"stimulus":"<p>Welche Sequenz haben Sie als natürlicher empfunden?</p>","key_press":74,"test_part":"response","test_stimulus":{"position":1,"left":"bvh/vr_prediction_models/model(vcgpdm)-dataset(pass-bottle)-mode(ELBO)-parts(3)-dyn(15)-lvm(30)-hold(4)/final-lines.txt","right":"bvh/pass-bottle-training4-lines.txt","att_check":false},"trial_type":"html-keyboard-response","trial_index":38,"time_elapsed":136461,"internal_node_id":"0.0-8.0-3.7","subject":"lnow3p5vwj63dhn","sona":"7567"},{"rt":490.32500002067536,"stimulus":"<p>Bereit?</p>","key_press":32,"trial_type":"html-keyboard-response","trial_index":39,"time_elapsed":136958,"internal_node_id":"0.0-8.0-0.8","subject":"lnow3p5vwj63dhn","sona":"7567"},{"rt":null,"stimulus":"<div style=\"font-size:60px;\">+</div>","key_press":null,"trial_type":"html-keyboard-response","trial_index":40,"time_elapsed":138984,"internal_node_id":"0.0-8.0-1.8","subject":"lnow3p5vwj63dhn","sona":"7567"},{"trial_type":"turing-test","trial_index":41,"time_elapsed":142765,"internal_node_id":"0.0-8.0-2.8","subject":"lnow3p5vwj63dhn","sona":"7567"},{"rt":1204.4900000328198,"stimulus":"<p>Welche Sequenz haben Sie als natürlicher empfunden?</p>","key_press":70,"test_part":"response","test_stimulus":{"position":0,"left":"bvh/pass-bottle-hold-training3-lines.txt","right":"bvh/vr_prediction_models/model(vcgpdm)-dataset(pass-bottle-hold)-mode(ELBO)-parts(1)-dyn(35)-lvm(30)-hold(3)/final-lines.txt","att_check":false},"trial_type":"html-keyboard-response","trial_index":42,"time_elapsed":143973,"internal_node_id":"0.0-8.0-3.8","subject":"lnow3p5vwj63dhn","sona":"7567"},{"rt":688.2350000087172,"stimulus":"<p>Bereit?</p>","key_press":32,"trial_type":"html-keyboard-response","trial_index":43,"time_elapsed":144664,"internal_node_id":"0.0-8.0-0.9","subject":"lnow3p5vwj63dhn","sona":"7567"},{"rt":null,"stimulus":"<div style=\"font-size:60px;\">+</div>","key_press":null,"trial_type":"html-keyboard-response","trial_index":44,"time_elapsed":146684,"internal_node_id":"0.0-8.0-1.9","subject":"lnow3p5vwj63dhn","sona":"7567"},{"trial_type":"turing-test","trial_index":45,"time_elapsed":150620,"internal_node_id":"0.0-8.0-2.9","subject":"lnow3p5vwj63dhn","sona":"7567"},{"rt":302.43999999947846,"stimulus":"<p>Welche Sequenz haben Sie als natürlicher empfunden?</p>","key_press":74,"test_part":"response","test_stimulus":{"position":1,"left":"bvh/vr_prediction_models/model(vcgpdm)-dataset(return-bottle-hold)-mode(ELBO)-parts(1)-dyn(35)-lvm(30)-hold(2)/final-lines.txt","right":"bvh/return-bottle-hold-training2-lines.txt","att_check":false},"trial_type":"html-keyboard-response","trial_index":46,"time_elapsed":150929,"internal_node_id":"0.0-8.0-3.9","subject":"lnow3p5vwj63dhn","sona":"7567"},{"rt":611.2000000430271,"stimulus":"<p>Bereit?</p>","key_press":32,"trial_type":"html-keyboard-response","trial_index":47,"time_elapsed":151548,"internal_node_id":"0.0-8.0-0.10","subject":"lnow3p5vwj63dhn","sona":"7567"},{"rt":null,"stimulus":"<div style=\"font-size:60px;\">+</div>","key_press":null,"trial_type":"html-keyboard-response","trial_index":48,"time_elapsed":153562,"internal_node_id":"0.0-8.0-1.10","subject":"lnow3p5vwj63dhn","sona":"7567"},{"trial_type":"turing-test","trial_index":49,"time_elapsed":159255,"internal_node_id":"0.0-8.0-2.10","subject":"lnow3p5vwj63dhn","sona":"7567"},{"rt":610.3349999757484,"stimulus":"<p>Welche Sequenz haben Sie als natürlicher empfunden?</p>","key_press":74,"test_part":"response","test_stimulus":{"position":1,"left":"bvh/vr_prediction_models/model(vcgpdm)-dataset(pass-bottle)-mode(ELBO)-parts(3)-dyn(35)-lvm(20)-hold(1)/final-lines.txt","right":"bvh/pass-bottle-training1-lines.txt","att_check":false},"trial_type":"html-keyboard-response","trial_index":50,"time_elapsed":159872,"internal_node_id":"0.0-8.0-3.10","subject":"lnow3p5vwj63dhn","sona":"7567"},{"rt":297.4200000753626,"stimulus":"<p>Bereit?</p>","key_press":32,"trial_type":"html-keyboard-response","trial_index":51,"time_elapsed":160174,"internal_node_id":"0.0-8.0-0.11","subject":"lnow3p5vwj63dhn","sona":"7567"},{"rt":null,"stimulus":"<div style=\"font-size:60px;\">+</div>","key_press":null,"trial_type":"html-keyboard-response","trial_index":52,"time_elapsed":162186,"internal_node_id":"0.0-8.0-1.11","subject":"lnow3p5vwj63dhn","sona":"7567"},{"trial_type":"turing-test","trial_index":53,"time_elapsed":169035,"internal_node_id":"0.0-8.0-2.11","subject":"lnow3p5vwj63dhn","sona":"7567"},{"rt":873.9000000059605,"stimulus":"<p>Welche Sequenz haben Sie als natürlicher empfunden?</p>","key_press":70,"test_part":"response","test_stimulus":{"position":1,"left":"bvh/vr_prediction_models/model(vcgpdm)-dataset(pass-bottle)-mode(ELBO)-parts(3)-dyn(20)-lvm(35)-hold(0)/final-lines.txt","right":"bvh/pass-bottle-training0-lines.txt","att_check":false},"trial_type":"html-keyboard-response","trial_index":54,"time_elapsed":169914,"internal_node_id":"0.0-8.0-3.11","subject":"lnow3p5vwj63dhn","sona":"7567"},{"rt":314.99000010080636,"stimulus":"<p>Bereit?</p>","key_press":32,"trial_type":"html-keyboard-response","trial_index":55,"time_elapsed":170233,"internal_node_id":"0.0-8.0-0.12","subject":"lnow3p5vwj63dhn","sona":"7567"},{"rt":null,"stimulus":"<div style=\"font-size:60px;\">+</div>","key_press":null,"trial_type":"html-keyboard-response","trial_index":56,"time_elapsed":172257,"internal_node_id":"0.0-8.0-1.12","subject":"lnow3p5vwj63dhn","sona":"7567"},{"trial_type":"turing-test","trial_index":57,"time_elapsed":177699,"internal_node_id":"0.0-8.0-2.12","subject":"lnow3p5vwj63dhn","sona":"7567"},{"rt":490.20000000018626,"stimulus":"<p>Welche Sequenz haben Sie als natürlicher empfunden?</p>","key_press":74,"test_part":"response","test_stimulus":{"position":0,"left":"bvh/pass-bottle-training1-lines.txt","right":"bvh/vr_prediction_models/model(tmp)-dataset(pass-bottle)-numprim(12)-hold(1)/final-lines.txt","att_check":false},"trial_type":"html-keyboard-response","trial_index":58,"time_elapsed":178198,"internal_node_id":"0.0-8.0-3.12","subject":"lnow3p5vwj63dhn","sona":"7567"},{"rt":305.0550000043586,"stimulus":"<p>Bereit?</p>","key_press":32,"trial_type":"html-keyboard-response","trial_index":59,"time_elapsed":178507,"internal_node_id":"0.0-8.0-0.13","subject":"lnow3p5vwj63dhn","sona":"7567"},{"rt":null,"stimulus":"<div style=\"font-size:60px;\">+</div>","key_press":null,"trial_type":"html-keyboard-response","trial_index":60,"time_elapsed":180527,"internal_node_id":"0.0-8.0-1.13","subject":"lnow3p5vwj63dhn","sona":"7567"},{"trial_type":"turing-test","trial_index":61,"time_elapsed":183956,"internal_node_id":"0.0-8.0-2.13","subject":"lnow3p5vwj63dhn","sona":"7567"},{"rt":324.84500005375594,"stimulus":"<p>Welche Sequenz haben Sie als natürlicher empfunden?</p>","key_press":74,"test_part":"response","test_stimulus":{"position":1,"left":"bvh/vr_prediction_models/model(vcgpdm)-dataset(pass-bottle-hold)-mode(ELBO)-parts(3)-dyn(10)-lvm(10)-hold(1)/final-lines.txt","right":"bvh/pass-bottle-hold-training1-lines.txt","att_check":false},"trial_type":"html-keyboard-response","trial_index":62,"time_elapsed":184290,"internal_node_id":"0.0-8.0-3.13","subject":"lnow3p5vwj63dhn","sona":"7567"},{"rt":362.77999996673316,"stimulus":"<p>Bereit?</p>","key_press":32,"trial_type":"html-keyboard-response","trial_index":63,"time_elapsed":184656,"internal_node_id":"0.0-8.0-0.14","subject":"lnow3p5vwj63dhn","sona":"7567"},{"rt":null,"stimulus":"<div style=\"font-size:60px;\">+</div>","key_press":null,"trial_type":"html-keyboard-response","trial_index":64,"time_elapsed":186683,"internal_node_id":"0.0-8.0-1.14","subject":"lnow3p5vwj63dhn","sona":"7567"},{"trial_type":"turing-test","trial_index":65,"time_elapsed":190172,"internal_node_id":"0.0-8.0-2.14","subject":"lnow3p5vwj63dhn","sona":"7567"},{"rt":492.12499998975545,"stimulus":"<p>Welche Sequenz haben Sie als natürlicher empfunden?</p>","key_press":74,"test_part":"response","test_stimulus":{"position":1,"left":"bvh/vr_prediction_models/model(vcgpdm)-dataset(return-bottle-hold)-mode(ELBO)-parts(3)-dyn(20)-lvm(35)-hold(1)/final-lines.txt","right":"bvh/return-bottle-hold-training1-lines.txt","att_check":false},"trial_type":"html-keyboard-response","trial_index":66,"time_elapsed":190673,"internal_node_id":"0.0-8.0-3.14","subject":"lnow3p5vwj63dhn","sona":"7567"},{"rt":307.9049999359995,"stimulus":"<p>Bereit?</p>","key_press":32,"trial_type":"html-keyboard-response","trial_index":67,"time_elapsed":190984,"internal_node_id":"0.0-8.0-0.15","subject":"lnow3p5vwj63dhn","sona":"7567"},{"rt":null,"stimulus":"<div style=\"font-size:60px;\">+</div>","key_press":null,"trial_type":"html-keyboard-response","trial_index":68,"time_elapsed":193010,"internal_node_id":"0.0-8.0-1.15","subject":"lnow3p5vwj63dhn","sona":"7567"},{"trial_type":"turing-test","trial_index":69,"time_elapsed":196582,"internal_node_id":"0.0-8.0-2.15","subject":"lnow3p5vwj63dhn","sona":"7567"},{"rt":482.43500001262873,"stimulus":"<p>Welche Sequenz haben Sie als natürlicher empfunden?</p>","key_press":74,"test_part":"response","test_stimulus":{"position":1,"left":"bvh/vr_prediction_models/model(dmp)-dataset(pass-bottle-hold)-npsi(50)-hold(4)/final-lines.txt","right":"bvh/pass-bottle-hold-training4-lines.txt","att_check":false},"trial_type":"html-keyboard-response","trial_index":70,"time_elapsed":197073,"internal_node_id":"0.0-8.0-3.15","subject":"lnow3p5vwj63dhn","sona":"7567"},{"rt":310.9600000316277,"stimulus":"<p>Bereit?</p>","key_press":32,"trial_type":"html-keyboard-response","trial_index":71,"time_elapsed":197387,"internal_node_id":"0.0-8.0-0.16","subject":"lnow3p5vwj63dhn","sona":"7567"},{"rt":null,"stimulus":"<div style=\"font-size:60px;\">+</div>","key_press":null,"trial_type":"html-keyboard-response","trial_index":72,"time_elapsed":199403,"internal_node_id":"0.0-8.0-1.16","subject":"lnow3p5vwj63dhn","sona":"7567"},{"trial_type":"turing-test","trial_index":73,"time_elapsed":203376,"internal_node_id":"0.0-8.0-2.16","subject":"lnow3p5vwj63dhn","sona":"7567"},{"rt":537.9800000227988,"stimulus":"<p>Welche Sequenz haben Sie als natürlicher empfunden?</p>","key_press":74,"test_part":"response","test_stimulus":{"position":1,"left":"bvh/vr_prediction_models/model(vcgpdm)-dataset(pass-bottle-hold)-mode(ELBO)-parts(3)-dyn(10)-lvm(30)-hold(3)/final-lines.txt","right":"bvh/pass-bottle-hold-training3-lines.txt","att_check":false},"trial_type":"html-keyboard-response","trial_index":74,"time_elapsed":203922,"internal_node_id":"0.0-8.0-3.16","subject":"lnow3p5vwj63dhn","sona":"7567"},{"rt":231.50500003248453,"stimulus":"<p>Bereit?</p>","key_press":32,"trial_type":"html-keyboard-response","trial_index":75,"time_elapsed":204160,"internal_node_id":"0.0-8.0-0.17","subject":"lnow3p5vwj63dhn","sona":"7567"},{"rt":null,"stimulus":"<div style=\"font-size:60px;\">+</div>","key_press":null,"trial_type":"html-keyboard-response","trial_index":76,"time_elapsed":206191,"internal_node_id":"0.0-8.0-1.17","subject":"lnow3p5vwj63dhn","sona":"7567"},{"trial_type":"turing-test","trial_index":77,"time_elapsed":211776,"internal_node_id":"0.0-8.0-2.17","subject":"lnow3p5vwj63dhn","sona":"7567"},{"rt":764.6249999525025,"stimulus":"<p>Welche Sequenz haben Sie als natürlicher empfunden?</p>","key_press":74,"test_part":"response","test_stimulus":{"position":1,"left":"bvh/vr_prediction_models/model(vcgpdm)-dataset(pass-bottle)-mode(ELBO)-parts(1)-dyn(30)-lvm(30)-hold(1)/final-lines.txt","right":"bvh/pass-bottle-training1-lines.txt","att_check":false},"trial_type":"html-keyboard-response","trial_index":78,"time_elapsed":212548,"internal_node_id":"0.0-8.0-3.17","subject":"lnow3p5vwj63dhn","sona":"7567"},{"rt":429.2049999348819,"stimulus":"<p>Bereit?</p>","key_press":32,"trial_type":"html-keyboard-response","trial_index":79,"time_elapsed":212982,"internal_node_id":"0.0-8.0-0.18","subject":"lnow3p5vwj63dhn","sona":"7567"},{"rt":null,"stimulus":"<div style=\"font-size:60px;\">+</div>","key_press":null,"trial_type":"html-keyboard-response","trial_index":80,"time_elapsed":214994,"internal_node_id":"0.0-8.0-1.18","subject":"lnow3p5vwj63dhn","sona":"7567"},{"trial_type":"turing-test","trial_index":81,"time_elapsed":221309,"internal_node_id":"0.0-8.0-2.18","subject":"lnow3p5vwj63dhn","sona":"7567"},{"rt":783.3600000012666,"stimulus":"<p>Welche Sequenz haben Sie als natürlicher empfunden?</p>","key_press":74,"test_part":"response","test_stimulus":{"position":0,"left":"bvh/return-bottle-training1-lines.txt","right":"bvh/vr_prediction_models/model(vcgpdm)-dataset(return-bottle)-mode(MAP)-parts(1)-hold(1)/final-lines.txt","att_check":false},"trial_type":"html-keyboard-response","trial_index":82,"time_elapsed":222103,"internal_node_id":"0.0-8.0-3.18","subject":"lnow3p5vwj63dhn","sona":"7567"},{"rt":339.4350000889972,"stimulus":"<p>Bereit?</p>","key_press":32,"trial_type":"html-keyboard-response","trial_index":83,"time_elapsed":222444,"internal_node_id":"0.0-8.0-0.19","subject":"lnow3p5vwj63dhn","sona":"7567"},{"rt":null,"stimulus":"<div style=\"font-size:60px;\">+</div>","key_press":null,"trial_type":"html-keyboard-response","trial_index":84,"time_elapsed":224461,"internal_node_id":"0.0-8.0-1.19","subject":"lnow3p5vwj63dhn","sona":"7567"},{"trial_type":"turing-test","trial_index":85,"time_elapsed":230161,"internal_node_id":"0.0-8.0-2.19","subject":"lnow3p5vwj63dhn","sona":"7567"},{"rt":479.8700000392273,"stimulus":"<p>Welche Sequenz haben Sie als natürlicher empfunden?</p>","key_press":74,"test_part":"response","test_stimulus":{"position":1,"left":"bvh/vr_prediction_models/model(dmp)-dataset(return-bottle)-npsi(70)-hold(4)/final-lines.txt","right":"bvh/return-bottle-training4-lines.txt","att_check":false},"trial_type":"html-keyboard-response","trial_index":86,"time_elapsed":230645,"internal_node_id":"0.0-8.0-3.19","subject":"lnow3p5vwj63dhn","sona":"7567"},{"rt":527.1300000604242,"stimulus":"<p>Bereit?</p>","key_press":32,"trial_type":"html-keyboard-response","trial_index":87,"time_elapsed":231178,"internal_node_id":"0.0-8.0-0.20","subject":"lnow3p5vwj63dhn","sona":"7567"},{"rt":null,"stimulus":"<div style=\"font-size:60px;\">+</div>","key_press":null,"trial_type":"html-keyboard-response","trial_index":88,"time_elapsed":233196,"internal_node_id":"0.0-8.0-1.20","subject":"lnow3p5vwj63dhn","sona":"7567"},{"trial_type":"turing-test","trial_index":89,"time_elapsed":236832,"internal_node_id":"0.0-8.0-2.20","subject":"lnow3p5vwj63dhn","sona":"7567"},{"rt":654.0749999694526,"stimulus":"<p>Welche Sequenz haben Sie als natürlicher empfunden?</p>","key_press":74,"test_part":"response","test_stimulus":{"position":0,"left":"bvh/pass-bottle-hold-training2-lines.txt","right":"bvh/vr_prediction_models/model(vcgpdm)-dataset(pass-bottle-hold)-mode(ELBO)-parts(1)-dyn(20)-lvm(5)-hold(2)/final-lines.txt","att_check":false},"trial_type":"html-keyboard-response","trial_index":90,"time_elapsed":237494,"internal_node_id":"0.0-8.0-3.20","subject":"lnow3p5vwj63dhn","sona":"7567"},{"rt":317.8100000368431,"stimulus":"<p>Bereit?</p>","key_press":32,"trial_type":"html-keyboard-response","trial_index":91,"time_elapsed":237817,"internal_node_id":"0.0-8.0-0.21","subject":"lnow3p5vwj63dhn","sona":"7567"},{"rt":null,"stimulus":"<div style=\"font-size:60px;\">+</div>","key_press":null,"trial_type":"html-keyboard-response","trial_index":92,"time_elapsed":239830,"internal_node_id":"0.0-8.0-1.21","subject":"lnow3p5vwj63dhn","sona":"7567"},{"trial_type":"turing-test","trial_index":93,"time_elapsed":246592,"internal_node_id":"0.0-8.0-2.21","subject":"lnow3p5vwj63dhn","sona":"7567"},{"rt":483.43999998178333,"stimulus":"<p>Welche Sequenz haben Sie als natürlicher empfunden?</p>","key_press":74,"test_part":"response","test_stimulus":{"position":1,"left":"bvh/vr_prediction_models/model(tmp)-dataset(pass-bottle)-numprim(4)-hold(0)/final-lines.txt","right":"bvh/pass-bottle-training0-lines.txt","att_check":false},"trial_type":"html-keyboard-response","trial_index":94,"time_elapsed":247092,"internal_node_id":"0.0-8.0-3.21","subject":"lnow3p5vwj63dhn","sona":"7567"},{"rt":281.4350000116974,"stimulus":"<p>Bereit?</p>","key_press":32,"trial_type":"html-keyboard-response","trial_index":95,"time_elapsed":247380,"internal_node_id":"0.0-8.0-0.22","subject":"lnow3p5vwj63dhn","sona":"7567"},{"rt":null,"stimulus":"<div style=\"font-size:60px;\">+</div>","key_press":null,"trial_type":"html-keyboard-response","trial_index":96,"time_elapsed":249393,"internal_node_id":"0.0-8.0-1.22","subject":"lnow3p5vwj63dhn","sona":"7567"},{"trial_type":"turing-test","trial_index":97,"time_elapsed":252661,"internal_node_id":"0.0-8.0-2.22","subject":"lnow3p5vwj63dhn","sona":"7567"},{"rt":870.1399998972192,"stimulus":"<p>Welche Sequenz haben Sie als natürlicher empfunden?</p>","key_press":74,"test_part":"response","test_stimulus":{"position":0,"left":"bvh/pass-bottle-hold-training0-lines.txt","right":"bvh/vr_prediction_models/model(dmp)-dataset(pass-bottle-hold)-npsi(80)-hold(0)/final-lines.txt","att_check":true},"trial_type":"html-keyboard-response","trial_index":98,"time_elapsed":253541,"internal_node_id":"0.0-8.0-3.22","subject":"lnow3p5vwj63dhn","sona":"7567"},{"rt":312.1399999363348,"stimulus":"<p>Bereit?</p>","key_press":32,"trial_type":"html-keyboard-response","trial_index":99,"time_elapsed":253858,"internal_node_id":"0.0-8.0-0.23","subject":"lnow3p5vwj63dhn","sona":"7567"},{"rt":null,"stimulus":"<div style=\"font-size:60px;\">+</div>","key_press":null,"trial_type":"html-keyboard-response","trial_index":100,"time_elapsed":255879,"internal_node_id":"0.0-8.0-1.23","subject":"lnow3p5vwj63dhn","sona":"7567"},{"trial_type":"turing-test","trial_index":101,"time_elapsed":262448,"internal_node_id":"0.0-8.0-2.23","subject":"lnow3p5vwj63dhn","sona":"7567"},{"rt":621.9100001035258,"stimulus":"<p>Welche Sequenz haben Sie als natürlicher empfunden?</p>","key_press":74,"test_part":"response","test_stimulus":{"position":1,"left":"bvh/vr_prediction_models/model(dmp)-dataset(return-bottle)-npsi(40)-hold(2)/final-lines.txt","right":"bvh/return-bottle-training2-lines.txt","att_check":false},"trial_type":"html-keyboard-response","trial_index":102,"time_elapsed":263082,"internal_node_id":"0.0-8.0-3.23","subject":"lnow3p5vwj63dhn","sona":"7567"},{"rt":312.1050000190735,"stimulus":"<p>Bereit?</p>","key_press":32,"trial_type":"html-keyboard-response","trial_index":103,"time_elapsed":263402,"internal_node_id":"0.0-8.0-0.24","subject":"lnow3p5vwj63dhn","sona":"7567"},{"rt":null,"stimulus":"<div style=\"font-size:60px;\">+</div>","key_press":null,"trial_type":"html-keyboard-response","trial_index":104,"time_elapsed":265410,"internal_node_id":"0.0-8.0-1.24","subject":"lnow3p5vwj63dhn","sona":"7567"},{"trial_type":"turing-test","trial_index":105,"time_elapsed":271886,"internal_node_id":"0.0-8.0-2.24","subject":"lnow3p5vwj63dhn","sona":"7567"},{"rt":519.5449999300763,"stimulus":"<p>Welche Sequenz haben Sie als natürlicher empfunden?</p>","key_press":70,"test_part":"response","test_stimulus":{"position":0,"left":"bvh/return-bottle-training2-lines.txt","right":"bvh/vr_prediction_models/model(vcgpdm)-dataset(return-bottle)-mode(ELBO)-parts(3)-dyn(15)-lvm(30)-hold(2)/final-lines.txt","att_check":false},"trial_type":"html-keyboard-response","trial_index":106,"time_elapsed":272411,"internal_node_id":"0.0-8.0-3.24","subject":"lnow3p5vwj63dhn","sona":"7567"},{"rt":335.5349999619648,"stimulus":"<p>Bereit?</p>","key_press":32,"trial_type":"html-keyboard-response","trial_index":107,"time_elapsed":272751,"internal_node_id":"0.0-8.0-0.25","subject":"lnow3p5vwj63dhn","sona":"7567"},{"rt":null,"stimulus":"<div style=\"font-size:60px;\">+</div>","key_press":null,"trial_type":"html-keyboard-response","trial_index":108,"time_elapsed":274772,"internal_node_id":"0.0-8.0-1.25","subject":"lnow3p5vwj63dhn","sona":"7567"},{"trial_type":"turing-test","trial_index":109,"time_elapsed":278303,"internal_node_id":"0.0-8.0-2.25","subject":"lnow3p5vwj63dhn","sona":"7567"},{"rt":291.5400000056252,"stimulus":"<p>Welche Sequenz haben Sie als natürlicher empfunden?</p>","key_press":70,"test_part":"response","test_stimulus":{"position":0,"left":"bvh/pass-bottle-hold-training2-lines.txt","right":"bvh/vr_prediction_models/model(vcgpdm)-dataset(pass-bottle-hold)-mode(ELBO)-parts(1)-dyn(15)-lvm(35)-hold(2)/final-lines.txt","att_check":false},"trial_type":"html-keyboard-response","trial_index":110,"time_elapsed":278604,"internal_node_id":"0.0-8.0-3.25","subject":"lnow3p5vwj63dhn","sona":"7567"},{"rt":322.91999994777143,"stimulus":"<p>Bereit?</p>","key_press":32,"trial_type":"html-keyboard-response","trial_index":111,"time_elapsed":278934,"internal_node_id":"0.0-8.0-0.26","subject":"lnow3p5vwj63dhn","sona":"7567"},{"rt":null,"stimulus":"<div style=\"font-size:60px;\">+</div>","key_press":null,"trial_type":"html-keyboard-response","trial_index":112,"time_elapsed":280951,"internal_node_id":"0.0-8.0-1.26","subject":"lnow3p5vwj63dhn","sona":"7567"},{"trial_type":"turing-test","trial_index":113,"time_elapsed":284472,"internal_node_id":"0.0-8.0-2.26","subject":"lnow3p5vwj63dhn","sona":"7567"},{"rt":553.5150000359863,"stimulus":"<p>Welche Sequenz haben Sie als natürlicher empfunden?</p>","key_press":70,"test_part":"response","test_stimulus":{"position":1,"left":"bvh/vr_prediction_models/model(vcgpdm)-dataset(pass-bottle-hold)-mode(ELBO)-parts(1)-dyn(20)-lvm(5)-hold(0)/final-lines.txt","right":"bvh/pass-bottle-hold-training0-lines.txt","att_check":false},"trial_type":"html-keyboard-response","trial_index":114,"time_elapsed":285037,"internal_node_id":"0.0-8.0-3.26","subject":"lnow3p5vwj63dhn","sona":"7567"},{"rt":272.58999994955957,"stimulus":"<p>Bereit?</p>","key_press":32,"trial_type":"html-keyboard-response","trial_index":115,"time_elapsed":285314,"internal_node_id":"0.0-8.0-0.27","subject":"lnow3p5vwj63dhn","sona":"7567"},{"rt":null,"stimulus":"<div style=\"font-size:60px;\">+</div>","key_press":null,"trial_type":"html-keyboard-response","trial_index":116,"time_elapsed":287338,"internal_node_id":"0.0-8.0-1.27","subject":"lnow3p5vwj63dhn","sona":"7567"},{"trial_type":"turing-test","trial_index":117,"time_elapsed":292776,"internal_node_id":"0.0-8.0-2.27","subject":"lnow3p5vwj63dhn","sona":"7567"},{"rt":339.269999996759,"stimulus":"<p>Welche Sequenz haben Sie als natürlicher empfunden?</p>","key_press":74,"test_part":"response","test_stimulus":{"position":1,"left":"bvh/vr_prediction_models/model(vcgpdm)-dataset(return-bottle-hold)-mode(ELBO)-parts(3)-dyn(35)-lvm(20)-hold(0)/final-lines.txt","right":"bvh/return-bottle-hold-training0-lines.txt","att_check":false},"trial_type":"html-keyboard-response","trial_index":118,"time_elapsed":293126,"internal_node_id":"0.0-8.0-3.27","subject":"lnow3p5vwj63dhn","sona":"7567"},{"rt":286.0149999614805,"stimulus":"<p>Bereit?</p>","key_press":32,"trial_type":"html-keyboard-response","trial_index":119,"time_elapsed":293418,"internal_node_id":"0.0-8.0-0.28","subject":"lnow3p5vwj63dhn","sona":"7567"},{"rt":null,"stimulus":"<div style=\"font-size:60px;\">+</div>","key_press":null,"trial_type":"html-keyboard-response","trial_index":120,"time_elapsed":295438,"internal_node_id":"0.0-8.0-1.28","subject":"lnow3p5vwj63dhn","sona":"7567"},{"trial_type":"turing-test","trial_index":121,"time_elapsed":300831,"internal_node_id":"0.0-8.0-2.28","subject":"lnow3p5vwj63dhn","sona":"7567"},{"rt":645.0699999695644,"stimulus":"<p>Welche Sequenz haben Sie als natürlicher empfunden?</p>","key_press":70,"test_part":"response","test_stimulus":{"position":1,"left":"bvh/vr_prediction_models/model(tmp)-dataset(pass-bottle)-numprim(13)-hold(1)/final-lines.txt","right":"bvh/pass-bottle-training1-lines.txt","att_check":false},"trial_type":"html-keyboard-response","trial_index":122,"time_elapsed":301488,"internal_node_id":"0.0-8.0-3.28","subject":"lnow3p5vwj63dhn","sona":"7567"},{"rt":265.7100000651553,"stimulus":"<p>Bereit?</p>","key_press":32,"trial_type":"html-keyboard-response","trial_index":123,"time_elapsed":301765,"internal_node_id":"0.0-8.0-0.29","subject":"lnow3p5vwj63dhn","sona":"7567"},{"rt":null,"stimulus":"<div style=\"font-size:60px;\">+</div>","key_press":null,"trial_type":"html-keyboard-response","trial_index":124,"time_elapsed":303782,"internal_node_id":"0.0-8.0-1.29","subject":"lnow3p5vwj63dhn","sona":"7567"},{"trial_type":"turing-test","trial_index":125,"time_elapsed":307300,"internal_node_id":"0.0-8.0-2.29","subject":"lnow3p5vwj63dhn","sona":"7567"},{"rt":261.5050000604242,"stimulus":"<p>Welche Sequenz haben Sie als natürlicher empfunden?</p>","key_press":70,"test_part":"response","test_stimulus":{"position":1,"left":"bvh/vr_prediction_models/model(tmp)-dataset(pass-bottle-hold)-numprim(9)-hold(3)/final-lines.txt","right":"bvh/pass-bottle-hold-training3-lines.txt","att_check":false},"trial_type":"html-keyboard-response","trial_index":126,"time_elapsed":307572,"internal_node_id":"0.0-8.0-3.29","subject":"lnow3p5vwj63dhn","sona":"7567"},{"rt":212.09000004455447,"stimulus":"<p>Bereit?</p>","key_press":32,"trial_type":"html-keyboard-response","trial_index":127,"time_elapsed":307788,"internal_node_id":"0.0-8.0-0.30","subject":"lnow3p5vwj63dhn","sona":"7567"},{"rt":null,"stimulus":"<div style=\"font-size:60px;\">+</div>","key_press":null,"trial_type":"html-keyboard-response","trial_index":128,"time_elapsed":309808,"internal_node_id":"0.0-8.0-1.30","subject":"lnow3p5vwj63dhn","sona":"7567"},{"trial_type":"turing-test","trial_index":129,"time_elapsed":315635,"internal_node_id":"0.0-8.0-2.30","subject":"lnow3p5vwj63dhn","sona":"7567"},{"rt":556.3400000100955,"stimulus":"<p>Welche Sequenz haben Sie als natürlicher empfunden?</p>","key_press":70,"test_part":"response","test_stimulus":{"position":0,"left":"bvh/return-bottle-training4-lines.txt","right":"bvh/vr_prediction_models/model(dmp)-dataset(return-bottle)-npsi(50)-hold(4)/final-lines.txt","att_check":false},"trial_type":"html-keyboard-response","trial_index":130,"time_elapsed":316197,"internal_node_id":"0.0-8.0-3.30","subject":"lnow3p5vwj63dhn","sona":"7567"},{"rt":329.1100000496954,"stimulus":"<p>Bereit?</p>","key_press":32,"trial_type":"html-keyboard-response","trial_index":131,"time_elapsed":316530,"internal_node_id":"0.0-8.0-0.31","subject":"lnow3p5vwj63dhn","sona":"7567"},{"rt":null,"stimulus":"<div style=\"font-size:60px;\">+</div>","key_press":null,"trial_type":"html-keyboard-response","trial_index":132,"time_elapsed":318552,"internal_node_id":"0.0-8.0-1.31","subject":"lnow3p5vwj63dhn","sona":"7567"},{"trial_type":"turing-test","trial_index":133,"time_elapsed":324706,"internal_node_id":"0.0-8.0-2.31","subject":"lnow3p5vwj63dhn","sona":"7567"},{"rt":305.4749999428168,"stimulus":"<p>Welche Sequenz haben Sie als natürlicher empfunden?</p>","key_press":70,"test_part":"response","test_stimulus":{"position":0,"left":"bvh/return-bottle-training3-lines.txt","right":"bvh/vr_prediction_models/model(vcgpdm)-dataset(return-bottle)-mode(ELBO)-parts(1)-dyn(10)-lvm(25)-hold(3)/final-lines.txt","att_check":false},"trial_type":"html-keyboard-response","trial_index":134,"time_elapsed":325016,"internal_node_id":"0.0-8.0-3.31","subject":"lnow3p5vwj63dhn","sona":"7567"},{"rt":549.7450000839308,"stimulus":"<p>Bereit?</p>","key_press":32,"trial_type":"html-keyboard-response","trial_index":135,"time_elapsed":325580,"internal_node_id":"0.0-8.0-0.32","subject":"lnow3p5vwj63dhn","sona":"7567"},{"rt":null,"stimulus":"<div style=\"font-size:60px;\">+</div>","key_press":null,"trial_type":"html-keyboard-response","trial_index":136,"time_elapsed":327604,"internal_node_id":"0.0-8.0-1.32","subject":"lnow3p5vwj63dhn","sona":"7567"},{"trial_type":"turing-test","trial_index":137,"time_elapsed":334436,"internal_node_id":"0.0-8.0-2.32","subject":"lnow3p5vwj63dhn","sona":"7567"},{"rt":393.4550000121817,"stimulus":"<p>Welche Sequenz haben Sie als natürlicher empfunden?</p>","key_press":70,"test_part":"response","test_stimulus":{"position":0,"left":"bvh/return-bottle-training2-lines.txt","right":"bvh/vr_prediction_models/model(vcgpdm)-dataset(return-bottle)-mode(ELBO)-parts(3)-dyn(20)-lvm(35)-hold(2)/final-lines.txt","att_check":false},"trial_type":"html-keyboard-response","trial_index":138,"time_elapsed":334847,"internal_node_id":"0.0-8.0-3.32","subject":"lnow3p5vwj63dhn","sona":"7567"},{"rt":567.3550000647083,"stimulus":"<p>Bereit?</p>","key_press":32,"trial_type":"html-keyboard-response","trial_index":139,"time_elapsed":335421,"internal_node_id":"0.0-8.0-0.33","subject":"lnow3p5vwj63dhn","sona":"7567"},{"rt":null,"stimulus":"<div style=\"font-size:60px;\">+</div>","key_press":null,"trial_type":"html-keyboard-response","trial_index":140,"time_elapsed":337444,"internal_node_id":"0.0-8.0-1.33","subject":"lnow3p5vwj63dhn","sona":"7567"},{"trial_type":"turing-test","trial_index":141,"time_elapsed":343087,"internal_node_id":"0.0-8.0-2.33","subject":"lnow3p5vwj63dhn","sona":"7567"},{"rt":920.4700000118464,"stimulus":"<p>Welche Sequenz haben Sie als natürlicher empfunden?</p>","key_press":70,"test_part":"response","test_stimulus":{"position":0,"left":"bvh/pass-bottle-training4-lines.txt","right":"bvh/vr_prediction_models/model(vcgpdm)-dataset(pass-bottle)-mode(ELBO)-parts(3)-dyn(15)-lvm(30)-hold(4)/final-lines.txt","att_check":false},"trial_type":"html-keyboard-response","trial_index":142,"time_elapsed":344014,"internal_node_id":"0.0-8.0-3.33","subject":"lnow3p5vwj63dhn","sona":"7567"},{"rt":249.489999958314,"stimulus":"<p>Bereit?</p>","key_press":32,"trial_type":"html-keyboard-response","trial_index":143,"time_elapsed":344267,"internal_node_id":"0.0-8.0-0.34","subject":"lnow3p5vwj63dhn","sona":"7567"},{"rt":null,"stimulus":"<div style=\"font-size:60px;\">+</div>","key_press":null,"trial_type":"html-keyboard-response","trial_index":144,"time_elapsed":346287,"internal_node_id":"0.0-8.0-1.34","subject":"lnow3p5vwj63dhn","sona":"7567"},{"trial_type":"turing-test","trial_index":145,"time_elapsed":349867,"internal_node_id":"0.0-8.0-2.34","subject":"lnow3p5vwj63dhn","sona":"7567"},{"rt":656.0600000666454,"stimulus":"<p>Welche Sequenz haben Sie als natürlicher empfunden?</p>","key_press":70,"test_part":"response","test_stimulus":{"position":0,"left":"bvh/pass-bottle-hold-training4-lines.txt","right":"bvh/vr_prediction_models/model(tmp)-dataset(pass-bottle-hold)-numprim(11)-hold(4)/final-lines.txt","att_check":false},"trial_type":"html-keyboard-response","trial_index":146,"time_elapsed":350530,"internal_node_id":"0.0-8.0-3.34","subject":"lnow3p5vwj63dhn","sona":"7567"},{"rt":213.5250000283122,"stimulus":"<p>Bereit?</p>","key_press":32,"trial_type":"html-keyboard-response","trial_index":147,"time_elapsed":350747,"internal_node_id":"0.0-8.0-0.35","subject":"lnow3p5vwj63dhn","sona":"7567"},{"rt":null,"stimulus":"<div style=\"font-size:60px;\">+</div>","key_press":null,"trial_type":"html-keyboard-response","trial_index":148,"time_elapsed":352768,"internal_node_id":"0.0-8.0-1.35","subject":"lnow3p5vwj63dhn","sona":"7567"},{"trial_type":"turing-test","trial_index":149,"time_elapsed":359399,"internal_node_id":"0.0-8.0-2.35","subject":"lnow3p5vwj63dhn","sona":"7567"},{"rt":823.1149999191985,"stimulus":"<p>Welche Sequenz haben Sie als natürlicher empfunden?</p>","key_press":74,"test_part":"response","test_stimulus":{"position":1,"left":"bvh/vr_prediction_models/model(tmp)-dataset(pass-bottle)-numprim(4)-hold(0)/final-lines.txt","right":"bvh/pass-bottle-training0-lines.txt","att_check":false},"trial_type":"html-keyboard-response","trial_index":150,"time_elapsed":360227,"internal_node_id":"0.0-8.0-3.35","subject":"lnow3p5vwj63dhn","sona":"7567"},{"rt":311.284999945201,"stimulus":"<p>Bereit?</p>","key_press":32,"trial_type":"html-keyboard-response","trial_index":151,"time_elapsed":360545,"internal_node_id":"0.0-8.0-0.36","subject":"lnow3p5vwj63dhn","sona":"7567"},{"rt":null,"stimulus":"<div style=\"font-size:60px;\">+</div>","key_press":null,"trial_type":"html-keyboard-response","trial_index":152,"time_elapsed":362560,"internal_node_id":"0.0-8.0-1.36","subject":"lnow3p5vwj63dhn","sona":"7567"},{"trial_type":"turing-test","trial_index":153,"time_elapsed":368004,"internal_node_id":"0.0-8.0-2.36","subject":"lnow3p5vwj63dhn","sona":"7567"},{"rt":807.1950000012293,"stimulus":"<p>Welche Sequenz haben Sie als natürlicher empfunden?</p>","key_press":70,"test_part":"response","test_stimulus":{"position":0,"left":"bvh/pass-bottle-training1-lines.txt","right":"bvh/vr_prediction_models/model(tmp)-dataset(pass-bottle)-numprim(3)-hold(1)/final-lines.txt","att_check":false},"trial_type":"html-keyboard-response","trial_index":154,"time_elapsed":368827,"internal_node_id":"0.0-8.0-3.36","subject":"lnow3p5vwj63dhn","sona":"7567"},{"rt":602.5599999120459,"stimulus":"<p>Bereit?</p>","key_press":32,"trial_type":"html-keyboard-response","trial_index":155,"time_elapsed":369439,"internal_node_id":"0.0-8.0-0.37","subject":"lnow3p5vwj63dhn","sona":"7567"},{"rt":null,"stimulus":"<div style=\"font-size:60px;\">+</div>","key_press":null,"trial_type":"html-keyboard-response","trial_index":156,"time_elapsed":371449,"internal_node_id":"0.0-8.0-1.37","subject":"lnow3p5vwj63dhn","sona":"7567"},{"trial_type":"turing-test","trial_index":157,"time_elapsed":377423,"internal_node_id":"0.0-8.0-2.37","subject":"lnow3p5vwj63dhn","sona":"7567"},{"rt":764.6449999883771,"stimulus":"<p>Welche Sequenz haben Sie als natürlicher empfunden?</p>","key_press":70,"test_part":"response","test_stimulus":{"position":0,"left":"bvh/pass-bottle-training3-lines.txt","right":"bvh/vr_prediction_models/model(vcgpdm)-dataset(pass-bottle)-mode(ELBO)-parts(1)-dyn(25)-lvm(35)-hold(3)/final-lines.txt","att_check":false},"trial_type":"html-keyboard-response","trial_index":158,"time_elapsed":378193,"internal_node_id":"0.0-8.0-3.37","subject":"lnow3p5vwj63dhn","sona":"7567"},{"rt":243.71499998960644,"stimulus":"<p>Bereit?</p>","key_press":32,"trial_type":"html-keyboard-response","trial_index":159,"time_elapsed":378446,"internal_node_id":"0.0-8.0-0.38","subject":"lnow3p5vwj63dhn","sona":"7567"},{"rt":null,"stimulus":"<div style=\"font-size:60px;\">+</div>","key_press":null,"trial_type":"html-keyboard-response","trial_index":160,"time_elapsed":380465,"internal_node_id":"0.0-8.0-1.38","subject":"lnow3p5vwj63dhn","sona":"7567"},{"trial_type":"turing-test","trial_index":161,"time_elapsed":383899,"internal_node_id":"0.0-8.0-2.38","subject":"lnow3p5vwj63dhn","sona":"7567"},{"rt":558.8249999564141,"stimulus":"<p>Welche Sequenz haben Sie als natürlicher empfunden?</p>","key_press":70,"test_part":"response","test_stimulus":{"position":0,"left":"bvh/pass-bottle-hold-training1-lines.txt","right":"bvh/vr_prediction_models/model(vcgpdm)-dataset(pass-bottle-hold)-mode(ELBO)-parts(1)-dyn(10)-lvm(30)-hold(1)/final-lines.txt","att_check":false},"trial_type":"html-keyboard-response","trial_index":162,"time_elapsed":384464,"internal_node_id":"0.0-8.0-3.38","subject":"lnow3p5vwj63dhn","sona":"7567"},{"rt":212.00500009581447,"stimulus":"<p>Bereit?</p>","key_press":32,"trial_type":"html-keyboard-response","trial_index":163,"time_elapsed":384680,"internal_node_id":"0.0-8.0-0.39","subject":"lnow3p5vwj63dhn","sona":"7567"},{"rt":null,"stimulus":"<div style=\"font-size:60px;\">+</div>","key_press":null,"trial_type":"html-keyboard-response","trial_index":164,"time_elapsed":386710,"internal_node_id":"0.0-8.0-1.39","subject":"lnow3p5vwj63dhn","sona":"7567"},{"trial_type":"turing-test","trial_index":165,"time_elapsed":390089,"internal_node_id":"0.0-8.0-2.39","subject":"lnow3p5vwj63dhn","sona":"7567"},{"rt":436.40500004403293,"stimulus":"<p>Welche Sequenz haben Sie als natürlicher empfunden?</p>","key_press":74,"test_part":"response","test_stimulus":{"position":1,"left":"bvh/vr_prediction_models/model(tmp)-dataset(pass-bottle-hold)-numprim(4)-hold(2)/final-lines.txt","right":"bvh/pass-bottle-hold-training2-lines.txt","att_check":false},"trial_type":"html-keyboard-response","trial_index":166,"time_elapsed":390539,"internal_node_id":"0.0-8.0-3.39","subject":"lnow3p5vwj63dhn","sona":"7567"},{"rt":316.49000011384487,"stimulus":"<p>Bereit?</p>","key_press":32,"trial_type":"html-keyboard-response","trial_index":167,"time_elapsed":390858,"internal_node_id":"0.0-8.0-0.40","subject":"lnow3p5vwj63dhn","sona":"7567"},{"rt":null,"stimulus":"<div style=\"font-size:60px;\">+</div>","key_press":null,"trial_type":"html-keyboard-response","trial_index":168,"time_elapsed":392878,"internal_node_id":"0.0-8.0-1.40","subject":"lnow3p5vwj63dhn","sona":"7567"},{"trial_type":"turing-test","trial_index":169,"time_elapsed":396425,"internal_node_id":"0.0-8.0-2.40","subject":"lnow3p5vwj63dhn","sona":"7567"},{"rt":511.6700000362471,"stimulus":"<p>Welche Sequenz haben Sie als natürlicher empfunden?</p>","key_press":74,"test_part":"response","test_stimulus":{"position":0,"left":"bvh/pass-bottle-hold-training3-lines.txt","right":"bvh/vr_prediction_models/model(dmp)-dataset(pass-bottle-hold)-npsi(90)-hold(3)/final-lines.txt","att_check":false},"trial_type":"html-keyboard-response","trial_index":170,"time_elapsed":396948,"internal_node_id":"0.0-8.0-3.40","subject":"lnow3p5vwj63dhn","sona":"7567"},{"rt":361.2100000027567,"stimulus":"<p>Bereit?</p>","key_press":32,"trial_type":"html-keyboard-response","trial_index":171,"time_elapsed":397314,"internal_node_id":"0.0-8.0-0.41","subject":"lnow3p5vwj63dhn","sona":"7567"},{"rt":null,"stimulus":"<div style=\"font-size:60px;\">+</div>","key_press":null,"trial_type":"html-keyboard-response","trial_index":172,"time_elapsed":399342,"internal_node_id":"0.0-8.0-1.41","subject":"lnow3p5vwj63dhn","sona":"7567"},{"trial_type":"turing-test","trial_index":173,"time_elapsed":405194,"internal_node_id":"0.0-8.0-2.41","subject":"lnow3p5vwj63dhn","sona":"7567"},{"rt":419.4649999262765,"stimulus":"<p>Welche Sequenz haben Sie als natürlicher empfunden?</p>","key_press":74,"test_part":"response","test_stimulus":{"position":0,"left":"bvh/return-bottle-training4-lines.txt","right":"bvh/vr_prediction_models/model(tmp)-dataset(return-bottle)-numprim(14)-hold(4)/final-lines.txt","att_check":false},"trial_type":"html-keyboard-response","trial_index":174,"time_elapsed":405627,"internal_node_id":"0.0-8.0-3.41","subject":"lnow3p5vwj63dhn","sona":"7567"},{"rt":310.54500001482666,"stimulus":"<p>Bereit?</p>","key_press":32,"trial_type":"html-keyboard-response","trial_index":175,"time_elapsed":405947,"internal_node_id":"0.0-8.0-0.42","subject":"lnow3p5vwj63dhn","sona":"7567"},{"rt":null,"stimulus":"<div style=\"font-size:60px;\">+</div>","key_press":null,"trial_type":"html-keyboard-response","trial_index":176,"time_elapsed":407957,"internal_node_id":"0.0-8.0-1.42","subject":"lnow3p5vwj63dhn","sona":"7567"},{"trial_type":"turing-test","trial_index":177,"time_elapsed":411963,"internal_node_id":"0.0-8.0-2.42","subject":"lnow3p5vwj63dhn","sona":"7567"},{"rt":157.88499999325722,"stimulus":"<p>Welche Sequenz haben Sie als natürlicher empfunden?</p>","key_press":70,"test_part":"response","test_stimulus":{"position":0,"left":"bvh/return-bottle-hold-training3-lines.txt","right":"bvh/vr_prediction_models/model(vcgpdm)-dataset(return-bottle-hold)-mode(MAP)-parts(1)-hold(3)/final-lines.txt","att_check":false},"trial_type":"html-keyboard-response","trial_index":178,"time_elapsed":412130,"internal_node_id":"0.0-8.0-3.42","subject":"lnow3p5vwj63dhn","sona":"7567"},{"rt":347.8099999483675,"stimulus":"<p>Bereit?</p>","key_press":32,"trial_type":"html-keyboard-response","trial_index":179,"time_elapsed":412486,"internal_node_id":"0.0-8.0-0.43","subject":"lnow3p5vwj63dhn","sona":"7567"},{"rt":null,"stimulus":"<div style=\"font-size:60px;\">+</div>","key_press":null,"trial_type":"html-keyboard-response","trial_index":180,"time_elapsed":414511,"internal_node_id":"0.0-8.0-1.43","subject":"lnow3p5vwj63dhn","sona":"7567"},{"trial_type":"turing-test","trial_index":181,"time_elapsed":418299,"internal_node_id":"0.0-8.0-2.43","subject":"lnow3p5vwj63dhn","sona":"7567"},{"rt":523.7150000175461,"stimulus":"<p>Welche Sequenz haben Sie als natürlicher empfunden?</p>","key_press":70,"test_part":"response","test_stimulus":{"position":1,"left":"bvh/vr_prediction_models/model(tmp)-dataset(return-bottle-hold)-numprim(8)-hold(4)/final-lines.txt","right":"bvh/return-bottle-hold-training4-lines.txt","att_check":false},"trial_type":"html-keyboard-response","trial_index":182,"time_elapsed":418842,"internal_node_id":"0.0-8.0-3.43","subject":"lnow3p5vwj63dhn","sona":"7567"},{"rt":229.94999994989485,"stimulus":"<p>Bereit?</p>","key_press":32,"trial_type":"html-keyboard-response","trial_index":183,"time_elapsed":419081,"internal_node_id":"0.0-8.0-0.44","subject":"lnow3p5vwj63dhn","sona":"7567"},{"rt":null,"stimulus":"<div style=\"font-size:60px;\">+</div>","key_press":null,"trial_type":"html-keyboard-response","trial_index":184,"time_elapsed":421097,"internal_node_id":"0.0-8.0-1.44","subject":"lnow3p5vwj63dhn","sona":"7567"},{"trial_type":"turing-test","trial_index":185,"time_elapsed":424677,"internal_node_id":"0.0-8.0-2.44","subject":"lnow3p5vwj63dhn","sona":"7567"},{"rt":449.18499991763383,"stimulus":"<p>Welche Sequenz haben Sie als natürlicher empfunden?</p>","key_press":70,"test_part":"response","test_stimulus":{"position":1,"left":"bvh/vr_prediction_models/model(vcgpdm)-dataset(return-bottle-hold)-mode(ELBO)-parts(3)-dyn(20)-lvm(20)-hold(1)/final-lines.txt","right":"bvh/return-bottle-hold-training1-lines.txt","att_check":false},"trial_type":"html-keyboard-response","trial_index":186,"time_elapsed":425131,"internal_node_id":"0.0-8.0-3.44","subject":"lnow3p5vwj63dhn","sona":"7567"},{"rt":350.36000004038215,"stimulus":"<p>Bereit?</p>","key_press":32,"trial_type":"html-keyboard-response","trial_index":187,"time_elapsed":425487,"internal_node_id":"0.0-8.0-0.45","subject":"lnow3p5vwj63dhn","sona":"7567"},{"rt":null,"stimulus":"<div style=\"font-size:60px;\">+</div>","key_press":null,"trial_type":"html-keyboard-response","trial_index":188,"time_elapsed":427512,"internal_node_id":"0.0-8.0-1.45","subject":"lnow3p5vwj63dhn","sona":"7567"},{"trial_type":"turing-test","trial_index":189,"time_elapsed":431114,"internal_node_id":"0.0-8.0-2.45","subject":"lnow3p5vwj63dhn","sona":"7567"},{"rt":492.5899999216199,"stimulus":"<p>Welche Sequenz haben Sie als natürlicher empfunden?</p>","key_press":74,"test_part":"response","test_stimulus":{"position":1,"left":"bvh/vr_prediction_models/model(vcgpdm)-dataset(pass-bottle-hold)-mode(ELBO)-parts(3)-dyn(35)-lvm(20)-hold(2)/final-lines.txt","right":"bvh/pass-bottle-hold-training2-lines.txt","att_check":false},"trial_type":"html-keyboard-response","trial_index":190,"time_elapsed":431618,"internal_node_id":"0.0-8.0-3.45","subject":"lnow3p5vwj63dhn","sona":"7567"},{"rt":630.0500000361353,"stimulus":"<p>Bereit?</p>","key_press":32,"trial_type":"html-keyboard-response","trial_index":191,"time_elapsed":432252,"internal_node_id":"0.0-8.0-0.46","subject":"lnow3p5vwj63dhn","sona":"7567"},{"rt":null,"stimulus":"<div style=\"font-size:60px;\">+</div>","key_press":null,"trial_type":"html-keyboard-response","trial_index":192,"time_elapsed":434271,"internal_node_id":"0.0-8.0-1.46","subject":"lnow3p5vwj63dhn","sona":"7567"},{"trial_type":"turing-test","trial_index":193,"time_elapsed":441259,"internal_node_id":"0.0-8.0-2.46","subject":"lnow3p5vwj63dhn","sona":"7567"},{"rt":589.1399999381974,"stimulus":"<p>Welche Sequenz haben Sie als natürlicher empfunden?</p>","key_press":70,"test_part":"response","test_stimulus":{"position":1,"left":"bvh/vr_prediction_models/model(vcgpdm)-dataset(pass-bottle)-mode(ELBO)-parts(3)-dyn(15)-lvm(30)-hold(0)/final-lines.txt","right":"bvh/pass-bottle-training0-lines.txt","att_check":false},"trial_type":"html-keyboard-response","trial_index":194,"time_elapsed":441852,"internal_node_id":"0.0-8.0-3.46","subject":"lnow3p5vwj63dhn","sona":"7567"},{"rt":340.5000000493601,"stimulus":"<p>Bereit?</p>","key_press":32,"trial_type":"html-keyboard-response","trial_index":195,"time_elapsed":442196,"internal_node_id":"0.0-8.0-0.47","subject":"lnow3p5vwj63dhn","sona":"7567"},{"rt":null,"stimulus":"<div style=\"font-size:60px;\">+</div>","key_press":null,"trial_type":"html-keyboard-response","trial_index":196,"time_elapsed":444221,"internal_node_id":"0.0-8.0-1.47","subject":"lnow3p5vwj63dhn","sona":"7567"},{"trial_type":"turing-test","trial_index":197,"time_elapsed":449955,"internal_node_id":"0.0-8.0-2.47","subject":"lnow3p5vwj63dhn","sona":"7567"},{"rt":916.4149999851361,"stimulus":"<p>Welche Sequenz haben Sie als natürlicher empfunden?</p>","key_press":74,"test_part":"response","test_stimulus":{"position":0,"left":"bvh/return-bottle-training3-lines.txt","right":"bvh/vr_prediction_models/model(dmp)-dataset(return-bottle)-npsi(50)-hold(3)/final-lines.txt","att_check":false},"trial_type":"html-keyboard-response","trial_index":198,"time_elapsed":450889,"internal_node_id":"0.0-8.0-3.47","subject":"lnow3p5vwj63dhn","sona":"7567"},{"rt":446.9100000569597,"stimulus":"<p>Bereit?</p>","key_press":32,"trial_type":"html-keyboard-response","trial_index":199,"time_elapsed":451341,"internal_node_id":"0.0-8.0-0.48","subject":"lnow3p5vwj63dhn","sona":"7567"},{"rt":null,"stimulus":"<div style=\"font-size:60px;\">+</div>","key_press":null,"trial_type":"html-keyboard-response","trial_index":200,"time_elapsed":453368,"internal_node_id":"0.0-8.0-1.48","subject":"lnow3p5vwj63dhn","sona":"7567"},{"trial_type":"turing-test","trial_index":201,"time_elapsed":457380,"internal_node_id":"0.0-8.0-2.48","subject":"lnow3p5vwj63dhn","sona":"7567"},{"rt":508.02500010468066,"stimulus":"<p>Welche Sequenz haben Sie als natürlicher empfunden?</p>","key_press":70,"test_part":"response","test_stimulus":{"position":1,"left":"bvh/vr_prediction_models/model(vcgpdm)-dataset(return-bottle-hold)-mode(ELBO)-parts(1)-dyn(20)-lvm(30)-hold(3)/final-lines.txt","right":"bvh/return-bottle-hold-training3-lines.txt","att_check":false},"trial_type":"html-keyboard-response","trial_index":202,"time_elapsed":457895,"internal_node_id":"0.0-8.0-3.48","subject":"lnow3p5vwj63dhn","sona":"7567"},{"rt":241.97500001173466,"stimulus":"<p>Bereit?</p>","key_press":32,"trial_type":"html-keyboard-response","trial_index":203,"time_elapsed":458143,"internal_node_id":"0.0-8.0-0.49","subject":"lnow3p5vwj63dhn","sona":"7567"},{"rt":null,"stimulus":"<div style=\"font-size:60px;\">+</div>","key_press":null,"trial_type":"html-keyboard-response","trial_index":204,"time_elapsed":460149,"internal_node_id":"0.0-8.0-1.49","subject":"lnow3p5vwj63dhn","sona":"7567"},{"trial_type":"turing-test","trial_index":205,"time_elapsed":463779,"internal_node_id":"0.0-8.0-2.49","subject":"lnow3p5vwj63dhn","sona":"7567"},{"rt":1073.619999922812,"stimulus":"<p>Welche Sequenz haben Sie als natürlicher empfunden?</p>","key_press":74,"test_part":"response","test_stimulus":{"position":0,"left":"bvh/return-bottle-hold-training3-lines.txt","right":"bvh/vr_prediction_models/model(dmp)-dataset(return-bottle-hold)-npsi(80)-hold(3)/final-lines.txt","att_check":true},"trial_type":"html-keyboard-response","trial_index":206,"time_elapsed":464869,"internal_node_id":"0.0-8.0-3.49","subject":"lnow3p5vwj63dhn","sona":"7567"},{"rt":623.9150000037625,"stimulus":"<p>Bereit?</p>","key_press":32,"trial_type":"html-keyboard-response","trial_index":207,"time_elapsed":465498,"internal_node_id":"0.0-8.0-0.50","subject":"lnow3p5vwj63dhn","sona":"7567"},{"rt":null,"stimulus":"<div style=\"font-size:60px;\">+</div>","key_press":null,"trial_type":"html-keyboard-response","trial_index":208,"time_elapsed":467504,"internal_node_id":"0.0-8.0-1.50","subject":"lnow3p5vwj63dhn","sona":"7567"},{"trial_type":"turing-test","trial_index":209,"time_elapsed":471281,"internal_node_id":"0.0-8.0-2.50","subject":"lnow3p5vwj63dhn","sona":"7567"},{"rt":423.20000007748604,"stimulus":"<p>Welche Sequenz haben Sie als natürlicher empfunden?</p>","key_press":74,"test_part":"response","test_stimulus":{"position":0,"left":"bvh/return-bottle-hold-training3-lines.txt","right":"bvh/vr_prediction_models/model(vcgpdm)-dataset(return-bottle-hold)-mode(ELBO)-parts(1)-dyn(10)-lvm(25)-hold(3)/final-lines.txt","att_check":false},"trial_type":"html-keyboard-response","trial_index":210,"time_elapsed":471717,"internal_node_id":"0.0-8.0-3.50","subject":"lnow3p5vwj63dhn","sona":"7567"},{"rt":302.7649999130517,"stimulus":"<p>Bereit?</p>","key_press":32,"trial_type":"html-keyboard-response","trial_index":211,"time_elapsed":472032,"internal_node_id":"0.0-8.0-0.51","subject":"lnow3p5vwj63dhn","sona":"7567"},{"rt":null,"stimulus":"<div style=\"font-size:60px;\">+</div>","key_press":null,"trial_type":"html-keyboard-response","trial_index":212,"time_elapsed":474050,"internal_node_id":"0.0-8.0-1.51","subject":"lnow3p5vwj63dhn","sona":"7567"},{"trial_type":"turing-test","trial_index":213,"time_elapsed":480304,"internal_node_id":"0.0-8.0-2.51","subject":"lnow3p5vwj63dhn","sona":"7567"},{"rt":539.5250000292435,"stimulus":"<p>Welche Sequenz haben Sie als natürlicher empfunden?</p>","key_press":74,"test_part":"response","test_stimulus":{"position":0,"left":"bvh/pass-bottle-training2-lines.txt","right":"bvh/vr_prediction_models/model(dmp)-dataset(pass-bottle)-npsi(70)-hold(2)/final-lines.txt","att_check":false},"trial_type":"html-keyboard-response","trial_index":214,"time_elapsed":480856,"internal_node_id":"0.0-8.0-3.51","subject":"lnow3p5vwj63dhn","sona":"7567"},{"rt":289.34499993920326,"stimulus":"<p>Bereit?</p>","key_press":32,"trial_type":"html-keyboard-response","trial_index":215,"time_elapsed":481154,"internal_node_id":"0.0-8.0-0.52","subject":"lnow3p5vwj63dhn","sona":"7567"},{"rt":null,"stimulus":"<div style=\"font-size:60px;\">+</div>","key_press":null,"trial_type":"html-keyboard-response","trial_index":216,"time_elapsed":483164,"internal_node_id":"0.0-8.0-1.52","subject":"lnow3p5vwj63dhn","sona":"7567"},{"trial_type":"turing-test","trial_index":217,"time_elapsed":487050,"internal_node_id":"0.0-8.0-2.52","subject":"lnow3p5vwj63dhn","sona":"7567"},{"rt":409.3499999726191,"stimulus":"<p>Welche Sequenz haben Sie als natürlicher empfunden?</p>","key_press":74,"test_part":"response","test_stimulus":{"position":0,"left":"bvh/pass-bottle-hold-training4-lines.txt","right":"bvh/vr_prediction_models/model(vcgpdm)-dataset(pass-bottle-hold)-mode(MAP)-parts(1)-hold(4)/final-lines.txt","att_check":false},"trial_type":"html-keyboard-response","trial_index":218,"time_elapsed":487466,"internal_node_id":"0.0-8.0-3.52","subject":"lnow3p5vwj63dhn","sona":"7567"},{"rt":333.8949999306351,"stimulus":"<p>Bereit?</p>","key_press":32,"trial_type":"html-keyboard-response","trial_index":219,"time_elapsed":487809,"internal_node_id":"0.0-8.0-0.53","subject":"lnow3p5vwj63dhn","sona":"7567"},{"rt":null,"stimulus":"<div style=\"font-size:60px;\">+</div>","key_press":null,"trial_type":"html-keyboard-response","trial_index":220,"time_elapsed":489820,"internal_node_id":"0.0-8.0-1.53","subject":"lnow3p5vwj63dhn","sona":"7567"},{"trial_type":"turing-test","trial_index":221,"time_elapsed":495848,"internal_node_id":"0.0-8.0-2.53","subject":"lnow3p5vwj63dhn","sona":"7567"},{"rt":156.38000005856156,"stimulus":"<p>Welche Sequenz haben Sie als natürlicher empfunden?</p>","key_press":74,"test_part":"response","test_stimulus":{"position":0,"left":"bvh/return-bottle-training4-lines.txt","right":"bvh/vr_prediction_models/model(vcgpdm)-dataset(return-bottle)-mode(MAP)-parts(3)-hold(4)/final-lines.txt","att_check":false},"trial_type":"html-keyboard-response","trial_index":222,"time_elapsed":496013,"internal_node_id":"0.0-8.0-3.53","subject":"lnow3p5vwj63dhn","sona":"7567"},{"rt":2605.8300000149757,"stimulus":"<p>Bereit?</p>","key_press":32,"trial_type":"html-keyboard-response","trial_index":223,"time_elapsed":498630,"internal_node_id":"0.0-8.0-0.54","subject":"lnow3p5vwj63dhn","sona":"7567"},{"rt":null,"stimulus":"<div style=\"font-size:60px;\">+</div>","key_press":null,"trial_type":"html-keyboard-response","trial_index":224,"time_elapsed":500642,"internal_node_id":"0.0-8.0-1.54","subject":"lnow3p5vwj63dhn","sona":"7567"},{"trial_type":"turing-test","trial_index":225,"time_elapsed":504254,"internal_node_id":"0.0-8.0-2.54","subject":"lnow3p5vwj63dhn","sona":"7567"},{"rt":1050.275000045076,"stimulus":"<p>Welche Sequenz haben Sie als natürlicher empfunden?</p>","key_press":70,"test_part":"response","test_stimulus":{"position":1,"left":"bvh/vr_prediction_models/model(tmp)-dataset(return-bottle-hold)-numprim(14)-hold(3)/final-lines.txt","right":"bvh/return-bottle-hold-training3-lines.txt","att_check":false},"trial_type":"html-keyboard-response","trial_index":226,"time_elapsed":505318,"internal_node_id":"0.0-8.0-3.54","subject":"lnow3p5vwj63dhn","sona":"7567"},{"rt":289.699999964796,"stimulus":"<p>Bereit?</p>","key_press":32,"trial_type":"html-keyboard-response","trial_index":227,"time_elapsed":505613,"internal_node_id":"0.0-8.0-0.55","subject":"lnow3p5vwj63dhn","sona":"7567"},{"rt":null,"stimulus":"<div style=\"font-size:60px;\">+</div>","key_press":null,"trial_type":"html-keyboard-response","trial_index":228,"time_elapsed":507646,"internal_node_id":"0.0-8.0-1.55","subject":"lnow3p5vwj63dhn","sona":"7567"},{"trial_type":"turing-test","trial_index":229,"time_elapsed":511059,"internal_node_id":"0.0-8.0-2.55","subject":"lnow3p5vwj63dhn","sona":"7567"},{"rt":745.1349999755621,"stimulus":"<p>Welche Sequenz haben Sie als natürlicher empfunden?</p>","key_press":74,"test_part":"response","test_stimulus":{"position":1,"left":"bvh/vr_prediction_models/model(dmp)-dataset(return-bottle-hold)-npsi(30)-hold(2)/final-lines.txt","right":"bvh/return-bottle-hold-training2-lines.txt","att_check":true},"trial_type":"html-keyboard-response","trial_index":230,"time_elapsed":511809,"internal_node_id":"0.0-8.0-3.55","subject":"lnow3p5vwj63dhn","sona":"7567"},{"rt":277.89500006474555,"stimulus":"<p>Bereit?</p>","key_press":32,"trial_type":"html-keyboard-response","trial_index":231,"time_elapsed":512090,"internal_node_id":"0.0-8.0-0.56","subject":"lnow3p5vwj63dhn","sona":"7567"},{"rt":null,"stimulus":"<div style=\"font-size:60px;\">+</div>","key_press":null,"trial_type":"html-keyboard-response","trial_index":232,"time_elapsed":514114,"internal_node_id":"0.0-8.0-1.56","subject":"lnow3p5vwj63dhn","sona":"7567"},{"trial_type":"turing-test","trial_index":233,"time_elapsed":517945,"internal_node_id":"0.0-8.0-2.56","subject":"lnow3p5vwj63dhn","sona":"7567"},{"rt":518.015000037849,"stimulus":"<p>Welche Sequenz haben Sie als natürlicher empfunden?</p>","key_press":74,"test_part":"response","test_stimulus":{"position":1,"left":"bvh/vr_prediction_models/model(vcgpdm)-dataset(return-bottle-hold)-mode(ELBO)-parts(1)-dyn(15)-lvm(35)-hold(3)/final-lines.txt","right":"bvh/return-bottle-hold-training3-lines.txt","att_check":false},"trial_type":"html-keyboard-response","trial_index":234,"time_elapsed":518476,"internal_node_id":"0.0-8.0-3.56","subject":"lnow3p5vwj63dhn","sona":"7567"},{"rt":349.04500003904104,"stimulus":"<p>Bereit?</p>","key_press":32,"trial_type":"html-keyboard-response","trial_index":235,"time_elapsed":518833,"internal_node_id":"0.0-8.0-0.57","subject":"lnow3p5vwj63dhn","sona":"7567"},{"rt":null,"stimulus":"<div style=\"font-size:60px;\">+</div>","key_press":null,"trial_type":"html-keyboard-response","trial_index":236,"time_elapsed":520854,"internal_node_id":"0.0-8.0-1.57","subject":"lnow3p5vwj63dhn","sona":"7567"},{"trial_type":"turing-test","trial_index":237,"time_elapsed":526480,"internal_node_id":"0.0-8.0-2.57","subject":"lnow3p5vwj63dhn","sona":"7567"},{"rt":339.5449999952689,"stimulus":"<p>Welche Sequenz haben Sie als natürlicher empfunden?</p>","key_press":74,"test_part":"response","test_stimulus":{"position":0,"left":"bvh/pass-bottle-training1-lines.txt","right":"bvh/vr_prediction_models/model(vcgpdm)-dataset(pass-bottle)-mode(ELBO)-parts(3)-dyn(10)-lvm(30)-hold(1)/final-lines.txt","att_check":false},"trial_type":"html-keyboard-response","trial_index":238,"time_elapsed":526830,"internal_node_id":"0.0-8.0-3.57","subject":"lnow3p5vwj63dhn","sona":"7567"},{"rt":331.96500001940876,"stimulus":"<p>Bereit?</p>","key_press":32,"trial_type":"html-keyboard-response","trial_index":239,"time_elapsed":527173,"internal_node_id":"0.0-8.0-0.58","subject":"lnow3p5vwj63dhn","sona":"7567"},{"rt":null,"stimulus":"<div style=\"font-size:60px;\">+</div>","key_press":null,"trial_type":"html-keyboard-response","trial_index":240,"time_elapsed":529192,"internal_node_id":"0.0-8.0-1.58","subject":"lnow3p5vwj63dhn","sona":"7567"},{"trial_type":"turing-test","trial_index":241,"time_elapsed":533020,"internal_node_id":"0.0-8.0-2.58","subject":"lnow3p5vwj63dhn","sona":"7567"},{"rt":522.3799999803305,"stimulus":"<p>Welche Sequenz haben Sie als natürlicher empfunden?</p>","key_press":74,"test_part":"response","test_stimulus":{"position":0,"left":"bvh/pass-bottle-hold-training4-lines.txt","right":"bvh/vr_prediction_models/model(vcgpdm)-dataset(pass-bottle-hold)-mode(ELBO)-parts(3)-dyn(20)-lvm(35)-hold(4)/final-lines.txt","att_check":false},"trial_type":"html-keyboard-response","trial_index":242,"time_elapsed":533550,"internal_node_id":"0.0-8.0-3.58","subject":"lnow3p5vwj63dhn","sona":"7567"},{"rt":339.7249999688938,"stimulus":"<p>Bereit?</p>","key_press":32,"trial_type":"html-keyboard-response","trial_index":243,"time_elapsed":533893,"internal_node_id":"0.0-8.0-0.59","subject":"lnow3p5vwj63dhn","sona":"7567"},{"rt":null,"stimulus":"<div style=\"font-size:60px;\">+</div>","key_press":null,"trial_type":"html-keyboard-response","trial_index":244,"time_elapsed":535911,"internal_node_id":"0.0-8.0-1.59","subject":"lnow3p5vwj63dhn","sona":"7567"},{"trial_type":"turing-test","trial_index":245,"time_elapsed":539455,"internal_node_id":"0.0-8.0-2.59","subject":"lnow3p5vwj63dhn","sona":"7567"},{"rt":426.13999999593943,"stimulus":"<p>Welche Sequenz haben Sie als natürlicher empfunden?</p>","key_press":74,"test_part":"response","test_stimulus":{"position":0,"left":"bvh/pass-bottle-hold-training0-lines.txt","right":"bvh/vr_prediction_models/model(vcgpdm)-dataset(pass-bottle-hold)-mode(ELBO)-parts(3)-dyn(25)-lvm(15)-hold(0)/final-lines.txt","att_check":false},"trial_type":"html-keyboard-response","trial_index":246,"time_elapsed":539888,"internal_node_id":"0.0-8.0-3.59","subject":"lnow3p5vwj63dhn","sona":"7567"},{"rt":329.1399999288842,"stimulus":"<p>Bereit?</p>","key_press":32,"trial_type":"html-keyboard-response","trial_index":247,"time_elapsed":540224,"internal_node_id":"0.0-8.0-0.60","subject":"lnow3p5vwj63dhn","sona":"7567"},{"rt":null,"stimulus":"<div style=\"font-size:60px;\">+</div>","key_press":null,"trial_type":"html-keyboard-response","trial_index":248,"time_elapsed":542235,"internal_node_id":"0.0-8.0-1.60","subject":"lnow3p5vwj63dhn","sona":"7567"},{"trial_type":"turing-test","trial_index":249,"time_elapsed":547880,"internal_node_id":"0.0-8.0-2.60","subject":"lnow3p5vwj63dhn","sona":"7567"},{"rt":667.7050000289455,"stimulus":"<p>Welche Sequenz haben Sie als natürlicher empfunden?</p>","key_press":74,"test_part":"response","test_stimulus":{"position":0,"left":"bvh/return-bottle-training3-lines.txt","right":"bvh/vr_prediction_models/model(dmp)-dataset(return-bottle)-npsi(50)-hold(3)/final-lines.txt","att_check":false},"trial_type":"html-keyboard-response","trial_index":250,"time_elapsed":548555,"internal_node_id":"0.0-8.0-3.60","subject":"lnow3p5vwj63dhn","sona":"7567"},{"rt":472.1849999623373,"stimulus":"<p>Bereit?</p>","key_press":32,"trial_type":"html-keyboard-response","trial_index":251,"time_elapsed":549033,"internal_node_id":"0.0-8.0-0.61","subject":"lnow3p5vwj63dhn","sona":"7567"},{"rt":null,"stimulus":"<div style=\"font-size:60px;\">+</div>","key_press":null,"trial_type":"html-keyboard-response","trial_index":252,"time_elapsed":551045,"internal_node_id":"0.0-8.0-1.61","subject":"lnow3p5vwj63dhn","sona":"7567"},{"trial_type":"turing-test","trial_index":253,"time_elapsed":556434,"internal_node_id":"0.0-8.0-2.61","subject":"lnow3p5vwj63dhn","sona":"7567"},{"rt":481.84999998193234,"stimulus":"<p>Welche Sequenz haben Sie als natürlicher empfunden?</p>","key_press":74,"test_part":"response","test_stimulus":{"position":0,"left":"bvh/return-bottle-training0-lines.txt","right":"bvh/vr_prediction_models/model(dmp)-dataset(return-bottle)-npsi(40)-hold(0)/final-lines.txt","att_check":false},"trial_type":"html-keyboard-response","trial_index":254,"time_elapsed":556934,"internal_node_id":"0.0-8.0-3.61","subject":"lnow3p5vwj63dhn","sona":"7567"},{"rt":400.93500004149973,"stimulus":"<p>Bereit?</p>","key_press":32,"trial_type":"html-keyboard-response","trial_index":255,"time_elapsed":557347,"internal_node_id":"0.0-8.0-0.62","subject":"lnow3p5vwj63dhn","sona":"7567"},{"rt":null,"stimulus":"<div style=\"font-size:60px;\">+</div>","key_press":null,"trial_type":"html-keyboard-response","trial_index":256,"time_elapsed":559372,"internal_node_id":"0.0-8.0-1.62","subject":"lnow3p5vwj63dhn","sona":"7567"},{"trial_type":"turing-test","trial_index":257,"time_elapsed":565106,"internal_node_id":"0.0-8.0-2.62","subject":"lnow3p5vwj63dhn","sona":"7567"},{"rt":643.1500000180677,"stimulus":"<p>Welche Sequenz haben Sie als natürlicher empfunden?</p>","key_press":74,"test_part":"response","test_stimulus":{"position":1,"left":"bvh/vr_prediction_models/model(dmp)-dataset(return-bottle)-npsi(20)-hold(3)/final-lines.txt","right":"bvh/return-bottle-training3-lines.txt","att_check":false},"trial_type":"html-keyboard-response","trial_index":258,"time_elapsed":565771,"internal_node_id":"0.0-8.0-3.62","subject":"lnow3p5vwj63dhn","sona":"7567"},{"rt":336.49499993771315,"stimulus":"<p>Bereit?</p>","key_press":32,"trial_type":"html-keyboard-response","trial_index":259,"time_elapsed":566122,"internal_node_id":"0.0-8.0-0.63","subject":"lnow3p5vwj63dhn","sona":"7567"},{"rt":null,"stimulus":"<div style=\"font-size:60px;\">+</div>","key_press":null,"trial_type":"html-keyboard-response","trial_index":260,"time_elapsed":568141,"internal_node_id":"0.0-8.0-1.63","subject":"lnow3p5vwj63dhn","sona":"7567"},{"trial_type":"turing-test","trial_index":261,"time_elapsed":574118,"internal_node_id":"0.0-8.0-2.63","subject":"lnow3p5vwj63dhn","sona":"7567"},{"rt":343.9699999289587,"stimulus":"<p>Welche Sequenz haben Sie als natürlicher empfunden?</p>","key_press":74,"test_part":"response","test_stimulus":{"position":1,"left":"bvh/vr_prediction_models/model(vcgpdm)-dataset(return-bottle)-mode(ELBO)-parts(1)-dyn(15)-lvm(35)-hold(3)/final-lines.txt","right":"bvh/return-bottle-training3-lines.txt","att_check":false},"trial_type":"html-keyboard-response","trial_index":262,"time_elapsed":574481,"internal_node_id":"0.0-8.0-3.63","subject":"lnow3p5vwj63dhn","sona":"7567"},{"rt":338.2550000678748,"stimulus":"<p>Bereit?</p>","key_press":32,"trial_type":"html-keyboard-response","trial_index":263,"time_elapsed":574827,"internal_node_id":"0.0-8.0-0.64","subject":"lnow3p5vwj63dhn","sona":"7567"},{"rt":null,"stimulus":"<div style=\"font-size:60px;\">+</div>","key_press":null,"trial_type":"html-keyboard-response","trial_index":264,"time_elapsed":576842,"internal_node_id":"0.0-8.0-1.64","subject":"lnow3p5vwj63dhn","sona":"7567"},{"trial_type":"turing-test","trial_index":265,"time_elapsed":582911,"internal_node_id":"0.0-8.0-2.64","subject":"lnow3p5vwj63dhn","sona":"7567"},{"rt":691.2200000369921,"stimulus":"<p>Welche Sequenz haben Sie als natürlicher empfunden?</p>","key_press":74,"test_part":"response","test_stimulus":{"position":0,"left":"bvh/return-bottle-training1-lines.txt","right":"bvh/vr_prediction_models/model(tmp)-dataset(return-bottle)-numprim(12)-hold(1)/final-lines.txt","att_check":false},"trial_type":"html-keyboard-response","trial_index":266,"time_elapsed":583631,"internal_node_id":"0.0-8.0-3.64","subject":"lnow3p5vwj63dhn","sona":"7567"},{"rt":304.1499999817461,"stimulus":"<p>Bereit?</p>","key_press":32,"trial_type":"html-keyboard-response","trial_index":267,"time_elapsed":583939,"internal_node_id":"0.0-8.0-0.65","subject":"lnow3p5vwj63dhn","sona":"7567"},{"rt":null,"stimulus":"<div style=\"font-size:60px;\">+</div>","key_press":null,"trial_type":"html-keyboard-response","trial_index":268,"time_elapsed":585968,"internal_node_id":"0.0-8.0-1.65","subject":"lnow3p5vwj63dhn","sona":"7567"},{"trial_type":"turing-test","trial_index":269,"time_elapsed":592261,"internal_node_id":"0.0-8.0-2.65","subject":"lnow3p5vwj63dhn","sona":"7567"},{"rt":419.93500001262873,"stimulus":"<p>Welche Sequenz haben Sie als natürlicher empfunden?</p>","key_press":74,"test_part":"response","test_stimulus":{"position":1,"left":"bvh/vr_prediction_models/model(vcgpdm)-dataset(pass-bottle)-mode(MAP)-parts(3)-hold(2)/final-lines.txt","right":"bvh/pass-bottle-training2-lines.txt","att_check":false},"trial_type":"html-keyboard-response","trial_index":270,"time_elapsed":592687,"internal_node_id":"0.0-8.0-3.65","subject":"lnow3p5vwj63dhn","sona":"7567"},{"rt":336.5800000028685,"stimulus":"<p>Bereit?</p>","key_press":32,"trial_type":"html-keyboard-response","trial_index":271,"time_elapsed":593028,"internal_node_id":"0.0-8.0-0.66","subject":"lnow3p5vwj63dhn","sona":"7567"},{"rt":null,"stimulus":"<div style=\"font-size:60px;\">+</div>","key_press":null,"trial_type":"html-keyboard-response","trial_index":272,"time_elapsed":595047,"internal_node_id":"0.0-8.0-1.66","subject":"lnow3p5vwj63dhn","sona":"7567"},{"trial_type":"turing-test","trial_index":273,"time_elapsed":598788,"internal_node_id":"0.0-8.0-2.66","subject":"lnow3p5vwj63dhn","sona":"7567"},{"rt":651.1050000553951,"stimulus":"<p>Welche Sequenz haben Sie als natürlicher empfunden?</p>","key_press":74,"test_part":"response","test_stimulus":{"position":0,"left":"bvh/return-bottle-hold-training4-lines.txt","right":"bvh/vr_prediction_models/model(dmp)-dataset(return-bottle-hold)-npsi(10)-hold(4)/final-lines.txt","att_check":false},"trial_type":"html-keyboard-response","trial_index":274,"time_elapsed":599453,"internal_node_id":"0.0-8.0-3.66","subject":"lnow3p5vwj63dhn","sona":"7567"},{"rt":275.70999995805323,"stimulus":"<p>Bereit?</p>","key_press":32,"trial_type":"html-keyboard-response","trial_index":275,"time_elapsed":599733,"internal_node_id":"0.0-8.0-0.67","subject":"lnow3p5vwj63dhn","sona":"7567"},{"rt":null,"stimulus":"<div style=\"font-size:60px;\">+</div>","key_press":null,"trial_type":"html-keyboard-response","trial_index":276,"time_elapsed":601750,"internal_node_id":"0.0-8.0-1.67","subject":"lnow3p5vwj63dhn","sona":"7567"},{"trial_type":"turing-test","trial_index":277,"time_elapsed":608344,"internal_node_id":"0.0-8.0-2.67","subject":"lnow3p5vwj63dhn","sona":"7567"},{"rt":882.9799999948591,"stimulus":"<p>Welche Sequenz haben Sie als natürlicher empfunden?</p>","key_press":74,"test_part":"response","test_stimulus":{"position":0,"left":"bvh/return-bottle-training2-lines.txt","right":"bvh/vr_prediction_models/model(dmp)-dataset(return-bottle)-npsi(100)-hold(2)/final-lines.txt","att_check":false},"trial_type":"html-keyboard-response","trial_index":278,"time_elapsed":609242,"internal_node_id":"0.0-8.0-3.67","subject":"lnow3p5vwj63dhn","sona":"7567"},{"rt":289.60499993991107,"stimulus":"<p>Bereit?</p>","key_press":32,"trial_type":"html-keyboard-response","trial_index":279,"time_elapsed":609538,"internal_node_id":"0.0-8.0-0.68","subject":"lnow3p5vwj63dhn","sona":"7567"},{"rt":null,"stimulus":"<div style=\"font-size:60px;\">+</div>","key_press":null,"trial_type":"html-keyboard-response","trial_index":280,"time_elapsed":611563,"internal_node_id":"0.0-8.0-1.68","subject":"lnow3p5vwj63dhn","sona":"7567"},{"trial_type":"turing-test","trial_index":281,"time_elapsed":614993,"internal_node_id":"0.0-8.0-2.68","subject":"lnow3p5vwj63dhn","sona":"7567"},{"rt":312.30499991215765,"stimulus":"<p>Welche Sequenz haben Sie als natürlicher empfunden?</p>","key_press":74,"test_part":"response","test_stimulus":{"position":1,"left":"bvh/vr_prediction_models/model(vcgpdm)-dataset(pass-bottle-hold)-mode(ELBO)-parts(1)-dyn(35)-lvm(30)-hold(1)/final-lines.txt","right":"bvh/pass-bottle-hold-training1-lines.txt","att_check":false},"trial_type":"html-keyboard-response","trial_index":282,"time_elapsed":615320,"internal_node_id":"0.0-8.0-3.68","subject":"lnow3p5vwj63dhn","sona":"7567"},{"rt":374.7399999992922,"stimulus":"<p>Bereit?</p>","key_press":32,"trial_type":"html-keyboard-response","trial_index":283,"time_elapsed":615703,"internal_node_id":"0.0-8.0-0.69","subject":"lnow3p5vwj63dhn","sona":"7567"},{"rt":null,"stimulus":"<div style=\"font-size:60px;\">+</div>","key_press":null,"trial_type":"html-keyboard-response","trial_index":284,"time_elapsed":617727,"internal_node_id":"0.0-8.0-1.69","subject":"lnow3p5vwj63dhn","sona":"7567"},{"trial_type":"turing-test","trial_index":285,"time_elapsed":624892,"internal_node_id":"0.0-8.0-2.69","subject":"lnow3p5vwj63dhn","sona":"7567"},{"rt":225.8250000886619,"stimulus":"<p>Welche Sequenz haben Sie als natürlicher empfunden?</p>","key_press":74,"test_part":"response","test_stimulus":{"position":0,"left":"bvh/pass-bottle-training0-lines.txt","right":"bvh/vr_prediction_models/model(vcgpdm)-dataset(pass-bottle)-mode(ELBO)-parts(3)-dyn(20)-lvm(20)-hold(0)/final-lines.txt","att_check":false},"trial_type":"html-keyboard-response","trial_index":286,"time_elapsed":625123,"internal_node_id":"0.0-8.0-3.69","subject":"lnow3p5vwj63dhn","sona":"7567"},{"rt":330.0400000298396,"stimulus":"<p>Bereit?</p>","key_press":32,"trial_type":"html-keyboard-response","trial_index":287,"time_elapsed":625463,"internal_node_id":"0.0-8.0-0.70","subject":"lnow3p5vwj63dhn","sona":"7567"},{"rt":null,"stimulus":"<div style=\"font-size:60px;\">+</div>","key_press":null,"trial_type":"html-keyboard-response","trial_index":288,"time_elapsed":627479,"internal_node_id":"0.0-8.0-1.70","subject":"lnow3p5vwj63dhn","sona":"7567"},{"trial_type":"turing-test","trial_index":289,"time_elapsed":633013,"internal_node_id":"0.0-8.0-2.70","subject":"lnow3p5vwj63dhn","sona":"7567"},{"rt":566.0550000611693,"stimulus":"<p>Welche Sequenz haben Sie als natürlicher empfunden?</p>","key_press":74,"test_part":"response","test_stimulus":{"position":1,"left":"bvh/vr_prediction_models/model(tmp)-dataset(pass-bottle)-numprim(14)-hold(1)/final-lines.txt","right":"bvh/pass-bottle-training1-lines.txt","att_check":false},"trial_type":"html-keyboard-response","trial_index":290,"time_elapsed":633584,"internal_node_id":"0.0-8.0-3.70","subject":"lnow3p5vwj63dhn","sona":"7567"},{"rt":263.5650000302121,"stimulus":"<p>Bereit?</p>","key_press":32,"trial_type":"html-keyboard-response","trial_index":291,"time_elapsed":633854,"internal_node_id":"0.0-8.0-0.71","subject":"lnow3p5vwj63dhn","sona":"7567"},{"rt":null,"stimulus":"<div style=\"font-size:60px;\">+</div>","key_press":null,"trial_type":"html-keyboard-response","trial_index":292,"time_elapsed":635865,"internal_node_id":"0.0-8.0-1.71","subject":"lnow3p5vwj63dhn","sona":"7567"},{"trial_type":"turing-test","trial_index":293,"time_elapsed":642771,"internal_node_id":"0.0-8.0-2.71","subject":"lnow3p5vwj63dhn","sona":"7567"},{"rt":692.4299999373034,"stimulus":"<p>Welche Sequenz haben Sie als natürlicher empfunden?</p>","key_press":74,"test_part":"response","test_stimulus":{"position":1,"left":"bvh/vr_prediction_models/model(vcgpdm)-dataset(pass-bottle)-mode(ELBO)-parts(3)-dyn(25)-lvm(30)-hold(0)/final-lines.txt","right":"bvh/pass-bottle-training0-lines.txt","att_check":false},"trial_type":"html-keyboard-response","trial_index":294,"time_elapsed":643472,"internal_node_id":"0.0-8.0-3.71","subject":"lnow3p5vwj63dhn","sona":"7567"},{"rt":291.75500001292676,"stimulus":"<p>Bereit?</p>","key_press":32,"trial_type":"html-keyboard-response","trial_index":295,"time_elapsed":643772,"internal_node_id":"0.0-8.0-0.72","subject":"lnow3p5vwj63dhn","sona":"7567"},{"rt":null,"stimulus":"<div style=\"font-size:60px;\">+</div>","key_press":null,"trial_type":"html-keyboard-response","trial_index":296,"time_elapsed":645791,"internal_node_id":"0.0-8.0-1.72","subject":"lnow3p5vwj63dhn","sona":"7567"},{"trial_type":"turing-test","trial_index":297,"time_elapsed":649167,"internal_node_id":"0.0-8.0-2.72","subject":"lnow3p5vwj63dhn","sona":"7567"},{"rt":1975.9449999546632,"stimulus":"<p>Welche Sequenz haben Sie als natürlicher empfunden?</p>","key_press":70,"test_part":"response","test_stimulus":{"position":1,"left":"bvh/vr_prediction_models/model(tmp)-dataset(return-bottle-hold)-numprim(11)-hold(1)/final-lines.txt","right":"bvh/return-bottle-hold-training1-lines.txt","att_check":false},"trial_type":"html-keyboard-response","trial_index":298,"time_elapsed":651164,"internal_node_id":"0.0-8.0-3.72","subject":"lnow3p5vwj63dhn","sona":"7567"},{"rt":272.3750000586733,"stimulus":"<p>Bereit?</p>","key_press":32,"trial_type":"html-keyboard-response","trial_index":299,"time_elapsed":651448,"internal_node_id":"0.0-8.0-0.73","subject":"lnow3p5vwj63dhn","sona":"7567"},{"rt":null,"stimulus":"<div style=\"font-size:60px;\">+</div>","key_press":null,"trial_type":"html-keyboard-response","trial_index":300,"time_elapsed":653471,"internal_node_id":"0.0-8.0-1.73","subject":"lnow3p5vwj63dhn","sona":"7567"},{"trial_type":"turing-test","trial_index":301,"time_elapsed":659852,"internal_node_id":"0.0-8.0-2.73","subject":"lnow3p5vwj63dhn","sona":"7567"},{"rt":2187.14000005275,"stimulus":"<p>Welche Sequenz haben Sie als natürlicher empfunden?</p>","key_press":74,"test_part":"response","test_stimulus":{"position":1,"left":"bvh/vr_prediction_models/model(vcgpdm)-dataset(pass-bottle-hold)-mode(MAP)-parts(1)-hold(2)/final-lines.txt","right":"bvh/pass-bottle-hold-training2-lines.txt","att_check":false},"trial_type":"html-keyboard-response","trial_index":302,"time_elapsed":662050,"internal_node_id":"0.0-8.0-3.73","subject":"lnow3p5vwj63dhn","sona":"7567"},{"rt":352.14499989524484,"stimulus":"<p>Bereit?</p>","key_press":32,"trial_type":"html-keyboard-response","trial_index":303,"time_elapsed":662409,"internal_node_id":"0.0-8.0-0.74","subject":"lnow3p5vwj63dhn","sona":"7567"},{"rt":null,"stimulus":"<div style=\"font-size:60px;\">+</div>","key_press":null,"trial_type":"html-keyboard-response","trial_index":304,"time_elapsed":664434,"internal_node_id":"0.0-8.0-1.74","subject":"lnow3p5vwj63dhn","sona":"7567"},{"trial_type":"turing-test","trial_index":305,"time_elapsed":670881,"internal_node_id":"0.0-8.0-2.74","subject":"lnow3p5vwj63dhn","sona":"7567"},{"rt":752.6150000048801,"stimulus":"<p>Welche Sequenz haben Sie als natürlicher empfunden?</p>","key_press":70,"test_part":"response","test_stimulus":{"position":1,"left":"bvh/vr_prediction_models/model(dmp)-dataset(return-bottle-hold)-npsi(50)-hold(0)/final-lines.txt","right":"bvh/return-bottle-hold-training0-lines.txt","att_check":false},"trial_type":"html-keyboard-response","trial_index":306,"time_elapsed":671646,"internal_node_id":"0.0-8.0-3.74","subject":"lnow3p5vwj63dhn","sona":"7567"},{"rt":361.36500001884997,"stimulus":"<p>Bereit?</p>","key_press":32,"trial_type":"html-keyboard-response","trial_index":307,"time_elapsed":672014,"internal_node_id":"0.0-8.0-0.75","subject":"lnow3p5vwj63dhn","sona":"7567"},{"rt":null,"stimulus":"<div style=\"font-size:60px;\">+</div>","key_press":null,"trial_type":"html-keyboard-response","trial_index":308,"time_elapsed":674047,"internal_node_id":"0.0-8.0-1.75","subject":"lnow3p5vwj63dhn","sona":"7567"},{"trial_type":"turing-test","trial_index":309,"time_elapsed":679770,"internal_node_id":"0.0-8.0-2.75","subject":"lnow3p5vwj63dhn","sona":"7567"},{"rt":856.1399999307469,"stimulus":"<p>Welche Sequenz haben Sie als natürlicher empfunden?</p>","key_press":70,"test_part":"response","test_stimulus":{"position":0,"left":"bvh/return-bottle-training3-lines.txt","right":"bvh/vr_prediction_models/model(tmp)-dataset(return-bottle)-numprim(8)-hold(3)/final-lines.txt","att_check":false},"trial_type":"html-keyboard-response","trial_index":310,"time_elapsed":680644,"internal_node_id":"0.0-8.0-3.75","subject":"lnow3p5vwj63dhn","sona":"7567"},{"rt":266.48499991279095,"stimulus":"<p>Bereit?</p>","key_press":32,"trial_type":"html-keyboard-response","trial_index":311,"time_elapsed":680917,"internal_node_id":"0.0-8.0-0.76","subject":"lnow3p5vwj63dhn","sona":"7567"},{"rt":null,"stimulus":"<div style=\"font-size:60px;\">+</div>","key_press":null,"trial_type":"html-keyboard-response","trial_index":312,"time_elapsed":682926,"internal_node_id":"0.0-8.0-1.76","subject":"lnow3p5vwj63dhn","sona":"7567"},{"trial_type":"turing-test","trial_index":313,"time_elapsed":688703,"internal_node_id":"0.0-8.0-2.76","subject":"lnow3p5vwj63dhn","sona":"7567"},{"rt":420.4199999803677,"stimulus":"<p>Welche Sequenz haben Sie als natürlicher empfunden?</p>","key_press":70,"test_part":"response","test_stimulus":{"position":0,"left":"bvh/return-bottle-training3-lines.txt","right":"bvh/vr_prediction_models/model(tmp)-dataset(return-bottle)-numprim(6)-hold(3)/final-lines.txt","att_check":false},"trial_type":"html-keyboard-response","trial_index":314,"time_elapsed":689132,"internal_node_id":"0.0-8.0-3.76","subject":"lnow3p5vwj63dhn","sona":"7567"},{"rt":250.89499994646758,"stimulus":"<p>Bereit?</p>","key_press":32,"trial_type":"html-keyboard-response","trial_index":315,"time_elapsed":689400,"internal_node_id":"0.0-8.0-0.77","subject":"lnow3p5vwj63dhn","sona":"7567"},{"rt":null,"stimulus":"<div style=\"font-size:60px;\">+</div>","key_press":null,"trial_type":"html-keyboard-response","trial_index":316,"time_elapsed":691412,"internal_node_id":"0.0-8.0-1.77","subject":"lnow3p5vwj63dhn","sona":"7567"},{"trial_type":"turing-test","trial_index":317,"time_elapsed":698158,"internal_node_id":"0.0-8.0-2.77","subject":"lnow3p5vwj63dhn","sona":"7567"},{"rt":857.8650000272319,"stimulus":"<p>Welche Sequenz haben Sie als natürlicher empfunden?</p>","key_press":74,"test_part":"response","test_stimulus":{"position":0,"left":"bvh/return-bottle-training2-lines.txt","right":"bvh/vr_prediction_models/model(vcgpdm)-dataset(return-bottle)-mode(ELBO)-parts(3)-dyn(10)-lvm(25)-hold(2)/final-lines.txt","att_check":false},"trial_type":"html-keyboard-response","trial_index":318,"time_elapsed":699031,"internal_node_id":"0.0-8.0-3.77","subject":"lnow3p5vwj63dhn","sona":"7567"},{"rt":272.9350000154227,"stimulus":"<p>Bereit?</p>","key_press":32,"trial_type":"html-keyboard-response","trial_index":319,"time_elapsed":699311,"internal_node_id":"0.0-8.0-0.78","subject":"lnow3p5vwj63dhn","sona":"7567"},{"rt":null,"stimulus":"<div style=\"font-size:60px;\">+</div>","key_press":null,"trial_type":"html-keyboard-response","trial_index":320,"time_elapsed":701323,"internal_node_id":"0.0-8.0-1.78","subject":"lnow3p5vwj63dhn","sona":"7567"},{"trial_type":"turing-test","trial_index":321,"time_elapsed":704954,"internal_node_id":"0.0-8.0-2.78","subject":"lnow3p5vwj63dhn","sona":"7567"},{"rt":669.6250000968575,"stimulus":"<p>Welche Sequenz haben Sie als natürlicher empfunden?</p>","key_press":70,"test_part":"response","test_stimulus":{"position":1,"left":"bvh/vr_prediction_models/model(vcgpdm)-dataset(pass-bottle-hold)-mode(ELBO)-parts(1)-dyn(20)-lvm(30)-hold(2)/final-lines.txt","right":"bvh/pass-bottle-hold-training2-lines.txt","att_check":false},"trial_type":"html-keyboard-response","trial_index":322,"time_elapsed":705628,"internal_node_id":"0.0-8.0-3.78","subject":"lnow3p5vwj63dhn","sona":"7567"},{"rt":241.39499990269542,"stimulus":"<p>Bereit?</p>","key_press":32,"trial_type":"html-keyboard-response","trial_index":323,"time_elapsed":705877,"internal_node_id":"0.0-8.0-0.79","subject":"lnow3p5vwj63dhn","sona":"7567"},{"rt":null,"stimulus":"<div style=\"font-size:60px;\">+</div>","key_press":null,"trial_type":"html-keyboard-response","trial_index":324,"time_elapsed":707895,"internal_node_id":"0.0-8.0-1.79","subject":"lnow3p5vwj63dhn","sona":"7567"},{"trial_type":"turing-test","trial_index":325,"time_elapsed":714154,"internal_node_id":"0.0-8.0-2.79","subject":"lnow3p5vwj63dhn","sona":"7567"},{"rt":2057.3050000239164,"stimulus":"<p>Welche Sequenz haben Sie als natürlicher empfunden?</p>","key_press":74,"test_part":"response","test_stimulus":{"position":1,"left":"bvh/vr_prediction_models/model(vcgpdm)-dataset(return-bottle)-mode(ELBO)-parts(1)-dyn(25)-lvm(35)-hold(1)/final-lines.txt","right":"bvh/return-bottle-training1-lines.txt","att_check":false},"trial_type":"html-keyboard-response","trial_index":326,"time_elapsed":716219,"internal_node_id":"0.0-8.0-3.79","subject":"lnow3p5vwj63dhn","sona":"7567"},{"rt":9453.925000037998,"responses":"{\"age\":\" 24\",\"gender\":\"w\"}","trial_type":"survey-text","trial_index":327,"time_elapsed":725684,"internal_node_id":"0.0-10.0-0.0","subject":"lnow3p5vwj63dhn","sona":"7567"},{"rt":104490.13000004925,"responses":"{\"area\":\"Schulter, Knie , Handbewegung\",\"Q1\":\"an Handbewegung\",\"Q2\":\"handbewegung wie ein Roboter\"}","trial_type":"survey-text","trial_index":328,"time_elapsed":830517,"internal_node_id":"0.0-10.0-1.0","subject":"lnow3p5vwj63dhn","sona":"7567"}]