[{"rt":1253983,"stimulus":"<p>Welcome!<br> Please choose your language to start the experiment in the chosen language.</p><p>Willkommen!<br> Bitte wählen Sie eine Sprache, um das Experiment in der ausgewählten Sprache zu starten</p>","button_pressed":"1","trial_type":"html-button-response","trial_index":0,"time_elapsed":1254014,"internal_node_id":"0.0-0.0","subject":"g73pwga69dg6mux","sona":"9613"},{"view_history":"[{\"page_index\":0,\"viewing_time\":1269},{\"page_index\":1,\"viewing_time\":1470},{\"page_index\":2,\"viewing_time\":1002},{\"page_index\":3,\"viewing_time\":2280},{\"page_index\":4,\"viewing_time\":1875}]","rt":7898,"trial_type":"instructions","trial_index":1,"time_elapsed":1261921,"internal_node_id":"0.0-1.0-0.0","subject":"g73pwga69dg6mux","sona":"9613"},{"rt":754,"stimulus":"<p>Bereit?</p>","key_press":32,"trial_type":"html-keyboard-response","trial_index":2,"time_elapsed":1262681,"internal_node_id":"0.0-3.0","subject":"g73pwga69dg6mux","sona":"9613"},{"rt":null,"stimulus":"<div style=\"font-size:60px;\">+</div>","key_press":null,"trial_type":"html-keyboard-response","trial_index":3,"time_elapsed":1264685,"internal_node_id":"0.0-4.0","subject":"g73pwga69dg6mux","sona":"9613"},{"trial_type":"training","trial_index":4,"time_elapsed":1268135,"internal_node_id":"0.0-5.0","subject":"g73pwga69dg6mux","sona":"9613"},{"rt":329,"stimulus":"<p>Welche Sequenz haben Sie als natürlicher empfunden?</p>","key_press":74,"trial_type":"html-keyboard-response","trial_index":5,"time_elapsed":1268471,"internal_node_id":"0.0-6.0","subject":"g73pwga69dg6mux","sona":"9613"},{"rt":3102,"stimulus":"<p>Das Experiment startet nun.</p><p><small>Bitte drücken Sie den Knopf, wenn Sie bereit sind.</small></p>","button_pressed":"0","trial_type":"html-button-response","trial_index":6,"time_elapsed":1271577,"internal_node_id":"0.0-7.0","subject":"g73pwga69dg6mux","sona":"9613"},{"rt":2261,"stimulus":"<p>Bereit?</p>","key_press":32,"trial_type":"html-keyboard-response","trial_index":7,"time_elapsed":1273846,"internal_node_id":"0.0-8.0-0.0","subject":"g73pwga69dg6mux","sona":"9613"},{"rt":null,"stimulus":"<div style=\"font-size:60px;\">+</div>","key_press":null,"trial_type":"html-keyboard-response","trial_index":8,"time_elapsed":1275851,"internal_node_id":"0.0-8.0-1.0","subject":"g73pwga69dg6mux","sona":"9613"},{"trial_type":"turing-test","trial_index":9,"time_elapsed":1281762,"internal_node_id":"0.0-8.0-2.0","subject":"g73pwga69dg6mux","sona":"9613"},{"rt":966,"stimulus":"<p>Welche Sequenz haben Sie als natürlicher empfunden?</p>","key_press":74,"test_part":"response","test_stimulus":{"position":1,"left":"bvh/vr_prediction_models/model(tmp)-dataset(return-bottle)-numprim(11)-hold(3)/final-lines.txt","right":"bvh/return-bottle-training3-lines.txt","att_check":false},"trial_type":"html-keyboard-response","trial_index":10,"time_elapsed":1282735,"internal_node_id":"0.0-8.0-3.0","subject":"g73pwga69dg6mux","sona":"9613"},{"rt":210,"stimulus":"<p>Bereit?</p>","key_press":32,"trial_type":"html-keyboard-response","trial_index":11,"time_elapsed":1282950,"internal_node_id":"0.0-8.0-0.1","subject":"g73pwga69dg6mux","sona":"9613"},{"rt":null,"stimulus":"<div style=\"font-size:60px;\">+</div>","key_press":null,"trial_type":"html-keyboard-response","trial_index":12,"time_elapsed":1284953,"internal_node_id":"0.0-8.0-1.1","subject":"g73pwga69dg6mux","sona":"9613"},{"trial_type":"turing-test","trial_index":13,"time_elapsed":1288634,"internal_node_id":"0.0-8.0-2.1","subject":"g73pwga69dg6mux","sona":"9613"},{"rt":1590,"stimulus":"<p>Welche Sequenz haben Sie als natürlicher empfunden?</p>","key_press":70,"test_part":"response","test_stimulus":{"position":1,"left":"bvh/vr_prediction_models/model(vcgpdm)-dataset(pass-bottle-hold)-mode(ELBO)-parts(3)-dyn(25)-lvm(30)-hold(0)/final-lines.txt","right":"bvh/pass-bottle-hold-training0-lines.txt","att_check":false},"trial_type":"html-keyboard-response","trial_index":14,"time_elapsed":1290231,"internal_node_id":"0.0-8.0-3.1","subject":"g73pwga69dg6mux","sona":"9613"},{"rt":211,"stimulus":"<p>Bereit?</p>","key_press":32,"trial_type":"html-keyboard-response","trial_index":15,"time_elapsed":1290446,"internal_node_id":"0.0-8.0-0.2","subject":"g73pwga69dg6mux","sona":"9613"},{"rt":null,"stimulus":"<div style=\"font-size:60px;\">+</div>","key_press":null,"trial_type":"html-keyboard-response","trial_index":16,"time_elapsed":1292448,"internal_node_id":"0.0-8.0-1.2","subject":"g73pwga69dg6mux","sona":"9613"},{"trial_type":"turing-test","trial_index":17,"time_elapsed":1296437,"internal_node_id":"0.0-8.0-2.2","subject":"g73pwga69dg6mux","sona":"9613"},{"rt":1145,"stimulus":"<p>Welche Sequenz haben Sie als natürlicher empfunden?</p>","key_press":70,"test_part":"response","test_stimulus":{"position":1,"left":"bvh/vr_prediction_models/model(vcgpdm)-dataset(pass-bottle-hold)-mode(ELBO)-parts(1)-dyn(30)-lvm(35)-hold(4)/final-lines.txt","right":"bvh/pass-bottle-hold-training4-lines.txt","att_check":false},"trial_type":"html-keyboard-response","trial_index":18,"time_elapsed":1297589,"internal_node_id":"0.0-8.0-3.2","subject":"g73pwga69dg6mux","sona":"9613"},{"rt":206,"stimulus":"<p>Bereit?</p>","key_press":32,"trial_type":"html-keyboard-response","trial_index":19,"time_elapsed":1297798,"internal_node_id":"0.0-8.0-0.3","subject":"g73pwga69dg6mux","sona":"9613"},{"rt":null,"stimulus":"<div style=\"font-size:60px;\">+</div>","key_press":null,"trial_type":"html-keyboard-response","trial_index":20,"time_elapsed":1299800,"internal_node_id":"0.0-8.0-1.3","subject":"g73pwga69dg6mux","sona":"9613"},{"trial_type":"turing-test","trial_index":21,"time_elapsed":1303805,"internal_node_id":"0.0-8.0-2.3","subject":"g73pwga69dg6mux","sona":"9613"},{"rt":824,"stimulus":"<p>Welche Sequenz haben Sie als natürlicher empfunden?</p>","key_press":74,"test_part":"response","test_stimulus":{"position":1,"left":"bvh/vr_prediction_models/model(vcgpdm)-dataset(return-bottle-hold)-mode(ELBO)-parts(3)-dyn(35)-lvm(20)-hold(4)/final-lines.txt","right":"bvh/return-bottle-hold-training4-lines.txt","att_check":false},"trial_type":"html-keyboard-response","trial_index":22,"time_elapsed":1304638,"internal_node_id":"0.0-8.0-3.3","subject":"g73pwga69dg6mux","sona":"9613"},{"rt":298,"stimulus":"<p>Bereit?</p>","key_press":32,"trial_type":"html-keyboard-response","trial_index":23,"time_elapsed":1304940,"internal_node_id":"0.0-8.0-0.4","subject":"g73pwga69dg6mux","sona":"9613"},{"rt":null,"stimulus":"<div style=\"font-size:60px;\">+</div>","key_press":null,"trial_type":"html-keyboard-response","trial_index":24,"time_elapsed":1306942,"internal_node_id":"0.0-8.0-1.4","subject":"g73pwga69dg6mux","sona":"9613"},{"trial_type":"turing-test","trial_index":25,"time_elapsed":1310631,"internal_node_id":"0.0-8.0-2.4","subject":"g73pwga69dg6mux","sona":"9613"},{"rt":644,"stimulus":"<p>Welche Sequenz haben Sie als natürlicher empfunden?</p>","key_press":70,"test_part":"response","test_stimulus":{"position":0,"left":"bvh/pass-bottle-hold-training2-lines.txt","right":"bvh/vr_prediction_models/model(vcgpdm)-dataset(pass-bottle-hold)-mode(ELBO)-parts(1)-dyn(20)-lvm(30)-hold(2)/final-lines.txt","att_check":false},"trial_type":"html-keyboard-response","trial_index":26,"time_elapsed":1311280,"internal_node_id":"0.0-8.0-3.4","subject":"g73pwga69dg6mux","sona":"9613"},{"rt":381,"stimulus":"<p>Bereit?</p>","key_press":32,"trial_type":"html-keyboard-response","trial_index":27,"time_elapsed":1311664,"internal_node_id":"0.0-8.0-0.5","subject":"g73pwga69dg6mux","sona":"9613"},{"rt":null,"stimulus":"<div style=\"font-size:60px;\">+</div>","key_press":null,"trial_type":"html-keyboard-response","trial_index":28,"time_elapsed":1313664,"internal_node_id":"0.0-8.0-1.5","subject":"g73pwga69dg6mux","sona":"9613"},{"trial_type":"turing-test","trial_index":29,"time_elapsed":1319702,"internal_node_id":"0.0-8.0-2.5","subject":"g73pwga69dg6mux","sona":"9613"},{"rt":506,"stimulus":"<p>Welche Sequenz haben Sie als natürlicher empfunden?</p>","key_press":70,"test_part":"response","test_stimulus":{"position":1,"left":"bvh/vr_prediction_models/model(vcgpdm)-dataset(return-bottle)-mode(ELBO)-parts(3)-dyn(10)-lvm(25)-hold(3)/final-lines.txt","right":"bvh/return-bottle-training3-lines.txt","att_check":false},"trial_type":"html-keyboard-response","trial_index":30,"time_elapsed":1320214,"internal_node_id":"0.0-8.0-3.5","subject":"g73pwga69dg6mux","sona":"9613"},{"rt":304,"stimulus":"<p>Bereit?</p>","key_press":32,"trial_type":"html-keyboard-response","trial_index":31,"time_elapsed":1320524,"internal_node_id":"0.0-8.0-0.6","subject":"g73pwga69dg6mux","sona":"9613"},{"rt":null,"stimulus":"<div style=\"font-size:60px;\">+</div>","key_press":null,"trial_type":"html-keyboard-response","trial_index":32,"time_elapsed":1322527,"internal_node_id":"0.0-8.0-1.6","subject":"g73pwga69dg6mux","sona":"9613"},{"trial_type":"turing-test","trial_index":33,"time_elapsed":1326338,"internal_node_id":"0.0-8.0-2.6","subject":"g73pwga69dg6mux","sona":"9613"},{"rt":543,"stimulus":"<p>Welche Sequenz haben Sie als natürlicher empfunden?</p>","key_press":70,"test_part":"response","test_stimulus":{"position":0,"left":"bvh/return-bottle-hold-training4-lines.txt","right":"bvh/vr_prediction_models/model(dmp)-dataset(return-bottle-hold)-npsi(30)-hold(4)/final-lines.txt","att_check":false},"trial_type":"html-keyboard-response","trial_index":34,"time_elapsed":1326887,"internal_node_id":"0.0-8.0-3.6","subject":"g73pwga69dg6mux","sona":"9613"},{"rt":200,"stimulus":"<p>Bereit?</p>","key_press":32,"trial_type":"html-keyboard-response","trial_index":35,"time_elapsed":1327092,"internal_node_id":"0.0-8.0-0.7","subject":"g73pwga69dg6mux","sona":"9613"},{"rt":null,"stimulus":"<div style=\"font-size:60px;\">+</div>","key_press":null,"trial_type":"html-keyboard-response","trial_index":36,"time_elapsed":1329096,"internal_node_id":"0.0-8.0-1.7","subject":"g73pwga69dg6mux","sona":"9613"},{"trial_type":"turing-test","trial_index":37,"time_elapsed":1332766,"internal_node_id":"0.0-8.0-2.7","subject":"g73pwga69dg6mux","sona":"9613"},{"rt":373,"stimulus":"<p>Welche Sequenz haben Sie als natürlicher empfunden?</p>","key_press":70,"test_part":"response","test_stimulus":{"position":1,"left":"bvh/vr_prediction_models/model(vcgpdm)-dataset(return-bottle-hold)-mode(ELBO)-parts(3)-dyn(20)-lvm(15)-hold(1)/final-lines.txt","right":"bvh/return-bottle-hold-training1-lines.txt","att_check":false},"trial_type":"html-keyboard-response","trial_index":38,"time_elapsed":1333145,"internal_node_id":"0.0-8.0-3.7","subject":"g73pwga69dg6mux","sona":"9613"},{"rt":488,"stimulus":"<p>Bereit?</p>","key_press":32,"trial_type":"html-keyboard-response","trial_index":39,"time_elapsed":1333639,"internal_node_id":"0.0-8.0-0.8","subject":"g73pwga69dg6mux","sona":"9613"},{"rt":null,"stimulus":"<div style=\"font-size:60px;\">+</div>","key_press":null,"trial_type":"html-keyboard-response","trial_index":40,"time_elapsed":1335641,"internal_node_id":"0.0-8.0-1.8","subject":"g73pwga69dg6mux","sona":"9613"},{"trial_type":"turing-test","trial_index":41,"time_elapsed":1342639,"internal_node_id":"0.0-8.0-2.8","subject":"g73pwga69dg6mux","sona":"9613"},{"rt":363,"stimulus":"<p>Welche Sequenz haben Sie als natürlicher empfunden?</p>","key_press":74,"test_part":"response","test_stimulus":{"position":1,"left":"bvh/vr_prediction_models/model(vcgpdm)-dataset(return-bottle)-mode(MAP)-parts(3)-hold(2)/final-lines.txt","right":"bvh/return-bottle-training2-lines.txt","att_check":false},"trial_type":"html-keyboard-response","trial_index":42,"time_elapsed":1343010,"internal_node_id":"0.0-8.0-3.8","subject":"g73pwga69dg6mux","sona":"9613"},{"rt":686,"stimulus":"<p>Bereit?</p>","key_press":32,"trial_type":"html-keyboard-response","trial_index":43,"time_elapsed":1343703,"internal_node_id":"0.0-8.0-0.9","subject":"g73pwga69dg6mux","sona":"9613"},{"rt":null,"stimulus":"<div style=\"font-size:60px;\">+</div>","key_press":null,"trial_type":"html-keyboard-response","trial_index":44,"time_elapsed":1345704,"internal_node_id":"0.0-8.0-1.9","subject":"g73pwga69dg6mux","sona":"9613"},{"trial_type":"turing-test","trial_index":45,"time_elapsed":1351234,"internal_node_id":"0.0-8.0-2.9","subject":"g73pwga69dg6mux","sona":"9613"},{"rt":966,"stimulus":"<p>Welche Sequenz haben Sie als natürlicher empfunden?</p>","key_press":74,"test_part":"response","test_stimulus":{"position":1,"left":"bvh/vr_prediction_models/model(dmp)-dataset(return-bottle)-npsi(30)-hold(0)/final-lines.txt","right":"bvh/return-bottle-training0-lines.txt","att_check":false},"trial_type":"html-keyboard-response","trial_index":46,"time_elapsed":1352210,"internal_node_id":"0.0-8.0-3.9","subject":"g73pwga69dg6mux","sona":"9613"},{"rt":296,"stimulus":"<p>Bereit?</p>","key_press":32,"trial_type":"html-keyboard-response","trial_index":47,"time_elapsed":1352511,"internal_node_id":"0.0-8.0-0.10","subject":"g73pwga69dg6mux","sona":"9613"},{"rt":null,"stimulus":"<div style=\"font-size:60px;\">+</div>","key_press":null,"trial_type":"html-keyboard-response","trial_index":48,"time_elapsed":1354515,"internal_node_id":"0.0-8.0-1.10","subject":"g73pwga69dg6mux","sona":"9613"},{"trial_type":"turing-test","trial_index":49,"time_elapsed":1361311,"internal_node_id":"0.0-8.0-2.10","subject":"g73pwga69dg6mux","sona":"9613"},{"rt":368,"stimulus":"<p>Welche Sequenz haben Sie als natürlicher empfunden?</p>","key_press":70,"test_part":"response","test_stimulus":{"position":0,"left":"bvh/pass-bottle-training0-lines.txt","right":"bvh/vr_prediction_models/model(vcgpdm)-dataset(pass-bottle)-mode(ELBO)-parts(3)-dyn(25)-lvm(25)-hold(0)/final-lines.txt","att_check":false},"trial_type":"html-keyboard-response","trial_index":50,"time_elapsed":1361686,"internal_node_id":"0.0-8.0-3.10","subject":"g73pwga69dg6mux","sona":"9613"},{"rt":234,"stimulus":"<p>Bereit?</p>","key_press":32,"trial_type":"html-keyboard-response","trial_index":51,"time_elapsed":1361927,"internal_node_id":"0.0-8.0-0.11","subject":"g73pwga69dg6mux","sona":"9613"},{"rt":null,"stimulus":"<div style=\"font-size:60px;\">+</div>","key_press":null,"trial_type":"html-keyboard-response","trial_index":52,"time_elapsed":1363929,"internal_node_id":"0.0-8.0-1.11","subject":"g73pwga69dg6mux","sona":"9613"},{"trial_type":"turing-test","trial_index":53,"time_elapsed":1367408,"internal_node_id":"0.0-8.0-2.11","subject":"g73pwga69dg6mux","sona":"9613"}]