[{"rt":8501,"stimulus":"<p>Welcome!<br> Please choose your language to start the experiment in the chosen language.</p><p>Willkommen!<br> Bitte wählen Sie eine Sprache, um das Experiment in der ausgewählten Sprache zu starten</p>","button_pressed":"1","trial_type":"html-button-response","trial_index":0,"time_elapsed":8507,"internal_node_id":"0.0-0.0","subject":"a2zjbttg05d4el9","sona":"7414"},{"view_history":"[{\"page_index\":0,\"viewing_time\":10687},{\"page_index\":1,\"viewing_time\":7058},{\"page_index\":2,\"viewing_time\":11351},{\"page_index\":3,\"viewing_time\":9951},{\"page_index\":4,\"viewing_time\":6160}]","rt":45207,"trial_type":"instructions","trial_index":1,"time_elapsed":53717,"internal_node_id":"0.0-1.0-0.0","subject":"a2zjbttg05d4el9","sona":"7414"},{"rt":2049,"stimulus":"<p>Bereit?</p>","key_press":32,"trial_type":"html-keyboard-response","trial_index":2,"time_elapsed":55768,"internal_node_id":"0.0-3.0","subject":"a2zjbttg05d4el9","sona":"7414"},{"rt":null,"stimulus":"<div style=\"font-size:60px;\">+</div>","key_press":null,"trial_type":"html-keyboard-response","trial_index":3,"time_elapsed":57785,"internal_node_id":"0.0-4.0","subject":"a2zjbttg05d4el9","sona":"7414"},{"trial_type":"training","trial_index":4,"time_elapsed":61313,"internal_node_id":"0.0-5.0","subject":"a2zjbttg05d4el9","sona":"7414"},{"rt":1111,"stimulus":"<p>Welche Sequenz haben Sie als natürlicher empfunden?</p>","key_press":70,"trial_type":"html-keyboard-response","trial_index":5,"time_elapsed":62427,"internal_node_id":"0.0-6.0","subject":"a2zjbttg05d4el9","sona":"7414"},{"rt":9565,"stimulus":"<p>Das Experiment startet nun.</p><p><small>Bitte drücken Sie den Knopf, wenn Sie bereit sind.</small></p>","button_pressed":"0","trial_type":"html-button-response","trial_index":6,"time_elapsed":71994,"internal_node_id":"0.0-7.0","subject":"a2zjbttg05d4el9","sona":"7414"},{"rt":2202,"stimulus":"<p>Bereit?</p>","key_press":32,"trial_type":"html-keyboard-response","trial_index":7,"time_elapsed":74197,"internal_node_id":"0.0-8.0-0.0","subject":"a2zjbttg05d4el9","sona":"7414"},{"rt":null,"stimulus":"<div style=\"font-size:60px;\">+</div>","key_press":null,"trial_type":"html-keyboard-response","trial_index":8,"time_elapsed":76233,"internal_node_id":"0.0-8.0-1.0","subject":"a2zjbttg05d4el9","sona":"7414"},{"trial_type":"turing-test","trial_index":9,"time_elapsed":82406,"internal_node_id":"0.0-8.0-2.0","subject":"a2zjbttg05d4el9","sona":"7414"},{"rt":1067,"stimulus":"<p>Welche Sequenz haben Sie als natürlicher empfunden?</p>","key_press":70,"test_part":"response","test_stimulus":{"position":0,"left":"bvh/return-bottle-training1-lines.txt","right":"bvh/vr_prediction_models/model(dmp)-dataset(return-bottle)-npsi(20)-hold(1)/final-lines.txt","att_check":false},"trial_type":"html-keyboard-response","trial_index":10,"time_elapsed":83475,"internal_node_id":"0.0-8.0-3.0","subject":"a2zjbttg05d4el9","sona":"7414"},{"rt":1247,"stimulus":"<p>Bereit?</p>","key_press":32,"trial_type":"html-keyboard-response","trial_index":11,"time_elapsed":84724,"internal_node_id":"0.0-8.0-0.1","subject":"a2zjbttg05d4el9","sona":"7414"},{"rt":null,"stimulus":"<div style=\"font-size:60px;\">+</div>","key_press":null,"trial_type":"html-keyboard-response","trial_index":12,"time_elapsed":86748,"internal_node_id":"0.0-8.0-1.1","subject":"a2zjbttg05d4el9","sona":"7414"},{"trial_type":"turing-test","trial_index":13,"time_elapsed":91932,"internal_node_id":"0.0-8.0-2.1","subject":"a2zjbttg05d4el9","sona":"7414"},{"rt":1156,"stimulus":"<p>Welche Sequenz haben Sie als natürlicher empfunden?</p>","key_press":74,"test_part":"response","test_stimulus":{"position":1,"left":"bvh/vr_prediction_models/model(dmp)-dataset(return-bottle-hold)-npsi(70)-hold(0)/final-lines.txt","right":"bvh/return-bottle-hold-training0-lines.txt","att_check":false},"trial_type":"html-keyboard-response","trial_index":14,"time_elapsed":93088,"internal_node_id":"0.0-8.0-3.1","subject":"a2zjbttg05d4el9","sona":"7414"},{"rt":931,"stimulus":"<p>Bereit?</p>","key_press":32,"trial_type":"html-keyboard-response","trial_index":15,"time_elapsed":94021,"internal_node_id":"0.0-8.0-0.2","subject":"a2zjbttg05d4el9","sona":"7414"},{"rt":null,"stimulus":"<div style=\"font-size:60px;\">+</div>","key_press":null,"trial_type":"html-keyboard-response","trial_index":16,"time_elapsed":96046,"internal_node_id":"0.0-8.0-1.2","subject":"a2zjbttg05d4el9","sona":"7414"},{"trial_type":"turing-test","trial_index":17,"time_elapsed":101585,"internal_node_id":"0.0-8.0-2.2","subject":"a2zjbttg05d4el9","sona":"7414"},{"rt":2736,"stimulus":"<p>Welche Sequenz haben Sie als natürlicher empfunden?</p>","key_press":70,"test_part":"response","test_stimulus":{"position":0,"left":"bvh/pass-bottle-training1-lines.txt","right":"bvh/vr_prediction_models/model(tmp)-dataset(pass-bottle)-numprim(13)-hold(1)/final-lines.txt","att_check":false},"trial_type":"html-keyboard-response","trial_index":18,"time_elapsed":104322,"internal_node_id":"0.0-8.0-3.2","subject":"a2zjbttg05d4el9","sona":"7414"},{"rt":604,"stimulus":"<p>Bereit?</p>","key_press":32,"trial_type":"html-keyboard-response","trial_index":19,"time_elapsed":104928,"internal_node_id":"0.0-8.0-0.3","subject":"a2zjbttg05d4el9","sona":"7414"},{"rt":null,"stimulus":"<div style=\"font-size:60px;\">+</div>","key_press":null,"trial_type":"html-keyboard-response","trial_index":20,"time_elapsed":106951,"internal_node_id":"0.0-8.0-1.3","subject":"a2zjbttg05d4el9","sona":"7414"},{"trial_type":"turing-test","trial_index":21,"time_elapsed":112840,"internal_node_id":"0.0-8.0-2.3","subject":"a2zjbttg05d4el9","sona":"7414"},{"rt":673,"stimulus":"<p>Welche Sequenz haben Sie als natürlicher empfunden?</p>","key_press":70,"test_part":"response","test_stimulus":{"position":0,"left":"bvh/pass-bottle-training3-lines.txt","right":"bvh/vr_prediction_models/model(dmp)-dataset(pass-bottle)-npsi(60)-hold(3)/final-lines.txt","att_check":true},"trial_type":"html-keyboard-response","trial_index":22,"time_elapsed":113515,"internal_node_id":"0.0-8.0-3.3","subject":"a2zjbttg05d4el9","sona":"7414"},{"rt":738,"stimulus":"<p>Bereit?</p>","key_press":32,"trial_type":"html-keyboard-response","trial_index":23,"time_elapsed":114255,"internal_node_id":"0.0-8.0-0.4","subject":"a2zjbttg05d4el9","sona":"7414"},{"rt":null,"stimulus":"<div style=\"font-size:60px;\">+</div>","key_press":null,"trial_type":"html-keyboard-response","trial_index":24,"time_elapsed":116270,"internal_node_id":"0.0-8.0-1.4","subject":"a2zjbttg05d4el9","sona":"7414"},{"trial_type":"turing-test","trial_index":25,"time_elapsed":122361,"internal_node_id":"0.0-8.0-2.4","subject":"a2zjbttg05d4el9","sona":"7414"},{"rt":630,"stimulus":"<p>Welche Sequenz haben Sie als natürlicher empfunden?</p>","key_press":70,"test_part":"response","test_stimulus":{"position":0,"left":"bvh/return-bottle-training1-lines.txt","right":"bvh/vr_prediction_models/model(tmp)-dataset(return-bottle)-numprim(10)-hold(1)/final-lines.txt","att_check":false},"trial_type":"html-keyboard-response","trial_index":26,"time_elapsed":122993,"internal_node_id":"0.0-8.0-3.4","subject":"a2zjbttg05d4el9","sona":"7414"},{"rt":678,"stimulus":"<p>Bereit?</p>","key_press":32,"trial_type":"html-keyboard-response","trial_index":27,"time_elapsed":123672,"internal_node_id":"0.0-8.0-0.5","subject":"a2zjbttg05d4el9","sona":"7414"},{"rt":null,"stimulus":"<div style=\"font-size:60px;\">+</div>","key_press":null,"trial_type":"html-keyboard-response","trial_index":28,"time_elapsed":125691,"internal_node_id":"0.0-8.0-1.5","subject":"a2zjbttg05d4el9","sona":"7414"},{"trial_type":"turing-test","trial_index":29,"time_elapsed":131674,"internal_node_id":"0.0-8.0-2.5","subject":"a2zjbttg05d4el9","sona":"7414"},{"rt":322,"stimulus":"<p>Welche Sequenz haben Sie als natürlicher empfunden?</p>","key_press":70,"test_part":"response","test_stimulus":{"position":0,"left":"bvh/return-bottle-training3-lines.txt","right":"bvh/vr_prediction_models/model(vcgpdm)-dataset(return-bottle)-mode(ELBO)-parts(3)-dyn(10)-lvm(25)-hold(3)/final-lines.txt","att_check":false},"trial_type":"html-keyboard-response","trial_index":30,"time_elapsed":131998,"internal_node_id":"0.0-8.0-3.5","subject":"a2zjbttg05d4el9","sona":"7414"},{"rt":620,"stimulus":"<p>Bereit?</p>","key_press":32,"trial_type":"html-keyboard-response","trial_index":31,"time_elapsed":132620,"internal_node_id":"0.0-8.0-0.6","subject":"a2zjbttg05d4el9","sona":"7414"},{"rt":null,"stimulus":"<div style=\"font-size:60px;\">+</div>","key_press":null,"trial_type":"html-keyboard-response","trial_index":32,"time_elapsed":134654,"internal_node_id":"0.0-8.0-1.6","subject":"a2zjbttg05d4el9","sona":"7414"},{"trial_type":"turing-test","trial_index":33,"time_elapsed":140334,"internal_node_id":"0.0-8.0-2.6","subject":"a2zjbttg05d4el9","sona":"7414"},{"rt":649,"stimulus":"<p>Welche Sequenz haben Sie als natürlicher empfunden?</p>","key_press":74,"test_part":"response","test_stimulus":{"position":0,"left":"bvh/pass-bottle-training1-lines.txt","right":"bvh/vr_prediction_models/model(tmp)-dataset(pass-bottle)-numprim(9)-hold(1)/final-lines.txt","att_check":false},"trial_type":"html-keyboard-response","trial_index":34,"time_elapsed":140985,"internal_node_id":"0.0-8.0-3.6","subject":"a2zjbttg05d4el9","sona":"7414"},{"rt":743,"stimulus":"<p>Bereit?</p>","key_press":32,"trial_type":"html-keyboard-response","trial_index":35,"time_elapsed":141729,"internal_node_id":"0.0-8.0-0.7","subject":"a2zjbttg05d4el9","sona":"7414"},{"rt":null,"stimulus":"<div style=\"font-size:60px;\">+</div>","key_press":null,"trial_type":"html-keyboard-response","trial_index":36,"time_elapsed":143763,"internal_node_id":"0.0-8.0-1.7","subject":"a2zjbttg05d4el9","sona":"7414"},{"trial_type":"turing-test","trial_index":37,"time_elapsed":147175,"internal_node_id":"0.0-8.0-2.7","subject":"a2zjbttg05d4el9","sona":"7414"},{"rt":567,"stimulus":"<p>Welche Sequenz haben Sie als natürlicher empfunden?</p>","key_press":70,"test_part":"response","test_stimulus":{"position":0,"left":"bvh/return-bottle-hold-training1-lines.txt","right":"bvh/vr_prediction_models/model(dmp)-dataset(return-bottle-hold)-npsi(50)-hold(1)/final-lines.txt","att_check":false},"trial_type":"html-keyboard-response","trial_index":38,"time_elapsed":147743,"internal_node_id":"0.0-8.0-3.7","subject":"a2zjbttg05d4el9","sona":"7414"},{"rt":831,"stimulus":"<p>Bereit?</p>","key_press":32,"trial_type":"html-keyboard-response","trial_index":39,"time_elapsed":148575,"internal_node_id":"0.0-8.0-0.8","subject":"a2zjbttg05d4el9","sona":"7414"},{"rt":null,"stimulus":"<div style=\"font-size:60px;\">+</div>","key_press":null,"trial_type":"html-keyboard-response","trial_index":40,"time_elapsed":150593,"internal_node_id":"0.0-8.0-1.8","subject":"a2zjbttg05d4el9","sona":"7414"},{"trial_type":"turing-test","trial_index":41,"time_elapsed":156379,"internal_node_id":"0.0-8.0-2.8","subject":"a2zjbttg05d4el9","sona":"7414"},{"rt":1779,"stimulus":"<p>Welche Sequenz haben Sie als natürlicher empfunden?</p>","key_press":74,"test_part":"response","test_stimulus":{"position":0,"left":"bvh/return-bottle-training3-lines.txt","right":"bvh/vr_prediction_models/model(tmp)-dataset(return-bottle)-numprim(6)-hold(3)/final-lines.txt","att_check":false},"trial_type":"html-keyboard-response","trial_index":42,"time_elapsed":158160,"internal_node_id":"0.0-8.0-3.8","subject":"a2zjbttg05d4el9","sona":"7414"},{"rt":665,"stimulus":"<p>Bereit?</p>","key_press":32,"trial_type":"html-keyboard-response","trial_index":43,"time_elapsed":158826,"internal_node_id":"0.0-8.0-0.9","subject":"a2zjbttg05d4el9","sona":"7414"},{"rt":null,"stimulus":"<div style=\"font-size:60px;\">+</div>","key_press":null,"trial_type":"html-keyboard-response","trial_index":44,"time_elapsed":160859,"internal_node_id":"0.0-8.0-1.9","subject":"a2zjbttg05d4el9","sona":"7414"},{"trial_type":"turing-test","trial_index":45,"time_elapsed":164567,"internal_node_id":"0.0-8.0-2.9","subject":"a2zjbttg05d4el9","sona":"7414"},{"rt":858,"stimulus":"<p>Welche Sequenz haben Sie als natürlicher empfunden?</p>","key_press":70,"test_part":"response","test_stimulus":{"position":0,"left":"bvh/pass-bottle-hold-training2-lines.txt","right":"bvh/vr_prediction_models/model(vcgpdm)-dataset(pass-bottle-hold)-mode(ELBO)-parts(3)-dyn(30)-lvm(15)-hold(2)/final-lines.txt","att_check":false},"trial_type":"html-keyboard-response","trial_index":46,"time_elapsed":165426,"internal_node_id":"0.0-8.0-3.9","subject":"a2zjbttg05d4el9","sona":"7414"},{"rt":619,"stimulus":"<p>Bereit?</p>","key_press":32,"trial_type":"html-keyboard-response","trial_index":47,"time_elapsed":166046,"internal_node_id":"0.0-8.0-0.10","subject":"a2zjbttg05d4el9","sona":"7414"},{"rt":null,"stimulus":"<div style=\"font-size:60px;\">+</div>","key_press":null,"trial_type":"html-keyboard-response","trial_index":48,"time_elapsed":168077,"internal_node_id":"0.0-8.0-1.10","subject":"a2zjbttg05d4el9","sona":"7414"},{"trial_type":"turing-test","trial_index":49,"time_elapsed":174119,"internal_node_id":"0.0-8.0-2.10","subject":"a2zjbttg05d4el9","sona":"7414"},{"rt":406,"stimulus":"<p>Welche Sequenz haben Sie als natürlicher empfunden?</p>","key_press":74,"test_part":"response","test_stimulus":{"position":1,"left":"bvh/vr_prediction_models/model(vcgpdm)-dataset(return-bottle)-mode(ELBO)-parts(1)-dyn(30)-lvm(35)-hold(4)/final-lines.txt","right":"bvh/return-bottle-training4-lines.txt","att_check":false},"trial_type":"html-keyboard-response","trial_index":50,"time_elapsed":174528,"internal_node_id":"0.0-8.0-3.10","subject":"a2zjbttg05d4el9","sona":"7414"},{"rt":657,"stimulus":"<p>Bereit?</p>","key_press":32,"trial_type":"html-keyboard-response","trial_index":51,"time_elapsed":175187,"internal_node_id":"0.0-8.0-0.11","subject":"a2zjbttg05d4el9","sona":"7414"},{"rt":null,"stimulus":"<div style=\"font-size:60px;\">+</div>","key_press":null,"trial_type":"html-keyboard-response","trial_index":52,"time_elapsed":177210,"internal_node_id":"0.0-8.0-1.11","subject":"a2zjbttg05d4el9","sona":"7414"},{"trial_type":"turing-test","trial_index":53,"time_elapsed":184062,"internal_node_id":"0.0-8.0-2.11","subject":"a2zjbttg05d4el9","sona":"7414"}]