[{"rt":3481,"stimulus":"<p>Welcome!<br> Please choose your language to start the experiment in the chosen language.</p><p>Willkommen!<br> Bitte wählen Sie eine Sprache, um das Experiment in der ausgewählten Sprache zu starten</p>","button_pressed":"1","trial_type":"html-button-response","trial_index":0,"time_elapsed":3499,"internal_node_id":"0.0-0.0","subject":"on067s7xffndsah","sona":"7675"},{"view_history":"[{\"page_index\":0,\"viewing_time\":6139},{\"page_index\":1,\"viewing_time\":4031},{\"page_index\":2,\"viewing_time\":4667},{\"page_index\":3,\"viewing_time\":4909},{\"page_index\":4,\"viewing_time\":5902}]","rt":25648,"trial_type":"instructions","trial_index":1,"time_elapsed":29147,"internal_node_id":"0.0-1.0-0.0","subject":"on067s7xffndsah","sona":"7675"},{"rt":1284,"stimulus":"<p>Bereit?</p>","key_press":32,"trial_type":"html-keyboard-response","trial_index":2,"time_elapsed":30434,"internal_node_id":"0.0-3.0","subject":"on067s7xffndsah","sona":"7675"},{"rt":null,"stimulus":"<div style=\"font-size:60px;\">+</div>","key_press":null,"trial_type":"html-keyboard-response","trial_index":3,"time_elapsed":32460,"internal_node_id":"0.0-4.0","subject":"on067s7xffndsah","sona":"7675"},{"trial_type":"training","trial_index":4,"time_elapsed":36113,"internal_node_id":"0.0-5.0","subject":"on067s7xffndsah","sona":"7675"},{"rt":1718,"stimulus":"<p>Welche Sequenz haben Sie als natürlicher empfunden?</p>","key_press":70,"trial_type":"html-keyboard-response","trial_index":5,"time_elapsed":37834,"internal_node_id":"0.0-6.0","subject":"on067s7xffndsah","sona":"7675"},{"rt":3045,"stimulus":"<p>Das Experiment startet nun.</p><p><small>Bitte drücken Sie den Knopf, wenn Sie bereit sind.</small></p>","button_pressed":"0","trial_type":"html-button-response","trial_index":6,"time_elapsed":40880,"internal_node_id":"0.0-7.0","subject":"on067s7xffndsah","sona":"7675"},{"rt":980,"stimulus":"<p>Bereit?</p>","key_press":32,"trial_type":"html-keyboard-response","trial_index":7,"time_elapsed":41863,"internal_node_id":"0.0-8.0-0.0","subject":"on067s7xffndsah","sona":"7675"},{"rt":null,"stimulus":"<div style=\"font-size:60px;\">+</div>","key_press":null,"trial_type":"html-keyboard-response","trial_index":8,"time_elapsed":43865,"internal_node_id":"0.0-8.0-1.0","subject":"on067s7xffndsah","sona":"7675"},{"trial_type":"turing-test","trial_index":9,"time_elapsed":49530,"internal_node_id":"0.0-8.0-2.0","subject":"on067s7xffndsah","sona":"7675"},{"rt":1918,"stimulus":"<p>Welche Sequenz haben Sie als natürlicher empfunden?</p>","key_press":74,"test_part":"response","test_stimulus":{"position":1,"left":"bvh/vr_prediction_models/model(tmp)-dataset(pass-bottle)-numprim(10)-hold(1)/final-lines.txt","right":"bvh/pass-bottle-training1-lines.txt","att_check":false},"trial_type":"html-keyboard-response","trial_index":10,"time_elapsed":51452,"internal_node_id":"0.0-8.0-3.0","subject":"on067s7xffndsah","sona":"7675"},{"rt":1079,"stimulus":"<p>Bereit?</p>","key_press":32,"trial_type":"html-keyboard-response","trial_index":11,"time_elapsed":52532,"internal_node_id":"0.0-8.0-0.1","subject":"on067s7xffndsah","sona":"7675"},{"rt":null,"stimulus":"<div style=\"font-size:60px;\">+</div>","key_press":null,"trial_type":"html-keyboard-response","trial_index":12,"time_elapsed":54561,"internal_node_id":"0.0-8.0-1.1","subject":"on067s7xffndsah","sona":"7675"},{"trial_type":"turing-test","trial_index":13,"time_elapsed":60521,"internal_node_id":"0.0-8.0-2.1","subject":"on067s7xffndsah","sona":"7675"},{"rt":362,"stimulus":"<p>Welche Sequenz haben Sie als natürlicher empfunden?</p>","key_press":70,"test_part":"response","test_stimulus":{"position":0,"left":"bvh/pass-bottle-training3-lines.txt","right":"bvh/vr_prediction_models/model(dmp)-dataset(pass-bottle)-npsi(60)-hold(3)/final-lines.txt","att_check":false},"trial_type":"html-keyboard-response","trial_index":14,"time_elapsed":60885,"internal_node_id":"0.0-8.0-3.1","subject":"on067s7xffndsah","sona":"7675"},{"rt":745,"stimulus":"<p>Bereit?</p>","key_press":32,"trial_type":"html-keyboard-response","trial_index":15,"time_elapsed":61631,"internal_node_id":"0.0-8.0-0.2","subject":"on067s7xffndsah","sona":"7675"},{"rt":null,"stimulus":"<div style=\"font-size:60px;\">+</div>","key_press":null,"trial_type":"html-keyboard-response","trial_index":16,"time_elapsed":63651,"internal_node_id":"0.0-8.0-1.2","subject":"on067s7xffndsah","sona":"7675"},{"trial_type":"turing-test","trial_index":17,"time_elapsed":68885,"internal_node_id":"0.0-8.0-2.2","subject":"on067s7xffndsah","sona":"7675"},{"rt":1020,"stimulus":"<p>Welche Sequenz haben Sie als natürlicher empfunden?</p>","key_press":74,"test_part":"response","test_stimulus":{"position":0,"left":"bvh/return-bottle-hold-training0-lines.txt","right":"bvh/vr_prediction_models/model(tmp)-dataset(return-bottle-hold)-numprim(15)-hold(0)/final-lines.txt","att_check":false},"trial_type":"html-keyboard-response","trial_index":18,"time_elapsed":69906,"internal_node_id":"0.0-8.0-3.2","subject":"on067s7xffndsah","sona":"7675"},{"rt":418,"stimulus":"<p>Bereit?</p>","key_press":32,"trial_type":"html-keyboard-response","trial_index":19,"time_elapsed":70325,"internal_node_id":"0.0-8.0-0.3","subject":"on067s7xffndsah","sona":"7675"},{"rt":null,"stimulus":"<div style=\"font-size:60px;\">+</div>","key_press":null,"trial_type":"html-keyboard-response","trial_index":20,"time_elapsed":72365,"internal_node_id":"0.0-8.0-1.3","subject":"on067s7xffndsah","sona":"7675"},{"trial_type":"turing-test","trial_index":21,"time_elapsed":78518,"internal_node_id":"0.0-8.0-2.3","subject":"on067s7xffndsah","sona":"7675"},{"rt":718,"stimulus":"<p>Welche Sequenz haben Sie als natürlicher empfunden?</p>","key_press":70,"test_part":"response","test_stimulus":{"position":0,"left":"bvh/pass-bottle-training4-lines.txt","right":"bvh/vr_prediction_models/model(vcgpdm)-dataset(pass-bottle)-mode(ELBO)-parts(3)-dyn(10)-lvm(25)-hold(4)/final-lines.txt","att_check":false},"trial_type":"html-keyboard-response","trial_index":22,"time_elapsed":79238,"internal_node_id":"0.0-8.0-3.3","subject":"on067s7xffndsah","sona":"7675"},{"rt":661,"stimulus":"<p>Bereit?</p>","key_press":32,"trial_type":"html-keyboard-response","trial_index":23,"time_elapsed":79900,"internal_node_id":"0.0-8.0-0.4","subject":"on067s7xffndsah","sona":"7675"},{"rt":null,"stimulus":"<div style=\"font-size:60px;\">+</div>","key_press":null,"trial_type":"html-keyboard-response","trial_index":24,"time_elapsed":81927,"internal_node_id":"0.0-8.0-1.4","subject":"on067s7xffndsah","sona":"7675"},{"trial_type":"turing-test","trial_index":25,"time_elapsed":85736,"internal_node_id":"0.0-8.0-2.4","subject":"on067s7xffndsah","sona":"7675"},{"rt":419,"stimulus":"<p>Welche Sequenz haben Sie als natürlicher empfunden?</p>","key_press":74,"test_part":"response","test_stimulus":{"position":1,"left":"bvh/vr_prediction_models/model(vcgpdm)-dataset(return-bottle-hold)-mode(ELBO)-parts(1)-dyn(35)-lvm(10)-hold(2)/final-lines.txt","right":"bvh/return-bottle-hold-training2-lines.txt","att_check":false},"trial_type":"html-keyboard-response","trial_index":26,"time_elapsed":86158,"internal_node_id":"0.0-8.0-3.4","subject":"on067s7xffndsah","sona":"7675"},{"rt":824,"stimulus":"<p>Bereit?</p>","key_press":32,"trial_type":"html-keyboard-response","trial_index":27,"time_elapsed":86983,"internal_node_id":"0.0-8.0-0.5","subject":"on067s7xffndsah","sona":"7675"},{"rt":null,"stimulus":"<div style=\"font-size:60px;\">+</div>","key_press":null,"trial_type":"html-keyboard-response","trial_index":28,"time_elapsed":88996,"internal_node_id":"0.0-8.0-1.5","subject":"on067s7xffndsah","sona":"7675"},{"trial_type":"turing-test","trial_index":29,"time_elapsed":94126,"internal_node_id":"0.0-8.0-2.5","subject":"on067s7xffndsah","sona":"7675"},{"rt":452,"stimulus":"<p>Welche Sequenz haben Sie als natürlicher empfunden?</p>","key_press":74,"test_part":"response","test_stimulus":{"position":0,"left":"bvh/return-bottle-hold-training0-lines.txt","right":"bvh/vr_prediction_models/model(tmp)-dataset(return-bottle-hold)-numprim(3)-hold(0)/final-lines.txt","att_check":false},"trial_type":"html-keyboard-response","trial_index":30,"time_elapsed":94581,"internal_node_id":"0.0-8.0-3.5","subject":"on067s7xffndsah","sona":"7675"},{"rt":470,"stimulus":"<p>Bereit?</p>","key_press":32,"trial_type":"html-keyboard-response","trial_index":31,"time_elapsed":95053,"internal_node_id":"0.0-8.0-0.6","subject":"on067s7xffndsah","sona":"7675"},{"rt":null,"stimulus":"<div style=\"font-size:60px;\">+</div>","key_press":null,"trial_type":"html-keyboard-response","trial_index":32,"time_elapsed":97056,"internal_node_id":"0.0-8.0-1.6","subject":"on067s7xffndsah","sona":"7675"},{"trial_type":"turing-test","trial_index":33,"time_elapsed":100580,"internal_node_id":"0.0-8.0-2.6","subject":"on067s7xffndsah","sona":"7675"},{"rt":787,"stimulus":"<p>Welche Sequenz haben Sie als natürlicher empfunden?</p>","key_press":74,"test_part":"response","test_stimulus":{"position":0,"left":"bvh/return-bottle-hold-training2-lines.txt","right":"bvh/vr_prediction_models/model(tmp)-dataset(return-bottle-hold)-numprim(12)-hold(2)/final-lines.txt","att_check":false},"trial_type":"html-keyboard-response","trial_index":34,"time_elapsed":101370,"internal_node_id":"0.0-8.0-3.6","subject":"on067s7xffndsah","sona":"7675"},{"rt":348,"stimulus":"<p>Bereit?</p>","key_press":32,"trial_type":"html-keyboard-response","trial_index":35,"time_elapsed":101719,"internal_node_id":"0.0-8.0-0.7","subject":"on067s7xffndsah","sona":"7675"},{"rt":null,"stimulus":"<div style=\"font-size:60px;\">+</div>","key_press":null,"trial_type":"html-keyboard-response","trial_index":36,"time_elapsed":103734,"internal_node_id":"0.0-8.0-1.7","subject":"on067s7xffndsah","sona":"7675"},{"trial_type":"turing-test","trial_index":37,"time_elapsed":107265,"internal_node_id":"0.0-8.0-2.7","subject":"on067s7xffndsah","sona":"7675"},{"rt":121,"stimulus":"<p>Welche Sequenz haben Sie als natürlicher empfunden?</p>","key_press":74,"test_part":"response","test_stimulus":{"position":1,"left":"bvh/vr_prediction_models/model(dmp)-dataset(return-bottle-hold)-npsi(80)-hold(2)/final-lines.txt","right":"bvh/return-bottle-hold-training2-lines.txt","att_check":false},"trial_type":"html-keyboard-response","trial_index":38,"time_elapsed":107389,"internal_node_id":"0.0-8.0-3.7","subject":"on067s7xffndsah","sona":"7675"},{"rt":358,"stimulus":"<p>Bereit?</p>","key_press":32,"trial_type":"html-keyboard-response","trial_index":39,"time_elapsed":107749,"internal_node_id":"0.0-8.0-0.8","subject":"on067s7xffndsah","sona":"7675"},{"rt":null,"stimulus":"<div style=\"font-size:60px;\">+</div>","key_press":null,"trial_type":"html-keyboard-response","trial_index":40,"time_elapsed":109764,"internal_node_id":"0.0-8.0-1.8","subject":"on067s7xffndsah","sona":"7675"},{"trial_type":"turing-test","trial_index":41,"time_elapsed":116141,"internal_node_id":"0.0-8.0-2.8","subject":"on067s7xffndsah","sona":"7675"},{"rt":576,"stimulus":"<p>Welche Sequenz haben Sie als natürlicher empfunden?</p>","key_press":70,"test_part":"response","test_stimulus":{"position":1,"left":"bvh/vr_prediction_models/model(vcgpdm)-dataset(return-bottle)-mode(ELBO)-parts(1)-dyn(15)-lvm(35)-hold(1)/final-lines.txt","right":"bvh/return-bottle-training1-lines.txt","att_check":false},"trial_type":"html-keyboard-response","trial_index":42,"time_elapsed":116719,"internal_node_id":"0.0-8.0-3.8","subject":"on067s7xffndsah","sona":"7675"},{"rt":440,"stimulus":"<p>Bereit?</p>","key_press":32,"trial_type":"html-keyboard-response","trial_index":43,"time_elapsed":117159,"internal_node_id":"0.0-8.0-0.9","subject":"on067s7xffndsah","sona":"7675"},{"rt":null,"stimulus":"<div style=\"font-size:60px;\">+</div>","key_press":null,"trial_type":"html-keyboard-response","trial_index":44,"time_elapsed":119183,"internal_node_id":"0.0-8.0-1.9","subject":"on067s7xffndsah","sona":"7675"},{"trial_type":"turing-test","trial_index":45,"time_elapsed":125346,"internal_node_id":"0.0-8.0-2.9","subject":"on067s7xffndsah","sona":"7675"},{"rt":463,"stimulus":"<p>Welche Sequenz haben Sie als natürlicher empfunden?</p>","key_press":74,"test_part":"response","test_stimulus":{"position":1,"left":"bvh/vr_prediction_models/model(vcgpdm)-dataset(pass-bottle)-mode(ELBO)-parts(3)-dyn(25)-lvm(25)-hold(3)/final-lines.txt","right":"bvh/pass-bottle-training3-lines.txt","att_check":false},"trial_type":"html-keyboard-response","trial_index":46,"time_elapsed":125812,"internal_node_id":"0.0-8.0-3.9","subject":"on067s7xffndsah","sona":"7675"},{"rt":584,"stimulus":"<p>Bereit?</p>","key_press":32,"trial_type":"html-keyboard-response","trial_index":47,"time_elapsed":126396,"internal_node_id":"0.0-8.0-0.10","subject":"on067s7xffndsah","sona":"7675"},{"rt":null,"stimulus":"<div style=\"font-size:60px;\">+</div>","key_press":null,"trial_type":"html-keyboard-response","trial_index":48,"time_elapsed":128425,"internal_node_id":"0.0-8.0-1.10","subject":"on067s7xffndsah","sona":"7675"},{"trial_type":"turing-test","trial_index":49,"time_elapsed":134697,"internal_node_id":"0.0-8.0-2.10","subject":"on067s7xffndsah","sona":"7675"},{"rt":1506,"stimulus":"<p>Welche Sequenz haben Sie als natürlicher empfunden?</p>","key_press":74,"test_part":"response","test_stimulus":{"position":1,"left":"bvh/vr_prediction_models/model(tmp)-dataset(pass-bottle)-numprim(4)-hold(2)/final-lines.txt","right":"bvh/pass-bottle-training2-lines.txt","att_check":false},"trial_type":"html-keyboard-response","trial_index":50,"time_elapsed":136204,"internal_node_id":"0.0-8.0-3.10","subject":"on067s7xffndsah","sona":"7675"},{"rt":282,"stimulus":"<p>Bereit?</p>","key_press":32,"trial_type":"html-keyboard-response","trial_index":51,"time_elapsed":136488,"internal_node_id":"0.0-8.0-0.11","subject":"on067s7xffndsah","sona":"7675"},{"rt":null,"stimulus":"<div style=\"font-size:60px;\">+</div>","key_press":null,"trial_type":"html-keyboard-response","trial_index":52,"time_elapsed":138527,"internal_node_id":"0.0-8.0-1.11","subject":"on067s7xffndsah","sona":"7675"},{"trial_type":"turing-test","trial_index":53,"time_elapsed":142028,"internal_node_id":"0.0-8.0-2.11","subject":"on067s7xffndsah","sona":"7675"},{"rt":589,"stimulus":"<p>Welche Sequenz haben Sie als natürlicher empfunden?</p>","key_press":74,"test_part":"response","test_stimulus":{"position":1,"left":"bvh/vr_prediction_models/model(tmp)-dataset(pass-bottle-hold)-numprim(5)-hold(2)/final-lines.txt","right":"bvh/pass-bottle-hold-training2-lines.txt","att_check":false},"trial_type":"html-keyboard-response","trial_index":54,"time_elapsed":142619,"internal_node_id":"0.0-8.0-3.11","subject":"on067s7xffndsah","sona":"7675"},{"rt":340,"stimulus":"<p>Bereit?</p>","key_press":32,"trial_type":"html-keyboard-response","trial_index":55,"time_elapsed":142961,"internal_node_id":"0.0-8.0-0.12","subject":"on067s7xffndsah","sona":"7675"},{"rt":null,"stimulus":"<div style=\"font-size:60px;\">+</div>","key_press":null,"trial_type":"html-keyboard-response","trial_index":56,"time_elapsed":144988,"internal_node_id":"0.0-8.0-1.12","subject":"on067s7xffndsah","sona":"7675"},{"trial_type":"turing-test","trial_index":57,"time_elapsed":151288,"internal_node_id":"0.0-8.0-2.12","subject":"on067s7xffndsah","sona":"7675"},{"rt":669,"stimulus":"<p>Welche Sequenz haben Sie als natürlicher empfunden?</p>","key_press":74,"test_part":"response","test_stimulus":{"position":1,"left":"bvh/vr_prediction_models/model(vcgpdm)-dataset(return-bottle)-mode(ELBO)-parts(3)-dyn(10)-lvm(25)-hold(1)/final-lines.txt","right":"bvh/return-bottle-training1-lines.txt","att_check":false},"trial_type":"html-keyboard-response","trial_index":58,"time_elapsed":151959,"internal_node_id":"0.0-8.0-3.12","subject":"on067s7xffndsah","sona":"7675"},{"rt":408,"stimulus":"<p>Bereit?</p>","key_press":32,"trial_type":"html-keyboard-response","trial_index":59,"time_elapsed":152368,"internal_node_id":"0.0-8.0-0.13","subject":"on067s7xffndsah","sona":"7675"},{"rt":null,"stimulus":"<div style=\"font-size:60px;\">+</div>","key_press":null,"trial_type":"html-keyboard-response","trial_index":60,"time_elapsed":154389,"internal_node_id":"0.0-8.0-1.13","subject":"on067s7xffndsah","sona":"7675"},{"trial_type":"turing-test","trial_index":61,"time_elapsed":160392,"internal_node_id":"0.0-8.0-2.13","subject":"on067s7xffndsah","sona":"7675"},{"rt":329,"stimulus":"<p>Welche Sequenz haben Sie als natürlicher empfunden?</p>","key_press":70,"test_part":"response","test_stimulus":{"position":1,"left":"bvh/vr_prediction_models/model(vcgpdm)-dataset(return-bottle)-mode(ELBO)-parts(3)-dyn(15)-lvm(30)-hold(4)/final-lines.txt","right":"bvh/return-bottle-training4-lines.txt","att_check":false},"trial_type":"html-keyboard-response","trial_index":62,"time_elapsed":160723,"internal_node_id":"0.0-8.0-3.13","subject":"on067s7xffndsah","sona":"7675"},{"rt":409,"stimulus":"<p>Bereit?</p>","key_press":32,"trial_type":"html-keyboard-response","trial_index":63,"time_elapsed":161132,"internal_node_id":"0.0-8.0-0.14","subject":"on067s7xffndsah","sona":"7675"},{"rt":null,"stimulus":"<div style=\"font-size:60px;\">+</div>","key_press":null,"trial_type":"html-keyboard-response","trial_index":64,"time_elapsed":163163,"internal_node_id":"0.0-8.0-1.14","subject":"on067s7xffndsah","sona":"7675"},{"trial_type":"turing-test","trial_index":65,"time_elapsed":167069,"internal_node_id":"0.0-8.0-2.14","subject":"on067s7xffndsah","sona":"7675"},{"rt":69,"stimulus":"<p>Welche Sequenz haben Sie als natürlicher empfunden?</p>","key_press":70,"test_part":"response","test_stimulus":{"position":0,"left":"bvh/return-bottle-hold-training4-lines.txt","right":"bvh/vr_prediction_models/model(tmp)-dataset(return-bottle-hold)-numprim(11)-hold(4)/final-lines.txt","att_check":false},"trial_type":"html-keyboard-response","trial_index":66,"time_elapsed":167141,"internal_node_id":"0.0-8.0-3.14","subject":"on067s7xffndsah","sona":"7675"},{"rt":980,"stimulus":"<p>Bereit?</p>","key_press":32,"trial_type":"html-keyboard-response","trial_index":67,"time_elapsed":168122,"internal_node_id":"0.0-8.0-0.15","subject":"on067s7xffndsah","sona":"7675"},{"rt":null,"stimulus":"<div style=\"font-size:60px;\">+</div>","key_press":null,"trial_type":"html-keyboard-response","trial_index":68,"time_elapsed":170160,"internal_node_id":"0.0-8.0-1.15","subject":"on067s7xffndsah","sona":"7675"},{"trial_type":"turing-test","trial_index":69,"time_elapsed":174146,"internal_node_id":"0.0-8.0-2.15","subject":"on067s7xffndsah","sona":"7675"},{"rt":1721,"stimulus":"<p>Welche Sequenz haben Sie als natürlicher empfunden?</p>","key_press":70,"test_part":"response","test_stimulus":{"position":1,"left":"bvh/vr_prediction_models/model(vcgpdm)-dataset(return-bottle-hold)-mode(ELBO)-parts(1)-dyn(20)-lvm(20)-hold(4)/final-lines.txt","right":"bvh/return-bottle-hold-training4-lines.txt","att_check":false},"trial_type":"html-keyboard-response","trial_index":70,"time_elapsed":175868,"internal_node_id":"0.0-8.0-3.15","subject":"on067s7xffndsah","sona":"7675"},{"rt":447,"stimulus":"<p>Bereit?</p>","key_press":32,"trial_type":"html-keyboard-response","trial_index":71,"time_elapsed":176316,"internal_node_id":"0.0-8.0-0.16","subject":"on067s7xffndsah","sona":"7675"},{"rt":null,"stimulus":"<div style=\"font-size:60px;\">+</div>","key_press":null,"trial_type":"html-keyboard-response","trial_index":72,"time_elapsed":178326,"internal_node_id":"0.0-8.0-1.16","subject":"on067s7xffndsah","sona":"7675"},{"trial_type":"turing-test","trial_index":73,"time_elapsed":184306,"internal_node_id":"0.0-8.0-2.16","subject":"on067s7xffndsah","sona":"7675"},{"rt":455,"stimulus":"<p>Welche Sequenz haben Sie als natürlicher empfunden?</p>","key_press":74,"test_part":"response","test_stimulus":{"position":1,"left":"bvh/vr_prediction_models/model(vcgpdm)-dataset(pass-bottle)-mode(ELBO)-parts(1)-dyn(30)-lvm(35)-hold(4)/final-lines.txt","right":"bvh/pass-bottle-training4-lines.txt","att_check":false},"trial_type":"html-keyboard-response","trial_index":74,"time_elapsed":184763,"internal_node_id":"0.0-8.0-3.16","subject":"on067s7xffndsah","sona":"7675"},{"rt":469,"stimulus":"<p>Bereit?</p>","key_press":32,"trial_type":"html-keyboard-response","trial_index":75,"time_elapsed":185233,"internal_node_id":"0.0-8.0-0.17","subject":"on067s7xffndsah","sona":"7675"},{"rt":null,"stimulus":"<div style=\"font-size:60px;\">+</div>","key_press":null,"trial_type":"html-keyboard-response","trial_index":76,"time_elapsed":187266,"internal_node_id":"0.0-8.0-1.17","subject":"on067s7xffndsah","sona":"7675"},{"trial_type":"turing-test","trial_index":77,"time_elapsed":190767,"internal_node_id":"0.0-8.0-2.17","subject":"on067s7xffndsah","sona":"7675"},{"rt":863,"stimulus":"<p>Welche Sequenz haben Sie als natürlicher empfunden?</p>","key_press":70,"test_part":"response","test_stimulus":{"position":0,"left":"bvh/pass-bottle-hold-training2-lines.txt","right":"bvh/vr_prediction_models/model(dmp)-dataset(pass-bottle-hold)-npsi(70)-hold(2)/final-lines.txt","att_check":false},"trial_type":"html-keyboard-response","trial_index":78,"time_elapsed":191632,"internal_node_id":"0.0-8.0-3.17","subject":"on067s7xffndsah","sona":"7675"},{"rt":444,"stimulus":"<p>Bereit?</p>","key_press":32,"trial_type":"html-keyboard-response","trial_index":79,"time_elapsed":192076,"internal_node_id":"0.0-8.0-0.18","subject":"on067s7xffndsah","sona":"7675"},{"rt":null,"stimulus":"<div style=\"font-size:60px;\">+</div>","key_press":null,"trial_type":"html-keyboard-response","trial_index":80,"time_elapsed":194096,"internal_node_id":"0.0-8.0-1.18","subject":"on067s7xffndsah","sona":"7675"},{"trial_type":"turing-test","trial_index":81,"time_elapsed":200328,"internal_node_id":"0.0-8.0-2.18","subject":"on067s7xffndsah","sona":"7675"},{"rt":497,"stimulus":"<p>Welche Sequenz haben Sie als natürlicher empfunden?</p>","key_press":70,"test_part":"response","test_stimulus":{"position":0,"left":"bvh/pass-bottle-training2-lines.txt","right":"bvh/vr_prediction_models/model(dmp)-dataset(pass-bottle)-npsi(10)-hold(2)/final-lines.txt","att_check":false},"trial_type":"html-keyboard-response","trial_index":82,"time_elapsed":200829,"internal_node_id":"0.0-8.0-3.18","subject":"on067s7xffndsah","sona":"7675"},{"rt":539,"stimulus":"<p>Bereit?</p>","key_press":32,"trial_type":"html-keyboard-response","trial_index":83,"time_elapsed":201370,"internal_node_id":"0.0-8.0-0.19","subject":"on067s7xffndsah","sona":"7675"},{"rt":null,"stimulus":"<div style=\"font-size:60px;\">+</div>","key_press":null,"trial_type":"html-keyboard-response","trial_index":84,"time_elapsed":203398,"internal_node_id":"0.0-8.0-1.19","subject":"on067s7xffndsah","sona":"7675"},{"trial_type":"turing-test","trial_index":85,"time_elapsed":209553,"internal_node_id":"0.0-8.0-2.19","subject":"on067s7xffndsah","sona":"7675"},{"rt":601,"stimulus":"<p>Welche Sequenz haben Sie als natürlicher empfunden?</p>","key_press":74,"test_part":"response","test_stimulus":{"position":1,"left":"bvh/vr_prediction_models/model(vcgpdm)-dataset(return-bottle)-mode(ELBO)-parts(1)-dyn(15)-lvm(35)-hold(3)/final-lines.txt","right":"bvh/return-bottle-training3-lines.txt","att_check":false},"trial_type":"html-keyboard-response","trial_index":86,"time_elapsed":210156,"internal_node_id":"0.0-8.0-3.19","subject":"on067s7xffndsah","sona":"7675"},{"rt":690,"stimulus":"<p>Bereit?</p>","key_press":32,"trial_type":"html-keyboard-response","trial_index":87,"time_elapsed":210847,"internal_node_id":"0.0-8.0-0.20","subject":"on067s7xffndsah","sona":"7675"},{"rt":null,"stimulus":"<div style=\"font-size:60px;\">+</div>","key_press":null,"trial_type":"html-keyboard-response","trial_index":88,"time_elapsed":212874,"internal_node_id":"0.0-8.0-1.20","subject":"on067s7xffndsah","sona":"7675"},{"trial_type":"turing-test","trial_index":89,"time_elapsed":216838,"internal_node_id":"0.0-8.0-2.20","subject":"on067s7xffndsah","sona":"7675"},{"rt":1212,"stimulus":"<p>Welche Sequenz haben Sie als natürlicher empfunden?</p>","key_press":74,"test_part":"response","test_stimulus":{"position":0,"left":"bvh/pass-bottle-hold-training3-lines.txt","right":"bvh/vr_prediction_models/model(vcgpdm)-dataset(pass-bottle-hold)-mode(ELBO)-parts(3)-dyn(35)-lvm(20)-hold(3)/final-lines.txt","att_check":false},"trial_type":"html-keyboard-response","trial_index":90,"time_elapsed":218053,"internal_node_id":"0.0-8.0-3.20","subject":"on067s7xffndsah","sona":"7675"},{"rt":454,"stimulus":"<p>Bereit?</p>","key_press":32,"trial_type":"html-keyboard-response","trial_index":91,"time_elapsed":218509,"internal_node_id":"0.0-8.0-0.21","subject":"on067s7xffndsah","sona":"7675"},{"rt":null,"stimulus":"<div style=\"font-size:60px;\">+</div>","key_press":null,"trial_type":"html-keyboard-response","trial_index":92,"time_elapsed":220539,"internal_node_id":"0.0-8.0-1.21","subject":"on067s7xffndsah","sona":"7675"},{"trial_type":"turing-test","trial_index":93,"time_elapsed":224109,"internal_node_id":"0.0-8.0-2.21","subject":"on067s7xffndsah","sona":"7675"},{"rt":716,"stimulus":"<p>Welche Sequenz haben Sie als natürlicher empfunden?</p>","key_press":74,"test_part":"response","test_stimulus":{"position":1,"left":"bvh/vr_prediction_models/model(dmp)-dataset(pass-bottle-hold)-npsi(40)-hold(3)/final-lines.txt","right":"bvh/pass-bottle-hold-training3-lines.txt","att_check":false},"trial_type":"html-keyboard-response","trial_index":94,"time_elapsed":224827,"internal_node_id":"0.0-8.0-3.21","subject":"on067s7xffndsah","sona":"7675"},{"rt":521,"stimulus":"<p>Bereit?</p>","key_press":32,"trial_type":"html-keyboard-response","trial_index":95,"time_elapsed":225351,"internal_node_id":"0.0-8.0-0.22","subject":"on067s7xffndsah","sona":"7675"},{"rt":null,"stimulus":"<div style=\"font-size:60px;\">+</div>","key_press":null,"trial_type":"html-keyboard-response","trial_index":96,"time_elapsed":227390,"internal_node_id":"0.0-8.0-1.22","subject":"on067s7xffndsah","sona":"7675"},{"trial_type":"turing-test","trial_index":97,"time_elapsed":233624,"internal_node_id":"0.0-8.0-2.22","subject":"on067s7xffndsah","sona":"7675"},{"rt":483,"stimulus":"<p>Welche Sequenz haben Sie als natürlicher empfunden?</p>","key_press":70,"test_part":"response","test_stimulus":{"position":0,"left":"bvh/pass-bottle-training2-lines.txt","right":"bvh/vr_prediction_models/model(dmp)-dataset(pass-bottle)-npsi(30)-hold(2)/final-lines.txt","att_check":true},"trial_type":"html-keyboard-response","trial_index":98,"time_elapsed":234109,"internal_node_id":"0.0-8.0-3.22","subject":"on067s7xffndsah","sona":"7675"},{"rt":498,"stimulus":"<p>Bereit?</p>","key_press":32,"trial_type":"html-keyboard-response","trial_index":99,"time_elapsed":234610,"internal_node_id":"0.0-8.0-0.23","subject":"on067s7xffndsah","sona":"7675"},{"rt":null,"stimulus":"<div style=\"font-size:60px;\">+</div>","key_press":null,"trial_type":"html-keyboard-response","trial_index":100,"time_elapsed":236644,"internal_node_id":"0.0-8.0-1.23","subject":"on067s7xffndsah","sona":"7675"},{"trial_type":"turing-test","trial_index":101,"time_elapsed":240004,"internal_node_id":"0.0-8.0-2.23","subject":"on067s7xffndsah","sona":"7675"},{"rt":565,"stimulus":"<p>Welche Sequenz haben Sie als natürlicher empfunden?</p>","key_press":70,"test_part":"response","test_stimulus":{"position":0,"left":"bvh/pass-bottle-hold-training0-lines.txt","right":"bvh/vr_prediction_models/model(tmp)-dataset(pass-bottle-hold)-numprim(4)-hold(0)/final-lines.txt","att_check":false},"trial_type":"html-keyboard-response","trial_index":102,"time_elapsed":240571,"internal_node_id":"0.0-8.0-3.23","subject":"on067s7xffndsah","sona":"7675"},{"rt":372,"stimulus":"<p>Bereit?</p>","key_press":32,"trial_type":"html-keyboard-response","trial_index":103,"time_elapsed":240946,"internal_node_id":"0.0-8.0-0.24","subject":"on067s7xffndsah","sona":"7675"},{"rt":null,"stimulus":"<div style=\"font-size:60px;\">+</div>","key_press":null,"trial_type":"html-keyboard-response","trial_index":104,"time_elapsed":242964,"internal_node_id":"0.0-8.0-1.24","subject":"on067s7xffndsah","sona":"7675"},{"trial_type":"turing-test","trial_index":105,"time_elapsed":248846,"internal_node_id":"0.0-8.0-2.24","subject":"on067s7xffndsah","sona":"7675"},{"rt":201,"stimulus":"<p>Welche Sequenz haben Sie als natürlicher empfunden?</p>","key_press":70,"test_part":"response","test_stimulus":{"position":0,"left":"bvh/return-bottle-training4-lines.txt","right":"bvh/vr_prediction_models/model(dmp)-dataset(return-bottle)-npsi(30)-hold(4)/final-lines.txt","att_check":false},"trial_type":"html-keyboard-response","trial_index":106,"time_elapsed":249049,"internal_node_id":"0.0-8.0-3.24","subject":"on067s7xffndsah","sona":"7675"},{"rt":441,"stimulus":"<p>Bereit?</p>","key_press":32,"trial_type":"html-keyboard-response","trial_index":107,"time_elapsed":249493,"internal_node_id":"0.0-8.0-0.25","subject":"on067s7xffndsah","sona":"7675"},{"rt":null,"stimulus":"<div style=\"font-size:60px;\">+</div>","key_press":null,"trial_type":"html-keyboard-response","trial_index":108,"time_elapsed":251506,"internal_node_id":"0.0-8.0-1.25","subject":"on067s7xffndsah","sona":"7675"},{"trial_type":"turing-test","trial_index":109,"time_elapsed":256832,"internal_node_id":"0.0-8.0-2.25","subject":"on067s7xffndsah","sona":"7675"},{"rt":1082,"stimulus":"<p>Welche Sequenz haben Sie als natürlicher empfunden?</p>","key_press":74,"test_part":"response","test_stimulus":{"position":0,"left":"bvh/return-bottle-hold-training0-lines.txt","right":"bvh/vr_prediction_models/model(tmp)-dataset(return-bottle-hold)-numprim(14)-hold(0)/final-lines.txt","att_check":false},"trial_type":"html-keyboard-response","trial_index":110,"time_elapsed":257916,"internal_node_id":"0.0-8.0-3.25","subject":"on067s7xffndsah","sona":"7675"},{"rt":941,"stimulus":"<p>Bereit?</p>","key_press":32,"trial_type":"html-keyboard-response","trial_index":111,"time_elapsed":258859,"internal_node_id":"0.0-8.0-0.26","subject":"on067s7xffndsah","sona":"7675"},{"rt":null,"stimulus":"<div style=\"font-size:60px;\">+</div>","key_press":null,"trial_type":"html-keyboard-response","trial_index":112,"time_elapsed":260882,"internal_node_id":"0.0-8.0-1.26","subject":"on067s7xffndsah","sona":"7675"},{"trial_type":"turing-test","trial_index":113,"time_elapsed":267127,"internal_node_id":"0.0-8.0-2.26","subject":"on067s7xffndsah","sona":"7675"},{"rt":730,"stimulus":"<p>Welche Sequenz haben Sie als natürlicher empfunden?</p>","key_press":74,"test_part":"response","test_stimulus":{"position":1,"left":"bvh/vr_prediction_models/model(vcgpdm)-dataset(pass-bottle)-mode(ELBO)-parts(3)-dyn(10)-lvm(30)-hold(3)/final-lines.txt","right":"bvh/pass-bottle-training3-lines.txt","att_check":false},"trial_type":"html-keyboard-response","trial_index":114,"time_elapsed":267858,"internal_node_id":"0.0-8.0-3.26","subject":"on067s7xffndsah","sona":"7675"},{"rt":420,"stimulus":"<p>Bereit?</p>","key_press":32,"trial_type":"html-keyboard-response","trial_index":115,"time_elapsed":268280,"internal_node_id":"0.0-8.0-0.27","subject":"on067s7xffndsah","sona":"7675"},{"rt":null,"stimulus":"<div style=\"font-size:60px;\">+</div>","key_press":null,"trial_type":"html-keyboard-response","trial_index":116,"time_elapsed":270286,"internal_node_id":"0.0-8.0-1.27","subject":"on067s7xffndsah","sona":"7675"},{"trial_type":"turing-test","trial_index":117,"time_elapsed":275276,"internal_node_id":"0.0-8.0-2.27","subject":"on067s7xffndsah","sona":"7675"},{"rt":2019,"stimulus":"<p>Welche Sequenz haben Sie als natürlicher empfunden?</p>","key_press":74,"test_part":"response","test_stimulus":{"position":1,"left":"bvh/vr_prediction_models/model(tmp)-dataset(return-bottle-hold)-numprim(15)-hold(0)/final-lines.txt","right":"bvh/return-bottle-hold-training0-lines.txt","att_check":false},"trial_type":"html-keyboard-response","trial_index":118,"time_elapsed":277298,"internal_node_id":"0.0-8.0-3.27","subject":"on067s7xffndsah","sona":"7675"},{"rt":316,"stimulus":"<p>Bereit?</p>","key_press":32,"trial_type":"html-keyboard-response","trial_index":119,"time_elapsed":277617,"internal_node_id":"0.0-8.0-0.28","subject":"on067s7xffndsah","sona":"7675"},{"rt":null,"stimulus":"<div style=\"font-size:60px;\">+</div>","key_press":null,"trial_type":"html-keyboard-response","trial_index":120,"time_elapsed":279656,"internal_node_id":"0.0-8.0-1.28","subject":"on067s7xffndsah","sona":"7675"},{"trial_type":"turing-test","trial_index":121,"time_elapsed":285526,"internal_node_id":"0.0-8.0-2.28","subject":"on067s7xffndsah","sona":"7675"},{"rt":365,"stimulus":"<p>Welche Sequenz haben Sie als natürlicher empfunden?</p>","key_press":70,"test_part":"response","test_stimulus":{"position":1,"left":"bvh/vr_prediction_models/model(tmp)-dataset(pass-bottle)-numprim(11)-hold(3)/final-lines.txt","right":"bvh/pass-bottle-training3-lines.txt","att_check":false},"trial_type":"html-keyboard-response","trial_index":122,"time_elapsed":285893,"internal_node_id":"0.0-8.0-3.28","subject":"on067s7xffndsah","sona":"7675"},{"rt":428,"stimulus":"<p>Bereit?</p>","key_press":32,"trial_type":"html-keyboard-response","trial_index":123,"time_elapsed":286324,"internal_node_id":"0.0-8.0-0.29","subject":"on067s7xffndsah","sona":"7675"},{"rt":null,"stimulus":"<div style=\"font-size:60px;\">+</div>","key_press":null,"trial_type":"html-keyboard-response","trial_index":124,"time_elapsed":288347,"internal_node_id":"0.0-8.0-1.29","subject":"on067s7xffndsah","sona":"7675"},{"trial_type":"turing-test","trial_index":125,"time_elapsed":294862,"internal_node_id":"0.0-8.0-2.29","subject":"on067s7xffndsah","sona":"7675"},{"rt":406,"stimulus":"<p>Welche Sequenz haben Sie als natürlicher empfunden?</p>","key_press":74,"test_part":"response","test_stimulus":{"position":1,"left":"bvh/vr_prediction_models/model(tmp)-dataset(pass-bottle)-numprim(3)-hold(2)/final-lines.txt","right":"bvh/pass-bottle-training2-lines.txt","att_check":false},"trial_type":"html-keyboard-response","trial_index":126,"time_elapsed":295270,"internal_node_id":"0.0-8.0-3.29","subject":"on067s7xffndsah","sona":"7675"},{"rt":318,"stimulus":"<p>Bereit?</p>","key_press":32,"trial_type":"html-keyboard-response","trial_index":127,"time_elapsed":295590,"internal_node_id":"0.0-8.0-0.30","subject":"on067s7xffndsah","sona":"7675"},{"rt":null,"stimulus":"<div style=\"font-size:60px;\">+</div>","key_press":null,"trial_type":"html-keyboard-response","trial_index":128,"time_elapsed":297603,"internal_node_id":"0.0-8.0-1.30","subject":"on067s7xffndsah","sona":"7675"},{"trial_type":"turing-test","trial_index":129,"time_elapsed":303393,"internal_node_id":"0.0-8.0-2.30","subject":"on067s7xffndsah","sona":"7675"},{"rt":573,"stimulus":"<p>Welche Sequenz haben Sie als natürlicher empfunden?</p>","key_press":74,"test_part":"response","test_stimulus":{"position":0,"left":"bvh/pass-bottle-training4-lines.txt","right":"bvh/vr_prediction_models/model(tmp)-dataset(pass-bottle)-numprim(15)-hold(4)/final-lines.txt","att_check":false},"trial_type":"html-keyboard-response","trial_index":130,"time_elapsed":303968,"internal_node_id":"0.0-8.0-3.30","subject":"on067s7xffndsah","sona":"7675"},{"rt":345,"stimulus":"<p>Bereit?</p>","key_press":32,"trial_type":"html-keyboard-response","trial_index":131,"time_elapsed":304315,"internal_node_id":"0.0-8.0-0.31","subject":"on067s7xffndsah","sona":"7675"},{"rt":null,"stimulus":"<div style=\"font-size:60px;\">+</div>","key_press":null,"trial_type":"html-keyboard-response","trial_index":132,"time_elapsed":306322,"internal_node_id":"0.0-8.0-1.31","subject":"on067s7xffndsah","sona":"7675"},{"trial_type":"turing-test","trial_index":133,"time_elapsed":312679,"internal_node_id":"0.0-8.0-2.31","subject":"on067s7xffndsah","sona":"7675"},{"rt":912,"stimulus":"<p>Welche Sequenz haben Sie als natürlicher empfunden?</p>","key_press":74,"test_part":"response","test_stimulus":{"position":0,"left":"bvh/return-bottle-training1-lines.txt","right":"bvh/vr_prediction_models/model(vcgpdm)-dataset(return-bottle)-mode(ELBO)-parts(3)-dyn(10)-lvm(30)-hold(1)/final-lines.txt","att_check":false},"trial_type":"html-keyboard-response","trial_index":134,"time_elapsed":313593,"internal_node_id":"0.0-8.0-3.31","subject":"on067s7xffndsah","sona":"7675"},{"rt":336,"stimulus":"<p>Bereit?</p>","key_press":32,"trial_type":"html-keyboard-response","trial_index":135,"time_elapsed":313931,"internal_node_id":"0.0-8.0-0.32","subject":"on067s7xffndsah","sona":"7675"},{"rt":null,"stimulus":"<div style=\"font-size:60px;\">+</div>","key_press":null,"trial_type":"html-keyboard-response","trial_index":136,"time_elapsed":315960,"internal_node_id":"0.0-8.0-1.32","subject":"on067s7xffndsah","sona":"7675"},{"trial_type":"turing-test","trial_index":137,"time_elapsed":321440,"internal_node_id":"0.0-8.0-2.32","subject":"on067s7xffndsah","sona":"7675"},{"rt":348,"stimulus":"<p>Welche Sequenz haben Sie als natürlicher empfunden?</p>","key_press":74,"test_part":"response","test_stimulus":{"position":1,"left":"bvh/vr_prediction_models/model(dmp)-dataset(pass-bottle)-npsi(80)-hold(1)/final-lines.txt","right":"bvh/pass-bottle-training1-lines.txt","att_check":false},"trial_type":"html-keyboard-response","trial_index":138,"time_elapsed":321791,"internal_node_id":"0.0-8.0-3.32","subject":"on067s7xffndsah","sona":"7675"},{"rt":385,"stimulus":"<p>Bereit?</p>","key_press":32,"trial_type":"html-keyboard-response","trial_index":139,"time_elapsed":322177,"internal_node_id":"0.0-8.0-0.33","subject":"on067s7xffndsah","sona":"7675"},{"rt":null,"stimulus":"<div style=\"font-size:60px;\">+</div>","key_press":null,"trial_type":"html-keyboard-response","trial_index":140,"time_elapsed":324199,"internal_node_id":"0.0-8.0-1.33","subject":"on067s7xffndsah","sona":"7675"},{"trial_type":"turing-test","trial_index":141,"time_elapsed":330366,"internal_node_id":"0.0-8.0-2.33","subject":"on067s7xffndsah","sona":"7675"},{"rt":508,"stimulus":"<p>Welche Sequenz haben Sie als natürlicher empfunden?</p>","key_press":74,"test_part":"response","test_stimulus":{"position":1,"left":"bvh/vr_prediction_models/model(vcgpdm)-dataset(pass-bottle)-mode(ELBO)-parts(1)-dyn(15)-lvm(35)-hold(4)/final-lines.txt","right":"bvh/pass-bottle-training4-lines.txt","att_check":false},"trial_type":"html-keyboard-response","trial_index":142,"time_elapsed":330876,"internal_node_id":"0.0-8.0-3.33","subject":"on067s7xffndsah","sona":"7675"},{"rt":429,"stimulus":"<p>Bereit?</p>","key_press":32,"trial_type":"html-keyboard-response","trial_index":143,"time_elapsed":331307,"internal_node_id":"0.0-8.0-0.34","subject":"on067s7xffndsah","sona":"7675"},{"rt":null,"stimulus":"<div style=\"font-size:60px;\">+</div>","key_press":null,"trial_type":"html-keyboard-response","trial_index":144,"time_elapsed":333327,"internal_node_id":"0.0-8.0-1.34","subject":"on067s7xffndsah","sona":"7675"},{"trial_type":"turing-test","trial_index":145,"time_elapsed":337170,"internal_node_id":"0.0-8.0-2.34","subject":"on067s7xffndsah","sona":"7675"},{"rt":849,"stimulus":"<p>Welche Sequenz haben Sie als natürlicher empfunden?</p>","key_press":70,"test_part":"response","test_stimulus":{"position":0,"left":"bvh/return-bottle-hold-training2-lines.txt","right":"bvh/vr_prediction_models/model(vcgpdm)-dataset(return-bottle-hold)-mode(ELBO)-parts(3)-dyn(15)-lvm(30)-hold(2)/final-lines.txt","att_check":false},"trial_type":"html-keyboard-response","trial_index":146,"time_elapsed":338021,"internal_node_id":"0.0-8.0-3.34","subject":"on067s7xffndsah","sona":"7675"},{"rt":264,"stimulus":"<p>Bereit?</p>","key_press":32,"trial_type":"html-keyboard-response","trial_index":147,"time_elapsed":338287,"internal_node_id":"0.0-8.0-0.35","subject":"on067s7xffndsah","sona":"7675"},{"rt":null,"stimulus":"<div style=\"font-size:60px;\">+</div>","key_press":null,"trial_type":"html-keyboard-response","trial_index":148,"time_elapsed":340310,"internal_node_id":"0.0-8.0-1.35","subject":"on067s7xffndsah","sona":"7675"},{"trial_type":"turing-test","trial_index":149,"time_elapsed":347039,"internal_node_id":"0.0-8.0-2.35","subject":"on067s7xffndsah","sona":"7675"},{"rt":68,"stimulus":"<p>Welche Sequenz haben Sie als natürlicher empfunden?</p>","key_press":70,"test_part":"response","test_stimulus":{"position":0,"left":"bvh/return-bottle-training2-lines.txt","right":"bvh/vr_prediction_models/model(dmp)-dataset(return-bottle)-npsi(40)-hold(2)/final-lines.txt","att_check":true},"trial_type":"html-keyboard-response","trial_index":150,"time_elapsed":347109,"internal_node_id":"0.0-8.0-3.35","subject":"on067s7xffndsah","sona":"7675"},{"rt":1386,"stimulus":"<p>Bereit?</p>","key_press":32,"trial_type":"html-keyboard-response","trial_index":151,"time_elapsed":348497,"internal_node_id":"0.0-8.0-0.36","subject":"on067s7xffndsah","sona":"7675"},{"rt":null,"stimulus":"<div style=\"font-size:60px;\">+</div>","key_press":null,"trial_type":"html-keyboard-response","trial_index":152,"time_elapsed":350520,"internal_node_id":"0.0-8.0-1.36","subject":"on067s7xffndsah","sona":"7675"},{"trial_type":"turing-test","trial_index":153,"time_elapsed":353938,"internal_node_id":"0.0-8.0-2.36","subject":"on067s7xffndsah","sona":"7675"},{"rt":332,"stimulus":"<p>Welche Sequenz haben Sie als natürlicher empfunden?</p>","key_press":70,"test_part":"response","test_stimulus":{"position":0,"left":"bvh/pass-bottle-hold-training2-lines.txt","right":"bvh/vr_prediction_models/model(dmp)-dataset(pass-bottle-hold)-npsi(30)-hold(2)/final-lines.txt","att_check":true},"trial_type":"html-keyboard-response","trial_index":154,"time_elapsed":354273,"internal_node_id":"0.0-8.0-3.36","subject":"on067s7xffndsah","sona":"7675"},{"rt":347,"stimulus":"<p>Bereit?</p>","key_press":32,"trial_type":"html-keyboard-response","trial_index":155,"time_elapsed":354621,"internal_node_id":"0.0-8.0-0.37","subject":"on067s7xffndsah","sona":"7675"},{"rt":null,"stimulus":"<div style=\"font-size:60px;\">+</div>","key_press":null,"trial_type":"html-keyboard-response","trial_index":156,"time_elapsed":356660,"internal_node_id":"0.0-8.0-1.37","subject":"on067s7xffndsah","sona":"7675"},{"trial_type":"turing-test","trial_index":157,"time_elapsed":363049,"internal_node_id":"0.0-8.0-2.37","subject":"on067s7xffndsah","sona":"7675"},{"rt":1622,"stimulus":"<p>Welche Sequenz haben Sie als natürlicher empfunden?</p>","key_press":74,"test_part":"response","test_stimulus":{"position":1,"left":"bvh/vr_prediction_models/model(vcgpdm)-dataset(pass-bottle)-mode(ELBO)-parts(3)-dyn(20)-lvm(15)-hold(3)/final-lines.txt","right":"bvh/pass-bottle-training3-lines.txt","att_check":false},"trial_type":"html-keyboard-response","trial_index":158,"time_elapsed":364673,"internal_node_id":"0.0-8.0-3.37","subject":"on067s7xffndsah","sona":"7675"},{"rt":423,"stimulus":"<p>Bereit?</p>","key_press":32,"trial_type":"html-keyboard-response","trial_index":159,"time_elapsed":365098,"internal_node_id":"0.0-8.0-0.38","subject":"on067s7xffndsah","sona":"7675"},{"rt":null,"stimulus":"<div style=\"font-size:60px;\">+</div>","key_press":null,"trial_type":"html-keyboard-response","trial_index":160,"time_elapsed":367129,"internal_node_id":"0.0-8.0-1.38","subject":"on067s7xffndsah","sona":"7675"},{"trial_type":"turing-test","trial_index":161,"time_elapsed":370708,"internal_node_id":"0.0-8.0-2.38","subject":"on067s7xffndsah","sona":"7675"},{"rt":572,"stimulus":"<p>Welche Sequenz haben Sie als natürlicher empfunden?</p>","key_press":70,"test_part":"response","test_stimulus":{"position":0,"left":"bvh/pass-bottle-hold-training3-lines.txt","right":"bvh/vr_prediction_models/model(dmp)-dataset(pass-bottle-hold)-npsi(70)-hold(3)/final-lines.txt","att_check":false},"trial_type":"html-keyboard-response","trial_index":162,"time_elapsed":371283,"internal_node_id":"0.0-8.0-3.38","subject":"on067s7xffndsah","sona":"7675"},{"rt":384,"stimulus":"<p>Bereit?</p>","key_press":32,"trial_type":"html-keyboard-response","trial_index":163,"time_elapsed":371670,"internal_node_id":"0.0-8.0-0.39","subject":"on067s7xffndsah","sona":"7675"},{"rt":null,"stimulus":"<div style=\"font-size:60px;\">+</div>","key_press":null,"trial_type":"html-keyboard-response","trial_index":164,"time_elapsed":373708,"internal_node_id":"0.0-8.0-1.39","subject":"on067s7xffndsah","sona":"7675"},{"trial_type":"turing-test","trial_index":165,"time_elapsed":378888,"internal_node_id":"0.0-8.0-2.39","subject":"on067s7xffndsah","sona":"7675"},{"rt":620,"stimulus":"<p>Welche Sequenz haben Sie als natürlicher empfunden?</p>","key_press":74,"test_part":"response","test_stimulus":{"position":1,"left":"bvh/vr_prediction_models/model(dmp)-dataset(return-bottle-hold)-npsi(60)-hold(0)/final-lines.txt","right":"bvh/return-bottle-hold-training0-lines.txt","att_check":false},"trial_type":"html-keyboard-response","trial_index":166,"time_elapsed":379511,"internal_node_id":"0.0-8.0-3.39","subject":"on067s7xffndsah","sona":"7675"},{"rt":404,"stimulus":"<p>Bereit?</p>","key_press":32,"trial_type":"html-keyboard-response","trial_index":167,"time_elapsed":379916,"internal_node_id":"0.0-8.0-0.40","subject":"on067s7xffndsah","sona":"7675"},{"rt":null,"stimulus":"<div style=\"font-size:60px;\">+</div>","key_press":null,"trial_type":"html-keyboard-response","trial_index":168,"time_elapsed":381939,"internal_node_id":"0.0-8.0-1.40","subject":"on067s7xffndsah","sona":"7675"},{"trial_type":"turing-test","trial_index":169,"time_elapsed":388689,"internal_node_id":"0.0-8.0-2.40","subject":"on067s7xffndsah","sona":"7675"},{"rt":2099,"stimulus":"<p>Welche Sequenz haben Sie als natürlicher empfunden?</p>","key_press":74,"test_part":"response","test_stimulus":{"position":1,"left":"bvh/vr_prediction_models/model(vcgpdm)-dataset(return-bottle)-mode(ELBO)-parts(1)-dyn(15)-lvm(35)-hold(2)/final-lines.txt","right":"bvh/return-bottle-training2-lines.txt","att_check":false},"trial_type":"html-keyboard-response","trial_index":170,"time_elapsed":390790,"internal_node_id":"0.0-8.0-3.40","subject":"on067s7xffndsah","sona":"7675"},{"rt":414,"stimulus":"<p>Bereit?</p>","key_press":32,"trial_type":"html-keyboard-response","trial_index":171,"time_elapsed":391205,"internal_node_id":"0.0-8.0-0.41","subject":"on067s7xffndsah","sona":"7675"},{"rt":null,"stimulus":"<div style=\"font-size:60px;\">+</div>","key_press":null,"trial_type":"html-keyboard-response","trial_index":172,"time_elapsed":393229,"internal_node_id":"0.0-8.0-1.41","subject":"on067s7xffndsah","sona":"7675"},{"trial_type":"turing-test","trial_index":173,"time_elapsed":399066,"internal_node_id":"0.0-8.0-2.41","subject":"on067s7xffndsah","sona":"7675"},{"rt":414,"stimulus":"<p>Welche Sequenz haben Sie als natürlicher empfunden?</p>","key_press":70,"test_part":"response","test_stimulus":{"position":1,"left":"bvh/vr_prediction_models/model(vcgpdm)-dataset(pass-bottle)-mode(ELBO)-parts(1)-dyn(10)-lvm(5)-hold(1)/final-lines.txt","right":"bvh/pass-bottle-training1-lines.txt","att_check":false},"trial_type":"html-keyboard-response","trial_index":174,"time_elapsed":399483,"internal_node_id":"0.0-8.0-3.41","subject":"on067s7xffndsah","sona":"7675"},{"rt":320,"stimulus":"<p>Bereit?</p>","key_press":32,"trial_type":"html-keyboard-response","trial_index":175,"time_elapsed":399805,"internal_node_id":"0.0-8.0-0.42","subject":"on067s7xffndsah","sona":"7675"},{"rt":null,"stimulus":"<div style=\"font-size:60px;\">+</div>","key_press":null,"trial_type":"html-keyboard-response","trial_index":176,"time_elapsed":401829,"internal_node_id":"0.0-8.0-1.42","subject":"on067s7xffndsah","sona":"7675"},{"trial_type":"turing-test","trial_index":177,"time_elapsed":405983,"internal_node_id":"0.0-8.0-2.42","subject":"on067s7xffndsah","sona":"7675"},{"rt":950,"stimulus":"<p>Welche Sequenz haben Sie als natürlicher empfunden?</p>","key_press":74,"test_part":"response","test_stimulus":{"position":0,"left":"bvh/return-bottle-hold-training1-lines.txt","right":"bvh/vr_prediction_models/model(vcgpdm)-dataset(return-bottle-hold)-mode(ELBO)-parts(1)-dyn(30)-lvm(20)-hold(1)/final-lines.txt","att_check":false},"trial_type":"html-keyboard-response","trial_index":178,"time_elapsed":406938,"internal_node_id":"0.0-8.0-3.42","subject":"on067s7xffndsah","sona":"7675"},{"rt":352,"stimulus":"<p>Bereit?</p>","key_press":32,"trial_type":"html-keyboard-response","trial_index":179,"time_elapsed":407292,"internal_node_id":"0.0-8.0-0.43","subject":"on067s7xffndsah","sona":"7675"},{"rt":null,"stimulus":"<div style=\"font-size:60px;\">+</div>","key_press":null,"trial_type":"html-keyboard-response","trial_index":180,"time_elapsed":409314,"internal_node_id":"0.0-8.0-1.43","subject":"on067s7xffndsah","sona":"7675"},{"trial_type":"turing-test","trial_index":181,"time_elapsed":412954,"internal_node_id":"0.0-8.0-2.43","subject":"on067s7xffndsah","sona":"7675"},{"rt":358,"stimulus":"<p>Welche Sequenz haben Sie als natürlicher empfunden?</p>","key_press":70,"test_part":"response","test_stimulus":{"position":0,"left":"bvh/return-bottle-hold-training4-lines.txt","right":"bvh/vr_prediction_models/model(vcgpdm)-dataset(return-bottle-hold)-mode(ELBO)-parts(1)-dyn(20)-lvm(20)-hold(4)/final-lines.txt","att_check":false},"trial_type":"html-keyboard-response","trial_index":182,"time_elapsed":413316,"internal_node_id":"0.0-8.0-3.43","subject":"on067s7xffndsah","sona":"7675"},{"rt":353,"stimulus":"<p>Bereit?</p>","key_press":32,"trial_type":"html-keyboard-response","trial_index":183,"time_elapsed":413672,"internal_node_id":"0.0-8.0-0.44","subject":"on067s7xffndsah","sona":"7675"},{"rt":null,"stimulus":"<div style=\"font-size:60px;\">+</div>","key_press":null,"trial_type":"html-keyboard-response","trial_index":184,"time_elapsed":415706,"internal_node_id":"0.0-8.0-1.44","subject":"on067s7xffndsah","sona":"7675"},{"trial_type":"turing-test","trial_index":185,"time_elapsed":422284,"internal_node_id":"0.0-8.0-2.44","subject":"on067s7xffndsah","sona":"7675"},{"rt":378,"stimulus":"<p>Welche Sequenz haben Sie als natürlicher empfunden?</p>","key_press":74,"test_part":"response","test_stimulus":{"position":0,"left":"bvh/return-bottle-training2-lines.txt","right":"bvh/vr_prediction_models/model(tmp)-dataset(return-bottle)-numprim(8)-hold(2)/final-lines.txt","att_check":false},"trial_type":"html-keyboard-response","trial_index":186,"time_elapsed":422664,"internal_node_id":"0.0-8.0-3.44","subject":"on067s7xffndsah","sona":"7675"},{"rt":332,"stimulus":"<p>Bereit?</p>","key_press":32,"trial_type":"html-keyboard-response","trial_index":187,"time_elapsed":422998,"internal_node_id":"0.0-8.0-0.45","subject":"on067s7xffndsah","sona":"7675"},{"rt":null,"stimulus":"<div style=\"font-size:60px;\">+</div>","key_press":null,"trial_type":"html-keyboard-response","trial_index":188,"time_elapsed":425025,"internal_node_id":"0.0-8.0-1.45","subject":"on067s7xffndsah","sona":"7675"},{"trial_type":"turing-test","trial_index":189,"time_elapsed":428988,"internal_node_id":"0.0-8.0-2.45","subject":"on067s7xffndsah","sona":"7675"},{"rt":560,"stimulus":"<p>Welche Sequenz haben Sie als natürlicher empfunden?</p>","key_press":74,"test_part":"response","test_stimulus":{"position":1,"left":"bvh/vr_prediction_models/model(vcgpdm)-dataset(pass-bottle-hold)-mode(MAP)-parts(3)-hold(0)/final-lines.txt","right":"bvh/pass-bottle-hold-training0-lines.txt","att_check":false},"trial_type":"html-keyboard-response","trial_index":190,"time_elapsed":429552,"internal_node_id":"0.0-8.0-3.45","subject":"on067s7xffndsah","sona":"7675"},{"rt":399,"stimulus":"<p>Bereit?</p>","key_press":32,"trial_type":"html-keyboard-response","trial_index":191,"time_elapsed":429953,"internal_node_id":"0.0-8.0-0.46","subject":"on067s7xffndsah","sona":"7675"},{"rt":null,"stimulus":"<div style=\"font-size:60px;\">+</div>","key_press":null,"trial_type":"html-keyboard-response","trial_index":192,"time_elapsed":431989,"internal_node_id":"0.0-8.0-1.46","subject":"on067s7xffndsah","sona":"7675"},{"trial_type":"turing-test","trial_index":193,"time_elapsed":439072,"internal_node_id":"0.0-8.0-2.46","subject":"on067s7xffndsah","sona":"7675"},{"rt":365,"stimulus":"<p>Welche Sequenz haben Sie als natürlicher empfunden?</p>","key_press":70,"test_part":"response","test_stimulus":{"position":0,"left":"bvh/pass-bottle-training0-lines.txt","right":"bvh/vr_prediction_models/model(vcgpdm)-dataset(pass-bottle)-mode(ELBO)-parts(3)-dyn(30)-lvm(15)-hold(0)/final-lines.txt","att_check":false},"trial_type":"html-keyboard-response","trial_index":194,"time_elapsed":439442,"internal_node_id":"0.0-8.0-3.46","subject":"on067s7xffndsah","sona":"7675"},{"rt":290,"stimulus":"<p>Bereit?</p>","key_press":32,"trial_type":"html-keyboard-response","trial_index":195,"time_elapsed":439734,"internal_node_id":"0.0-8.0-0.47","subject":"on067s7xffndsah","sona":"7675"},{"rt":null,"stimulus":"<div style=\"font-size:60px;\">+</div>","key_press":null,"trial_type":"html-keyboard-response","trial_index":196,"time_elapsed":441773,"internal_node_id":"0.0-8.0-1.47","subject":"on067s7xffndsah","sona":"7675"},{"trial_type":"turing-test","trial_index":197,"time_elapsed":446188,"internal_node_id":"0.0-8.0-2.47","subject":"on067s7xffndsah","sona":"7675"},{"rt":25,"stimulus":"<p>Welche Sequenz haben Sie als natürlicher empfunden?</p>","key_press":74,"test_part":"response","test_stimulus":{"position":0,"left":"bvh/return-bottle-hold-training3-lines.txt","right":"bvh/vr_prediction_models/model(tmp)-dataset(return-bottle-hold)-numprim(14)-hold(3)/final-lines.txt","att_check":false},"trial_type":"html-keyboard-response","trial_index":198,"time_elapsed":446216,"internal_node_id":"0.0-8.0-3.47","subject":"on067s7xffndsah","sona":"7675"},{"rt":365,"stimulus":"<p>Bereit?</p>","key_press":32,"trial_type":"html-keyboard-response","trial_index":199,"time_elapsed":446581,"internal_node_id":"0.0-8.0-0.48","subject":"on067s7xffndsah","sona":"7675"},{"rt":null,"stimulus":"<div style=\"font-size:60px;\">+</div>","key_press":null,"trial_type":"html-keyboard-response","trial_index":200,"time_elapsed":448598,"internal_node_id":"0.0-8.0-1.48","subject":"on067s7xffndsah","sona":"7675"},{"trial_type":"turing-test","trial_index":201,"time_elapsed":451968,"internal_node_id":"0.0-8.0-2.48","subject":"on067s7xffndsah","sona":"7675"},{"rt":789,"stimulus":"<p>Welche Sequenz haben Sie als natürlicher empfunden?</p>","key_press":70,"test_part":"response","test_stimulus":{"position":1,"left":"bvh/vr_prediction_models/model(dmp)-dataset(pass-bottle-hold)-npsi(80)-hold(0)/final-lines.txt","right":"bvh/pass-bottle-hold-training0-lines.txt","att_check":false},"trial_type":"html-keyboard-response","trial_index":202,"time_elapsed":452759,"internal_node_id":"0.0-8.0-3.48","subject":"on067s7xffndsah","sona":"7675"},{"rt":215,"stimulus":"<p>Bereit?</p>","key_press":32,"trial_type":"html-keyboard-response","trial_index":203,"time_elapsed":452975,"internal_node_id":"0.0-8.0-0.49","subject":"on067s7xffndsah","sona":"7675"},{"rt":null,"stimulus":"<div style=\"font-size:60px;\">+</div>","key_press":null,"trial_type":"html-keyboard-response","trial_index":204,"time_elapsed":454978,"internal_node_id":"0.0-8.0-1.49","subject":"on067s7xffndsah","sona":"7675"},{"trial_type":"turing-test","trial_index":205,"time_elapsed":460077,"internal_node_id":"0.0-8.0-2.49","subject":"on067s7xffndsah","sona":"7675"},{"rt":445,"stimulus":"<p>Welche Sequenz haben Sie als natürlicher empfunden?</p>","key_press":74,"test_part":"response","test_stimulus":{"position":1,"left":"bvh/vr_prediction_models/model(dmp)-dataset(return-bottle-hold)-npsi(70)-hold(0)/final-lines.txt","right":"bvh/return-bottle-hold-training0-lines.txt","att_check":false},"trial_type":"html-keyboard-response","trial_index":206,"time_elapsed":460525,"internal_node_id":"0.0-8.0-3.49","subject":"on067s7xffndsah","sona":"7675"},{"rt":408,"stimulus":"<p>Bereit?</p>","key_press":32,"trial_type":"html-keyboard-response","trial_index":207,"time_elapsed":460935,"internal_node_id":"0.0-8.0-0.50","subject":"on067s7xffndsah","sona":"7675"},{"rt":null,"stimulus":"<div style=\"font-size:60px;\">+</div>","key_press":null,"trial_type":"html-keyboard-response","trial_index":208,"time_elapsed":462958,"internal_node_id":"0.0-8.0-1.50","subject":"on067s7xffndsah","sona":"7675"},{"trial_type":"turing-test","trial_index":209,"time_elapsed":466267,"internal_node_id":"0.0-8.0-2.50","subject":"on067s7xffndsah","sona":"7675"},{"rt":459,"stimulus":"<p>Welche Sequenz haben Sie als natürlicher empfunden?</p>","key_press":74,"test_part":"response","test_stimulus":{"position":0,"left":"bvh/return-bottle-hold-training1-lines.txt","right":"bvh/vr_prediction_models/model(tmp)-dataset(return-bottle-hold)-numprim(11)-hold(1)/final-lines.txt","att_check":false},"trial_type":"html-keyboard-response","trial_index":210,"time_elapsed":466729,"internal_node_id":"0.0-8.0-3.50","subject":"on067s7xffndsah","sona":"7675"},{"rt":282,"stimulus":"<p>Bereit?</p>","key_press":32,"trial_type":"html-keyboard-response","trial_index":211,"time_elapsed":467015,"internal_node_id":"0.0-8.0-0.51","subject":"on067s7xffndsah","sona":"7675"},{"rt":null,"stimulus":"<div style=\"font-size:60px;\">+</div>","key_press":null,"trial_type":"html-keyboard-response","trial_index":212,"time_elapsed":469038,"internal_node_id":"0.0-8.0-1.51","subject":"on067s7xffndsah","sona":"7675"},{"trial_type":"turing-test","trial_index":213,"time_elapsed":476041,"internal_node_id":"0.0-8.0-2.51","subject":"on067s7xffndsah","sona":"7675"},{"rt":574,"stimulus":"<p>Welche Sequenz haben Sie als natürlicher empfunden?</p>","key_press":74,"test_part":"response","test_stimulus":{"position":1,"left":"bvh/vr_prediction_models/model(vcgpdm)-dataset(pass-bottle)-mode(ELBO)-parts(1)-dyn(20)-lvm(5)-hold(0)/final-lines.txt","right":"bvh/pass-bottle-training0-lines.txt","att_check":false},"trial_type":"html-keyboard-response","trial_index":214,"time_elapsed":476618,"internal_node_id":"0.0-8.0-3.51","subject":"on067s7xffndsah","sona":"7675"},{"rt":320,"stimulus":"<p>Bereit?</p>","key_press":32,"trial_type":"html-keyboard-response","trial_index":215,"time_elapsed":476941,"internal_node_id":"0.0-8.0-0.52","subject":"on067s7xffndsah","sona":"7675"},{"rt":null,"stimulus":"<div style=\"font-size:60px;\">+</div>","key_press":null,"trial_type":"html-keyboard-response","trial_index":216,"time_elapsed":478981,"internal_node_id":"0.0-8.0-1.52","subject":"on067s7xffndsah","sona":"7675"},{"trial_type":"turing-test","trial_index":217,"time_elapsed":484983,"internal_node_id":"0.0-8.0-2.52","subject":"on067s7xffndsah","sona":"7675"},{"rt":610,"stimulus":"<p>Welche Sequenz haben Sie als natürlicher empfunden?</p>","key_press":70,"test_part":"response","test_stimulus":{"position":0,"left":"bvh/return-bottle-training0-lines.txt","right":"bvh/vr_prediction_models/model(dmp)-dataset(return-bottle)-npsi(30)-hold(0)/final-lines.txt","att_check":false},"trial_type":"html-keyboard-response","trial_index":218,"time_elapsed":485594,"internal_node_id":"0.0-8.0-3.52","subject":"on067s7xffndsah","sona":"7675"},{"rt":446,"stimulus":"<p>Bereit?</p>","key_press":32,"trial_type":"html-keyboard-response","trial_index":219,"time_elapsed":486042,"internal_node_id":"0.0-8.0-0.53","subject":"on067s7xffndsah","sona":"7675"},{"rt":null,"stimulus":"<div style=\"font-size:60px;\">+</div>","key_press":null,"trial_type":"html-keyboard-response","trial_index":220,"time_elapsed":488063,"internal_node_id":"0.0-8.0-1.53","subject":"on067s7xffndsah","sona":"7675"},{"trial_type":"turing-test","trial_index":221,"time_elapsed":491653,"internal_node_id":"0.0-8.0-2.53","subject":"on067s7xffndsah","sona":"7675"},{"rt":1347,"stimulus":"<p>Welche Sequenz haben Sie als natürlicher empfunden?</p>","key_press":74,"test_part":"response","test_stimulus":{"position":1,"left":"bvh/vr_prediction_models/model(tmp)-dataset(pass-bottle-hold)-numprim(8)-hold(3)/final-lines.txt","right":"bvh/pass-bottle-hold-training3-lines.txt","att_check":false},"trial_type":"html-keyboard-response","trial_index":222,"time_elapsed":493004,"internal_node_id":"0.0-8.0-3.53","subject":"on067s7xffndsah","sona":"7675"},{"rt":809,"stimulus":"<p>Bereit?</p>","key_press":32,"trial_type":"html-keyboard-response","trial_index":223,"time_elapsed":493814,"internal_node_id":"0.0-8.0-0.54","subject":"on067s7xffndsah","sona":"7675"},{"rt":null,"stimulus":"<div style=\"font-size:60px;\">+</div>","key_press":null,"trial_type":"html-keyboard-response","trial_index":224,"time_elapsed":495823,"internal_node_id":"0.0-8.0-1.54","subject":"on067s7xffndsah","sona":"7675"},{"trial_type":"turing-test","trial_index":225,"time_elapsed":499153,"internal_node_id":"0.0-8.0-2.54","subject":"on067s7xffndsah","sona":"7675"},{"rt":314,"stimulus":"<p>Welche Sequenz haben Sie als natürlicher empfunden?</p>","key_press":74,"test_part":"response","test_stimulus":{"position":1,"left":"bvh/vr_prediction_models/model(dmp)-dataset(pass-bottle-hold)-npsi(80)-hold(1)/final-lines.txt","right":"bvh/pass-bottle-hold-training1-lines.txt","att_check":false},"trial_type":"html-keyboard-response","trial_index":226,"time_elapsed":499469,"internal_node_id":"0.0-8.0-3.54","subject":"on067s7xffndsah","sona":"7675"},{"rt":393,"stimulus":"<p>Bereit?</p>","key_press":32,"trial_type":"html-keyboard-response","trial_index":227,"time_elapsed":499865,"internal_node_id":"0.0-8.0-0.55","subject":"on067s7xffndsah","sona":"7675"},{"rt":null,"stimulus":"<div style=\"font-size:60px;\">+</div>","key_press":null,"trial_type":"html-keyboard-response","trial_index":228,"time_elapsed":501904,"internal_node_id":"0.0-8.0-1.55","subject":"on067s7xffndsah","sona":"7675"},{"trial_type":"turing-test","trial_index":229,"time_elapsed":505653,"internal_node_id":"0.0-8.0-2.55","subject":"on067s7xffndsah","sona":"7675"},{"rt":369,"stimulus":"<p>Welche Sequenz haben Sie als natürlicher empfunden?</p>","key_press":70,"test_part":"response","test_stimulus":{"position":0,"left":"bvh/return-bottle-hold-training4-lines.txt","right":"bvh/vr_prediction_models/model(dmp)-dataset(return-bottle-hold)-npsi(70)-hold(4)/final-lines.txt","att_check":false},"trial_type":"html-keyboard-response","trial_index":230,"time_elapsed":506025,"internal_node_id":"0.0-8.0-3.55","subject":"on067s7xffndsah","sona":"7675"},{"rt":388,"stimulus":"<p>Bereit?</p>","key_press":32,"trial_type":"html-keyboard-response","trial_index":231,"time_elapsed":506413,"internal_node_id":"0.0-8.0-0.56","subject":"on067s7xffndsah","sona":"7675"},{"rt":null,"stimulus":"<div style=\"font-size:60px;\">+</div>","key_press":null,"trial_type":"html-keyboard-response","trial_index":232,"time_elapsed":508454,"internal_node_id":"0.0-8.0-1.56","subject":"on067s7xffndsah","sona":"7675"},{"trial_type":"turing-test","trial_index":233,"time_elapsed":511713,"internal_node_id":"0.0-8.0-2.56","subject":"on067s7xffndsah","sona":"7675"},{"rt":770,"stimulus":"<p>Welche Sequenz haben Sie als natürlicher empfunden?</p>","key_press":74,"test_part":"response","test_stimulus":{"position":1,"left":"bvh/vr_prediction_models/model(vcgpdm)-dataset(return-bottle-hold)-mode(ELBO)-parts(1)-dyn(30)-lvm(20)-hold(1)/final-lines.txt","right":"bvh/return-bottle-hold-training1-lines.txt","att_check":false},"trial_type":"html-keyboard-response","trial_index":234,"time_elapsed":512485,"internal_node_id":"0.0-8.0-3.56","subject":"on067s7xffndsah","sona":"7675"},{"rt":376,"stimulus":"<p>Bereit?</p>","key_press":32,"trial_type":"html-keyboard-response","trial_index":235,"time_elapsed":512863,"internal_node_id":"0.0-8.0-0.57","subject":"on067s7xffndsah","sona":"7675"},{"rt":null,"stimulus":"<div style=\"font-size:60px;\">+</div>","key_press":null,"trial_type":"html-keyboard-response","trial_index":236,"time_elapsed":514873,"internal_node_id":"0.0-8.0-1.57","subject":"on067s7xffndsah","sona":"7675"},{"trial_type":"turing-test","trial_index":237,"time_elapsed":518514,"internal_node_id":"0.0-8.0-2.57","subject":"on067s7xffndsah","sona":"7675"},{"rt":352,"stimulus":"<p>Welche Sequenz haben Sie als natürlicher empfunden?</p>","key_press":70,"test_part":"response","test_stimulus":{"position":0,"left":"bvh/return-bottle-hold-training3-lines.txt","right":"bvh/vr_prediction_models/model(tmp)-dataset(return-bottle-hold)-numprim(4)-hold(3)/final-lines.txt","att_check":false},"trial_type":"html-keyboard-response","trial_index":238,"time_elapsed":518868,"internal_node_id":"0.0-8.0-3.57","subject":"on067s7xffndsah","sona":"7675"},{"rt":325,"stimulus":"<p>Bereit?</p>","key_press":32,"trial_type":"html-keyboard-response","trial_index":239,"time_elapsed":519195,"internal_node_id":"0.0-8.0-0.58","subject":"on067s7xffndsah","sona":"7675"},{"rt":null,"stimulus":"<div style=\"font-size:60px;\">+</div>","key_press":null,"trial_type":"html-keyboard-response","trial_index":240,"time_elapsed":521224,"internal_node_id":"0.0-8.0-1.58","subject":"on067s7xffndsah","sona":"7675"},{"trial_type":"turing-test","trial_index":241,"time_elapsed":524583,"internal_node_id":"0.0-8.0-2.58","subject":"on067s7xffndsah","sona":"7675"},{"rt":429,"stimulus":"<p>Welche Sequenz haben Sie als natürlicher empfunden?</p>","key_press":74,"test_part":"response","test_stimulus":{"position":1,"left":"bvh/vr_prediction_models/model(dmp)-dataset(return-bottle-hold)-npsi(40)-hold(1)/final-lines.txt","right":"bvh/return-bottle-hold-training1-lines.txt","att_check":false},"trial_type":"html-keyboard-response","trial_index":242,"time_elapsed":525014,"internal_node_id":"0.0-8.0-3.58","subject":"on067s7xffndsah","sona":"7675"},{"rt":2407,"stimulus":"<p>Bereit?</p>","key_press":32,"trial_type":"html-keyboard-response","trial_index":243,"time_elapsed":527424,"internal_node_id":"0.0-8.0-0.59","subject":"on067s7xffndsah","sona":"7675"},{"rt":null,"stimulus":"<div style=\"font-size:60px;\">+</div>","key_press":null,"trial_type":"html-keyboard-response","trial_index":244,"time_elapsed":529433,"internal_node_id":"0.0-8.0-1.59","subject":"on067s7xffndsah","sona":"7675"},{"trial_type":"turing-test","trial_index":245,"time_elapsed":533163,"internal_node_id":"0.0-8.0-2.59","subject":"on067s7xffndsah","sona":"7675"},{"rt":650,"stimulus":"<p>Welche Sequenz haben Sie als natürlicher empfunden?</p>","key_press":74,"test_part":"response","test_stimulus":{"position":1,"left":"bvh/vr_prediction_models/model(dmp)-dataset(return-bottle-hold)-npsi(90)-hold(4)/final-lines.txt","right":"bvh/return-bottle-hold-training4-lines.txt","att_check":false},"trial_type":"html-keyboard-response","trial_index":246,"time_elapsed":533815,"internal_node_id":"0.0-8.0-3.59","subject":"on067s7xffndsah","sona":"7675"},{"rt":282,"stimulus":"<p>Bereit?</p>","key_press":32,"trial_type":"html-keyboard-response","trial_index":247,"time_elapsed":534100,"internal_node_id":"0.0-8.0-0.60","subject":"on067s7xffndsah","sona":"7675"},{"rt":null,"stimulus":"<div style=\"font-size:60px;\">+</div>","key_press":null,"trial_type":"html-keyboard-response","trial_index":248,"time_elapsed":536123,"internal_node_id":"0.0-8.0-1.60","subject":"on067s7xffndsah","sona":"7675"},{"trial_type":"turing-test","trial_index":249,"time_elapsed":539543,"internal_node_id":"0.0-8.0-2.60","subject":"on067s7xffndsah","sona":"7675"},{"rt":309,"stimulus":"<p>Welche Sequenz haben Sie als natürlicher empfunden?</p>","key_press":74,"test_part":"response","test_stimulus":{"position":0,"left":"bvh/return-bottle-hold-training2-lines.txt","right":"bvh/vr_prediction_models/model(tmp)-dataset(return-bottle-hold)-numprim(10)-hold(2)/final-lines.txt","att_check":false},"trial_type":"html-keyboard-response","trial_index":250,"time_elapsed":539854,"internal_node_id":"0.0-8.0-3.60","subject":"on067s7xffndsah","sona":"7675"},{"rt":278,"stimulus":"<p>Bereit?</p>","key_press":32,"trial_type":"html-keyboard-response","trial_index":251,"time_elapsed":540135,"internal_node_id":"0.0-8.0-0.61","subject":"on067s7xffndsah","sona":"7675"},{"rt":null,"stimulus":"<div style=\"font-size:60px;\">+</div>","key_press":null,"trial_type":"html-keyboard-response","trial_index":252,"time_elapsed":542162,"internal_node_id":"0.0-8.0-1.61","subject":"on067s7xffndsah","sona":"7675"},{"trial_type":"turing-test","trial_index":253,"time_elapsed":547883,"internal_node_id":"0.0-8.0-2.61","subject":"on067s7xffndsah","sona":"7675"},{"rt":333,"stimulus":"<p>Welche Sequenz haben Sie als natürlicher empfunden?</p>","key_press":70,"test_part":"response","test_stimulus":{"position":1,"left":"bvh/vr_prediction_models/model(vcgpdm)-dataset(pass-bottle)-mode(ELBO)-parts(3)-dyn(20)-lvm(15)-hold(3)/final-lines.txt","right":"bvh/pass-bottle-training3-lines.txt","att_check":false},"trial_type":"html-keyboard-response","trial_index":254,"time_elapsed":548219,"internal_node_id":"0.0-8.0-3.61","subject":"on067s7xffndsah","sona":"7675"},{"rt":271,"stimulus":"<p>Bereit?</p>","key_press":32,"trial_type":"html-keyboard-response","trial_index":255,"time_elapsed":548492,"internal_node_id":"0.0-8.0-0.62","subject":"on067s7xffndsah","sona":"7675"},{"rt":null,"stimulus":"<div style=\"font-size:60px;\">+</div>","key_press":null,"trial_type":"html-keyboard-response","trial_index":256,"time_elapsed":550523,"internal_node_id":"0.0-8.0-1.62","subject":"on067s7xffndsah","sona":"7675"},{"trial_type":"turing-test","trial_index":257,"time_elapsed":556547,"internal_node_id":"0.0-8.0-2.62","subject":"on067s7xffndsah","sona":"7675"},{"rt":836,"stimulus":"<p>Welche Sequenz haben Sie als natürlicher empfunden?</p>","key_press":74,"test_part":"response","test_stimulus":{"position":0,"left":"bvh/return-bottle-training4-lines.txt","right":"bvh/vr_prediction_models/model(vcgpdm)-dataset(return-bottle)-mode(ELBO)-parts(3)-dyn(20)-lvm(15)-hold(4)/final-lines.txt","att_check":false},"trial_type":"html-keyboard-response","trial_index":258,"time_elapsed":557386,"internal_node_id":"0.0-8.0-3.62","subject":"on067s7xffndsah","sona":"7675"},{"rt":234,"stimulus":"<p>Bereit?</p>","key_press":32,"trial_type":"html-keyboard-response","trial_index":259,"time_elapsed":557624,"internal_node_id":"0.0-8.0-0.63","subject":"on067s7xffndsah","sona":"7675"},{"rt":null,"stimulus":"<div style=\"font-size:60px;\">+</div>","key_press":null,"trial_type":"html-keyboard-response","trial_index":260,"time_elapsed":559636,"internal_node_id":"0.0-8.0-1.63","subject":"on067s7xffndsah","sona":"7675"},{"trial_type":"turing-test","trial_index":261,"time_elapsed":563286,"internal_node_id":"0.0-8.0-2.63","subject":"on067s7xffndsah","sona":"7675"},{"rt":679,"stimulus":"<p>Welche Sequenz haben Sie als natürlicher empfunden?</p>","key_press":74,"test_part":"response","test_stimulus":{"position":1,"left":"bvh/vr_prediction_models/model(tmp)-dataset(pass-bottle-hold)-numprim(3)-hold(3)/final-lines.txt","right":"bvh/pass-bottle-hold-training3-lines.txt","att_check":false},"trial_type":"html-keyboard-response","trial_index":262,"time_elapsed":563969,"internal_node_id":"0.0-8.0-3.63","subject":"on067s7xffndsah","sona":"7675"},{"rt":256,"stimulus":"<p>Bereit?</p>","key_press":32,"trial_type":"html-keyboard-response","trial_index":263,"time_elapsed":564228,"internal_node_id":"0.0-8.0-0.64","subject":"on067s7xffndsah","sona":"7675"},{"rt":null,"stimulus":"<div style=\"font-size:60px;\">+</div>","key_press":null,"trial_type":"html-keyboard-response","trial_index":264,"time_elapsed":566256,"internal_node_id":"0.0-8.0-1.64","subject":"on067s7xffndsah","sona":"7675"},{"trial_type":"turing-test","trial_index":265,"time_elapsed":572005,"internal_node_id":"0.0-8.0-2.64","subject":"on067s7xffndsah","sona":"7675"},{"rt":269,"stimulus":"<p>Welche Sequenz haben Sie als natürlicher empfunden?</p>","key_press":70,"test_part":"response","test_stimulus":{"position":1,"left":"bvh/vr_prediction_models/model(tmp)-dataset(pass-bottle)-numprim(13)-hold(4)/final-lines.txt","right":"bvh/pass-bottle-training4-lines.txt","att_check":false},"trial_type":"html-keyboard-response","trial_index":266,"time_elapsed":572278,"internal_node_id":"0.0-8.0-3.64","subject":"on067s7xffndsah","sona":"7675"},{"rt":329,"stimulus":"<p>Bereit?</p>","key_press":32,"trial_type":"html-keyboard-response","trial_index":267,"time_elapsed":572608,"internal_node_id":"0.0-8.0-0.65","subject":"on067s7xffndsah","sona":"7675"},{"rt":null,"stimulus":"<div style=\"font-size:60px;\">+</div>","key_press":null,"trial_type":"html-keyboard-response","trial_index":268,"time_elapsed":574646,"internal_node_id":"0.0-8.0-1.65","subject":"on067s7xffndsah","sona":"7675"},{"trial_type":"turing-test","trial_index":269,"time_elapsed":577746,"internal_node_id":"0.0-8.0-2.65","subject":"on067s7xffndsah","sona":"7675"},{"rt":392,"stimulus":"<p>Welche Sequenz haben Sie als natürlicher empfunden?</p>","key_press":70,"test_part":"response","test_stimulus":{"position":0,"left":"bvh/pass-bottle-hold-training1-lines.txt","right":"bvh/vr_prediction_models/model(dmp)-dataset(pass-bottle-hold)-npsi(80)-hold(1)/final-lines.txt","att_check":false},"trial_type":"html-keyboard-response","trial_index":270,"time_elapsed":578140,"internal_node_id":"0.0-8.0-3.65","subject":"on067s7xffndsah","sona":"7675"},{"rt":358,"stimulus":"<p>Bereit?</p>","key_press":32,"trial_type":"html-keyboard-response","trial_index":271,"time_elapsed":578500,"internal_node_id":"0.0-8.0-0.66","subject":"on067s7xffndsah","sona":"7675"},{"rt":null,"stimulus":"<div style=\"font-size:60px;\">+</div>","key_press":null,"trial_type":"html-keyboard-response","trial_index":272,"time_elapsed":580527,"internal_node_id":"0.0-8.0-1.66","subject":"on067s7xffndsah","sona":"7675"},{"trial_type":"turing-test","trial_index":273,"time_elapsed":587554,"internal_node_id":"0.0-8.0-2.66","subject":"on067s7xffndsah","sona":"7675"},{"rt":347,"stimulus":"<p>Welche Sequenz haben Sie als natürlicher empfunden?</p>","key_press":74,"test_part":"response","test_stimulus":{"position":1,"left":"bvh/vr_prediction_models/model(vcgpdm)-dataset(pass-bottle)-mode(ELBO)-parts(1)-dyn(30)-lvm(30)-hold(0)/final-lines.txt","right":"bvh/pass-bottle-training0-lines.txt","att_check":false},"trial_type":"html-keyboard-response","trial_index":274,"time_elapsed":587903,"internal_node_id":"0.0-8.0-3.66","subject":"on067s7xffndsah","sona":"7675"},{"rt":300,"stimulus":"<p>Bereit?</p>","key_press":32,"trial_type":"html-keyboard-response","trial_index":275,"time_elapsed":588206,"internal_node_id":"0.0-8.0-0.67","subject":"on067s7xffndsah","sona":"7675"},{"rt":null,"stimulus":"<div style=\"font-size:60px;\">+</div>","key_press":null,"trial_type":"html-keyboard-response","trial_index":276,"time_elapsed":590234,"internal_node_id":"0.0-8.0-1.67","subject":"on067s7xffndsah","sona":"7675"},{"trial_type":"turing-test","trial_index":277,"time_elapsed":596323,"internal_node_id":"0.0-8.0-2.67","subject":"on067s7xffndsah","sona":"7675"},{"rt":591,"stimulus":"<p>Welche Sequenz haben Sie als natürlicher empfunden?</p>","key_press":74,"test_part":"response","test_stimulus":{"position":0,"left":"bvh/return-bottle-training1-lines.txt","right":"bvh/vr_prediction_models/model(tmp)-dataset(return-bottle)-numprim(5)-hold(1)/final-lines.txt","att_check":false},"trial_type":"html-keyboard-response","trial_index":278,"time_elapsed":596917,"internal_node_id":"0.0-8.0-3.67","subject":"on067s7xffndsah","sona":"7675"},{"rt":313,"stimulus":"<p>Bereit?</p>","key_press":32,"trial_type":"html-keyboard-response","trial_index":279,"time_elapsed":597233,"internal_node_id":"0.0-8.0-0.68","subject":"on067s7xffndsah","sona":"7675"},{"rt":null,"stimulus":"<div style=\"font-size:60px;\">+</div>","key_press":null,"trial_type":"html-keyboard-response","trial_index":280,"time_elapsed":599264,"internal_node_id":"0.0-8.0-1.68","subject":"on067s7xffndsah","sona":"7675"},{"trial_type":"turing-test","trial_index":281,"time_elapsed":602887,"internal_node_id":"0.0-8.0-2.68","subject":"on067s7xffndsah","sona":"7675"},{"rt":635,"stimulus":"<p>Welche Sequenz haben Sie als natürlicher empfunden?</p>","key_press":74,"test_part":"response","test_stimulus":{"position":0,"left":"bvh/return-bottle-hold-training1-lines.txt","right":"bvh/vr_prediction_models/model(vcgpdm)-dataset(return-bottle-hold)-mode(ELBO)-parts(3)-dyn(20)-lvm(20)-hold(1)/final-lines.txt","att_check":false},"trial_type":"html-keyboard-response","trial_index":282,"time_elapsed":603524,"internal_node_id":"0.0-8.0-3.68","subject":"on067s7xffndsah","sona":"7675"},{"rt":265,"stimulus":"<p>Bereit?</p>","key_press":32,"trial_type":"html-keyboard-response","trial_index":283,"time_elapsed":603792,"internal_node_id":"0.0-8.0-0.69","subject":"on067s7xffndsah","sona":"7675"},{"rt":null,"stimulus":"<div style=\"font-size:60px;\">+</div>","key_press":null,"trial_type":"html-keyboard-response","trial_index":284,"time_elapsed":605828,"internal_node_id":"0.0-8.0-1.69","subject":"on067s7xffndsah","sona":"7675"},{"trial_type":"turing-test","trial_index":285,"time_elapsed":609870,"internal_node_id":"0.0-8.0-2.69","subject":"on067s7xffndsah","sona":"7675"},{"rt":753,"stimulus":"<p>Welche Sequenz haben Sie als natürlicher empfunden?</p>","key_press":74,"test_part":"response","test_stimulus":{"position":1,"left":"bvh/vr_prediction_models/model(vcgpdm)-dataset(return-bottle-hold)-mode(ELBO)-parts(1)-dyn(20)-lvm(30)-hold(1)/final-lines.txt","right":"bvh/return-bottle-hold-training1-lines.txt","att_check":false},"trial_type":"html-keyboard-response","trial_index":286,"time_elapsed":610626,"internal_node_id":"0.0-8.0-3.69","subject":"on067s7xffndsah","sona":"7675"},{"rt":312,"stimulus":"<p>Bereit?</p>","key_press":32,"trial_type":"html-keyboard-response","trial_index":287,"time_elapsed":610941,"internal_node_id":"0.0-8.0-0.70","subject":"on067s7xffndsah","sona":"7675"},{"rt":null,"stimulus":"<div style=\"font-size:60px;\">+</div>","key_press":null,"trial_type":"html-keyboard-response","trial_index":288,"time_elapsed":612950,"internal_node_id":"0.0-8.0-1.70","subject":"on067s7xffndsah","sona":"7675"},{"trial_type":"turing-test","trial_index":289,"time_elapsed":618270,"internal_node_id":"0.0-8.0-2.70","subject":"on067s7xffndsah","sona":"7675"},{"rt":286,"stimulus":"<p>Welche Sequenz haben Sie als natürlicher empfunden?</p>","key_press":70,"test_part":"response","test_stimulus":{"position":0,"left":"bvh/return-bottle-hold-training0-lines.txt","right":"bvh/vr_prediction_models/model(vcgpdm)-dataset(return-bottle-hold)-mode(ELBO)-parts(3)-dyn(25)-lvm(15)-hold(0)/final-lines.txt","att_check":false},"trial_type":"html-keyboard-response","trial_index":290,"time_elapsed":618559,"internal_node_id":"0.0-8.0-3.70","subject":"on067s7xffndsah","sona":"7675"},{"rt":278,"stimulus":"<p>Bereit?</p>","key_press":32,"trial_type":"html-keyboard-response","trial_index":291,"time_elapsed":618841,"internal_node_id":"0.0-8.0-0.71","subject":"on067s7xffndsah","sona":"7675"},{"rt":null,"stimulus":"<div style=\"font-size:60px;\">+</div>","key_press":null,"trial_type":"html-keyboard-response","trial_index":292,"time_elapsed":620870,"internal_node_id":"0.0-8.0-1.71","subject":"on067s7xffndsah","sona":"7675"},{"trial_type":"turing-test","trial_index":293,"time_elapsed":626528,"internal_node_id":"0.0-8.0-2.71","subject":"on067s7xffndsah","sona":"7675"},{"rt":545,"stimulus":"<p>Welche Sequenz haben Sie als natürlicher empfunden?</p>","key_press":70,"test_part":"response","test_stimulus":{"position":0,"left":"bvh/return-bottle-training0-lines.txt","right":"bvh/vr_prediction_models/model(vcgpdm)-dataset(return-bottle)-mode(ELBO)-parts(3)-dyn(15)-lvm(30)-hold(0)/final-lines.txt","att_check":false},"trial_type":"html-keyboard-response","trial_index":294,"time_elapsed":627076,"internal_node_id":"0.0-8.0-3.71","subject":"on067s7xffndsah","sona":"7675"},{"rt":367,"stimulus":"<p>Bereit?</p>","key_press":32,"trial_type":"html-keyboard-response","trial_index":295,"time_elapsed":627446,"internal_node_id":"0.0-8.0-0.72","subject":"on067s7xffndsah","sona":"7675"},{"rt":null,"stimulus":"<div style=\"font-size:60px;\">+</div>","key_press":null,"trial_type":"html-keyboard-response","trial_index":296,"time_elapsed":629469,"internal_node_id":"0.0-8.0-1.72","subject":"on067s7xffndsah","sona":"7675"},{"trial_type":"turing-test","trial_index":297,"time_elapsed":635228,"internal_node_id":"0.0-8.0-2.72","subject":"on067s7xffndsah","sona":"7675"},{"rt":549,"stimulus":"<p>Welche Sequenz haben Sie als natürlicher empfunden?</p>","key_press":70,"test_part":"response","test_stimulus":{"position":1,"left":"bvh/vr_prediction_models/model(tmp)-dataset(pass-bottle)-numprim(12)-hold(4)/final-lines.txt","right":"bvh/pass-bottle-training4-lines.txt","att_check":false},"trial_type":"html-keyboard-response","trial_index":298,"time_elapsed":635779,"internal_node_id":"0.0-8.0-3.72","subject":"on067s7xffndsah","sona":"7675"},{"rt":281,"stimulus":"<p>Bereit?</p>","key_press":32,"trial_type":"html-keyboard-response","trial_index":299,"time_elapsed":636062,"internal_node_id":"0.0-8.0-0.73","subject":"on067s7xffndsah","sona":"7675"},{"rt":null,"stimulus":"<div style=\"font-size:60px;\">+</div>","key_press":null,"trial_type":"html-keyboard-response","trial_index":300,"time_elapsed":638088,"internal_node_id":"0.0-8.0-1.73","subject":"on067s7xffndsah","sona":"7675"},{"trial_type":"turing-test","trial_index":301,"time_elapsed":644510,"internal_node_id":"0.0-8.0-2.73","subject":"on067s7xffndsah","sona":"7675"},{"rt":1651,"stimulus":"<p>Welche Sequenz haben Sie als natürlicher empfunden?</p>","key_press":70,"test_part":"response","test_stimulus":{"position":0,"left":"bvh/return-bottle-training4-lines.txt","right":"bvh/vr_prediction_models/model(tmp)-dataset(return-bottle)-numprim(3)-hold(4)/final-lines.txt","att_check":false},"trial_type":"html-keyboard-response","trial_index":302,"time_elapsed":646163,"internal_node_id":"0.0-8.0-3.73","subject":"on067s7xffndsah","sona":"7675"},{"rt":254,"stimulus":"<p>Bereit?</p>","key_press":32,"trial_type":"html-keyboard-response","trial_index":303,"time_elapsed":646419,"internal_node_id":"0.0-8.0-0.74","subject":"on067s7xffndsah","sona":"7675"},{"rt":null,"stimulus":"<div style=\"font-size:60px;\">+</div>","key_press":null,"trial_type":"html-keyboard-response","trial_index":304,"time_elapsed":648449,"internal_node_id":"0.0-8.0-1.74","subject":"on067s7xffndsah","sona":"7675"},{"trial_type":"turing-test","trial_index":305,"time_elapsed":652326,"internal_node_id":"0.0-8.0-2.74","subject":"on067s7xffndsah","sona":"7675"},{"rt":428,"stimulus":"<p>Welche Sequenz haben Sie als natürlicher empfunden?</p>","key_press":74,"test_part":"response","test_stimulus":{"position":0,"left":"bvh/pass-bottle-hold-training1-lines.txt","right":"bvh/vr_prediction_models/model(tmp)-dataset(pass-bottle-hold)-numprim(7)-hold(1)/final-lines.txt","att_check":false},"trial_type":"html-keyboard-response","trial_index":306,"time_elapsed":652756,"internal_node_id":"0.0-8.0-3.74","subject":"on067s7xffndsah","sona":"7675"},{"rt":293,"stimulus":"<p>Bereit?</p>","key_press":32,"trial_type":"html-keyboard-response","trial_index":307,"time_elapsed":653053,"internal_node_id":"0.0-8.0-0.75","subject":"on067s7xffndsah","sona":"7675"},{"rt":null,"stimulus":"<div style=\"font-size:60px;\">+</div>","key_press":null,"trial_type":"html-keyboard-response","trial_index":308,"time_elapsed":655086,"internal_node_id":"0.0-8.0-1.75","subject":"on067s7xffndsah","sona":"7675"},{"trial_type":"turing-test","trial_index":309,"time_elapsed":660506,"internal_node_id":"0.0-8.0-2.75","subject":"on067s7xffndsah","sona":"7675"},{"rt":91,"stimulus":"<p>Welche Sequenz haben Sie als natürlicher empfunden?</p>","key_press":74,"test_part":"response","test_stimulus":{"position":0,"left":"bvh/return-bottle-training0-lines.txt","right":"bvh/vr_prediction_models/model(tmp)-dataset(return-bottle)-numprim(15)-hold(0)/final-lines.txt","att_check":false},"trial_type":"html-keyboard-response","trial_index":310,"time_elapsed":660600,"internal_node_id":"0.0-8.0-3.75","subject":"on067s7xffndsah","sona":"7675"},{"rt":436,"stimulus":"<p>Bereit?</p>","key_press":32,"trial_type":"html-keyboard-response","trial_index":311,"time_elapsed":661038,"internal_node_id":"0.0-8.0-0.76","subject":"on067s7xffndsah","sona":"7675"},{"rt":null,"stimulus":"<div style=\"font-size:60px;\">+</div>","key_press":null,"trial_type":"html-keyboard-response","trial_index":312,"time_elapsed":663065,"internal_node_id":"0.0-8.0-1.76","subject":"on067s7xffndsah","sona":"7675"},{"trial_type":"turing-test","trial_index":313,"time_elapsed":666565,"internal_node_id":"0.0-8.0-2.76","subject":"on067s7xffndsah","sona":"7675"},{"rt":1682,"stimulus":"<p>Welche Sequenz haben Sie als natürlicher empfunden?</p>","key_press":70,"test_part":"response","test_stimulus":{"position":0,"left":"bvh/pass-bottle-hold-training1-lines.txt","right":"bvh/vr_prediction_models/model(vcgpdm)-dataset(pass-bottle-hold)-mode(ELBO)-parts(1)-dyn(30)-lvm(30)-hold(1)/final-lines.txt","att_check":false},"trial_type":"html-keyboard-response","trial_index":314,"time_elapsed":668251,"internal_node_id":"0.0-8.0-3.76","subject":"on067s7xffndsah","sona":"7675"},{"rt":259,"stimulus":"<p>Bereit?</p>","key_press":32,"trial_type":"html-keyboard-response","trial_index":315,"time_elapsed":668514,"internal_node_id":"0.0-8.0-0.77","subject":"on067s7xffndsah","sona":"7675"},{"rt":null,"stimulus":"<div style=\"font-size:60px;\">+</div>","key_press":null,"trial_type":"html-keyboard-response","trial_index":316,"time_elapsed":670547,"internal_node_id":"0.0-8.0-1.77","subject":"on067s7xffndsah","sona":"7675"},{"trial_type":"turing-test","trial_index":317,"time_elapsed":676989,"internal_node_id":"0.0-8.0-2.77","subject":"on067s7xffndsah","sona":"7675"},{"rt":412,"stimulus":"<p>Welche Sequenz haben Sie als natürlicher empfunden?</p>","key_press":70,"test_part":"response","test_stimulus":{"position":0,"left":"bvh/pass-bottle-training2-lines.txt","right":"bvh/vr_prediction_models/model(vcgpdm)-dataset(pass-bottle)-mode(ELBO)-parts(1)-dyn(25)-lvm(35)-hold(2)/final-lines.txt","att_check":false},"trial_type":"html-keyboard-response","trial_index":318,"time_elapsed":677405,"internal_node_id":"0.0-8.0-3.77","subject":"on067s7xffndsah","sona":"7675"},{"rt":374,"stimulus":"<p>Bereit?</p>","key_press":32,"trial_type":"html-keyboard-response","trial_index":319,"time_elapsed":677783,"internal_node_id":"0.0-8.0-0.78","subject":"on067s7xffndsah","sona":"7675"},{"rt":null,"stimulus":"<div style=\"font-size:60px;\">+</div>","key_press":null,"trial_type":"html-keyboard-response","trial_index":320,"time_elapsed":679790,"internal_node_id":"0.0-8.0-1.78","subject":"on067s7xffndsah","sona":"7675"},{"trial_type":"turing-test","trial_index":321,"time_elapsed":684245,"internal_node_id":"0.0-8.0-2.78","subject":"on067s7xffndsah","sona":"7675"},{"rt":677,"stimulus":"<p>Welche Sequenz haben Sie als natürlicher empfunden?</p>","key_press":74,"test_part":"response","test_stimulus":{"position":1,"left":"bvh/vr_prediction_models/model(vcgpdm)-dataset(return-bottle-hold)-mode(ELBO)-parts(1)-dyn(20)-lvm(5)-hold(2)/final-lines.txt","right":"bvh/return-bottle-hold-training2-lines.txt","att_check":false},"trial_type":"html-keyboard-response","trial_index":322,"time_elapsed":684926,"internal_node_id":"0.0-8.0-3.78","subject":"on067s7xffndsah","sona":"7675"},{"rt":302,"stimulus":"<p>Bereit?</p>","key_press":32,"trial_type":"html-keyboard-response","trial_index":323,"time_elapsed":685232,"internal_node_id":"0.0-8.0-0.79","subject":"on067s7xffndsah","sona":"7675"},{"rt":null,"stimulus":"<div style=\"font-size:60px;\">+</div>","key_press":null,"trial_type":"html-keyboard-response","trial_index":324,"time_elapsed":687256,"internal_node_id":"0.0-8.0-1.79","subject":"on067s7xffndsah","sona":"7675"},{"trial_type":"turing-test","trial_index":325,"time_elapsed":693483,"internal_node_id":"0.0-8.0-2.79","subject":"on067s7xffndsah","sona":"7675"},{"rt":337,"stimulus":"<p>Welche Sequenz haben Sie als natürlicher empfunden?</p>","key_press":74,"test_part":"response","test_stimulus":{"position":1,"left":"bvh/vr_prediction_models/model(vcgpdm)-dataset(return-bottle)-mode(ELBO)-parts(3)-dyn(25)-lvm(25)-hold(3)/final-lines.txt","right":"bvh/return-bottle-training3-lines.txt","att_check":false},"trial_type":"html-keyboard-response","trial_index":326,"time_elapsed":693824,"internal_node_id":"0.0-8.0-3.79","subject":"on067s7xffndsah","sona":"7675"},{"rt":8709,"responses":"{\"age\":\" 20\",\"gender\":\"weiblich \"}","trial_type":"survey-text","trial_index":327,"time_elapsed":702542,"internal_node_id":"0.0-10.0-0.0","subject":"on067s7xffndsah","sona":"7675"},{"rt":101177,"responses":"{\"area\":\"Arme \",\"Q1\":\"abgehackte Bewegungen \",\"Q2\":\"Wenn Figur sich als ganzes nach links/ rechts bzw. oben/unten bewegt ohne dass sich Körperteile bewegen \"}","trial_type":"survey-text","trial_index":328,"time_elapsed":803728,"internal_node_id":"0.0-10.0-1.0","subject":"on067s7xffndsah","sona":"7675"}]