[{"rt":4143.6300000641495,"stimulus":"<p>Welcome!<br> Please choose your language to start the experiment in the chosen language.</p><p>Willkommen!<br> Bitte wählen Sie eine Sprache, um das Experiment in der ausgewählten Sprache zu starten</p>","button_pressed":"1","trial_type":"html-button-response","trial_index":0,"time_elapsed":4150,"internal_node_id":"0.0-0.0","subject":"z8tt86hxpfjl05u","sona":"7609"},{"view_history":"[{\"page_index\":0,\"viewing_time\":5174.620000063442},{\"page_index\":1,\"viewing_time\":2086.8699999991804},{\"page_index\":2,\"viewing_time\":6568.944999948144},{\"page_index\":3,\"viewing_time\":31195.575000019744},{\"page_index\":4,\"viewing_time\":1875.4300000146031}]","rt":46902.93000009842,"trial_type":"instructions","trial_index":1,"time_elapsed":51057,"internal_node_id":"0.0-1.0-0.0","subject":"z8tt86hxpfjl05u","sona":"7609"},{"rt":1385.3850000305101,"stimulus":"<p>Bereit?</p>","key_press":32,"trial_type":"html-keyboard-response","trial_index":2,"time_elapsed":52445,"internal_node_id":"0.0-3.0","subject":"z8tt86hxpfjl05u","sona":"7609"},{"rt":null,"stimulus":"<div style=\"font-size:60px;\">+</div>","key_press":null,"trial_type":"html-keyboard-response","trial_index":3,"time_elapsed":54454,"internal_node_id":"0.0-4.0","subject":"z8tt86hxpfjl05u","sona":"7609"},{"trial_type":"training","trial_index":4,"time_elapsed":57839,"internal_node_id":"0.0-5.0","subject":"z8tt86hxpfjl05u","sona":"7609"},{"rt":1016.7050000745803,"stimulus":"<p>Welche Sequenz haben Sie als natürlicher empfunden?</p>","key_press":70,"trial_type":"html-keyboard-response","trial_index":5,"time_elapsed":58857,"internal_node_id":"0.0-6.0","subject":"z8tt86hxpfjl05u","sona":"7609"},{"rt":1676.2950000120327,"stimulus":"<p>Das Experiment startet nun.</p><p><small>Bitte drücken Sie den Knopf, wenn Sie bereit sind.</small></p>","button_pressed":"0","trial_type":"html-button-response","trial_index":6,"time_elapsed":60535,"internal_node_id":"0.0-7.0","subject":"z8tt86hxpfjl05u","sona":"7609"},{"rt":977.6500000152737,"stimulus":"<p>Bereit?</p>","key_press":32,"trial_type":"html-keyboard-response","trial_index":7,"time_elapsed":61514,"internal_node_id":"0.0-8.0-0.0","subject":"z8tt86hxpfjl05u","sona":"7609"},{"rt":null,"stimulus":"<div style=\"font-size:60px;\">+</div>","key_press":null,"trial_type":"html-keyboard-response","trial_index":8,"time_elapsed":63518,"internal_node_id":"0.0-8.0-1.0","subject":"z8tt86hxpfjl05u","sona":"7609"},{"trial_type":"turing-test","trial_index":9,"time_elapsed":66991,"internal_node_id":"0.0-8.0-2.0","subject":"z8tt86hxpfjl05u","sona":"7609"},{"rt":612.1600000187755,"stimulus":"<p>Welche Sequenz haben Sie als natürlicher empfunden?</p>","key_press":74,"test_part":"response","test_stimulus":{"position":0,"left":"bvh/return-bottle-hold-training2-lines.txt","right":"bvh/vr_prediction_models/model(tmp)-dataset(return-bottle-hold)-numprim(8)-hold(2)/final-lines.txt","att_check":false},"trial_type":"html-keyboard-response","trial_index":10,"time_elapsed":67606,"internal_node_id":"0.0-8.0-3.0","subject":"z8tt86hxpfjl05u","sona":"7609"},{"rt":586.9549999479204,"stimulus":"<p>Bereit?</p>","key_press":32,"trial_type":"html-keyboard-response","trial_index":11,"time_elapsed":68194,"internal_node_id":"0.0-8.0-0.1","subject":"z8tt86hxpfjl05u","sona":"7609"},{"rt":null,"stimulus":"<div style=\"font-size:60px;\">+</div>","key_press":null,"trial_type":"html-keyboard-response","trial_index":12,"time_elapsed":70204,"internal_node_id":"0.0-8.0-1.1","subject":"z8tt86hxpfjl05u","sona":"7609"},{"trial_type":"turing-test","trial_index":13,"time_elapsed":73945,"internal_node_id":"0.0-8.0-2.1","subject":"z8tt86hxpfjl05u","sona":"7609"},{"rt":366.4100000169128,"stimulus":"<p>Welche Sequenz haben Sie als natürlicher empfunden?</p>","key_press":70,"test_part":"response","test_stimulus":{"position":0,"left":"bvh/return-bottle-hold-training4-lines.txt","right":"bvh/vr_prediction_models/model(dmp)-dataset(return-bottle-hold)-npsi(10)-hold(4)/final-lines.txt","att_check":false},"trial_type":"html-keyboard-response","trial_index":14,"time_elapsed":74315,"internal_node_id":"0.0-8.0-3.1","subject":"z8tt86hxpfjl05u","sona":"7609"},{"rt":514.240000047721,"stimulus":"<p>Bereit?</p>","key_press":32,"trial_type":"html-keyboard-response","trial_index":15,"time_elapsed":74831,"internal_node_id":"0.0-8.0-0.2","subject":"z8tt86hxpfjl05u","sona":"7609"},{"rt":null,"stimulus":"<div style=\"font-size:60px;\">+</div>","key_press":null,"trial_type":"html-keyboard-response","trial_index":16,"time_elapsed":76840,"internal_node_id":"0.0-8.0-1.2","subject":"z8tt86hxpfjl05u","sona":"7609"},{"trial_type":"turing-test","trial_index":17,"time_elapsed":80144,"internal_node_id":"0.0-8.0-2.2","subject":"z8tt86hxpfjl05u","sona":"7609"},{"rt":1945.145000005141,"stimulus":"<p>Welche Sequenz haben Sie als natürlicher empfunden?</p>","key_press":74,"test_part":"response","test_stimulus":{"position":1,"left":"bvh/vr_prediction_models/model(tmp)-dataset(pass-bottle-hold)-numprim(8)-hold(0)/final-lines.txt","right":"bvh/pass-bottle-hold-training0-lines.txt","att_check":false},"trial_type":"html-keyboard-response","trial_index":18,"time_elapsed":82092,"internal_node_id":"0.0-8.0-3.2","subject":"z8tt86hxpfjl05u","sona":"7609"},{"rt":368.5949998907745,"stimulus":"<p>Bereit?</p>","key_press":32,"trial_type":"html-keyboard-response","trial_index":19,"time_elapsed":82463,"internal_node_id":"0.0-8.0-0.3","subject":"z8tt86hxpfjl05u","sona":"7609"},{"rt":null,"stimulus":"<div style=\"font-size:60px;\">+</div>","key_press":null,"trial_type":"html-keyboard-response","trial_index":20,"time_elapsed":84470,"internal_node_id":"0.0-8.0-1.3","subject":"z8tt86hxpfjl05u","sona":"7609"},{"trial_type":"turing-test","trial_index":21,"time_elapsed":90693,"internal_node_id":"0.0-8.0-2.3","subject":"z8tt86hxpfjl05u","sona":"7609"},{"rt":54711.23999997508,"stimulus":"<p>Welche Sequenz haben Sie als natürlicher empfunden?</p>","key_press":70,"test_part":"response","test_stimulus":{"position":1,"left":"bvh/vr_prediction_models/model(vcgpdm)-dataset(pass-bottle)-mode(ELBO)-parts(3)-dyn(20)-lvm(20)-hold(2)/final-lines.txt","right":"bvh/pass-bottle-training2-lines.txt","att_check":false},"trial_type":"html-keyboard-response","trial_index":22,"time_elapsed":145410,"internal_node_id":"0.0-8.0-3.3","subject":"z8tt86hxpfjl05u","sona":"7609"},{"rt":1308.3649999462068,"stimulus":"<p>Bereit?</p>","key_press":32,"trial_type":"html-keyboard-response","trial_index":23,"time_elapsed":146720,"internal_node_id":"0.0-8.0-0.4","subject":"z8tt86hxpfjl05u","sona":"7609"},{"rt":null,"stimulus":"<div style=\"font-size:60px;\">+</div>","key_press":null,"trial_type":"html-keyboard-response","trial_index":24,"time_elapsed":148724,"internal_node_id":"0.0-8.0-1.4","subject":"z8tt86hxpfjl05u","sona":"7609"},{"trial_type":"turing-test","trial_index":25,"time_elapsed":152404,"internal_node_id":"0.0-8.0-2.4","subject":"z8tt86hxpfjl05u","sona":"7609"},{"rt":605.5899999337271,"stimulus":"<p>Welche Sequenz haben Sie als natürlicher empfunden?</p>","key_press":74,"test_part":"response","test_stimulus":{"position":1,"left":"bvh/vr_prediction_models/model(dmp)-dataset(return-bottle-hold)-npsi(40)-hold(3)/final-lines.txt","right":"bvh/return-bottle-hold-training3-lines.txt","att_check":false},"trial_type":"html-keyboard-response","trial_index":26,"time_elapsed":153013,"internal_node_id":"0.0-8.0-3.4","subject":"z8tt86hxpfjl05u","sona":"7609"},{"rt":553.260000073351,"stimulus":"<p>Bereit?</p>","key_press":32,"trial_type":"html-keyboard-response","trial_index":27,"time_elapsed":153570,"internal_node_id":"0.0-8.0-0.5","subject":"z8tt86hxpfjl05u","sona":"7609"},{"rt":null,"stimulus":"<div style=\"font-size:60px;\">+</div>","key_press":null,"trial_type":"html-keyboard-response","trial_index":28,"time_elapsed":155579,"internal_node_id":"0.0-8.0-1.5","subject":"z8tt86hxpfjl05u","sona":"7609"},{"trial_type":"turing-test","trial_index":29,"time_elapsed":159394,"internal_node_id":"0.0-8.0-2.5","subject":"z8tt86hxpfjl05u","sona":"7609"},{"rt":1739.1800000332296,"stimulus":"<p>Welche Sequenz haben Sie als natürlicher empfunden?</p>","key_press":74,"test_part":"response","test_stimulus":{"position":0,"left":"bvh/return-bottle-hold-training4-lines.txt","right":"bvh/vr_prediction_models/model(vcgpdm)-dataset(return-bottle-hold)-mode(ELBO)-parts(3)-dyn(20)-lvm(15)-hold(4)/final-lines.txt","att_check":false},"trial_type":"html-keyboard-response","trial_index":30,"time_elapsed":161136,"internal_node_id":"0.0-8.0-3.5","subject":"z8tt86hxpfjl05u","sona":"7609"},{"rt":9193.614999996498,"stimulus":"<p>Bereit?</p>","key_press":32,"trial_type":"html-keyboard-response","trial_index":31,"time_elapsed":170333,"internal_node_id":"0.0-8.0-0.6","subject":"z8tt86hxpfjl05u","sona":"7609"},{"rt":null,"stimulus":"<div style=\"font-size:60px;\">+</div>","key_press":null,"trial_type":"html-keyboard-response","trial_index":32,"time_elapsed":172336,"internal_node_id":"0.0-8.0-1.6","subject":"z8tt86hxpfjl05u","sona":"7609"},{"trial_type":"turing-test","trial_index":33,"time_elapsed":178262,"internal_node_id":"0.0-8.0-2.6","subject":"z8tt86hxpfjl05u","sona":"7609"},{"rt":1290.500000002794,"stimulus":"<p>Welche Sequenz haben Sie als natürlicher empfunden?</p>","key_press":74,"test_part":"response","test_stimulus":{"position":1,"left":"bvh/vr_prediction_models/model(vcgpdm)-dataset(return-bottle)-mode(ELBO)-parts(3)-dyn(10)-lvm(30)-hold(4)/final-lines.txt","right":"bvh/return-bottle-training4-lines.txt","att_check":false},"trial_type":"html-keyboard-response","trial_index":34,"time_elapsed":179556,"internal_node_id":"0.0-8.0-3.6","subject":"z8tt86hxpfjl05u","sona":"7609"},{"rt":479.6100000385195,"stimulus":"<p>Bereit?</p>","key_press":32,"trial_type":"html-keyboard-response","trial_index":35,"time_elapsed":180038,"internal_node_id":"0.0-8.0-0.7","subject":"z8tt86hxpfjl05u","sona":"7609"},{"rt":null,"stimulus":"<div style=\"font-size:60px;\">+</div>","key_press":null,"trial_type":"html-keyboard-response","trial_index":36,"time_elapsed":182045,"internal_node_id":"0.0-8.0-1.7","subject":"z8tt86hxpfjl05u","sona":"7609"},{"trial_type":"turing-test","trial_index":37,"time_elapsed":185740,"internal_node_id":"0.0-8.0-2.7","subject":"z8tt86hxpfjl05u","sona":"7609"},{"rt":287.37499995622784,"stimulus":"<p>Welche Sequenz haben Sie als natürlicher empfunden?</p>","key_press":70,"test_part":"response","test_stimulus":{"position":0,"left":"bvh/pass-bottle-hold-training4-lines.txt","right":"bvh/vr_prediction_models/model(vcgpdm)-dataset(pass-bottle-hold)-mode(ELBO)-parts(1)-dyn(20)-lvm(20)-hold(4)/final-lines.txt","att_check":false},"trial_type":"html-keyboard-response","trial_index":38,"time_elapsed":186031,"internal_node_id":"0.0-8.0-3.7","subject":"z8tt86hxpfjl05u","sona":"7609"},{"rt":435.2149999467656,"stimulus":"<p>Bereit?</p>","key_press":32,"trial_type":"html-keyboard-response","trial_index":39,"time_elapsed":186468,"internal_node_id":"0.0-8.0-0.8","subject":"z8tt86hxpfjl05u","sona":"7609"},{"rt":null,"stimulus":"<div style=\"font-size:60px;\">+</div>","key_press":null,"trial_type":"html-keyboard-response","trial_index":40,"time_elapsed":188479,"internal_node_id":"0.0-8.0-1.8","subject":"z8tt86hxpfjl05u","sona":"7609"},{"trial_type":"turing-test","trial_index":41,"time_elapsed":192080,"internal_node_id":"0.0-8.0-2.8","subject":"z8tt86hxpfjl05u","sona":"7609"},{"rt":427.85999993793666,"stimulus":"<p>Welche Sequenz haben Sie als natürlicher empfunden?</p>","key_press":74,"test_part":"response","test_stimulus":{"position":1,"left":"bvh/vr_prediction_models/model(tmp)-dataset(return-bottle-hold)-numprim(14)-hold(3)/final-lines.txt","right":"bvh/return-bottle-hold-training3-lines.txt","att_check":false},"trial_type":"html-keyboard-response","trial_index":42,"time_elapsed":192511,"internal_node_id":"0.0-8.0-3.8","subject":"z8tt86hxpfjl05u","sona":"7609"},{"rt":564.8550000041723,"stimulus":"<p>Bereit?</p>","key_press":32,"trial_type":"html-keyboard-response","trial_index":43,"time_elapsed":193078,"internal_node_id":"0.0-8.0-0.9","subject":"z8tt86hxpfjl05u","sona":"7609"},{"rt":null,"stimulus":"<div style=\"font-size:60px;\">+</div>","key_press":null,"trial_type":"html-keyboard-response","trial_index":44,"time_elapsed":195086,"internal_node_id":"0.0-8.0-1.9","subject":"z8tt86hxpfjl05u","sona":"7609"},{"trial_type":"turing-test","trial_index":45,"time_elapsed":200983,"internal_node_id":"0.0-8.0-2.9","subject":"z8tt86hxpfjl05u","sona":"7609"},{"rt":638.5850000660866,"stimulus":"<p>Welche Sequenz haben Sie als natürlicher empfunden?</p>","key_press":74,"test_part":"response","test_stimulus":{"position":1,"left":"bvh/vr_prediction_models/model(tmp)-dataset(pass-bottle)-numprim(10)-hold(3)/final-lines.txt","right":"bvh/pass-bottle-training3-lines.txt","att_check":false},"trial_type":"html-keyboard-response","trial_index":46,"time_elapsed":201626,"internal_node_id":"0.0-8.0-3.9","subject":"z8tt86hxpfjl05u","sona":"7609"},{"rt":178234.22500002198,"stimulus":"<p>Bereit?</p>","key_press":32,"trial_type":"html-keyboard-response","trial_index":47,"time_elapsed":379867,"internal_node_id":"0.0-8.0-0.10","subject":"z8tt86hxpfjl05u","sona":"7609"},{"rt":null,"stimulus":"<div style=\"font-size:60px;\">+</div>","key_press":null,"trial_type":"html-keyboard-response","trial_index":48,"time_elapsed":381878,"internal_node_id":"0.0-8.0-1.10","subject":"z8tt86hxpfjl05u","sona":"7609"},{"trial_type":"turing-test","trial_index":49,"time_elapsed":387620,"internal_node_id":"0.0-8.0-2.10","subject":"z8tt86hxpfjl05u","sona":"7609"},{"rt":778.1899999827147,"stimulus":"<p>Welche Sequenz haben Sie als natürlicher empfunden?</p>","key_press":70,"test_part":"response","test_stimulus":{"position":0,"left":"bvh/return-bottle-training4-lines.txt","right":"bvh/vr_prediction_models/model(tmp)-dataset(return-bottle)-numprim(12)-hold(4)/final-lines.txt","att_check":false},"trial_type":"html-keyboard-response","trial_index":50,"time_elapsed":388401,"internal_node_id":"0.0-8.0-3.10","subject":"z8tt86hxpfjl05u","sona":"7609"},{"rt":546.1199999554083,"stimulus":"<p>Bereit?</p>","key_press":32,"trial_type":"html-keyboard-response","trial_index":51,"time_elapsed":388950,"internal_node_id":"0.0-8.0-0.11","subject":"z8tt86hxpfjl05u","sona":"7609"},{"rt":null,"stimulus":"<div style=\"font-size:60px;\">+</div>","key_press":null,"trial_type":"html-keyboard-response","trial_index":52,"time_elapsed":390953,"internal_node_id":"0.0-8.0-1.11","subject":"z8tt86hxpfjl05u","sona":"7609"}]