[{"rt":2163,"stimulus":"<p>Welcome!<br> Please choose your language to start the experiment in the chosen language.</p><p>Willkommen!<br> Bitte wählen Sie eine Sprache, um das Experiment in der ausgewählten Sprache zu starten</p>","button_pressed":"1","trial_type":"html-button-response","trial_index":0,"time_elapsed":2184,"internal_node_id":"0.0-0.0","subject":"5fnm6fs8tz9vatq","sona":"9328"},{"view_history":"[{\"page_index\":0,\"viewing_time\":2544.000000000001},{\"page_index\":1,\"viewing_time\":5601.999999999999},{\"page_index\":2,\"viewing_time\":5356},{\"page_index\":3,\"viewing_time\":4177},{\"page_index\":4,\"viewing_time\":3574.0000000000036}]","rt":21255,"trial_type":"instructions","trial_index":1,"time_elapsed":23439,"internal_node_id":"0.0-1.0-0.0","subject":"5fnm6fs8tz9vatq","sona":"9328"},{"rt":1218,"stimulus":"<p>Bereit?</p>","key_press":32,"trial_type":"html-keyboard-response","trial_index":2,"time_elapsed":24660,"internal_node_id":"0.0-3.0","subject":"5fnm6fs8tz9vatq","sona":"9328"},{"rt":null,"stimulus":"<div style=\"font-size:60px;\">+</div>","key_press":null,"trial_type":"html-keyboard-response","trial_index":3,"time_elapsed":26663,"internal_node_id":"0.0-4.0","subject":"5fnm6fs8tz9vatq","sona":"9328"},{"trial_type":"training","trial_index":4,"time_elapsed":29991,"internal_node_id":"0.0-5.0","subject":"5fnm6fs8tz9vatq","sona":"9328"},{"rt":7338,"stimulus":"<p>Welche Sequenz haben Sie als natürlicher empfunden?</p>","key_press":70,"trial_type":"html-keyboard-response","trial_index":5,"time_elapsed":37330,"internal_node_id":"0.0-6.0","subject":"5fnm6fs8tz9vatq","sona":"9328"},{"rt":2081,"stimulus":"<p>Das Experiment startet nun.</p><p><small>Bitte drücken Sie den Knopf, wenn Sie bereit sind.</small></p>","button_pressed":"0","trial_type":"html-button-response","trial_index":6,"time_elapsed":39415,"internal_node_id":"0.0-7.0","subject":"5fnm6fs8tz9vatq","sona":"9328"},{"rt":1028,"stimulus":"<p>Bereit?</p>","key_press":32,"trial_type":"html-keyboard-response","trial_index":7,"time_elapsed":40446,"internal_node_id":"0.0-8.0-0.0","subject":"5fnm6fs8tz9vatq","sona":"9328"},{"rt":null,"stimulus":"<div style=\"font-size:60px;\">+</div>","key_press":null,"trial_type":"html-keyboard-response","trial_index":8,"time_elapsed":42449,"internal_node_id":"0.0-8.0-1.0","subject":"5fnm6fs8tz9vatq","sona":"9328"},{"trial_type":"turing-test","trial_index":9,"time_elapsed":48215,"internal_node_id":"0.0-8.0-2.0","subject":"5fnm6fs8tz9vatq","sona":"9328"},{"rt":434,"stimulus":"<p>Welche Sequenz haben Sie als natürlicher empfunden?</p>","key_press":70,"test_part":"response","test_stimulus":{"position":0,"left":"bvh/return-bottle-training4-lines.txt","right":"bvh/vr_prediction_models/model(dmp)-dataset(return-bottle)-npsi(10)-hold(4)/final-lines.txt","att_check":false},"trial_type":"html-keyboard-response","trial_index":10,"time_elapsed":48652,"internal_node_id":"0.0-8.0-3.0","subject":"5fnm6fs8tz9vatq","sona":"9328"},{"rt":996,"stimulus":"<p>Bereit?</p>","key_press":32,"trial_type":"html-keyboard-response","trial_index":11,"time_elapsed":49651,"internal_node_id":"0.0-8.0-0.1","subject":"5fnm6fs8tz9vatq","sona":"9328"},{"rt":null,"stimulus":"<div style=\"font-size:60px;\">+</div>","key_press":null,"trial_type":"html-keyboard-response","trial_index":12,"time_elapsed":51655,"internal_node_id":"0.0-8.0-1.1","subject":"5fnm6fs8tz9vatq","sona":"9328"},{"trial_type":"turing-test","trial_index":13,"time_elapsed":55070,"internal_node_id":"0.0-8.0-2.1","subject":"5fnm6fs8tz9vatq","sona":"9328"},{"rt":515.0000000000073,"stimulus":"<p>Welche Sequenz haben Sie als natürlicher empfunden?</p>","key_press":74,"test_part":"response","test_stimulus":{"position":1,"left":"bvh/vr_prediction_models/model(vcgpdm)-dataset(pass-bottle-hold)-mode(ELBO)-parts(3)-dyn(10)-lvm(25)-hold(2)/final-lines.txt","right":"bvh/pass-bottle-hold-training2-lines.txt","att_check":false},"trial_type":"html-keyboard-response","trial_index":14,"time_elapsed":55589,"internal_node_id":"0.0-8.0-3.1","subject":"5fnm6fs8tz9vatq","sona":"9328"},{"rt":904.9999999999927,"stimulus":"<p>Bereit?</p>","key_press":32,"trial_type":"html-keyboard-response","trial_index":15,"time_elapsed":56496,"internal_node_id":"0.0-8.0-0.2","subject":"5fnm6fs8tz9vatq","sona":"9328"},{"rt":null,"stimulus":"<div style=\"font-size:60px;\">+</div>","key_press":null,"trial_type":"html-keyboard-response","trial_index":16,"time_elapsed":58501,"internal_node_id":"0.0-8.0-1.2","subject":"5fnm6fs8tz9vatq","sona":"9328"},{"trial_type":"turing-test","trial_index":17,"time_elapsed":64651,"internal_node_id":"0.0-8.0-2.2","subject":"5fnm6fs8tz9vatq","sona":"9328"},{"rt":855,"stimulus":"<p>Welche Sequenz haben Sie als natürlicher empfunden?</p>","key_press":70,"test_part":"response","test_stimulus":{"position":0,"left":"bvh/pass-bottle-training2-lines.txt","right":"bvh/vr_prediction_models/model(vcgpdm)-dataset(pass-bottle)-mode(ELBO)-parts(1)-dyn(25)-lvm(35)-hold(2)/final-lines.txt","att_check":false},"trial_type":"html-keyboard-response","trial_index":18,"time_elapsed":65509,"internal_node_id":"0.0-8.0-3.2","subject":"5fnm6fs8tz9vatq","sona":"9328"},{"rt":945,"stimulus":"<p>Bereit?</p>","key_press":32,"trial_type":"html-keyboard-response","trial_index":19,"time_elapsed":66457,"internal_node_id":"0.0-8.0-0.3","subject":"5fnm6fs8tz9vatq","sona":"9328"},{"rt":null,"stimulus":"<div style=\"font-size:60px;\">+</div>","key_press":null,"trial_type":"html-keyboard-response","trial_index":20,"time_elapsed":68461,"internal_node_id":"0.0-8.0-1.3","subject":"5fnm6fs8tz9vatq","sona":"9328"},{"trial_type":"turing-test","trial_index":21,"time_elapsed":72236,"internal_node_id":"0.0-8.0-2.3","subject":"5fnm6fs8tz9vatq","sona":"9328"},{"rt":753,"stimulus":"<p>Welche Sequenz haben Sie als natürlicher empfunden?</p>","key_press":74,"test_part":"response","test_stimulus":{"position":1,"left":"bvh/vr_prediction_models/model(vcgpdm)-dataset(return-bottle-hold)-mode(ELBO)-parts(1)-dyn(15)-lvm(35)-hold(4)/final-lines.txt","right":"bvh/return-bottle-hold-training4-lines.txt","att_check":false},"trial_type":"html-keyboard-response","trial_index":22,"time_elapsed":72993,"internal_node_id":"0.0-8.0-3.3","subject":"5fnm6fs8tz9vatq","sona":"9328"},{"rt":881,"stimulus":"<p>Bereit?</p>","key_press":32,"trial_type":"html-keyboard-response","trial_index":23,"time_elapsed":73877,"internal_node_id":"0.0-8.0-0.4","subject":"5fnm6fs8tz9vatq","sona":"9328"},{"rt":null,"stimulus":"<div style=\"font-size:60px;\">+</div>","key_press":null,"trial_type":"html-keyboard-response","trial_index":24,"time_elapsed":75882,"internal_node_id":"0.0-8.0-1.4","subject":"5fnm6fs8tz9vatq","sona":"9328"},{"trial_type":"turing-test","trial_index":25,"time_elapsed":82513,"internal_node_id":"0.0-8.0-2.4","subject":"5fnm6fs8tz9vatq","sona":"9328"},{"rt":345,"stimulus":"<p>Welche Sequenz haben Sie als natürlicher empfunden?</p>","key_press":70,"test_part":"response","test_stimulus":{"position":1,"left":"bvh/vr_prediction_models/model(vcgpdm)-dataset(return-bottle)-mode(ELBO)-parts(1)-dyn(10)-lvm(5)-hold(2)/final-lines.txt","right":"bvh/return-bottle-training2-lines.txt","att_check":false},"trial_type":"html-keyboard-response","trial_index":26,"time_elapsed":82860,"internal_node_id":"0.0-8.0-3.4","subject":"5fnm6fs8tz9vatq","sona":"9328"},{"rt":548.9999999999854,"stimulus":"<p>Bereit?</p>","key_press":32,"trial_type":"html-keyboard-response","trial_index":27,"time_elapsed":83412,"internal_node_id":"0.0-8.0-0.5","subject":"5fnm6fs8tz9vatq","sona":"9328"},{"rt":null,"stimulus":"<div style=\"font-size:60px;\">+</div>","key_press":null,"trial_type":"html-keyboard-response","trial_index":28,"time_elapsed":85415,"internal_node_id":"0.0-8.0-1.5","subject":"5fnm6fs8tz9vatq","sona":"9328"},{"trial_type":"turing-test","trial_index":29,"time_elapsed":91447,"internal_node_id":"0.0-8.0-2.5","subject":"5fnm6fs8tz9vatq","sona":"9328"},{"rt":457,"stimulus":"<p>Welche Sequenz haben Sie als natürlicher empfunden?</p>","key_press":70,"test_part":"response","test_stimulus":{"position":0,"left":"bvh/pass-bottle-training2-lines.txt","right":"bvh/vr_prediction_models/model(tmp)-dataset(pass-bottle)-numprim(13)-hold(2)/final-lines.txt","att_check":false},"trial_type":"html-keyboard-response","trial_index":30,"time_elapsed":91907,"internal_node_id":"0.0-8.0-3.5","subject":"5fnm6fs8tz9vatq","sona":"9328"},{"rt":434,"stimulus":"<p>Bereit?</p>","key_press":32,"trial_type":"html-keyboard-response","trial_index":31,"time_elapsed":92344,"internal_node_id":"0.0-8.0-0.6","subject":"5fnm6fs8tz9vatq","sona":"9328"},{"rt":null,"stimulus":"<div style=\"font-size:60px;\">+</div>","key_press":null,"trial_type":"html-keyboard-response","trial_index":32,"time_elapsed":94348,"internal_node_id":"0.0-8.0-1.6","subject":"5fnm6fs8tz9vatq","sona":"9328"},{"trial_type":"turing-test","trial_index":33,"time_elapsed":100154,"internal_node_id":"0.0-8.0-2.6","subject":"5fnm6fs8tz9vatq","sona":"9328"},{"rt":448,"stimulus":"<p>Welche Sequenz haben Sie als natürlicher empfunden?</p>","key_press":70,"test_part":"response","test_stimulus":{"position":0,"left":"bvh/pass-bottle-training3-lines.txt","right":"bvh/vr_prediction_models/model(tmp)-dataset(pass-bottle)-numprim(5)-hold(3)/final-lines.txt","att_check":false},"trial_type":"html-keyboard-response","trial_index":34,"time_elapsed":100605,"internal_node_id":"0.0-8.0-3.6","subject":"5fnm6fs8tz9vatq","sona":"9328"},{"rt":425,"stimulus":"<p>Bereit?</p>","key_press":32,"trial_type":"html-keyboard-response","trial_index":35,"time_elapsed":101033,"internal_node_id":"0.0-8.0-0.7","subject":"5fnm6fs8tz9vatq","sona":"9328"},{"rt":null,"stimulus":"<div style=\"font-size:60px;\">+</div>","key_press":null,"trial_type":"html-keyboard-response","trial_index":36,"time_elapsed":103037,"internal_node_id":"0.0-8.0-1.7","subject":"5fnm6fs8tz9vatq","sona":"9328"},{"trial_type":"turing-test","trial_index":37,"time_elapsed":108145,"internal_node_id":"0.0-8.0-2.7","subject":"5fnm6fs8tz9vatq","sona":"9328"},{"rt":353.00000000001455,"stimulus":"<p>Welche Sequenz haben Sie als natürlicher empfunden?</p>","key_press":74,"test_part":"response","test_stimulus":{"position":1,"left":"bvh/vr_prediction_models/model(tmp)-dataset(return-bottle-hold)-numprim(9)-hold(0)/final-lines.txt","right":"bvh/return-bottle-hold-training0-lines.txt","att_check":false},"trial_type":"html-keyboard-response","trial_index":38,"time_elapsed":108501,"internal_node_id":"0.0-8.0-3.7","subject":"5fnm6fs8tz9vatq","sona":"9328"},{"rt":451.99999999998545,"stimulus":"<p>Bereit?</p>","key_press":32,"trial_type":"html-keyboard-response","trial_index":39,"time_elapsed":108957,"internal_node_id":"0.0-8.0-0.8","subject":"5fnm6fs8tz9vatq","sona":"9328"},{"rt":null,"stimulus":"<div style=\"font-size:60px;\">+</div>","key_press":null,"trial_type":"html-keyboard-response","trial_index":40,"time_elapsed":110961,"internal_node_id":"0.0-8.0-1.8","subject":"5fnm6fs8tz9vatq","sona":"9328"},{"trial_type":"turing-test","trial_index":41,"time_elapsed":114590,"internal_node_id":"0.0-8.0-2.8","subject":"5fnm6fs8tz9vatq","sona":"9328"},{"rt":499,"stimulus":"<p>Welche Sequenz haben Sie als natürlicher empfunden?</p>","key_press":74,"test_part":"response","test_stimulus":{"position":1,"left":"bvh/vr_prediction_models/model(vcgpdm)-dataset(pass-bottle-hold)-mode(ELBO)-parts(3)-dyn(30)-lvm(15)-hold(3)/final-lines.txt","right":"bvh/pass-bottle-hold-training3-lines.txt","att_check":false},"trial_type":"html-keyboard-response","trial_index":42,"time_elapsed":115092,"internal_node_id":"0.0-8.0-3.8","subject":"5fnm6fs8tz9vatq","sona":"9328"},{"rt":385,"stimulus":"<p>Bereit?</p>","key_press":32,"trial_type":"html-keyboard-response","trial_index":43,"time_elapsed":115480,"internal_node_id":"0.0-8.0-0.9","subject":"5fnm6fs8tz9vatq","sona":"9328"},{"rt":null,"stimulus":"<div style=\"font-size:60px;\">+</div>","key_press":null,"trial_type":"html-keyboard-response","trial_index":44,"time_elapsed":117484,"internal_node_id":"0.0-8.0-1.9","subject":"5fnm6fs8tz9vatq","sona":"9328"},{"trial_type":"turing-test","trial_index":45,"time_elapsed":120967,"internal_node_id":"0.0-8.0-2.9","subject":"5fnm6fs8tz9vatq","sona":"9328"},{"rt":392,"stimulus":"<p>Welche Sequenz haben Sie als natürlicher empfunden?</p>","key_press":74,"test_part":"response","test_stimulus":{"position":1,"left":"bvh/vr_prediction_models/model(dmp)-dataset(return-bottle-hold)-npsi(10)-hold(1)/final-lines.txt","right":"bvh/return-bottle-hold-training1-lines.txt","att_check":false},"trial_type":"html-keyboard-response","trial_index":46,"time_elapsed":121362,"internal_node_id":"0.0-8.0-3.9","subject":"5fnm6fs8tz9vatq","sona":"9328"},{"rt":404.00000000001455,"stimulus":"<p>Bereit?</p>","key_press":32,"trial_type":"html-keyboard-response","trial_index":47,"time_elapsed":121769,"internal_node_id":"0.0-8.0-0.10","subject":"5fnm6fs8tz9vatq","sona":"9328"},{"rt":null,"stimulus":"<div style=\"font-size:60px;\">+</div>","key_press":null,"trial_type":"html-keyboard-response","trial_index":48,"time_elapsed":123773,"internal_node_id":"0.0-8.0-1.10","subject":"5fnm6fs8tz9vatq","sona":"9328"},{"trial_type":"turing-test","trial_index":49,"time_elapsed":129502,"internal_node_id":"0.0-8.0-2.10","subject":"5fnm6fs8tz9vatq","sona":"9328"},{"rt":369.9999999999709,"stimulus":"<p>Welche Sequenz haben Sie als natürlicher empfunden?</p>","key_press":70,"test_part":"response","test_stimulus":{"position":0,"left":"bvh/return-bottle-training3-lines.txt","right":"bvh/vr_prediction_models/model(tmp)-dataset(return-bottle)-numprim(3)-hold(3)/final-lines.txt","att_check":false},"trial_type":"html-keyboard-response","trial_index":50,"time_elapsed":129874,"internal_node_id":"0.0-8.0-3.10","subject":"5fnm6fs8tz9vatq","sona":"9328"},{"rt":382.00000000001455,"stimulus":"<p>Bereit?</p>","key_press":32,"trial_type":"html-keyboard-response","trial_index":51,"time_elapsed":130260,"internal_node_id":"0.0-8.0-0.11","subject":"5fnm6fs8tz9vatq","sona":"9328"},{"rt":null,"stimulus":"<div style=\"font-size:60px;\">+</div>","key_press":null,"trial_type":"html-keyboard-response","trial_index":52,"time_elapsed":132264,"internal_node_id":"0.0-8.0-1.11","subject":"5fnm6fs8tz9vatq","sona":"9328"},{"trial_type":"turing-test","trial_index":53,"time_elapsed":137998,"internal_node_id":"0.0-8.0-2.11","subject":"5fnm6fs8tz9vatq","sona":"9328"}]