[{"rt":83382.91499996558,"stimulus":"<p>Welcome!<br> Please choose your language to start the experiment in the chosen language.</p><p>Willkommen!<br> Bitte wählen Sie eine Sprache, um das Experiment in der ausgewählten Sprache zu starten</p>","button_pressed":"1","trial_type":"html-button-response","trial_index":0,"time_elapsed":83407,"internal_node_id":"0.0-0.0","subject":"ozmhtq7ehjzy8m0","sona":"9712"},{"view_history":"[{\"page_index\":0,\"viewing_time\":13533.289999933913},{\"page_index\":1,\"viewing_time\":2055.875000078231},{\"page_index\":2,\"viewing_time\":1631.8650000030175},{\"page_index\":3,\"viewing_time\":1959.9049999378622},{\"page_index\":4,\"viewing_time\":1448.0800000019372}]","rt":20629.74000000395,"trial_type":"instructions","trial_index":1,"time_elapsed":104038,"internal_node_id":"0.0-1.0-0.0","subject":"ozmhtq7ehjzy8m0","sona":"9712"},{"rt":1871.6899999417365,"stimulus":"<p>Bereit?</p>","key_press":32,"trial_type":"html-keyboard-response","trial_index":2,"time_elapsed":105911,"internal_node_id":"0.0-3.0","subject":"ozmhtq7ehjzy8m0","sona":"9712"},{"rt":null,"stimulus":"<div style=\"font-size:60px;\">+</div>","key_press":null,"trial_type":"html-keyboard-response","trial_index":3,"time_elapsed":107915,"internal_node_id":"0.0-4.0","subject":"ozmhtq7ehjzy8m0","sona":"9712"},{"trial_type":"training","trial_index":4,"time_elapsed":111285,"internal_node_id":"0.0-5.0","subject":"ozmhtq7ehjzy8m0","sona":"9712"},{"rt":265.4349999502301,"stimulus":"<p>Welche Sequenz haben Sie als natürlicher empfunden?</p>","key_press":70,"trial_type":"html-keyboard-response","trial_index":5,"time_elapsed":111553,"internal_node_id":"0.0-6.0","subject":"ozmhtq7ehjzy8m0","sona":"9712"},{"rt":3770.835000090301,"stimulus":"<p>Das Experiment startet nun.</p><p><small>Bitte drücken Sie den Knopf, wenn Sie bereit sind.</small></p>","button_pressed":"0","trial_type":"html-button-response","trial_index":6,"time_elapsed":115325,"internal_node_id":"0.0-7.0","subject":"ozmhtq7ehjzy8m0","sona":"9712"},{"rt":2147.289999993518,"stimulus":"<p>Bereit?</p>","key_press":32,"trial_type":"html-keyboard-response","trial_index":7,"time_elapsed":117474,"internal_node_id":"0.0-8.0-0.0","subject":"ozmhtq7ehjzy8m0","sona":"9712"},{"rt":null,"stimulus":"<div style=\"font-size:60px;\">+</div>","key_press":null,"trial_type":"html-keyboard-response","trial_index":8,"time_elapsed":119479,"internal_node_id":"0.0-8.0-1.0","subject":"ozmhtq7ehjzy8m0","sona":"9712"},{"trial_type":"turing-test","trial_index":9,"time_elapsed":126344,"internal_node_id":"0.0-8.0-2.0","subject":"ozmhtq7ehjzy8m0","sona":"9712"},{"rt":244.04000001959503,"stimulus":"<p>Welche Sequenz haben Sie als natürlicher empfunden?</p>","key_press":74,"test_part":"response","test_stimulus":{"position":1,"left":"bvh/vr_prediction_models/model(vcgpdm)-dataset(pass-bottle)-mode(ELBO)-parts(1)-dyn(10)-lvm(5)-hold(0)/final-lines.txt","right":"bvh/pass-bottle-training0-lines.txt","att_check":false},"trial_type":"html-keyboard-response","trial_index":10,"time_elapsed":126595,"internal_node_id":"0.0-8.0-3.0","subject":"ozmhtq7ehjzy8m0","sona":"9712"},{"rt":438.7550000101328,"stimulus":"<p>Bereit?</p>","key_press":32,"trial_type":"html-keyboard-response","trial_index":11,"time_elapsed":127039,"internal_node_id":"0.0-8.0-0.1","subject":"ozmhtq7ehjzy8m0","sona":"9712"},{"rt":null,"stimulus":"<div style=\"font-size:60px;\">+</div>","key_press":null,"trial_type":"html-keyboard-response","trial_index":12,"time_elapsed":129043,"internal_node_id":"0.0-8.0-1.1","subject":"ozmhtq7ehjzy8m0","sona":"9712"},{"trial_type":"turing-test","trial_index":13,"time_elapsed":132674,"internal_node_id":"0.0-8.0-2.1","subject":"ozmhtq7ehjzy8m0","sona":"9712"},{"rt":743.0999999633059,"stimulus":"<p>Welche Sequenz haben Sie als natürlicher empfunden?</p>","key_press":74,"test_part":"response","test_stimulus":{"position":0,"left":"bvh/return-bottle-hold-training2-lines.txt","right":"bvh/vr_prediction_models/model(vcgpdm)-dataset(return-bottle-hold)-mode(ELBO)-parts(1)-dyn(10)-lvm(25)-hold(2)/final-lines.txt","att_check":false},"trial_type":"html-keyboard-response","trial_index":14,"time_elapsed":133424,"internal_node_id":"0.0-8.0-3.1","subject":"ozmhtq7ehjzy8m0","sona":"9712"},{"rt":348.6750000156462,"stimulus":"<p>Bereit?</p>","key_press":32,"trial_type":"html-keyboard-response","trial_index":15,"time_elapsed":133776,"internal_node_id":"0.0-8.0-0.2","subject":"ozmhtq7ehjzy8m0","sona":"9712"},{"rt":null,"stimulus":"<div style=\"font-size:60px;\">+</div>","key_press":null,"trial_type":"html-keyboard-response","trial_index":16,"time_elapsed":135779,"internal_node_id":"0.0-8.0-1.2","subject":"ozmhtq7ehjzy8m0","sona":"9712"},{"trial_type":"turing-test","trial_index":17,"time_elapsed":139440,"internal_node_id":"0.0-8.0-2.2","subject":"ozmhtq7ehjzy8m0","sona":"9712"},{"rt":318.88500007335097,"stimulus":"<p>Welche Sequenz haben Sie als natürlicher empfunden?</p>","key_press":70,"test_part":"response","test_stimulus":{"position":0,"left":"bvh/pass-bottle-hold-training3-lines.txt","right":"bvh/vr_prediction_models/model(vcgpdm)-dataset(pass-bottle-hold)-mode(ELBO)-parts(3)-dyn(35)-lvm(20)-hold(3)/final-lines.txt","att_check":false},"trial_type":"html-keyboard-response","trial_index":18,"time_elapsed":139765,"internal_node_id":"0.0-8.0-3.2","subject":"ozmhtq7ehjzy8m0","sona":"9712"},{"rt":290.0099999969825,"stimulus":"<p>Bereit?</p>","key_press":32,"trial_type":"html-keyboard-response","trial_index":19,"time_elapsed":140058,"internal_node_id":"0.0-8.0-0.3","subject":"ozmhtq7ehjzy8m0","sona":"9712"},{"rt":null,"stimulus":"<div style=\"font-size:60px;\">+</div>","key_press":null,"trial_type":"html-keyboard-response","trial_index":20,"time_elapsed":142061,"internal_node_id":"0.0-8.0-1.3","subject":"ozmhtq7ehjzy8m0","sona":"9712"},{"trial_type":"turing-test","trial_index":21,"time_elapsed":147889,"internal_node_id":"0.0-8.0-2.3","subject":"ozmhtq7ehjzy8m0","sona":"9712"},{"rt":501.01500004529953,"stimulus":"<p>Welche Sequenz haben Sie als natürlicher empfunden?</p>","key_press":74,"test_part":"response","test_stimulus":{"position":0,"left":"bvh/pass-bottle-training4-lines.txt","right":"bvh/vr_prediction_models/model(tmp)-dataset(pass-bottle)-numprim(14)-hold(4)/final-lines.txt","att_check":false},"trial_type":"html-keyboard-response","trial_index":22,"time_elapsed":148397,"internal_node_id":"0.0-8.0-3.3","subject":"ozmhtq7ehjzy8m0","sona":"9712"},{"rt":286.7850000038743,"stimulus":"<p>Bereit?</p>","key_press":32,"trial_type":"html-keyboard-response","trial_index":23,"time_elapsed":148688,"internal_node_id":"0.0-8.0-0.4","subject":"ozmhtq7ehjzy8m0","sona":"9712"},{"rt":null,"stimulus":"<div style=\"font-size:60px;\">+</div>","key_press":null,"trial_type":"html-keyboard-response","trial_index":24,"time_elapsed":150691,"internal_node_id":"0.0-8.0-1.4","subject":"ozmhtq7ehjzy8m0","sona":"9712"},{"trial_type":"turing-test","trial_index":25,"time_elapsed":154126,"internal_node_id":"0.0-8.0-2.4","subject":"ozmhtq7ehjzy8m0","sona":"9712"},{"rt":328.4500000299886,"stimulus":"<p>Welche Sequenz haben Sie als natürlicher empfunden?</p>","key_press":74,"test_part":"response","test_stimulus":{"position":1,"left":"bvh/vr_prediction_models/model(dmp)-dataset(return-bottle-hold)-npsi(50)-hold(2)/final-lines.txt","right":"bvh/return-bottle-hold-training2-lines.txt","att_check":false},"trial_type":"html-keyboard-response","trial_index":26,"time_elapsed":154460,"internal_node_id":"0.0-8.0-3.4","subject":"ozmhtq7ehjzy8m0","sona":"9712"},{"rt":499.76000003516674,"stimulus":"<p>Bereit?</p>","key_press":32,"trial_type":"html-keyboard-response","trial_index":27,"time_elapsed":154963,"internal_node_id":"0.0-8.0-0.5","subject":"ozmhtq7ehjzy8m0","sona":"9712"},{"rt":null,"stimulus":"<div style=\"font-size:60px;\">+</div>","key_press":null,"trial_type":"html-keyboard-response","trial_index":28,"time_elapsed":156967,"internal_node_id":"0.0-8.0-1.5","subject":"ozmhtq7ehjzy8m0","sona":"9712"},{"trial_type":"turing-test","trial_index":29,"time_elapsed":163116,"internal_node_id":"0.0-8.0-2.5","subject":"ozmhtq7ehjzy8m0","sona":"9712"},{"rt":265.86499996483326,"stimulus":"<p>Welche Sequenz haben Sie als natürlicher empfunden?</p>","key_press":70,"test_part":"response","test_stimulus":{"position":0,"left":"bvh/pass-bottle-training2-lines.txt","right":"bvh/vr_prediction_models/model(dmp)-dataset(pass-bottle)-npsi(100)-hold(2)/final-lines.txt","att_check":true},"trial_type":"html-keyboard-response","trial_index":30,"time_elapsed":163386,"internal_node_id":"0.0-8.0-3.5","subject":"ozmhtq7ehjzy8m0","sona":"9712"},{"rt":315.76999998651445,"stimulus":"<p>Bereit?</p>","key_press":32,"trial_type":"html-keyboard-response","trial_index":31,"time_elapsed":163705,"internal_node_id":"0.0-8.0-0.6","subject":"ozmhtq7ehjzy8m0","sona":"9712"},{"rt":null,"stimulus":"<div style=\"font-size:60px;\">+</div>","key_press":null,"trial_type":"html-keyboard-response","trial_index":32,"time_elapsed":165708,"internal_node_id":"0.0-8.0-1.6","subject":"ozmhtq7ehjzy8m0","sona":"9712"},{"trial_type":"turing-test","trial_index":33,"time_elapsed":171796,"internal_node_id":"0.0-8.0-2.6","subject":"ozmhtq7ehjzy8m0","sona":"9712"},{"rt":22.170000011101365,"stimulus":"<p>Welche Sequenz haben Sie als natürlicher empfunden?</p>","key_press":74,"test_part":"response","test_stimulus":{"position":1,"left":"bvh/vr_prediction_models/model(vcgpdm)-dataset(return-bottle)-mode(ELBO)-parts(3)-dyn(35)-lvm(20)-hold(3)/final-lines.txt","right":"bvh/return-bottle-training3-lines.txt","att_check":false},"trial_type":"html-keyboard-response","trial_index":34,"time_elapsed":171825,"internal_node_id":"0.0-8.0-3.6","subject":"ozmhtq7ehjzy8m0","sona":"9712"},{"rt":4544.085000059567,"stimulus":"<p>Bereit?</p>","key_press":32,"trial_type":"html-keyboard-response","trial_index":35,"time_elapsed":176374,"internal_node_id":"0.0-8.0-0.7","subject":"ozmhtq7ehjzy8m0","sona":"9712"},{"rt":null,"stimulus":"<div style=\"font-size:60px;\">+</div>","key_press":null,"trial_type":"html-keyboard-response","trial_index":36,"time_elapsed":178376,"internal_node_id":"0.0-8.0-1.7","subject":"ozmhtq7ehjzy8m0","sona":"9712"},{"trial_type":"turing-test","trial_index":37,"time_elapsed":185049,"internal_node_id":"0.0-8.0-2.7","subject":"ozmhtq7ehjzy8m0","sona":"9712"},{"rt":574.3999999249354,"stimulus":"<p>Welche Sequenz haben Sie als natürlicher empfunden?</p>","key_press":70,"test_part":"response","test_stimulus":{"position":0,"left":"bvh/return-bottle-training2-lines.txt","right":"bvh/vr_prediction_models/model(dmp)-dataset(return-bottle)-npsi(70)-hold(2)/final-lines.txt","att_check":false},"trial_type":"html-keyboard-response","trial_index":38,"time_elapsed":185633,"internal_node_id":"0.0-8.0-3.7","subject":"ozmhtq7ehjzy8m0","sona":"9712"},{"rt":399.585000006482,"stimulus":"<p>Bereit?</p>","key_press":32,"trial_type":"html-keyboard-response","trial_index":39,"time_elapsed":186036,"internal_node_id":"0.0-8.0-0.8","subject":"ozmhtq7ehjzy8m0","sona":"9712"},{"rt":null,"stimulus":"<div style=\"font-size:60px;\">+</div>","key_press":null,"trial_type":"html-keyboard-response","trial_index":40,"time_elapsed":188040,"internal_node_id":"0.0-8.0-1.8","subject":"ozmhtq7ehjzy8m0","sona":"9712"},{"trial_type":"turing-test","trial_index":41,"time_elapsed":193168,"internal_node_id":"0.0-8.0-2.8","subject":"ozmhtq7ehjzy8m0","sona":"9712"},{"rt":385.3149999631569,"stimulus":"<p>Welche Sequenz haben Sie als natürlicher empfunden?</p>","key_press":70,"test_part":"response","test_stimulus":{"position":0,"left":"bvh/return-bottle-hold-training0-lines.txt","right":"bvh/vr_prediction_models/model(tmp)-dataset(return-bottle-hold)-numprim(13)-hold(0)/final-lines.txt","att_check":false},"trial_type":"html-keyboard-response","trial_index":42,"time_elapsed":193562,"internal_node_id":"0.0-8.0-3.8","subject":"ozmhtq7ehjzy8m0","sona":"9712"},{"rt":426.9749999511987,"stimulus":"<p>Bereit?</p>","key_press":32,"trial_type":"html-keyboard-response","trial_index":43,"time_elapsed":193993,"internal_node_id":"0.0-8.0-0.9","subject":"ozmhtq7ehjzy8m0","sona":"9712"},{"rt":null,"stimulus":"<div style=\"font-size:60px;\">+</div>","key_press":null,"trial_type":"html-keyboard-response","trial_index":44,"time_elapsed":195996,"internal_node_id":"0.0-8.0-1.9","subject":"ozmhtq7ehjzy8m0","sona":"9712"},{"trial_type":"turing-test","trial_index":45,"time_elapsed":202149,"internal_node_id":"0.0-8.0-2.9","subject":"ozmhtq7ehjzy8m0","sona":"9712"},{"rt":523.6600000644103,"stimulus":"<p>Welche Sequenz haben Sie als natürlicher empfunden?</p>","key_press":70,"test_part":"response","test_stimulus":{"position":0,"left":"bvh/return-bottle-training1-lines.txt","right":"bvh/vr_prediction_models/model(tmp)-dataset(return-bottle)-numprim(13)-hold(1)/final-lines.txt","att_check":false},"trial_type":"html-keyboard-response","trial_index":46,"time_elapsed":202679,"internal_node_id":"0.0-8.0-3.9","subject":"ozmhtq7ehjzy8m0","sona":"9712"},{"rt":4378.420000080951,"stimulus":"<p>Bereit?</p>","key_press":32,"trial_type":"html-keyboard-response","trial_index":47,"time_elapsed":207062,"internal_node_id":"0.0-8.0-0.10","subject":"ozmhtq7ehjzy8m0","sona":"9712"},{"rt":null,"stimulus":"<div style=\"font-size:60px;\">+</div>","key_press":null,"trial_type":"html-keyboard-response","trial_index":48,"time_elapsed":209064,"internal_node_id":"0.0-8.0-1.10","subject":"ozmhtq7ehjzy8m0","sona":"9712"},{"trial_type":"turing-test","trial_index":49,"time_elapsed":212434,"internal_node_id":"0.0-8.0-2.10","subject":"ozmhtq7ehjzy8m0","sona":"9712"},{"rt":747.6850000675768,"stimulus":"<p>Welche Sequenz haben Sie als natürlicher empfunden?</p>","key_press":74,"test_part":"response","test_stimulus":{"position":0,"left":"bvh/return-bottle-hold-training1-lines.txt","right":"bvh/vr_prediction_models/model(tmp)-dataset(return-bottle-hold)-numprim(11)-hold(1)/final-lines.txt","att_check":false},"trial_type":"html-keyboard-response","trial_index":50,"time_elapsed":213188,"internal_node_id":"0.0-8.0-3.10","subject":"ozmhtq7ehjzy8m0","sona":"9712"},{"rt":230.22499994840473,"stimulus":"<p>Bereit?</p>","key_press":32,"trial_type":"html-keyboard-response","trial_index":51,"time_elapsed":213422,"internal_node_id":"0.0-8.0-0.11","subject":"ozmhtq7ehjzy8m0","sona":"9712"},{"rt":null,"stimulus":"<div style=\"font-size:60px;\">+</div>","key_press":null,"trial_type":"html-keyboard-response","trial_index":52,"time_elapsed":215425,"internal_node_id":"0.0-8.0-1.11","subject":"ozmhtq7ehjzy8m0","sona":"9712"}]