[{"rt":3062.489999923855,"stimulus":"<p>Welcome!<br> Please choose your language to start the experiment in the chosen language.</p><p>Willkommen!<br> Bitte wählen Sie eine Sprache, um das Experiment in der ausgewählten Sprache zu starten</p>","button_pressed":"1","trial_type":"html-button-response","trial_index":0,"time_elapsed":3084,"internal_node_id":"0.0-0.0","subject":"1tbwke76ungutex","sona":"9583"},{"view_history":"[{\"page_index\":0,\"viewing_time\":755.9199999086559},{\"page_index\":1,\"viewing_time\":1080.0950000993907},{\"page_index\":2,\"viewing_time\":535.7999999541789},{\"page_index\":3,\"viewing_time\":904.0299999760464},{\"page_index\":4,\"viewing_time\":616.0950000630692}]","rt":3893.6249999096617,"trial_type":"instructions","trial_index":1,"time_elapsed":6979,"internal_node_id":"0.0-1.0-0.0","subject":"1tbwke76ungutex","sona":"9583"},{"rt":1350.719999987632,"stimulus":"<p>Bereit?</p>","key_press":32,"trial_type":"html-keyboard-response","trial_index":2,"time_elapsed":8333,"internal_node_id":"0.0-3.0","subject":"1tbwke76ungutex","sona":"9583"},{"rt":null,"stimulus":"<div style=\"font-size:60px;\">+</div>","key_press":null,"trial_type":"html-keyboard-response","trial_index":3,"time_elapsed":10336,"internal_node_id":"0.0-4.0","subject":"1tbwke76ungutex","sona":"9583"},{"trial_type":"training","trial_index":4,"time_elapsed":13623,"internal_node_id":"0.0-5.0","subject":"1tbwke76ungutex","sona":"9583"},{"rt":518.9500000560656,"stimulus":"<p>Welche Sequenz haben Sie als natürlicher empfunden?</p>","key_press":70,"trial_type":"html-keyboard-response","trial_index":5,"time_elapsed":14144,"internal_node_id":"0.0-6.0","subject":"1tbwke76ungutex","sona":"9583"},{"rt":2584.5099999569356,"stimulus":"<p>Das Experiment startet nun.</p><p><small>Bitte drücken Sie den Knopf, wenn Sie bereit sind.</small></p>","button_pressed":"0","trial_type":"html-button-response","trial_index":6,"time_elapsed":16729,"internal_node_id":"0.0-7.0","subject":"1tbwke76ungutex","sona":"9583"},{"rt":1005.6799999438226,"stimulus":"<p>Bereit?</p>","key_press":32,"trial_type":"html-keyboard-response","trial_index":7,"time_elapsed":17737,"internal_node_id":"0.0-8.0-0.0","subject":"1tbwke76ungutex","sona":"9583"},{"rt":null,"stimulus":"<div style=\"font-size:60px;\">+</div>","key_press":null,"trial_type":"html-keyboard-response","trial_index":8,"time_elapsed":19740,"internal_node_id":"0.0-8.0-1.0","subject":"1tbwke76ungutex","sona":"9583"},{"trial_type":"turing-test","trial_index":9,"time_elapsed":23325,"internal_node_id":"0.0-8.0-2.0","subject":"1tbwke76ungutex","sona":"9583"},{"rt":458.3850000053644,"stimulus":"<p>Welche Sequenz haben Sie als natürlicher empfunden?</p>","key_press":70,"test_part":"response","test_stimulus":{"position":0,"left":"bvh/pass-bottle-hold-training4-lines.txt","right":"bvh/vr_prediction_models/model(tmp)-dataset(pass-bottle-hold)-numprim(9)-hold(4)/final-lines.txt","att_check":false},"trial_type":"html-keyboard-response","trial_index":10,"time_elapsed":23786,"internal_node_id":"0.0-8.0-3.0","subject":"1tbwke76ungutex","sona":"9583"},{"rt":429.7899999655783,"stimulus":"<p>Bereit?</p>","key_press":32,"trial_type":"html-keyboard-response","trial_index":11,"time_elapsed":24218,"internal_node_id":"0.0-8.0-0.1","subject":"1tbwke76ungutex","sona":"9583"},{"rt":null,"stimulus":"<div style=\"font-size:60px;\">+</div>","key_press":null,"trial_type":"html-keyboard-response","trial_index":12,"time_elapsed":26232,"internal_node_id":"0.0-8.0-1.1","subject":"1tbwke76ungutex","sona":"9583"},{"trial_type":"turing-test","trial_index":13,"time_elapsed":32132,"internal_node_id":"0.0-8.0-2.1","subject":"1tbwke76ungutex","sona":"9583"},{"rt":925.0100000062957,"stimulus":"<p>Welche Sequenz haben Sie als natürlicher empfunden?</p>","key_press":74,"test_part":"response","test_stimulus":{"position":0,"left":"bvh/return-bottle-training3-lines.txt","right":"bvh/vr_prediction_models/model(dmp)-dataset(return-bottle)-npsi(40)-hold(3)/final-lines.txt","att_check":false},"trial_type":"html-keyboard-response","trial_index":14,"time_elapsed":33065,"internal_node_id":"0.0-8.0-3.1","subject":"1tbwke76ungutex","sona":"9583"},{"rt":266.1950000328943,"stimulus":"<p>Bereit?</p>","key_press":32,"trial_type":"html-keyboard-response","trial_index":15,"time_elapsed":33334,"internal_node_id":"0.0-8.0-0.2","subject":"1tbwke76ungutex","sona":"9583"},{"rt":null,"stimulus":"<div style=\"font-size:60px;\">+</div>","key_press":null,"trial_type":"html-keyboard-response","trial_index":16,"time_elapsed":35337,"internal_node_id":"0.0-8.0-1.2","subject":"1tbwke76ungutex","sona":"9583"},{"trial_type":"turing-test","trial_index":17,"time_elapsed":38923,"internal_node_id":"0.0-8.0-2.2","subject":"1tbwke76ungutex","sona":"9583"},{"rt":2907.589999958873,"stimulus":"<p>Welche Sequenz haben Sie als natürlicher empfunden?</p>","key_press":70,"test_part":"response","test_stimulus":{"position":1,"left":"bvh/vr_prediction_models/model(dmp)-dataset(pass-bottle-hold)-npsi(80)-hold(3)/final-lines.txt","right":"bvh/pass-bottle-hold-training3-lines.txt","att_check":false},"trial_type":"html-keyboard-response","trial_index":18,"time_elapsed":41834,"internal_node_id":"0.0-8.0-3.2","subject":"1tbwke76ungutex","sona":"9583"},{"rt":205.45999996829778,"stimulus":"<p>Bereit?</p>","key_press":32,"trial_type":"html-keyboard-response","trial_index":19,"time_elapsed":42043,"internal_node_id":"0.0-8.0-0.3","subject":"1tbwke76ungutex","sona":"9583"},{"rt":null,"stimulus":"<div style=\"font-size:60px;\">+</div>","key_press":null,"trial_type":"html-keyboard-response","trial_index":20,"time_elapsed":44045,"internal_node_id":"0.0-8.0-1.3","subject":"1tbwke76ungutex","sona":"9583"},{"trial_type":"turing-test","trial_index":21,"time_elapsed":50115,"internal_node_id":"0.0-8.0-2.3","subject":"1tbwke76ungutex","sona":"9583"},{"rt":539.9949999991804,"stimulus":"<p>Welche Sequenz haben Sie als natürlicher empfunden?</p>","key_press":70,"test_part":"response","test_stimulus":{"position":0,"left":"bvh/return-bottle-training1-lines.txt","right":"bvh/vr_prediction_models/model(vcgpdm)-dataset(return-bottle)-mode(ELBO)-parts(3)-dyn(20)-lvm(15)-hold(1)/final-lines.txt","att_check":false},"trial_type":"html-keyboard-response","trial_index":22,"time_elapsed":50658,"internal_node_id":"0.0-8.0-3.3","subject":"1tbwke76ungutex","sona":"9583"},{"rt":1150.6550000049174,"stimulus":"<p>Bereit?</p>","key_press":32,"trial_type":"html-keyboard-response","trial_index":23,"time_elapsed":51811,"internal_node_id":"0.0-8.0-0.4","subject":"1tbwke76ungutex","sona":"9583"},{"rt":null,"stimulus":"<div style=\"font-size:60px;\">+</div>","key_press":null,"trial_type":"html-keyboard-response","trial_index":24,"time_elapsed":53814,"internal_node_id":"0.0-8.0-1.4","subject":"1tbwke76ungutex","sona":"9583"},{"trial_type":"turing-test","trial_index":25,"time_elapsed":60072,"internal_node_id":"0.0-8.0-2.4","subject":"1tbwke76ungutex","sona":"9583"},{"rt":418.12500008381903,"stimulus":"<p>Welche Sequenz haben Sie als natürlicher empfunden?</p>","key_press":74,"test_part":"response","test_stimulus":{"position":1,"left":"bvh/vr_prediction_models/model(dmp)-dataset(return-bottle)-npsi(60)-hold(1)/final-lines.txt","right":"bvh/return-bottle-training1-lines.txt","att_check":false},"trial_type":"html-keyboard-response","trial_index":26,"time_elapsed":60500,"internal_node_id":"0.0-8.0-3.4","subject":"1tbwke76ungutex","sona":"9583"},{"rt":304.7399999340996,"stimulus":"<p>Bereit?</p>","key_press":32,"trial_type":"html-keyboard-response","trial_index":27,"time_elapsed":60808,"internal_node_id":"0.0-8.0-0.5","subject":"1tbwke76ungutex","sona":"9583"},{"rt":null,"stimulus":"<div style=\"font-size:60px;\">+</div>","key_press":null,"trial_type":"html-keyboard-response","trial_index":28,"time_elapsed":62811,"internal_node_id":"0.0-8.0-1.5","subject":"1tbwke76ungutex","sona":"9583"},{"trial_type":"turing-test","trial_index":29,"time_elapsed":66844,"internal_node_id":"0.0-8.0-2.5","subject":"1tbwke76ungutex","sona":"9583"},{"rt":445.76999999117106,"stimulus":"<p>Welche Sequenz haben Sie als natürlicher empfunden?</p>","key_press":74,"test_part":"response","test_stimulus":{"position":1,"left":"bvh/vr_prediction_models/model(vcgpdm)-dataset(return-bottle-hold)-mode(ELBO)-parts(3)-dyn(20)-lvm(35)-hold(3)/final-lines.txt","right":"bvh/return-bottle-hold-training3-lines.txt","att_check":false},"trial_type":"html-keyboard-response","trial_index":30,"time_elapsed":67295,"internal_node_id":"0.0-8.0-3.5","subject":"1tbwke76ungutex","sona":"9583"},{"rt":297.6300000445917,"stimulus":"<p>Bereit?</p>","key_press":32,"trial_type":"html-keyboard-response","trial_index":31,"time_elapsed":67596,"internal_node_id":"0.0-8.0-0.6","subject":"1tbwke76ungutex","sona":"9583"},{"rt":null,"stimulus":"<div style=\"font-size:60px;\">+</div>","key_press":null,"trial_type":"html-keyboard-response","trial_index":32,"time_elapsed":69599,"internal_node_id":"0.0-8.0-1.6","subject":"1tbwke76ungutex","sona":"9583"},{"trial_type":"turing-test","trial_index":33,"time_elapsed":75357,"internal_node_id":"0.0-8.0-2.6","subject":"1tbwke76ungutex","sona":"9583"},{"rt":374.23499999567866,"stimulus":"<p>Welche Sequenz haben Sie als natürlicher empfunden?</p>","key_press":74,"test_part":"response","test_stimulus":{"position":1,"left":"bvh/vr_prediction_models/model(tmp)-dataset(return-bottle)-numprim(4)-hold(3)/final-lines.txt","right":"bvh/return-bottle-training3-lines.txt","att_check":false},"trial_type":"html-keyboard-response","trial_index":34,"time_elapsed":75735,"internal_node_id":"0.0-8.0-3.6","subject":"1tbwke76ungutex","sona":"9583"},{"rt":268.75000004656613,"stimulus":"<p>Bereit?</p>","key_press":32,"trial_type":"html-keyboard-response","trial_index":35,"time_elapsed":76007,"internal_node_id":"0.0-8.0-0.7","subject":"1tbwke76ungutex","sona":"9583"},{"rt":null,"stimulus":"<div style=\"font-size:60px;\">+</div>","key_press":null,"trial_type":"html-keyboard-response","trial_index":36,"time_elapsed":78010,"internal_node_id":"0.0-8.0-1.7","subject":"1tbwke76ungutex","sona":"9583"},{"trial_type":"turing-test","trial_index":37,"time_elapsed":83856,"internal_node_id":"0.0-8.0-2.7","subject":"1tbwke76ungutex","sona":"9583"},{"rt":477.2749999538064,"stimulus":"<p>Welche Sequenz haben Sie als natürlicher empfunden?</p>","key_press":74,"test_part":"response","test_stimulus":{"position":1,"left":"bvh/vr_prediction_models/model(tmp)-dataset(pass-bottle)-numprim(8)-hold(4)/final-lines.txt","right":"bvh/pass-bottle-training4-lines.txt","att_check":false},"trial_type":"html-keyboard-response","trial_index":38,"time_elapsed":84338,"internal_node_id":"0.0-8.0-3.7","subject":"1tbwke76ungutex","sona":"9583"},{"rt":201.84999995399266,"stimulus":"<p>Bereit?</p>","key_press":32,"trial_type":"html-keyboard-response","trial_index":39,"time_elapsed":84544,"internal_node_id":"0.0-8.0-0.8","subject":"1tbwke76ungutex","sona":"9583"},{"rt":null,"stimulus":"<div style=\"font-size:60px;\">+</div>","key_press":null,"trial_type":"html-keyboard-response","trial_index":40,"time_elapsed":86548,"internal_node_id":"0.0-8.0-1.8","subject":"1tbwke76ungutex","sona":"9583"},{"trial_type":"turing-test","trial_index":41,"time_elapsed":90338,"internal_node_id":"0.0-8.0-2.8","subject":"1tbwke76ungutex","sona":"9583"},{"rt":3046.5900000417605,"stimulus":"<p>Welche Sequenz haben Sie als natürlicher empfunden?</p>","key_press":74,"test_part":"response","test_stimulus":{"position":0,"left":"bvh/return-bottle-hold-training3-lines.txt","right":"bvh/vr_prediction_models/model(vcgpdm)-dataset(return-bottle-hold)-mode(ELBO)-parts(3)-dyn(25)-lvm(25)-hold(3)/final-lines.txt","att_check":false},"trial_type":"html-keyboard-response","trial_index":42,"time_elapsed":93391,"internal_node_id":"0.0-8.0-3.8","subject":"1tbwke76ungutex","sona":"9583"},{"rt":172.5700000533834,"stimulus":"<p>Bereit?</p>","key_press":32,"trial_type":"html-keyboard-response","trial_index":43,"time_elapsed":93567,"internal_node_id":"0.0-8.0-0.9","subject":"1tbwke76ungutex","sona":"9583"},{"rt":null,"stimulus":"<div style=\"font-size:60px;\">+</div>","key_press":null,"trial_type":"html-keyboard-response","trial_index":44,"time_elapsed":95569,"internal_node_id":"0.0-8.0-1.9","subject":"1tbwke76ungutex","sona":"9583"},{"trial_type":"turing-test","trial_index":45,"time_elapsed":101765,"internal_node_id":"0.0-8.0-2.9","subject":"1tbwke76ungutex","sona":"9583"},{"rt":369.13500004447997,"stimulus":"<p>Welche Sequenz haben Sie als natürlicher empfunden?</p>","key_press":74,"test_part":"response","test_stimulus":{"position":1,"left":"bvh/vr_prediction_models/model(tmp)-dataset(return-bottle)-numprim(5)-hold(1)/final-lines.txt","right":"bvh/return-bottle-training1-lines.txt","att_check":false},"trial_type":"html-keyboard-response","trial_index":46,"time_elapsed":102141,"internal_node_id":"0.0-8.0-3.9","subject":"1tbwke76ungutex","sona":"9583"},{"rt":241.57499999273568,"stimulus":"<p>Bereit?</p>","key_press":32,"trial_type":"html-keyboard-response","trial_index":47,"time_elapsed":102385,"internal_node_id":"0.0-8.0-0.10","subject":"1tbwke76ungutex","sona":"9583"},{"rt":null,"stimulus":"<div style=\"font-size:60px;\">+</div>","key_press":null,"trial_type":"html-keyboard-response","trial_index":48,"time_elapsed":104387,"internal_node_id":"0.0-8.0-1.10","subject":"1tbwke76ungutex","sona":"9583"},{"trial_type":"turing-test","trial_index":49,"time_elapsed":109914,"internal_node_id":"0.0-8.0-2.10","subject":"1tbwke76ungutex","sona":"9583"},{"rt":11278.26500008814,"stimulus":"<p>Welche Sequenz haben Sie als natürlicher empfunden?</p>","key_press":74,"test_part":"response","test_stimulus":{"position":1,"left":"bvh/vr_prediction_models/model(tmp)-dataset(pass-bottle)-numprim(10)-hold(1)/final-lines.txt","right":"bvh/pass-bottle-training1-lines.txt","att_check":false},"trial_type":"html-keyboard-response","trial_index":50,"time_elapsed":121195,"internal_node_id":"0.0-8.0-3.10","subject":"1tbwke76ungutex","sona":"9583"},{"rt":683.1399999791756,"stimulus":"<p>Bereit?</p>","key_press":32,"trial_type":"html-keyboard-response","trial_index":51,"time_elapsed":121882,"internal_node_id":"0.0-8.0-0.11","subject":"1tbwke76ungutex","sona":"9583"},{"rt":null,"stimulus":"<div style=\"font-size:60px;\">+</div>","key_press":null,"trial_type":"html-keyboard-response","trial_index":52,"time_elapsed":123885,"internal_node_id":"0.0-8.0-1.11","subject":"1tbwke76ungutex","sona":"9583"},{"trial_type":"turing-test","trial_index":53,"time_elapsed":128336,"internal_node_id":"0.0-8.0-2.11","subject":"1tbwke76ungutex","sona":"9583"}]