[{"rt":22618.03499999951,"stimulus":"<p>Welcome!<br> Please choose your language to start the experiment in the chosen language.</p><p>Willkommen!<br> Bitte wählen Sie eine Sprache, um das Experiment in der ausgewählten Sprache zu starten</p>","button_pressed":"1","trial_type":"html-button-response","trial_index":0,"time_elapsed":22661,"internal_node_id":"0.0-0.0","subject":"jds5c81p5gfpyn0","sona":"8731"},{"view_history":"[{\"page_index\":0,\"viewing_time\":6395.254999999452},{\"page_index\":1,\"viewing_time\":5807.890000000043},{\"page_index\":2,\"viewing_time\":4959.974999999758},{\"page_index\":3,\"viewing_time\":11000.090000001364},{\"page_index\":4,\"viewing_time\":2487.9000000000815}]","rt":30651.99500000017,"trial_type":"instructions","trial_index":1,"time_elapsed":53316,"internal_node_id":"0.0-1.0-0.0","subject":"jds5c81p5gfpyn0","sona":"8731"},{"rt":1852.2200000006706,"stimulus":"<p>Bereit?</p>","key_press":32,"trial_type":"html-keyboard-response","trial_index":2,"time_elapsed":55170,"internal_node_id":"0.0-3.0","subject":"jds5c81p5gfpyn0","sona":"8731"},{"rt":null,"stimulus":"<div style=\"font-size:60px;\">+</div>","key_press":null,"trial_type":"html-keyboard-response","trial_index":3,"time_elapsed":57193,"internal_node_id":"0.0-4.0","subject":"jds5c81p5gfpyn0","sona":"8731"},{"trial_type":"training","trial_index":4,"time_elapsed":60577,"internal_node_id":"0.0-5.0","subject":"jds5c81p5gfpyn0","sona":"8731"},{"rt":1894.8849999997037,"stimulus":"<p>Welche Sequenz haben Sie als natürlicher empfunden?</p>","key_press":70,"trial_type":"html-keyboard-response","trial_index":5,"time_elapsed":62473,"internal_node_id":"0.0-6.0","subject":"jds5c81p5gfpyn0","sona":"8731"},{"rt":2800.555000001623,"stimulus":"<p>Das Experiment startet nun.</p><p><small>Bitte drücken Sie den Knopf, wenn Sie bereit sind.</small></p>","button_pressed":"0","trial_type":"html-button-response","trial_index":6,"time_elapsed":65275,"internal_node_id":"0.0-7.0","subject":"jds5c81p5gfpyn0","sona":"8731"},{"rt":1844.6050000002288,"stimulus":"<p>Bereit?</p>","key_press":32,"trial_type":"html-keyboard-response","trial_index":7,"time_elapsed":67121,"internal_node_id":"0.0-8.0-0.0","subject":"jds5c81p5gfpyn0","sona":"8731"},{"rt":null,"stimulus":"<div style=\"font-size:60px;\">+</div>","key_press":null,"trial_type":"html-keyboard-response","trial_index":8,"time_elapsed":69138,"internal_node_id":"0.0-8.0-1.0","subject":"jds5c81p5gfpyn0","sona":"8731"},{"trial_type":"turing-test","trial_index":9,"time_elapsed":72774,"internal_node_id":"0.0-8.0-2.0","subject":"jds5c81p5gfpyn0","sona":"8731"},{"rt":344.7699999996985,"stimulus":"<p>Welche Sequenz haben Sie als natürlicher empfunden?</p>","key_press":74,"test_part":"response","test_stimulus":{"position":0,"left":"bvh/pass-bottle-hold-training4-lines.txt","right":"bvh/vr_prediction_models/model(dmp)-dataset(pass-bottle-hold)-npsi(20)-hold(4)/final-lines.txt","att_check":false},"trial_type":"html-keyboard-response","trial_index":10,"time_elapsed":73121,"internal_node_id":"0.0-8.0-3.0","subject":"jds5c81p5gfpyn0","sona":"8731"},{"rt":1124.340000000302,"stimulus":"<p>Bereit?</p>","key_press":32,"trial_type":"html-keyboard-response","trial_index":11,"time_elapsed":74249,"internal_node_id":"0.0-8.0-0.1","subject":"jds5c81p5gfpyn0","sona":"8731"},{"rt":null,"stimulus":"<div style=\"font-size:60px;\">+</div>","key_press":null,"trial_type":"html-keyboard-response","trial_index":12,"time_elapsed":76261,"internal_node_id":"0.0-8.0-1.1","subject":"jds5c81p5gfpyn0","sona":"8731"},{"trial_type":"turing-test","trial_index":13,"time_elapsed":82201,"internal_node_id":"0.0-8.0-2.1","subject":"jds5c81p5gfpyn0","sona":"8731"},{"rt":228.57500000100117,"stimulus":"<p>Welche Sequenz haben Sie als natürlicher empfunden?</p>","key_press":70,"test_part":"response","test_stimulus":{"position":0,"left":"bvh/pass-bottle-training3-lines.txt","right":"bvh/vr_prediction_models/model(vcgpdm)-dataset(pass-bottle)-mode(ELBO)-parts(3)-dyn(15)-lvm(30)-hold(3)/final-lines.txt","att_check":false},"trial_type":"html-keyboard-response","trial_index":14,"time_elapsed":82433,"internal_node_id":"0.0-8.0-3.1","subject":"jds5c81p5gfpyn0","sona":"8731"},{"rt":925.599999998667,"stimulus":"<p>Bereit?</p>","key_press":32,"trial_type":"html-keyboard-response","trial_index":15,"time_elapsed":83361,"internal_node_id":"0.0-8.0-0.2","subject":"jds5c81p5gfpyn0","sona":"8731"},{"rt":null,"stimulus":"<div style=\"font-size:60px;\">+</div>","key_press":null,"trial_type":"html-keyboard-response","trial_index":16,"time_elapsed":85388,"internal_node_id":"0.0-8.0-1.2","subject":"jds5c81p5gfpyn0","sona":"8731"},{"trial_type":"turing-test","trial_index":17,"time_elapsed":91063,"internal_node_id":"0.0-8.0-2.2","subject":"jds5c81p5gfpyn0","sona":"8731"},{"rt":319.03000000056636,"stimulus":"<p>Welche Sequenz haben Sie als natürlicher empfunden?</p>","key_press":70,"test_part":"response","test_stimulus":{"position":0,"left":"bvh/pass-bottle-training1-lines.txt","right":"bvh/vr_prediction_models/model(vcgpdm)-dataset(pass-bottle)-mode(ELBO)-parts(1)-dyn(10)-lvm(25)-hold(1)/final-lines.txt","att_check":false},"trial_type":"html-keyboard-response","trial_index":18,"time_elapsed":91385,"internal_node_id":"0.0-8.0-3.2","subject":"jds5c81p5gfpyn0","sona":"8731"},{"rt":493.6649999999645,"stimulus":"<p>Bereit?</p>","key_press":32,"trial_type":"html-keyboard-response","trial_index":19,"time_elapsed":91881,"internal_node_id":"0.0-8.0-0.3","subject":"jds5c81p5gfpyn0","sona":"8731"},{"rt":null,"stimulus":"<div style=\"font-size:60px;\">+</div>","key_press":null,"trial_type":"html-keyboard-response","trial_index":20,"time_elapsed":93897,"internal_node_id":"0.0-8.0-1.3","subject":"jds5c81p5gfpyn0","sona":"8731"},{"trial_type":"turing-test","trial_index":21,"time_elapsed":97414,"internal_node_id":"0.0-8.0-2.3","subject":"jds5c81p5gfpyn0","sona":"8731"},{"rt":901.9250000001193,"stimulus":"<p>Welche Sequenz haben Sie als natürlicher empfunden?</p>","key_press":74,"test_part":"response","test_stimulus":{"position":1,"left":"bvh/vr_prediction_models/model(vcgpdm)-dataset(return-bottle-hold)-mode(ELBO)-parts(1)-dyn(30)-lvm(35)-hold(1)/final-lines.txt","right":"bvh/return-bottle-hold-training1-lines.txt","att_check":false},"trial_type":"html-keyboard-response","trial_index":22,"time_elapsed":98321,"internal_node_id":"0.0-8.0-3.3","subject":"jds5c81p5gfpyn0","sona":"8731"},{"rt":326.83999999972,"stimulus":"<p>Bereit?</p>","key_press":32,"trial_type":"html-keyboard-response","trial_index":23,"time_elapsed":98650,"internal_node_id":"0.0-8.0-0.4","subject":"jds5c81p5gfpyn0","sona":"8731"},{"rt":null,"stimulus":"<div style=\"font-size:60px;\">+</div>","key_press":null,"trial_type":"html-keyboard-response","trial_index":24,"time_elapsed":100669,"internal_node_id":"0.0-8.0-1.4","subject":"jds5c81p5gfpyn0","sona":"8731"},{"trial_type":"turing-test","trial_index":25,"time_elapsed":106514,"internal_node_id":"0.0-8.0-2.4","subject":"jds5c81p5gfpyn0","sona":"8731"},{"rt":353.68000000016764,"stimulus":"<p>Welche Sequenz haben Sie als natürlicher empfunden?</p>","key_press":70,"test_part":"response","test_stimulus":{"position":0,"left":"bvh/return-bottle-training3-lines.txt","right":"bvh/vr_prediction_models/model(dmp)-dataset(return-bottle)-npsi(90)-hold(3)/final-lines.txt","att_check":false},"trial_type":"html-keyboard-response","trial_index":26,"time_elapsed":106873,"internal_node_id":"0.0-8.0-3.4","subject":"jds5c81p5gfpyn0","sona":"8731"},{"rt":422.6799999996729,"stimulus":"<p>Bereit?</p>","key_press":32,"trial_type":"html-keyboard-response","trial_index":27,"time_elapsed":107299,"internal_node_id":"0.0-8.0-0.5","subject":"jds5c81p5gfpyn0","sona":"8731"},{"rt":null,"stimulus":"<div style=\"font-size:60px;\">+</div>","key_press":null,"trial_type":"html-keyboard-response","trial_index":28,"time_elapsed":109324,"internal_node_id":"0.0-8.0-1.5","subject":"jds5c81p5gfpyn0","sona":"8731"},{"trial_type":"turing-test","trial_index":29,"time_elapsed":115080,"internal_node_id":"0.0-8.0-2.5","subject":"jds5c81p5gfpyn0","sona":"8731"},{"rt":1247.400000000198,"stimulus":"<p>Welche Sequenz haben Sie als natürlicher empfunden?</p>","key_press":70,"test_part":"response","test_stimulus":{"position":1,"left":"bvh/vr_prediction_models/model(tmp)-dataset(return-bottle)-numprim(13)-hold(3)/final-lines.txt","right":"bvh/return-bottle-training3-lines.txt","att_check":false},"trial_type":"html-keyboard-response","trial_index":30,"time_elapsed":116330,"internal_node_id":"0.0-8.0-3.5","subject":"jds5c81p5gfpyn0","sona":"8731"},{"rt":299.2050000011659,"stimulus":"<p>Bereit?</p>","key_press":32,"trial_type":"html-keyboard-response","trial_index":31,"time_elapsed":116633,"internal_node_id":"0.0-8.0-0.6","subject":"jds5c81p5gfpyn0","sona":"8731"},{"rt":null,"stimulus":"<div style=\"font-size:60px;\">+</div>","key_press":null,"trial_type":"html-keyboard-response","trial_index":32,"time_elapsed":118660,"internal_node_id":"0.0-8.0-1.6","subject":"jds5c81p5gfpyn0","sona":"8731"},{"trial_type":"turing-test","trial_index":33,"time_elapsed":124261,"internal_node_id":"0.0-8.0-2.6","subject":"jds5c81p5gfpyn0","sona":"8731"},{"rt":4198.320000001331,"stimulus":"<p>Welche Sequenz haben Sie als natürlicher empfunden?</p>","key_press":70,"test_part":"response","test_stimulus":{"position":1,"left":"bvh/vr_prediction_models/model(vcgpdm)-dataset(pass-bottle)-mode(ELBO)-parts(1)-dyn(10)-lvm(5)-hold(1)/final-lines.txt","right":"bvh/pass-bottle-training1-lines.txt","att_check":false},"trial_type":"html-keyboard-response","trial_index":34,"time_elapsed":128465,"internal_node_id":"0.0-8.0-3.6","subject":"jds5c81p5gfpyn0","sona":"8731"},{"rt":590.795000000071,"stimulus":"<p>Bereit?</p>","key_press":32,"trial_type":"html-keyboard-response","trial_index":35,"time_elapsed":129059,"internal_node_id":"0.0-8.0-0.7","subject":"jds5c81p5gfpyn0","sona":"8731"},{"rt":null,"stimulus":"<div style=\"font-size:60px;\">+</div>","key_press":null,"trial_type":"html-keyboard-response","trial_index":36,"time_elapsed":131091,"internal_node_id":"0.0-8.0-1.7","subject":"jds5c81p5gfpyn0","sona":"8731"},{"trial_type":"turing-test","trial_index":37,"time_elapsed":134632,"internal_node_id":"0.0-8.0-2.7","subject":"jds5c81p5gfpyn0","sona":"8731"},{"rt":6894.3999999992375,"stimulus":"<p>Welche Sequenz haben Sie als natürlicher empfunden?</p>","key_press":70,"test_part":"response","test_stimulus":{"position":0,"left":"bvh/return-bottle-hold-training2-lines.txt","right":"bvh/vr_prediction_models/model(dmp)-dataset(return-bottle-hold)-npsi(50)-hold(2)/final-lines.txt","att_check":false},"trial_type":"html-keyboard-response","trial_index":38,"time_elapsed":141531,"internal_node_id":"0.0-8.0-3.7","subject":"jds5c81p5gfpyn0","sona":"8731"},{"rt":745.5050000007614,"stimulus":"<p>Bereit?</p>","key_press":32,"trial_type":"html-keyboard-response","trial_index":39,"time_elapsed":142282,"internal_node_id":"0.0-8.0-0.8","subject":"jds5c81p5gfpyn0","sona":"8731"},{"rt":null,"stimulus":"<div style=\"font-size:60px;\">+</div>","key_press":null,"trial_type":"html-keyboard-response","trial_index":40,"time_elapsed":144294,"internal_node_id":"0.0-8.0-1.8","subject":"jds5c81p5gfpyn0","sona":"8731"},{"trial_type":"turing-test","trial_index":41,"time_elapsed":147811,"internal_node_id":"0.0-8.0-2.8","subject":"jds5c81p5gfpyn0","sona":"8731"},{"rt":497.7699999999313,"stimulus":"<p>Welche Sequenz haben Sie als natürlicher empfunden?</p>","key_press":70,"test_part":"response","test_stimulus":{"position":1,"left":"bvh/vr_prediction_models/model(vcgpdm)-dataset(pass-bottle-hold)-mode(ELBO)-parts(1)-dyn(10)-lvm(5)-hold(2)/final-lines.txt","right":"bvh/pass-bottle-hold-training2-lines.txt","att_check":false},"trial_type":"html-keyboard-response","trial_index":42,"time_elapsed":148313,"internal_node_id":"0.0-8.0-3.8","subject":"jds5c81p5gfpyn0","sona":"8731"},{"rt":404.5150000001595,"stimulus":"<p>Bereit?</p>","key_press":32,"trial_type":"html-keyboard-response","trial_index":43,"time_elapsed":148721,"internal_node_id":"0.0-8.0-0.9","subject":"jds5c81p5gfpyn0","sona":"8731"},{"rt":null,"stimulus":"<div style=\"font-size:60px;\">+</div>","key_press":null,"trial_type":"html-keyboard-response","trial_index":44,"time_elapsed":150747,"internal_node_id":"0.0-8.0-1.9","subject":"jds5c81p5gfpyn0","sona":"8731"},{"trial_type":"turing-test","trial_index":45,"time_elapsed":154035,"internal_node_id":"0.0-8.0-2.9","subject":"jds5c81p5gfpyn0","sona":"8731"},{"rt":475.10999999940395,"stimulus":"<p>Welche Sequenz haben Sie als natürlicher empfunden?</p>","key_press":74,"test_part":"response","test_stimulus":{"position":0,"left":"bvh/pass-bottle-hold-training2-lines.txt","right":"bvh/vr_prediction_models/model(tmp)-dataset(pass-bottle-hold)-numprim(8)-hold(2)/final-lines.txt","att_check":false},"trial_type":"html-keyboard-response","trial_index":46,"time_elapsed":154514,"internal_node_id":"0.0-8.0-3.9","subject":"jds5c81p5gfpyn0","sona":"8731"},{"rt":219.79500000088592,"stimulus":"<p>Bereit?</p>","key_press":32,"trial_type":"html-keyboard-response","trial_index":47,"time_elapsed":154737,"internal_node_id":"0.0-8.0-0.10","subject":"jds5c81p5gfpyn0","sona":"8731"},{"rt":null,"stimulus":"<div style=\"font-size:60px;\">+</div>","key_press":null,"trial_type":"html-keyboard-response","trial_index":48,"time_elapsed":156755,"internal_node_id":"0.0-8.0-1.10","subject":"jds5c81p5gfpyn0","sona":"8731"},{"trial_type":"turing-test","trial_index":49,"time_elapsed":160235,"internal_node_id":"0.0-8.0-2.10","subject":"jds5c81p5gfpyn0","sona":"8731"},{"rt":345.19499999986147,"stimulus":"<p>Welche Sequenz haben Sie als natürlicher empfunden?</p>","key_press":70,"test_part":"response","test_stimulus":{"position":0,"left":"bvh/pass-bottle-hold-training0-lines.txt","right":"bvh/vr_prediction_models/model(vcgpdm)-dataset(pass-bottle-hold)-mode(ELBO)-parts(1)-dyn(10)-lvm(25)-hold(0)/final-lines.txt","att_check":false},"trial_type":"html-keyboard-response","trial_index":50,"time_elapsed":160585,"internal_node_id":"0.0-8.0-3.10","subject":"jds5c81p5gfpyn0","sona":"8731"},{"rt":252.76499999925727,"stimulus":"<p>Bereit?</p>","key_press":32,"trial_type":"html-keyboard-response","trial_index":51,"time_elapsed":160841,"internal_node_id":"0.0-8.0-0.11","subject":"jds5c81p5gfpyn0","sona":"8731"},{"rt":null,"stimulus":"<div style=\"font-size:60px;\">+</div>","key_press":null,"trial_type":"html-keyboard-response","trial_index":52,"time_elapsed":162861,"internal_node_id":"0.0-8.0-1.11","subject":"jds5c81p5gfpyn0","sona":"8731"}]