[{"rt":4844,"stimulus":"<p>Welcome!<br> Please choose your language to start the experiment in the chosen language.</p><p>Willkommen!<br> Bitte wählen Sie eine Sprache um das Experiment in der ausgewählten Sprache zu starten</p>","button_pressed":"0","trial_type":"html-button-response","trial_index":0,"time_elapsed":4851,"internal_node_id":"0.0-0.0","subject":"3qdmdhakqj7o2le","sona":"THNS"},{"view_history":"[{\"page_index\":0,\"viewing_time\":4447},{\"page_index\":1,\"viewing_time\":3396},{\"page_index\":2,\"viewing_time\":4560},{\"page_index\":3,\"viewing_time\":4137}]","rt":16540,"trial_type":"instructions","trial_index":1,"time_elapsed":21395,"internal_node_id":"0.0-2.0-0.0","subject":"3qdmdhakqj7o2le","sona":"THNS"},{"rt":1114,"stimulus":"<p>Ready?</p>","button_pressed":"0","trial_type":"html-button-response","trial_index":2,"time_elapsed":22513,"internal_node_id":"0.0-3.0","subject":"3qdmdhakqj7o2le","sona":"THNS"},{"rt":null,"stimulus":"<div style=\"font-size:60px;\">+</div>","key_press":null,"trial_type":"html-keyboard-response","trial_index":3,"time_elapsed":24518,"internal_node_id":"0.0-4.0","subject":"3qdmdhakqj7o2le","sona":"THNS"},{"trial_type":"training","trial_index":4,"time_elapsed":27893,"internal_node_id":"0.0-5.0","subject":"3qdmdhakqj7o2le","sona":"THNS"},{"rt":3530,"stimulus":"<p>Which sequence did you perceive as more natural?</p>","button_pressed":"0","trial_type":"html-button-response","trial_index":5,"time_elapsed":31426,"internal_node_id":"0.0-6.0","subject":"3qdmdhakqj7o2le","sona":"THNS"},{"rt":2528,"stimulus":"<p>The experiment starts now.</p><p>Please click the button if you are ready.</p>","button_pressed":"0","trial_type":"html-button-response","trial_index":6,"time_elapsed":33956,"internal_node_id":"0.0-7.0","subject":"3qdmdhakqj7o2le","sona":"THNS"},{"rt":1217,"stimulus":"<p>Ready?</p>","button_pressed":"0","trial_type":"html-button-response","trial_index":7,"time_elapsed":35174,"internal_node_id":"0.0-8.0-0.0","subject":"3qdmdhakqj7o2le","sona":"THNS"},{"rt":null,"stimulus":"<div style=\"font-size:60px;\">+</div>","key_press":null,"trial_type":"html-keyboard-response","trial_index":8,"time_elapsed":37176,"internal_node_id":"0.0-8.0-1.0","subject":"3qdmdhakqj7o2le","sona":"THNS"},{"trial_type":"turing-test","trial_index":9,"time_elapsed":45274,"internal_node_id":"0.0-8.0-2.0","subject":"3qdmdhakqj7o2le","sona":"THNS"},{"rt":1797,"stimulus":"<p>Which sequence did you perceive as more natural?</p>","button_pressed":"1","test_part":"response","test_stimulus":{"position":1,"left":"bvh/vr_prediction_models/model(dmp)-dataset(return-bottle-hold)-npsi(20)-hold(0)/final-lines.txt","right":"bvh/return-bottle-hold-training0-lines.txt","att_check":false},"trial_type":"html-button-response","trial_index":10,"time_elapsed":47074,"internal_node_id":"0.0-8.0-3.0","subject":"3qdmdhakqj7o2le","sona":"THNS"},{"rt":795,"stimulus":"<p>Ready?</p>","button_pressed":"0","trial_type":"html-button-response","trial_index":11,"time_elapsed":47874,"internal_node_id":"0.0-8.0-0.1","subject":"3qdmdhakqj7o2le","sona":"THNS"},{"rt":null,"stimulus":"<div style=\"font-size:60px;\">+</div>","key_press":null,"trial_type":"html-keyboard-response","trial_index":12,"time_elapsed":49878,"internal_node_id":"0.0-8.0-1.1","subject":"3qdmdhakqj7o2le","sona":"THNS"},{"trial_type":"turing-test","trial_index":13,"time_elapsed":60176,"internal_node_id":"0.0-8.0-2.1","subject":"3qdmdhakqj7o2le","sona":"THNS"},{"rt":1440,"stimulus":"<p>Which sequence did you perceive as more natural?</p>","button_pressed":"1","test_part":"response","test_stimulus":{"position":1,"left":"bvh/vr_prediction_models/model(vcgpdm)-dataset(pass-bottle)-mode(ELBO)-parts(1)-dyn(10)-lvm(5)-hold(0)/final-lines.txt","right":"bvh/pass-bottle-training0-lines.txt","att_check":false},"trial_type":"html-button-response","trial_index":14,"time_elapsed":61619,"internal_node_id":"0.0-8.0-3.1","subject":"3qdmdhakqj7o2le","sona":"THNS"},{"rt":731,"stimulus":"<p>Ready?</p>","button_pressed":"0","trial_type":"html-button-response","trial_index":15,"time_elapsed":62355,"internal_node_id":"0.0-8.0-0.2","subject":"3qdmdhakqj7o2le","sona":"THNS"},{"rt":null,"stimulus":"<div style=\"font-size:60px;\">+</div>","key_press":null,"trial_type":"html-keyboard-response","trial_index":16,"time_elapsed":64358,"internal_node_id":"0.0-8.0-1.2","subject":"3qdmdhakqj7o2le","sona":"THNS"},{"trial_type":"turing-test","trial_index":17,"time_elapsed":73384,"internal_node_id":"0.0-8.0-2.2","subject":"3qdmdhakqj7o2le","sona":"THNS"},{"rt":898,"stimulus":"<p>Which sequence did you perceive as more natural?</p>","button_pressed":"1","test_part":"response","test_stimulus":{"position":0,"left":"bvh/return-bottle-training3-lines.txt","right":"bvh/vr_prediction_models/model(vcgpdm)-dataset(return-bottle)-mode(ELBO)-parts(1)-dyn(35)-lvm(10)-hold(3)/final-lines.txt","att_check":false},"trial_type":"html-button-response","trial_index":18,"time_elapsed":74289,"internal_node_id":"0.0-8.0-3.2","subject":"3qdmdhakqj7o2le","sona":"THNS"},{"rt":2608,"stimulus":"<p>Ready?</p>","button_pressed":"0","trial_type":"html-button-response","trial_index":19,"time_elapsed":76900,"internal_node_id":"0.0-8.0-0.3","subject":"3qdmdhakqj7o2le","sona":"THNS"},{"rt":null,"stimulus":"<div style=\"font-size:60px;\">+</div>","key_press":null,"trial_type":"html-keyboard-response","trial_index":20,"time_elapsed":78903,"internal_node_id":"0.0-8.0-1.3","subject":"3qdmdhakqj7o2le","sona":"THNS"},{"trial_type":"turing-test","trial_index":21,"time_elapsed":87180,"internal_node_id":"0.0-8.0-2.3","subject":"3qdmdhakqj7o2le","sona":"THNS"},{"rt":1285,"stimulus":"<p>Which sequence did you perceive as more natural?</p>","button_pressed":"0","test_part":"response","test_stimulus":{"position":1,"left":"bvh/vr_prediction_models/model(dmp)-dataset(pass-bottle)-npsi(90)-hold(4)/final-lines.txt","right":"bvh/pass-bottle-training4-lines.txt","att_check":false},"trial_type":"html-button-response","trial_index":22,"time_elapsed":88468,"internal_node_id":"0.0-8.0-3.3","subject":"3qdmdhakqj7o2le","sona":"THNS"},{"rt":1377,"stimulus":"<p>Ready?</p>","button_pressed":"0","trial_type":"html-button-response","trial_index":23,"time_elapsed":89848,"internal_node_id":"0.0-8.0-0.4","subject":"3qdmdhakqj7o2le","sona":"THNS"},{"rt":null,"stimulus":"<div style=\"font-size:60px;\">+</div>","key_press":null,"trial_type":"html-keyboard-response","trial_index":24,"time_elapsed":91854,"internal_node_id":"0.0-8.0-1.4","subject":"3qdmdhakqj7o2le","sona":"THNS"}]