[{"rt":4976,"stimulus":"<p>Welcome!<br> Please choose your language to start the experiment in the chosen language.</p><p>Willkommen!<br> Bitte wählen Sie eine Sprache, um das Experiment in der ausgewählten Sprache zu starten</p>","button_pressed":"1","trial_type":"html-button-response","trial_index":0,"time_elapsed":5046,"internal_node_id":"0.0-0.0","subject":"a5u5d62x9ezam0b","sona":"9436"},{"view_history":"[{\"page_index\":0,\"viewing_time\":11996},{\"page_index\":1,\"viewing_time\":4255},{\"page_index\":2,\"viewing_time\":12216},{\"page_index\":3,\"viewing_time\":7713},{\"page_index\":4,\"viewing_time\":2471}]","rt":38653,"trial_type":"instructions","trial_index":1,"time_elapsed":43703,"internal_node_id":"0.0-1.0-0.0","subject":"a5u5d62x9ezam0b","sona":"9436"},{"rt":2689,"stimulus":"<p>Bereit?</p>","key_press":32,"trial_type":"html-keyboard-response","trial_index":2,"time_elapsed":46396,"internal_node_id":"0.0-3.0","subject":"a5u5d62x9ezam0b","sona":"9436"},{"rt":null,"stimulus":"<div style=\"font-size:60px;\">+</div>","key_press":null,"trial_type":"html-keyboard-response","trial_index":3,"time_elapsed":48410,"internal_node_id":"0.0-4.0","subject":"a5u5d62x9ezam0b","sona":"9436"},{"trial_type":"training","trial_index":4,"time_elapsed":53541,"internal_node_id":"0.0-5.0","subject":"a5u5d62x9ezam0b","sona":"9436"},{"rt":1332,"stimulus":"<p>Welche Sequenz haben Sie als natürlicher empfunden?</p>","key_press":70,"trial_type":"html-keyboard-response","trial_index":5,"time_elapsed":54876,"internal_node_id":"0.0-6.0","subject":"a5u5d62x9ezam0b","sona":"9436"},{"rt":4070,"stimulus":"<p>Das Experiment startet nun.</p><p><small>Bitte drücken Sie den Knopf, wenn Sie bereit sind.</small></p>","button_pressed":"0","trial_type":"html-button-response","trial_index":6,"time_elapsed":58949,"internal_node_id":"0.0-7.0","subject":"a5u5d62x9ezam0b","sona":"9436"},{"rt":3036,"stimulus":"<p>Bereit?</p>","key_press":32,"trial_type":"html-keyboard-response","trial_index":7,"time_elapsed":61988,"internal_node_id":"0.0-8.0-0.0","subject":"a5u5d62x9ezam0b","sona":"9436"},{"rt":null,"stimulus":"<div style=\"font-size:60px;\">+</div>","key_press":null,"trial_type":"html-keyboard-response","trial_index":8,"time_elapsed":64015,"internal_node_id":"0.0-8.0-1.0","subject":"a5u5d62x9ezam0b","sona":"9436"},{"trial_type":"turing-test","trial_index":9,"time_elapsed":70709,"internal_node_id":"0.0-8.0-2.0","subject":"a5u5d62x9ezam0b","sona":"9436"},{"rt":871,"stimulus":"<p>Welche Sequenz haben Sie als natürlicher empfunden?</p>","key_press":74,"test_part":"response","test_stimulus":{"position":0,"left":"bvh/return-bottle-training2-lines.txt","right":"bvh/vr_prediction_models/model(vcgpdm)-dataset(return-bottle)-mode(ELBO)-parts(3)-dyn(15)-lvm(30)-hold(2)/final-lines.txt","att_check":false},"trial_type":"html-keyboard-response","trial_index":10,"time_elapsed":71588,"internal_node_id":"0.0-8.0-3.0","subject":"a5u5d62x9ezam0b","sona":"9436"},{"rt":1276,"stimulus":"<p>Bereit?</p>","key_press":32,"trial_type":"html-keyboard-response","trial_index":11,"time_elapsed":72869,"internal_node_id":"0.0-8.0-0.1","subject":"a5u5d62x9ezam0b","sona":"9436"},{"rt":null,"stimulus":"<div style=\"font-size:60px;\">+</div>","key_press":null,"trial_type":"html-keyboard-response","trial_index":12,"time_elapsed":74872,"internal_node_id":"0.0-8.0-1.1","subject":"a5u5d62x9ezam0b","sona":"9436"},{"trial_type":"turing-test","trial_index":13,"time_elapsed":81047,"internal_node_id":"0.0-8.0-2.1","subject":"a5u5d62x9ezam0b","sona":"9436"},{"rt":762,"stimulus":"<p>Welche Sequenz haben Sie als natürlicher empfunden?</p>","key_press":70,"test_part":"response","test_stimulus":{"position":0,"left":"bvh/return-bottle-training1-lines.txt","right":"bvh/vr_prediction_models/model(vcgpdm)-dataset(return-bottle)-mode(ELBO)-parts(3)-dyn(15)-lvm(30)-hold(1)/final-lines.txt","att_check":false},"trial_type":"html-keyboard-response","trial_index":14,"time_elapsed":81812,"internal_node_id":"0.0-8.0-3.1","subject":"a5u5d62x9ezam0b","sona":"9436"},{"rt":1165,"stimulus":"<p>Bereit?</p>","key_press":32,"trial_type":"html-keyboard-response","trial_index":15,"time_elapsed":82980,"internal_node_id":"0.0-8.0-0.2","subject":"a5u5d62x9ezam0b","sona":"9436"},{"rt":null,"stimulus":"<div style=\"font-size:60px;\">+</div>","key_press":null,"trial_type":"html-keyboard-response","trial_index":16,"time_elapsed":85011,"internal_node_id":"0.0-8.0-1.2","subject":"a5u5d62x9ezam0b","sona":"9436"},{"trial_type":"turing-test","trial_index":17,"time_elapsed":90213,"internal_node_id":"0.0-8.0-2.2","subject":"a5u5d62x9ezam0b","sona":"9436"},{"rt":587,"stimulus":"<p>Welche Sequenz haben Sie als natürlicher empfunden?</p>","key_press":70,"test_part":"response","test_stimulus":{"position":1,"left":"bvh/vr_prediction_models/model(vcgpdm)-dataset(return-bottle-hold)-mode(ELBO)-parts(3)-dyn(25)-lvm(25)-hold(0)/final-lines.txt","right":"bvh/return-bottle-hold-training0-lines.txt","att_check":false},"trial_type":"html-keyboard-response","trial_index":18,"time_elapsed":90805,"internal_node_id":"0.0-8.0-3.2","subject":"a5u5d62x9ezam0b","sona":"9436"},{"rt":1019,"stimulus":"<p>Bereit?</p>","key_press":32,"trial_type":"html-keyboard-response","trial_index":19,"time_elapsed":91828,"internal_node_id":"0.0-8.0-0.3","subject":"a5u5d62x9ezam0b","sona":"9436"},{"rt":null,"stimulus":"<div style=\"font-size:60px;\">+</div>","key_press":null,"trial_type":"html-keyboard-response","trial_index":20,"time_elapsed":93850,"internal_node_id":"0.0-8.0-1.3","subject":"a5u5d62x9ezam0b","sona":"9436"},{"trial_type":"turing-test","trial_index":21,"time_elapsed":97153,"internal_node_id":"0.0-8.0-2.3","subject":"a5u5d62x9ezam0b","sona":"9436"},{"rt":3909,"stimulus":"<p>Welche Sequenz haben Sie als natürlicher empfunden?</p>","key_press":70,"test_part":"response","test_stimulus":{"position":1,"left":"bvh/vr_prediction_models/model(vcgpdm)-dataset(pass-bottle-hold)-mode(ELBO)-parts(1)-dyn(20)-lvm(5)-hold(1)/final-lines.txt","right":"bvh/pass-bottle-hold-training1-lines.txt","att_check":false},"trial_type":"html-keyboard-response","trial_index":22,"time_elapsed":101069,"internal_node_id":"0.0-8.0-3.3","subject":"a5u5d62x9ezam0b","sona":"9436"},{"rt":980,"stimulus":"<p>Bereit?</p>","key_press":32,"trial_type":"html-keyboard-response","trial_index":23,"time_elapsed":102053,"internal_node_id":"0.0-8.0-0.4","subject":"a5u5d62x9ezam0b","sona":"9436"},{"rt":null,"stimulus":"<div style=\"font-size:60px;\">+</div>","key_press":null,"trial_type":"html-keyboard-response","trial_index":24,"time_elapsed":104083,"internal_node_id":"0.0-8.0-1.4","subject":"a5u5d62x9ezam0b","sona":"9436"},{"trial_type":"turing-test","trial_index":25,"time_elapsed":107795,"internal_node_id":"0.0-8.0-2.4","subject":"a5u5d62x9ezam0b","sona":"9436"},{"rt":2084,"stimulus":"<p>Welche Sequenz haben Sie als natürlicher empfunden?</p>","key_press":70,"test_part":"response","test_stimulus":{"position":0,"left":"bvh/pass-bottle-hold-training3-lines.txt","right":"bvh/vr_prediction_models/model(vcgpdm)-dataset(pass-bottle-hold)-mode(ELBO)-parts(1)-dyn(30)-lvm(35)-hold(3)/final-lines.txt","att_check":false},"trial_type":"html-keyboard-response","trial_index":26,"time_elapsed":109884,"internal_node_id":"0.0-8.0-3.4","subject":"a5u5d62x9ezam0b","sona":"9436"},{"rt":996,"stimulus":"<p>Bereit?</p>","key_press":32,"trial_type":"html-keyboard-response","trial_index":27,"time_elapsed":110884,"internal_node_id":"0.0-8.0-0.5","subject":"a5u5d62x9ezam0b","sona":"9436"},{"rt":null,"stimulus":"<div style=\"font-size:60px;\">+</div>","key_press":null,"trial_type":"html-keyboard-response","trial_index":28,"time_elapsed":112901,"internal_node_id":"0.0-8.0-1.5","subject":"a5u5d62x9ezam0b","sona":"9436"},{"trial_type":"turing-test","trial_index":29,"time_elapsed":116814,"internal_node_id":"0.0-8.0-2.5","subject":"a5u5d62x9ezam0b","sona":"9436"},{"rt":353,"stimulus":"<p>Welche Sequenz haben Sie als natürlicher empfunden?</p>","key_press":74,"test_part":"response","test_stimulus":{"position":1,"left":"bvh/vr_prediction_models/model(dmp)-dataset(return-bottle-hold)-npsi(60)-hold(4)/final-lines.txt","right":"bvh/return-bottle-hold-training4-lines.txt","att_check":false},"trial_type":"html-keyboard-response","trial_index":30,"time_elapsed":117172,"internal_node_id":"0.0-8.0-3.5","subject":"a5u5d62x9ezam0b","sona":"9436"},{"rt":843,"stimulus":"<p>Bereit?</p>","key_press":32,"trial_type":"html-keyboard-response","trial_index":31,"time_elapsed":118019,"internal_node_id":"0.0-8.0-0.6","subject":"a5u5d62x9ezam0b","sona":"9436"},{"rt":null,"stimulus":"<div style=\"font-size:60px;\">+</div>","key_press":null,"trial_type":"html-keyboard-response","trial_index":32,"time_elapsed":120050,"internal_node_id":"0.0-8.0-1.6","subject":"a5u5d62x9ezam0b","sona":"9436"},{"trial_type":"turing-test","trial_index":33,"time_elapsed":123480,"internal_node_id":"0.0-8.0-2.6","subject":"a5u5d62x9ezam0b","sona":"9436"},{"rt":456,"stimulus":"<p>Welche Sequenz haben Sie als natürlicher empfunden?</p>","key_press":74,"test_part":"response","test_stimulus":{"position":1,"left":"bvh/vr_prediction_models/model(vcgpdm)-dataset(pass-bottle-hold)-mode(MAP)-parts(1)-hold(0)/final-lines.txt","right":"bvh/pass-bottle-hold-training0-lines.txt","att_check":false},"trial_type":"html-keyboard-response","trial_index":34,"time_elapsed":123937,"internal_node_id":"0.0-8.0-3.6","subject":"a5u5d62x9ezam0b","sona":"9436"},{"rt":840,"stimulus":"<p>Bereit?</p>","key_press":32,"trial_type":"html-keyboard-response","trial_index":35,"time_elapsed":124779,"internal_node_id":"0.0-8.0-0.7","subject":"a5u5d62x9ezam0b","sona":"9436"},{"rt":null,"stimulus":"<div style=\"font-size:60px;\">+</div>","key_press":null,"trial_type":"html-keyboard-response","trial_index":36,"time_elapsed":126797,"internal_node_id":"0.0-8.0-1.7","subject":"a5u5d62x9ezam0b","sona":"9436"},{"trial_type":"turing-test","trial_index":37,"time_elapsed":132952,"internal_node_id":"0.0-8.0-2.7","subject":"a5u5d62x9ezam0b","sona":"9436"},{"rt":1047,"stimulus":"<p>Welche Sequenz haben Sie als natürlicher empfunden?</p>","key_press":74,"test_part":"response","test_stimulus":{"position":1,"left":"bvh/vr_prediction_models/model(tmp)-dataset(pass-bottle)-numprim(14)-hold(2)/final-lines.txt","right":"bvh/pass-bottle-training2-lines.txt","att_check":false},"trial_type":"html-keyboard-response","trial_index":38,"time_elapsed":134003,"internal_node_id":"0.0-8.0-3.7","subject":"a5u5d62x9ezam0b","sona":"9436"},{"rt":739,"stimulus":"<p>Bereit?</p>","key_press":32,"trial_type":"html-keyboard-response","trial_index":39,"time_elapsed":134747,"internal_node_id":"0.0-8.0-0.8","subject":"a5u5d62x9ezam0b","sona":"9436"},{"rt":null,"stimulus":"<div style=\"font-size:60px;\">+</div>","key_press":null,"trial_type":"html-keyboard-response","trial_index":40,"time_elapsed":136764,"internal_node_id":"0.0-8.0-1.8","subject":"a5u5d62x9ezam0b","sona":"9436"},{"trial_type":"turing-test","trial_index":41,"time_elapsed":142598,"internal_node_id":"0.0-8.0-2.8","subject":"a5u5d62x9ezam0b","sona":"9436"},{"rt":1898,"stimulus":"<p>Welche Sequenz haben Sie als natürlicher empfunden?</p>","key_press":70,"test_part":"response","test_stimulus":{"position":0,"left":"bvh/return-bottle-training3-lines.txt","right":"bvh/vr_prediction_models/model(vcgpdm)-dataset(return-bottle)-mode(ELBO)-parts(1)-dyn(20)-lvm(20)-hold(3)/final-lines.txt","att_check":false},"trial_type":"html-keyboard-response","trial_index":42,"time_elapsed":144499,"internal_node_id":"0.0-8.0-3.8","subject":"a5u5d62x9ezam0b","sona":"9436"},{"rt":922,"stimulus":"<p>Bereit?</p>","key_press":32,"trial_type":"html-keyboard-response","trial_index":43,"time_elapsed":145427,"internal_node_id":"0.0-8.0-0.9","subject":"a5u5d62x9ezam0b","sona":"9436"},{"rt":null,"stimulus":"<div style=\"font-size:60px;\">+</div>","key_press":null,"trial_type":"html-keyboard-response","trial_index":44,"time_elapsed":147451,"internal_node_id":"0.0-8.0-1.9","subject":"a5u5d62x9ezam0b","sona":"9436"},{"trial_type":"turing-test","trial_index":45,"time_elapsed":151150,"internal_node_id":"0.0-8.0-2.9","subject":"a5u5d62x9ezam0b","sona":"9436"},{"rt":1103,"stimulus":"<p>Welche Sequenz haben Sie als natürlicher empfunden?</p>","key_press":70,"test_part":"response","test_stimulus":{"position":0,"left":"bvh/return-bottle-hold-training4-lines.txt","right":"bvh/vr_prediction_models/model(tmp)-dataset(return-bottle-hold)-numprim(13)-hold(4)/final-lines.txt","att_check":false},"trial_type":"html-keyboard-response","trial_index":46,"time_elapsed":152259,"internal_node_id":"0.0-8.0-3.9","subject":"a5u5d62x9ezam0b","sona":"9436"},{"rt":473,"stimulus":"<p>Bereit?</p>","key_press":32,"trial_type":"html-keyboard-response","trial_index":47,"time_elapsed":152739,"internal_node_id":"0.0-8.0-0.10","subject":"a5u5d62x9ezam0b","sona":"9436"},{"rt":null,"stimulus":"<div style=\"font-size:60px;\">+</div>","key_press":null,"trial_type":"html-keyboard-response","trial_index":48,"time_elapsed":154760,"internal_node_id":"0.0-8.0-1.10","subject":"a5u5d62x9ezam0b","sona":"9436"},{"trial_type":"turing-test","trial_index":49,"time_elapsed":160855,"internal_node_id":"0.0-8.0-2.10","subject":"a5u5d62x9ezam0b","sona":"9436"},{"rt":407,"stimulus":"<p>Welche Sequenz haben Sie als natürlicher empfunden?</p>","key_press":74,"test_part":"response","test_stimulus":{"position":1,"left":"bvh/vr_prediction_models/model(tmp)-dataset(return-bottle)-numprim(6)-hold(1)/final-lines.txt","right":"bvh/return-bottle-training1-lines.txt","att_check":false},"trial_type":"html-keyboard-response","trial_index":50,"time_elapsed":161267,"internal_node_id":"0.0-8.0-3.10","subject":"a5u5d62x9ezam0b","sona":"9436"},{"rt":732,"stimulus":"<p>Bereit?</p>","key_press":32,"trial_type":"html-keyboard-response","trial_index":51,"time_elapsed":162003,"internal_node_id":"0.0-8.0-0.11","subject":"a5u5d62x9ezam0b","sona":"9436"},{"rt":null,"stimulus":"<div style=\"font-size:60px;\">+</div>","key_press":null,"trial_type":"html-keyboard-response","trial_index":52,"time_elapsed":164020,"internal_node_id":"0.0-8.0-1.11","subject":"a5u5d62x9ezam0b","sona":"9436"},{"trial_type":"turing-test","trial_index":53,"time_elapsed":169153,"internal_node_id":"0.0-8.0-2.11","subject":"a5u5d62x9ezam0b","sona":"9436"}]