[{"rt":4134.66000003973,"stimulus":"<p>Welcome!<br> Please choose your language to start the experiment in the chosen language.</p><p>Willkommen!<br> Bitte wählen Sie eine Sprache, um das Experiment in der ausgewählten Sprache zu starten</p>","button_pressed":"1","trial_type":"html-button-response","trial_index":0,"time_elapsed":4162,"internal_node_id":"0.0-0.0","subject":"7xyp3bpxas2n0uf","sona":"7306"},{"view_history":"[{\"page_index\":0,\"viewing_time\":1522.2799999755807},{\"page_index\":1,\"viewing_time\":2068.4300000430085},{\"page_index\":2,\"viewing_time\":5710.609999950975},{\"page_index\":3,\"viewing_time\":2711.440000042785},{\"page_index\":4,\"viewing_time\":1558.469999989029}]","rt":13573.704999987967,"trial_type":"instructions","trial_index":1,"time_elapsed":17738,"internal_node_id":"0.0-1.0-0.0","subject":"7xyp3bpxas2n0uf","sona":"7306"},{"rt":2146.614999976009,"stimulus":"<p>Bereit?</p>","key_press":32,"trial_type":"html-keyboard-response","trial_index":2,"time_elapsed":19888,"internal_node_id":"0.0-3.0","subject":"7xyp3bpxas2n0uf","sona":"7306"},{"rt":null,"stimulus":"<div style=\"font-size:60px;\">+</div>","key_press":null,"trial_type":"html-keyboard-response","trial_index":3,"time_elapsed":21914,"internal_node_id":"0.0-4.0","subject":"7xyp3bpxas2n0uf","sona":"7306"},{"trial_type":"training","trial_index":4,"time_elapsed":25265,"internal_node_id":"0.0-5.0","subject":"7xyp3bpxas2n0uf","sona":"7306"},{"rt":481.5449999878183,"stimulus":"<p>Welche Sequenz haben Sie als natürlicher empfunden?</p>","key_press":74,"trial_type":"html-keyboard-response","trial_index":5,"time_elapsed":25750,"internal_node_id":"0.0-6.0","subject":"7xyp3bpxas2n0uf","sona":"7306"},{"rt":3385.3649999946356,"stimulus":"<p>Das Experiment startet nun.</p><p><small>Bitte drücken Sie den Knopf, wenn Sie bereit sind.</small></p>","button_pressed":"0","trial_type":"html-button-response","trial_index":6,"time_elapsed":29137,"internal_node_id":"0.0-7.0","subject":"7xyp3bpxas2n0uf","sona":"7306"},{"rt":847.1700000227429,"stimulus":"<p>Bereit?</p>","key_press":32,"trial_type":"html-keyboard-response","trial_index":7,"time_elapsed":29987,"internal_node_id":"0.0-8.0-0.0","subject":"7xyp3bpxas2n0uf","sona":"7306"},{"rt":null,"stimulus":"<div style=\"font-size:60px;\">+</div>","key_press":null,"trial_type":"html-keyboard-response","trial_index":8,"time_elapsed":32011,"internal_node_id":"0.0-8.0-1.0","subject":"7xyp3bpxas2n0uf","sona":"7306"},{"trial_type":"turing-test","trial_index":9,"time_elapsed":38208,"internal_node_id":"0.0-8.0-2.0","subject":"7xyp3bpxas2n0uf","sona":"7306"},{"rt":318.8700000173412,"stimulus":"<p>Welche Sequenz haben Sie als natürlicher empfunden?</p>","key_press":74,"test_part":"response","test_stimulus":{"position":1,"left":"bvh/vr_prediction_models/model(tmp)-dataset(pass-bottle)-numprim(11)-hold(2)/final-lines.txt","right":"bvh/pass-bottle-training2-lines.txt","att_check":false},"trial_type":"html-keyboard-response","trial_index":10,"time_elapsed":38538,"internal_node_id":"0.0-8.0-3.0","subject":"7xyp3bpxas2n0uf","sona":"7306"},{"rt":1184.6200000145473,"stimulus":"<p>Bereit?</p>","key_press":32,"trial_type":"html-keyboard-response","trial_index":11,"time_elapsed":39727,"internal_node_id":"0.0-8.0-0.1","subject":"7xyp3bpxas2n0uf","sona":"7306"},{"rt":null,"stimulus":"<div style=\"font-size:60px;\">+</div>","key_press":null,"trial_type":"html-keyboard-response","trial_index":12,"time_elapsed":41738,"internal_node_id":"0.0-8.0-1.1","subject":"7xyp3bpxas2n0uf","sona":"7306"},{"trial_type":"turing-test","trial_index":13,"time_elapsed":45266,"internal_node_id":"0.0-8.0-2.1","subject":"7xyp3bpxas2n0uf","sona":"7306"},{"rt":500.2199999871664,"stimulus":"<p>Welche Sequenz haben Sie als natürlicher empfunden?</p>","key_press":70,"test_part":"response","test_stimulus":{"position":1,"left":"bvh/vr_prediction_models/model(vcgpdm)-dataset(return-bottle-hold)-mode(MAP)-parts(1)-hold(1)/final-lines.txt","right":"bvh/return-bottle-hold-training1-lines.txt","att_check":false},"trial_type":"html-keyboard-response","trial_index":14,"time_elapsed":45771,"internal_node_id":"0.0-8.0-3.1","subject":"7xyp3bpxas2n0uf","sona":"7306"},{"rt":402.64000004390255,"stimulus":"<p>Bereit?</p>","key_press":32,"trial_type":"html-keyboard-response","trial_index":15,"time_elapsed":46178,"internal_node_id":"0.0-8.0-0.2","subject":"7xyp3bpxas2n0uf","sona":"7306"},{"rt":null,"stimulus":"<div style=\"font-size:60px;\">+</div>","key_press":null,"trial_type":"html-keyboard-response","trial_index":16,"time_elapsed":48194,"internal_node_id":"0.0-8.0-1.2","subject":"7xyp3bpxas2n0uf","sona":"7306"},{"trial_type":"turing-test","trial_index":17,"time_elapsed":53324,"internal_node_id":"0.0-8.0-2.2","subject":"7xyp3bpxas2n0uf","sona":"7306"},{"rt":272.3549999645911,"stimulus":"<p>Welche Sequenz haben Sie als natürlicher empfunden?</p>","key_press":74,"test_part":"response","test_stimulus":{"position":1,"left":"bvh/vr_prediction_models/model(dmp)-dataset(return-bottle-hold)-npsi(30)-hold(0)/final-lines.txt","right":"bvh/return-bottle-hold-training0-lines.txt","att_check":false},"trial_type":"html-keyboard-response","trial_index":18,"time_elapsed":53602,"internal_node_id":"0.0-8.0-3.2","subject":"7xyp3bpxas2n0uf","sona":"7306"},{"rt":395.5699999933131,"stimulus":"<p>Bereit?</p>","key_press":32,"trial_type":"html-keyboard-response","trial_index":19,"time_elapsed":54004,"internal_node_id":"0.0-8.0-0.3","subject":"7xyp3bpxas2n0uf","sona":"7306"},{"rt":null,"stimulus":"<div style=\"font-size:60px;\">+</div>","key_press":null,"trial_type":"html-keyboard-response","trial_index":20,"time_elapsed":56035,"internal_node_id":"0.0-8.0-1.3","subject":"7xyp3bpxas2n0uf","sona":"7306"},{"trial_type":"turing-test","trial_index":21,"time_elapsed":62215,"internal_node_id":"0.0-8.0-2.3","subject":"7xyp3bpxas2n0uf","sona":"7306"},{"rt":268.51500000339,"stimulus":"<p>Welche Sequenz haben Sie als natürlicher empfunden?</p>","key_press":70,"test_part":"response","test_stimulus":{"position":0,"left":"bvh/pass-bottle-training2-lines.txt","right":"bvh/vr_prediction_models/model(dmp)-dataset(pass-bottle)-npsi(90)-hold(2)/final-lines.txt","att_check":false},"trial_type":"html-keyboard-response","trial_index":22,"time_elapsed":62489,"internal_node_id":"0.0-8.0-3.3","subject":"7xyp3bpxas2n0uf","sona":"7306"},{"rt":417.2099999850616,"stimulus":"<p>Bereit?</p>","key_press":32,"trial_type":"html-keyboard-response","trial_index":23,"time_elapsed":62910,"internal_node_id":"0.0-8.0-0.4","subject":"7xyp3bpxas2n0uf","sona":"7306"},{"rt":null,"stimulus":"<div style=\"font-size:60px;\">+</div>","key_press":null,"trial_type":"html-keyboard-response","trial_index":24,"time_elapsed":64941,"internal_node_id":"0.0-8.0-1.4","subject":"7xyp3bpxas2n0uf","sona":"7306"},{"trial_type":"turing-test","trial_index":25,"time_elapsed":68454,"internal_node_id":"0.0-8.0-2.4","subject":"7xyp3bpxas2n0uf","sona":"7306"},{"rt":496.9550000387244,"stimulus":"<p>Welche Sequenz haben Sie als natürlicher empfunden?</p>","key_press":74,"test_part":"response","test_stimulus":{"position":0,"left":"bvh/return-bottle-hold-training1-lines.txt","right":"bvh/vr_prediction_models/model(vcgpdm)-dataset(return-bottle-hold)-mode(ELBO)-parts(1)-dyn(10)-lvm(30)-hold(1)/final-lines.txt","att_check":false},"trial_type":"html-keyboard-response","trial_index":26,"time_elapsed":68957,"internal_node_id":"0.0-8.0-3.4","subject":"7xyp3bpxas2n0uf","sona":"7306"},{"rt":370.15500001143664,"stimulus":"<p>Bereit?</p>","key_press":32,"trial_type":"html-keyboard-response","trial_index":27,"time_elapsed":69334,"internal_node_id":"0.0-8.0-0.5","subject":"7xyp3bpxas2n0uf","sona":"7306"},{"rt":null,"stimulus":"<div style=\"font-size:60px;\">+</div>","key_press":null,"trial_type":"html-keyboard-response","trial_index":28,"time_elapsed":71375,"internal_node_id":"0.0-8.0-1.5","subject":"7xyp3bpxas2n0uf","sona":"7306"},{"trial_type":"turing-test","trial_index":29,"time_elapsed":77614,"internal_node_id":"0.0-8.0-2.5","subject":"7xyp3bpxas2n0uf","sona":"7306"},{"rt":428.43000002903864,"stimulus":"<p>Welche Sequenz haben Sie als natürlicher empfunden?</p>","key_press":70,"test_part":"response","test_stimulus":{"position":1,"left":"bvh/vr_prediction_models/model(vcgpdm)-dataset(return-bottle)-mode(ELBO)-parts(3)-dyn(30)-lvm(15)-hold(1)/final-lines.txt","right":"bvh/return-bottle-training1-lines.txt","att_check":false},"trial_type":"html-keyboard-response","trial_index":30,"time_elapsed":78049,"internal_node_id":"0.0-8.0-3.5","subject":"7xyp3bpxas2n0uf","sona":"7306"},{"rt":415.45999998925254,"stimulus":"<p>Bereit?</p>","key_press":32,"trial_type":"html-keyboard-response","trial_index":31,"time_elapsed":78470,"internal_node_id":"0.0-8.0-0.6","subject":"7xyp3bpxas2n0uf","sona":"7306"},{"rt":null,"stimulus":"<div style=\"font-size:60px;\">+</div>","key_press":null,"trial_type":"html-keyboard-response","trial_index":32,"time_elapsed":80495,"internal_node_id":"0.0-8.0-1.6","subject":"7xyp3bpxas2n0uf","sona":"7306"},{"trial_type":"turing-test","trial_index":33,"time_elapsed":84313,"internal_node_id":"0.0-8.0-2.6","subject":"7xyp3bpxas2n0uf","sona":"7306"},{"rt":508.3849999937229,"stimulus":"<p>Welche Sequenz haben Sie als natürlicher empfunden?</p>","key_press":70,"test_part":"response","test_stimulus":{"position":1,"left":"bvh/vr_prediction_models/model(dmp)-dataset(return-bottle-hold)-npsi(60)-hold(4)/final-lines.txt","right":"bvh/return-bottle-hold-training4-lines.txt","att_check":false},"trial_type":"html-keyboard-response","trial_index":34,"time_elapsed":84828,"internal_node_id":"0.0-8.0-3.6","subject":"7xyp3bpxas2n0uf","sona":"7306"},{"rt":320.6650000065565,"stimulus":"<p>Bereit?</p>","key_press":32,"trial_type":"html-keyboard-response","trial_index":35,"time_elapsed":85154,"internal_node_id":"0.0-8.0-0.7","subject":"7xyp3bpxas2n0uf","sona":"7306"},{"rt":null,"stimulus":"<div style=\"font-size:60px;\">+</div>","key_press":null,"trial_type":"html-keyboard-response","trial_index":36,"time_elapsed":87185,"internal_node_id":"0.0-8.0-1.7","subject":"7xyp3bpxas2n0uf","sona":"7306"},{"trial_type":"turing-test","trial_index":37,"time_elapsed":91089,"internal_node_id":"0.0-8.0-2.7","subject":"7xyp3bpxas2n0uf","sona":"7306"},{"rt":194.17000003159046,"stimulus":"<p>Welche Sequenz haben Sie als natürlicher empfunden?</p>","key_press":74,"test_part":"response","test_stimulus":{"position":1,"left":"bvh/vr_prediction_models/model(vcgpdm)-dataset(return-bottle-hold)-mode(ELBO)-parts(3)-dyn(30)-lvm(15)-hold(4)/final-lines.txt","right":"bvh/return-bottle-hold-training4-lines.txt","att_check":false},"trial_type":"html-keyboard-response","trial_index":38,"time_elapsed":91291,"internal_node_id":"0.0-8.0-3.7","subject":"7xyp3bpxas2n0uf","sona":"7306"},{"rt":363.260000012815,"stimulus":"<p>Bereit?</p>","key_press":32,"trial_type":"html-keyboard-response","trial_index":39,"time_elapsed":91659,"internal_node_id":"0.0-8.0-0.8","subject":"7xyp3bpxas2n0uf","sona":"7306"},{"rt":null,"stimulus":"<div style=\"font-size:60px;\">+</div>","key_press":null,"trial_type":"html-keyboard-response","trial_index":40,"time_elapsed":93666,"internal_node_id":"0.0-8.0-1.8","subject":"7xyp3bpxas2n0uf","sona":"7306"},{"trial_type":"turing-test","trial_index":41,"time_elapsed":99205,"internal_node_id":"0.0-8.0-2.8","subject":"7xyp3bpxas2n0uf","sona":"7306"},{"rt":182.12500005029142,"stimulus":"<p>Welche Sequenz haben Sie als natürlicher empfunden?</p>","key_press":74,"test_part":"response","test_stimulus":{"position":1,"left":"bvh/vr_prediction_models/model(vcgpdm)-dataset(pass-bottle)-mode(ELBO)-parts(1)-dyn(10)-lvm(5)-hold(1)/final-lines.txt","right":"bvh/pass-bottle-training1-lines.txt","att_check":false},"trial_type":"html-keyboard-response","trial_index":42,"time_elapsed":99394,"internal_node_id":"0.0-8.0-3.8","subject":"7xyp3bpxas2n0uf","sona":"7306"},{"rt":385.6550000491552,"stimulus":"<p>Bereit?</p>","key_press":32,"trial_type":"html-keyboard-response","trial_index":43,"time_elapsed":99786,"internal_node_id":"0.0-8.0-0.9","subject":"7xyp3bpxas2n0uf","sona":"7306"},{"rt":null,"stimulus":"<div style=\"font-size:60px;\">+</div>","key_press":null,"trial_type":"html-keyboard-response","trial_index":44,"time_elapsed":101813,"internal_node_id":"0.0-8.0-1.9","subject":"7xyp3bpxas2n0uf","sona":"7306"},{"trial_type":"turing-test","trial_index":45,"time_elapsed":107703,"internal_node_id":"0.0-8.0-2.9","subject":"7xyp3bpxas2n0uf","sona":"7306"},{"rt":309.4149999669753,"stimulus":"<p>Welche Sequenz haben Sie als natürlicher empfunden?</p>","key_press":74,"test_part":"response","test_stimulus":{"position":0,"left":"bvh/return-bottle-training3-lines.txt","right":"bvh/vr_prediction_models/model(vcgpdm)-dataset(return-bottle)-mode(ELBO)-parts(3)-dyn(20)-lvm(15)-hold(3)/final-lines.txt","att_check":false},"trial_type":"html-keyboard-response","trial_index":46,"time_elapsed":108020,"internal_node_id":"0.0-8.0-3.9","subject":"7xyp3bpxas2n0uf","sona":"7306"},{"rt":398.03000004030764,"stimulus":"<p>Bereit?</p>","key_press":32,"trial_type":"html-keyboard-response","trial_index":47,"time_elapsed":108424,"internal_node_id":"0.0-8.0-0.10","subject":"7xyp3bpxas2n0uf","sona":"7306"},{"rt":null,"stimulus":"<div style=\"font-size:60px;\">+</div>","key_press":null,"trial_type":"html-keyboard-response","trial_index":48,"time_elapsed":110465,"internal_node_id":"0.0-8.0-1.10","subject":"7xyp3bpxas2n0uf","sona":"7306"},{"trial_type":"turing-test","trial_index":49,"time_elapsed":115986,"internal_node_id":"0.0-8.0-2.10","subject":"7xyp3bpxas2n0uf","sona":"7306"},{"rt":361.10000003827736,"stimulus":"<p>Welche Sequenz haben Sie als natürlicher empfunden?</p>","key_press":70,"test_part":"response","test_stimulus":{"position":1,"left":"bvh/vr_prediction_models/model(dmp)-dataset(pass-bottle)-npsi(90)-hold(1)/final-lines.txt","right":"bvh/pass-bottle-training1-lines.txt","att_check":false},"trial_type":"html-keyboard-response","trial_index":50,"time_elapsed":116357,"internal_node_id":"0.0-8.0-3.10","subject":"7xyp3bpxas2n0uf","sona":"7306"},{"rt":437.41499999305233,"stimulus":"<p>Bereit?</p>","key_press":32,"trial_type":"html-keyboard-response","trial_index":51,"time_elapsed":116799,"internal_node_id":"0.0-8.0-0.11","subject":"7xyp3bpxas2n0uf","sona":"7306"},{"rt":null,"stimulus":"<div style=\"font-size:60px;\">+</div>","key_press":null,"trial_type":"html-keyboard-response","trial_index":52,"time_elapsed":118825,"internal_node_id":"0.0-8.0-1.11","subject":"7xyp3bpxas2n0uf","sona":"7306"}]