[{"rt":1685.9750000294298,"stimulus":"<p>Welcome!<br> Please choose your language to start the experiment in the chosen language.</p><p>Willkommen!<br> Bitte wählen Sie eine Sprache, um das Experiment in der ausgewählten Sprache zu starten</p>","button_pressed":"1","trial_type":"html-button-response","trial_index":0,"time_elapsed":1700,"internal_node_id":"0.0-0.0","subject":"89tjwumsgd28j96","sona":"6982"},{"view_history":"[{\"page_index\":0,\"viewing_time\":558.7599999271333},{\"page_index\":1,\"viewing_time\":70480.01500009559},{\"page_index\":2,\"viewing_time\":2712.064999854192},{\"page_index\":3,\"viewing_time\":1239.9699999950826},{\"page_index\":4,\"viewing_time\":672.1000000834465}]","rt":75663.56000001542,"trial_type":"instructions","trial_index":1,"time_elapsed":77365,"internal_node_id":"0.0-1.0-0.0","subject":"89tjwumsgd28j96","sona":"6982"},{"rt":806.4949999097735,"stimulus":"<p>Bereit?</p>","key_press":32,"trial_type":"html-keyboard-response","trial_index":2,"time_elapsed":78172,"internal_node_id":"0.0-3.0","subject":"89tjwumsgd28j96","sona":"6982"},{"rt":null,"stimulus":"<div style=\"font-size:60px;\">+</div>","key_press":null,"trial_type":"html-keyboard-response","trial_index":3,"time_elapsed":80175,"internal_node_id":"0.0-4.0","subject":"89tjwumsgd28j96","sona":"6982"},{"trial_type":"training","trial_index":4,"time_elapsed":83381,"internal_node_id":"0.0-5.0","subject":"89tjwumsgd28j96","sona":"6982"},{"rt":1310.34000008367,"stimulus":"<p>Welche Sequenz haben Sie als natürlicher empfunden?</p>","key_press":70,"trial_type":"html-keyboard-response","trial_index":5,"time_elapsed":84692,"internal_node_id":"0.0-6.0","subject":"89tjwumsgd28j96","sona":"6982"},{"rt":3287.3800001107156,"stimulus":"<p>Das Experiment startet nun.</p><p><small>Bitte drücken Sie den Knopf, wenn Sie bereit sind.</small></p>","button_pressed":"0","trial_type":"html-button-response","trial_index":6,"time_elapsed":87980,"internal_node_id":"0.0-7.0","subject":"89tjwumsgd28j96","sona":"6982"},{"rt":839.4600001629442,"stimulus":"<p>Bereit?</p>","key_press":32,"trial_type":"html-keyboard-response","trial_index":7,"time_elapsed":88820,"internal_node_id":"0.0-8.0-0.0","subject":"89tjwumsgd28j96","sona":"6982"},{"rt":null,"stimulus":"<div style=\"font-size:60px;\">+</div>","key_press":null,"trial_type":"html-keyboard-response","trial_index":8,"time_elapsed":90822,"internal_node_id":"0.0-8.0-1.0","subject":"89tjwumsgd28j96","sona":"6982"},{"trial_type":"turing-test","trial_index":9,"time_elapsed":96214,"internal_node_id":"0.0-8.0-2.0","subject":"89tjwumsgd28j96","sona":"6982"},{"rt":300.8600000757724,"stimulus":"<p>Welche Sequenz haben Sie als natürlicher empfunden?</p>","key_press":74,"test_part":"response","test_stimulus":{"position":1,"left":"bvh/vr_prediction_models/model(vcgpdm)-dataset(pass-bottle)-mode(ELBO)-parts(3)-dyn(25)-lvm(15)-hold(1)/final-lines.txt","right":"bvh/pass-bottle-training1-lines.txt","att_check":false},"trial_type":"html-keyboard-response","trial_index":10,"time_elapsed":96516,"internal_node_id":"0.0-8.0-3.0","subject":"89tjwumsgd28j96","sona":"6982"},{"rt":190.95499999821186,"stimulus":"<p>Bereit?</p>","key_press":32,"trial_type":"html-keyboard-response","trial_index":11,"time_elapsed":96708,"internal_node_id":"0.0-8.0-0.1","subject":"89tjwumsgd28j96","sona":"6982"},{"rt":null,"stimulus":"<div style=\"font-size:60px;\">+</div>","key_press":null,"trial_type":"html-keyboard-response","trial_index":12,"time_elapsed":98714,"internal_node_id":"0.0-8.0-1.1","subject":"89tjwumsgd28j96","sona":"6982"},{"trial_type":"turing-test","trial_index":13,"time_elapsed":102615,"internal_node_id":"0.0-8.0-2.1","subject":"89tjwumsgd28j96","sona":"6982"},{"rt":628.4650000743568,"stimulus":"<p>Welche Sequenz haben Sie als natürlicher empfunden?</p>","key_press":74,"test_part":"response","test_stimulus":{"position":1,"left":"bvh/vr_prediction_models/model(vcgpdm)-dataset(return-bottle-hold)-mode(ELBO)-parts(3)-dyn(10)-lvm(25)-hold(3)/final-lines.txt","right":"bvh/return-bottle-hold-training3-lines.txt","att_check":false},"trial_type":"html-keyboard-response","trial_index":14,"time_elapsed":103244,"internal_node_id":"0.0-8.0-3.1","subject":"89tjwumsgd28j96","sona":"6982"},{"rt":159.04000005684793,"stimulus":"<p>Bereit?</p>","key_press":32,"trial_type":"html-keyboard-response","trial_index":15,"time_elapsed":103404,"internal_node_id":"0.0-8.0-0.2","subject":"89tjwumsgd28j96","sona":"6982"},{"rt":null,"stimulus":"<div style=\"font-size:60px;\">+</div>","key_press":null,"trial_type":"html-keyboard-response","trial_index":16,"time_elapsed":105406,"internal_node_id":"0.0-8.0-1.2","subject":"89tjwumsgd28j96","sona":"6982"},{"trial_type":"turing-test","trial_index":17,"time_elapsed":108616,"internal_node_id":"0.0-8.0-2.2","subject":"89tjwumsgd28j96","sona":"6982"},{"rt":363.60000004060566,"stimulus":"<p>Welche Sequenz haben Sie als natürlicher empfunden?</p>","key_press":74,"test_part":"response","test_stimulus":{"position":0,"left":"bvh/pass-bottle-hold-training0-lines.txt","right":"bvh/vr_prediction_models/model(dmp)-dataset(pass-bottle-hold)-npsi(100)-hold(0)/final-lines.txt","att_check":true},"trial_type":"html-keyboard-response","trial_index":18,"time_elapsed":108980,"internal_node_id":"0.0-8.0-3.2","subject":"89tjwumsgd28j96","sona":"6982"},{"rt":255.40500017814338,"stimulus":"<p>Bereit?</p>","key_press":32,"trial_type":"html-keyboard-response","trial_index":19,"time_elapsed":109236,"internal_node_id":"0.0-8.0-0.3","subject":"89tjwumsgd28j96","sona":"6982"},{"rt":null,"stimulus":"<div style=\"font-size:60px;\">+</div>","key_press":null,"trial_type":"html-keyboard-response","trial_index":20,"time_elapsed":111238,"internal_node_id":"0.0-8.0-1.3","subject":"89tjwumsgd28j96","sona":"6982"},{"trial_type":"turing-test","trial_index":21,"time_elapsed":114590,"internal_node_id":"0.0-8.0-2.3","subject":"89tjwumsgd28j96","sona":"6982"},{"rt":965.2299999725074,"stimulus":"<p>Welche Sequenz haben Sie als natürlicher empfunden?</p>","key_press":74,"test_part":"response","test_stimulus":{"position":0,"left":"bvh/return-bottle-hold-training2-lines.txt","right":"bvh/vr_prediction_models/model(tmp)-dataset(return-bottle-hold)-numprim(11)-hold(2)/final-lines.txt","att_check":false},"trial_type":"html-keyboard-response","trial_index":22,"time_elapsed":115556,"internal_node_id":"0.0-8.0-3.3","subject":"89tjwumsgd28j96","sona":"6982"},{"rt":222.98499988391995,"stimulus":"<p>Bereit?</p>","key_press":32,"trial_type":"html-keyboard-response","trial_index":23,"time_elapsed":115780,"internal_node_id":"0.0-8.0-0.4","subject":"89tjwumsgd28j96","sona":"6982"},{"rt":null,"stimulus":"<div style=\"font-size:60px;\">+</div>","key_press":null,"trial_type":"html-keyboard-response","trial_index":24,"time_elapsed":117783,"internal_node_id":"0.0-8.0-1.4","subject":"89tjwumsgd28j96","sona":"6982"},{"trial_type":"turing-test","trial_index":25,"time_elapsed":123540,"internal_node_id":"0.0-8.0-2.4","subject":"89tjwumsgd28j96","sona":"6982"},{"rt":607.3350000660866,"stimulus":"<p>Welche Sequenz haben Sie als natürlicher empfunden?</p>","key_press":70,"test_part":"response","test_stimulus":{"position":0,"left":"bvh/return-bottle-training4-lines.txt","right":"bvh/vr_prediction_models/model(vcgpdm)-dataset(return-bottle)-mode(ELBO)-parts(1)-dyn(35)-lvm(10)-hold(4)/final-lines.txt","att_check":false},"trial_type":"html-keyboard-response","trial_index":26,"time_elapsed":124149,"internal_node_id":"0.0-8.0-3.4","subject":"89tjwumsgd28j96","sona":"6982"},{"rt":158.98499987088144,"stimulus":"<p>Bereit?</p>","key_press":32,"trial_type":"html-keyboard-response","trial_index":27,"time_elapsed":124308,"internal_node_id":"0.0-8.0-0.5","subject":"89tjwumsgd28j96","sona":"6982"},{"rt":null,"stimulus":"<div style=\"font-size:60px;\">+</div>","key_press":null,"trial_type":"html-keyboard-response","trial_index":28,"time_elapsed":126310,"internal_node_id":"0.0-8.0-1.5","subject":"89tjwumsgd28j96","sona":"6982"},{"trial_type":"turing-test","trial_index":29,"time_elapsed":130050,"internal_node_id":"0.0-8.0-2.5","subject":"89tjwumsgd28j96","sona":"6982"},{"rt":432.8950000926852,"stimulus":"<p>Welche Sequenz haben Sie als natürlicher empfunden?</p>","key_press":74,"test_part":"response","test_stimulus":{"position":1,"left":"bvh/vr_prediction_models/model(vcgpdm)-dataset(return-bottle-hold)-mode(ELBO)-parts(1)-dyn(15)-lvm(35)-hold(4)/final-lines.txt","right":"bvh/return-bottle-hold-training4-lines.txt","att_check":false},"trial_type":"html-keyboard-response","trial_index":30,"time_elapsed":130484,"internal_node_id":"0.0-8.0-3.5","subject":"89tjwumsgd28j96","sona":"6982"},{"rt":214.4299999345094,"stimulus":"<p>Bereit?</p>","key_press":32,"trial_type":"html-keyboard-response","trial_index":31,"time_elapsed":130700,"internal_node_id":"0.0-8.0-0.6","subject":"89tjwumsgd28j96","sona":"6982"},{"rt":null,"stimulus":"<div style=\"font-size:60px;\">+</div>","key_press":null,"trial_type":"html-keyboard-response","trial_index":32,"time_elapsed":132702,"internal_node_id":"0.0-8.0-1.6","subject":"89tjwumsgd28j96","sona":"6982"},{"trial_type":"turing-test","trial_index":33,"time_elapsed":137730,"internal_node_id":"0.0-8.0-2.6","subject":"89tjwumsgd28j96","sona":"6982"},{"rt":561.2449999898672,"stimulus":"<p>Welche Sequenz haben Sie als natürlicher empfunden?</p>","key_press":70,"test_part":"response","test_stimulus":{"position":1,"left":"bvh/vr_prediction_models/model(vcgpdm)-dataset(return-bottle-hold)-mode(MAP)-parts(3)-hold(0)/final-lines.txt","right":"bvh/return-bottle-hold-training0-lines.txt","att_check":false},"trial_type":"html-keyboard-response","trial_index":34,"time_elapsed":138292,"internal_node_id":"0.0-8.0-3.6","subject":"89tjwumsgd28j96","sona":"6982"},{"rt":255.20500005222857,"stimulus":"<p>Bereit?</p>","key_press":32,"trial_type":"html-keyboard-response","trial_index":35,"time_elapsed":138548,"internal_node_id":"0.0-8.0-0.7","subject":"89tjwumsgd28j96","sona":"6982"},{"rt":null,"stimulus":"<div style=\"font-size:60px;\">+</div>","key_press":null,"trial_type":"html-keyboard-response","trial_index":36,"time_elapsed":140551,"internal_node_id":"0.0-8.0-1.7","subject":"89tjwumsgd28j96","sona":"6982"},{"trial_type":"turing-test","trial_index":37,"time_elapsed":143923,"internal_node_id":"0.0-8.0-2.7","subject":"89tjwumsgd28j96","sona":"6982"},{"rt":567.6649999804795,"stimulus":"<p>Welche Sequenz haben Sie als natürlicher empfunden?</p>","key_press":74,"test_part":"response","test_stimulus":{"position":1,"left":"bvh/vr_prediction_models/model(vcgpdm)-dataset(return-bottle-hold)-mode(ELBO)-parts(3)-dyn(30)-lvm(15)-hold(1)/final-lines.txt","right":"bvh/return-bottle-hold-training1-lines.txt","att_check":false},"trial_type":"html-keyboard-response","trial_index":38,"time_elapsed":144492,"internal_node_id":"0.0-8.0-3.7","subject":"89tjwumsgd28j96","sona":"6982"},{"rt":199.37999988906085,"stimulus":"<p>Bereit?</p>","key_press":32,"trial_type":"html-keyboard-response","trial_index":39,"time_elapsed":144692,"internal_node_id":"0.0-8.0-0.8","subject":"89tjwumsgd28j96","sona":"6982"},{"rt":null,"stimulus":"<div style=\"font-size:60px;\">+</div>","key_press":null,"trial_type":"html-keyboard-response","trial_index":40,"time_elapsed":146698,"internal_node_id":"0.0-8.0-1.8","subject":"89tjwumsgd28j96","sona":"6982"},{"trial_type":"turing-test","trial_index":41,"time_elapsed":149973,"internal_node_id":"0.0-8.0-2.8","subject":"89tjwumsgd28j96","sona":"6982"},{"rt":805.9699998702854,"stimulus":"<p>Welche Sequenz haben Sie als natürlicher empfunden?</p>","key_press":70,"test_part":"response","test_stimulus":{"position":0,"left":"bvh/return-bottle-hold-training1-lines.txt","right":"bvh/vr_prediction_models/model(tmp)-dataset(return-bottle-hold)-numprim(10)-hold(1)/final-lines.txt","att_check":false},"trial_type":"html-keyboard-response","trial_index":42,"time_elapsed":150780,"internal_node_id":"0.0-8.0-3.8","subject":"89tjwumsgd28j96","sona":"6982"},{"rt":191.20500003919005,"stimulus":"<p>Bereit?</p>","key_press":32,"trial_type":"html-keyboard-response","trial_index":43,"time_elapsed":150972,"internal_node_id":"0.0-8.0-0.9","subject":"89tjwumsgd28j96","sona":"6982"},{"rt":null,"stimulus":"<div style=\"font-size:60px;\">+</div>","key_press":null,"trial_type":"html-keyboard-response","trial_index":44,"time_elapsed":152974,"internal_node_id":"0.0-8.0-1.9","subject":"89tjwumsgd28j96","sona":"6982"},{"trial_type":"turing-test","trial_index":45,"time_elapsed":156572,"internal_node_id":"0.0-8.0-2.9","subject":"89tjwumsgd28j96","sona":"6982"},{"rt":471.1050000041723,"stimulus":"<p>Welche Sequenz haben Sie als natürlicher empfunden?</p>","key_press":74,"test_part":"response","test_stimulus":{"position":1,"left":"bvh/vr_prediction_models/model(tmp)-dataset(return-bottle-hold)-numprim(10)-hold(4)/final-lines.txt","right":"bvh/return-bottle-hold-training4-lines.txt","att_check":false},"trial_type":"html-keyboard-response","trial_index":46,"time_elapsed":157044,"internal_node_id":"0.0-8.0-3.9","subject":"89tjwumsgd28j96","sona":"6982"},{"rt":206.99500013142824,"stimulus":"<p>Bereit?</p>","key_press":32,"trial_type":"html-keyboard-response","trial_index":47,"time_elapsed":157252,"internal_node_id":"0.0-8.0-0.10","subject":"89tjwumsgd28j96","sona":"6982"},{"rt":null,"stimulus":"<div style=\"font-size:60px;\">+</div>","key_press":null,"trial_type":"html-keyboard-response","trial_index":48,"time_elapsed":159254,"internal_node_id":"0.0-8.0-1.10","subject":"89tjwumsgd28j96","sona":"6982"},{"trial_type":"turing-test","trial_index":49,"time_elapsed":162463,"internal_node_id":"0.0-8.0-2.10","subject":"89tjwumsgd28j96","sona":"6982"},{"rt":932.3599999770522,"stimulus":"<p>Welche Sequenz haben Sie als natürlicher empfunden?</p>","key_press":74,"test_part":"response","test_stimulus":{"position":0,"left":"bvh/pass-bottle-hold-training2-lines.txt","right":"bvh/vr_prediction_models/model(tmp)-dataset(pass-bottle-hold)-numprim(3)-hold(2)/final-lines.txt","att_check":false},"trial_type":"html-keyboard-response","trial_index":50,"time_elapsed":163396,"internal_node_id":"0.0-8.0-3.10","subject":"89tjwumsgd28j96","sona":"6982"},{"rt":2926.7450000625104,"stimulus":"<p>Bereit?</p>","key_press":32,"trial_type":"html-keyboard-response","trial_index":51,"time_elapsed":166324,"internal_node_id":"0.0-8.0-0.11","subject":"89tjwumsgd28j96","sona":"6982"},{"rt":null,"stimulus":"<div style=\"font-size:60px;\">+</div>","key_press":null,"trial_type":"html-keyboard-response","trial_index":52,"time_elapsed":168325,"internal_node_id":"0.0-8.0-1.11","subject":"89tjwumsgd28j96","sona":"6982"},{"trial_type":"turing-test","trial_index":53,"time_elapsed":171851,"internal_node_id":"0.0-8.0-2.11","subject":"89tjwumsgd28j96","sona":"6982"},{"rt":607.5850001070648,"stimulus":"<p>Welche Sequenz haben Sie als natürlicher empfunden?</p>","key_press":74,"test_part":"response","test_stimulus":{"position":0,"left":"bvh/pass-bottle-hold-training4-lines.txt","right":"bvh/vr_prediction_models/model(vcgpdm)-dataset(pass-bottle-hold)-mode(ELBO)-parts(1)-dyn(20)-lvm(5)-hold(4)/final-lines.txt","att_check":false},"trial_type":"html-keyboard-response","trial_index":54,"time_elapsed":172460,"internal_node_id":"0.0-8.0-3.11","subject":"89tjwumsgd28j96","sona":"6982"},{"rt":238.9700000640005,"stimulus":"<p>Bereit?</p>","key_press":32,"trial_type":"html-keyboard-response","trial_index":55,"time_elapsed":172700,"internal_node_id":"0.0-8.0-0.12","subject":"89tjwumsgd28j96","sona":"6982"},{"rt":null,"stimulus":"<div style=\"font-size:60px;\">+</div>","key_press":null,"trial_type":"html-keyboard-response","trial_index":56,"time_elapsed":174702,"internal_node_id":"0.0-8.0-1.12","subject":"89tjwumsgd28j96","sona":"6982"},{"trial_type":"turing-test","trial_index":57,"time_elapsed":178346,"internal_node_id":"0.0-8.0-2.12","subject":"89tjwumsgd28j96","sona":"6982"},{"rt":601.069999858737,"stimulus":"<p>Welche Sequenz haben Sie als natürlicher empfunden?</p>","key_press":74,"test_part":"response","test_stimulus":{"position":1,"left":"bvh/vr_prediction_models/model(vcgpdm)-dataset(return-bottle-hold)-mode(ELBO)-parts(1)-dyn(25)-lvm(35)-hold(4)/final-lines.txt","right":"bvh/return-bottle-hold-training4-lines.txt","att_check":false},"trial_type":"html-keyboard-response","trial_index":58,"time_elapsed":178948,"internal_node_id":"0.0-8.0-3.12","subject":"89tjwumsgd28j96","sona":"6982"},{"rt":222.75499999523163,"stimulus":"<p>Bereit?</p>","key_press":32,"trial_type":"html-keyboard-response","trial_index":59,"time_elapsed":179172,"internal_node_id":"0.0-8.0-0.13","subject":"89tjwumsgd28j96","sona":"6982"},{"rt":null,"stimulus":"<div style=\"font-size:60px;\">+</div>","key_press":null,"trial_type":"html-keyboard-response","trial_index":60,"time_elapsed":181173,"internal_node_id":"0.0-8.0-1.13","subject":"89tjwumsgd28j96","sona":"6982"},{"trial_type":"turing-test","trial_index":61,"time_elapsed":186845,"internal_node_id":"0.0-8.0-2.13","subject":"89tjwumsgd28j96","sona":"6982"},{"rt":581.9149999879301,"stimulus":"<p>Welche Sequenz haben Sie als natürlicher empfunden?</p>","key_press":74,"test_part":"response","test_stimulus":{"position":1,"left":"bvh/vr_prediction_models/model(dmp)-dataset(pass-bottle)-npsi(70)-hold(3)/final-lines.txt","right":"bvh/pass-bottle-training3-lines.txt","att_check":false},"trial_type":"html-keyboard-response","trial_index":62,"time_elapsed":187428,"internal_node_id":"0.0-8.0-3.13","subject":"89tjwumsgd28j96","sona":"6982"},{"rt":294.9399999342859,"stimulus":"<p>Bereit?</p>","key_press":32,"trial_type":"html-keyboard-response","trial_index":63,"time_elapsed":187724,"internal_node_id":"0.0-8.0-0.14","subject":"89tjwumsgd28j96","sona":"6982"},{"rt":null,"stimulus":"<div style=\"font-size:60px;\">+</div>","key_press":null,"trial_type":"html-keyboard-response","trial_index":64,"time_elapsed":189727,"internal_node_id":"0.0-8.0-1.14","subject":"89tjwumsgd28j96","sona":"6982"},{"trial_type":"turing-test","trial_index":65,"time_elapsed":195659,"internal_node_id":"0.0-8.0-2.14","subject":"89tjwumsgd28j96","sona":"6982"},{"rt":574.9749999959022,"stimulus":"<p>Welche Sequenz haben Sie als natürlicher empfunden?</p>","key_press":74,"test_part":"response","test_stimulus":{"position":1,"left":"bvh/vr_prediction_models/model(tmp)-dataset(return-bottle)-numprim(6)-hold(1)/final-lines.txt","right":"bvh/return-bottle-training1-lines.txt","att_check":false},"trial_type":"html-keyboard-response","trial_index":66,"time_elapsed":196236,"internal_node_id":"0.0-8.0-3.14","subject":"89tjwumsgd28j96","sona":"6982"},{"rt":222.53500018268824,"stimulus":"<p>Bereit?</p>","key_press":32,"trial_type":"html-keyboard-response","trial_index":67,"time_elapsed":196459,"internal_node_id":"0.0-8.0-0.15","subject":"89tjwumsgd28j96","sona":"6982"},{"rt":null,"stimulus":"<div style=\"font-size:60px;\">+</div>","key_press":null,"trial_type":"html-keyboard-response","trial_index":68,"time_elapsed":198462,"internal_node_id":"0.0-8.0-1.15","subject":"89tjwumsgd28j96","sona":"6982"},{"trial_type":"turing-test","trial_index":69,"time_elapsed":204427,"internal_node_id":"0.0-8.0-2.15","subject":"89tjwumsgd28j96","sona":"6982"},{"rt":294.91000017151237,"stimulus":"<p>Welche Sequenz haben Sie als natürlicher empfunden?</p>","key_press":74,"test_part":"response","test_stimulus":{"position":1,"left":"bvh/vr_prediction_models/model(vcgpdm)-dataset(return-bottle)-mode(ELBO)-parts(3)-dyn(10)-lvm(25)-hold(1)/final-lines.txt","right":"bvh/return-bottle-training1-lines.txt","att_check":false},"trial_type":"html-keyboard-response","trial_index":70,"time_elapsed":204723,"internal_node_id":"0.0-8.0-3.15","subject":"89tjwumsgd28j96","sona":"6982"},{"rt":238.85000008158386,"stimulus":"<p>Bereit?</p>","key_press":32,"trial_type":"html-keyboard-response","trial_index":71,"time_elapsed":204963,"internal_node_id":"0.0-8.0-0.16","subject":"89tjwumsgd28j96","sona":"6982"},{"rt":null,"stimulus":"<div style=\"font-size:60px;\">+</div>","key_press":null,"trial_type":"html-keyboard-response","trial_index":72,"time_elapsed":206966,"internal_node_id":"0.0-8.0-1.16","subject":"89tjwumsgd28j96","sona":"6982"},{"trial_type":"turing-test","trial_index":73,"time_elapsed":212569,"internal_node_id":"0.0-8.0-2.16","subject":"89tjwumsgd28j96","sona":"6982"},{"rt":736.4449999295175,"stimulus":"<p>Welche Sequenz haben Sie als natürlicher empfunden?</p>","key_press":70,"test_part":"response","test_stimulus":{"position":0,"left":"bvh/return-bottle-training3-lines.txt","right":"bvh/vr_prediction_models/model(tmp)-dataset(return-bottle)-numprim(6)-hold(3)/final-lines.txt","att_check":false},"trial_type":"html-keyboard-response","trial_index":74,"time_elapsed":213307,"internal_node_id":"0.0-8.0-3.16","subject":"89tjwumsgd28j96","sona":"6982"},{"rt":222.83499990589917,"stimulus":"<p>Bereit?</p>","key_press":32,"trial_type":"html-keyboard-response","trial_index":75,"time_elapsed":213531,"internal_node_id":"0.0-8.0-0.17","subject":"89tjwumsgd28j96","sona":"6982"},{"rt":null,"stimulus":"<div style=\"font-size:60px;\">+</div>","key_press":null,"trial_type":"html-keyboard-response","trial_index":76,"time_elapsed":215540,"internal_node_id":"0.0-8.0-1.17","subject":"89tjwumsgd28j96","sona":"6982"},{"trial_type":"turing-test","trial_index":77,"time_elapsed":220935,"internal_node_id":"0.0-8.0-2.17","subject":"89tjwumsgd28j96","sona":"6982"},{"rt":467.1049998141825,"stimulus":"<p>Welche Sequenz haben Sie als natürlicher empfunden?</p>","key_press":70,"test_part":"response","test_stimulus":{"position":0,"left":"bvh/return-bottle-training0-lines.txt","right":"bvh/vr_prediction_models/model(vcgpdm)-dataset(return-bottle)-mode(ELBO)-parts(1)-dyn(20)-lvm(20)-hold(0)/final-lines.txt","att_check":false},"trial_type":"html-keyboard-response","trial_index":78,"time_elapsed":221403,"internal_node_id":"0.0-8.0-3.17","subject":"89tjwumsgd28j96","sona":"6982"},{"rt":206.93999994546175,"stimulus":"<p>Bereit?</p>","key_press":32,"trial_type":"html-keyboard-response","trial_index":79,"time_elapsed":221611,"internal_node_id":"0.0-8.0-0.18","subject":"89tjwumsgd28j96","sona":"6982"},{"rt":null,"stimulus":"<div style=\"font-size:60px;\">+</div>","key_press":null,"trial_type":"html-keyboard-response","trial_index":80,"time_elapsed":223613,"internal_node_id":"0.0-8.0-1.18","subject":"89tjwumsgd28j96","sona":"6982"},{"trial_type":"turing-test","trial_index":81,"time_elapsed":227166,"internal_node_id":"0.0-8.0-2.18","subject":"89tjwumsgd28j96","sona":"6982"},{"rt":1260.7050000224262,"stimulus":"<p>Welche Sequenz haben Sie als natürlicher empfunden?</p>","key_press":70,"test_part":"response","test_stimulus":{"position":0,"left":"bvh/return-bottle-hold-training3-lines.txt","right":"bvh/vr_prediction_models/model(tmp)-dataset(return-bottle-hold)-numprim(9)-hold(3)/final-lines.txt","att_check":false},"trial_type":"html-keyboard-response","trial_index":82,"time_elapsed":228427,"internal_node_id":"0.0-8.0-3.18","subject":"89tjwumsgd28j96","sona":"6982"},{"rt":166.2550000473857,"stimulus":"<p>Bereit?</p>","key_press":32,"trial_type":"html-keyboard-response","trial_index":83,"time_elapsed":228595,"internal_node_id":"0.0-8.0-0.19","subject":"89tjwumsgd28j96","sona":"6982"},{"rt":null,"stimulus":"<div style=\"font-size:60px;\">+</div>","key_press":null,"trial_type":"html-keyboard-response","trial_index":84,"time_elapsed":230598,"internal_node_id":"0.0-8.0-1.19","subject":"89tjwumsgd28j96","sona":"6982"},{"trial_type":"turing-test","trial_index":85,"time_elapsed":234027,"internal_node_id":"0.0-8.0-2.19","subject":"89tjwumsgd28j96","sona":"6982"},{"rt":734.775000018999,"stimulus":"<p>Welche Sequenz haben Sie als natürlicher empfunden?</p>","key_press":74,"test_part":"response","test_stimulus":{"position":1,"left":"bvh/vr_prediction_models/model(tmp)-dataset(pass-bottle-hold)-numprim(13)-hold(3)/final-lines.txt","right":"bvh/pass-bottle-hold-training3-lines.txt","att_check":false},"trial_type":"html-keyboard-response","trial_index":86,"time_elapsed":234763,"internal_node_id":"0.0-8.0-3.19","subject":"89tjwumsgd28j96","sona":"6982"},{"rt":239.06500008888543,"stimulus":"<p>Bereit?</p>","key_press":32,"trial_type":"html-keyboard-response","trial_index":87,"time_elapsed":235003,"internal_node_id":"0.0-8.0-0.20","subject":"89tjwumsgd28j96","sona":"6982"},{"rt":null,"stimulus":"<div style=\"font-size:60px;\">+</div>","key_press":null,"trial_type":"html-keyboard-response","trial_index":88,"time_elapsed":237006,"internal_node_id":"0.0-8.0-1.20","subject":"89tjwumsgd28j96","sona":"6982"},{"trial_type":"turing-test","trial_index":89,"time_elapsed":240330,"internal_node_id":"0.0-8.0-2.20","subject":"89tjwumsgd28j96","sona":"6982"},{"rt":320.0299998279661,"stimulus":"<p>Welche Sequenz haben Sie als natürlicher empfunden?</p>","key_press":74,"test_part":"response","test_stimulus":{"position":1,"left":"bvh/vr_prediction_models/model(vcgpdm)-dataset(return-bottle-hold)-mode(ELBO)-parts(3)-dyn(20)-lvm(20)-hold(1)/final-lines.txt","right":"bvh/return-bottle-hold-training1-lines.txt","att_check":false},"trial_type":"html-keyboard-response","trial_index":90,"time_elapsed":240651,"internal_node_id":"0.0-8.0-3.20","subject":"89tjwumsgd28j96","sona":"6982"},{"rt":223.04000006988645,"stimulus":"<p>Bereit?</p>","key_press":32,"trial_type":"html-keyboard-response","trial_index":91,"time_elapsed":240875,"internal_node_id":"0.0-8.0-0.21","subject":"89tjwumsgd28j96","sona":"6982"},{"rt":null,"stimulus":"<div style=\"font-size:60px;\">+</div>","key_press":null,"trial_type":"html-keyboard-response","trial_index":92,"time_elapsed":242878,"internal_node_id":"0.0-8.0-1.21","subject":"89tjwumsgd28j96","sona":"6982"},{"trial_type":"turing-test","trial_index":93,"time_elapsed":248811,"internal_node_id":"0.0-8.0-2.21","subject":"89tjwumsgd28j96","sona":"6982"},{"rt":574.1799999959767,"stimulus":"<p>Welche Sequenz haben Sie als natürlicher empfunden?</p>","key_press":74,"test_part":"response","test_stimulus":{"position":1,"left":"bvh/vr_prediction_models/model(tmp)-dataset(return-bottle)-numprim(11)-hold(1)/final-lines.txt","right":"bvh/return-bottle-training1-lines.txt","att_check":false},"trial_type":"html-keyboard-response","trial_index":94,"time_elapsed":249387,"internal_node_id":"0.0-8.0-3.21","subject":"89tjwumsgd28j96","sona":"6982"},{"rt":190.7150000333786,"stimulus":"<p>Bereit?</p>","key_press":32,"trial_type":"html-keyboard-response","trial_index":95,"time_elapsed":249579,"internal_node_id":"0.0-8.0-0.22","subject":"89tjwumsgd28j96","sona":"6982"},{"rt":null,"stimulus":"<div style=\"font-size:60px;\">+</div>","key_press":null,"trial_type":"html-keyboard-response","trial_index":96,"time_elapsed":251581,"internal_node_id":"0.0-8.0-1.22","subject":"89tjwumsgd28j96","sona":"6982"},{"trial_type":"turing-test","trial_index":97,"time_elapsed":254889,"internal_node_id":"0.0-8.0-2.22","subject":"89tjwumsgd28j96","sona":"6982"},{"rt":465.315000154078,"stimulus":"<p>Welche Sequenz haben Sie als natürlicher empfunden?</p>","key_press":70,"test_part":"response","test_stimulus":{"position":0,"left":"bvh/pass-bottle-hold-training0-lines.txt","right":"bvh/vr_prediction_models/model(vcgpdm)-dataset(pass-bottle-hold)-mode(ELBO)-parts(3)-dyn(10)-lvm(30)-hold(0)/final-lines.txt","att_check":false},"trial_type":"html-keyboard-response","trial_index":98,"time_elapsed":255355,"internal_node_id":"0.0-8.0-3.22","subject":"89tjwumsgd28j96","sona":"6982"},{"rt":254.66999993659556,"stimulus":"<p>Bereit?</p>","key_press":32,"trial_type":"html-keyboard-response","trial_index":99,"time_elapsed":255611,"internal_node_id":"0.0-8.0-0.23","subject":"89tjwumsgd28j96","sona":"6982"},{"rt":null,"stimulus":"<div style=\"font-size:60px;\">+</div>","key_press":null,"trial_type":"html-keyboard-response","trial_index":100,"time_elapsed":257613,"internal_node_id":"0.0-8.0-1.23","subject":"89tjwumsgd28j96","sona":"6982"},{"trial_type":"turing-test","trial_index":101,"time_elapsed":263255,"internal_node_id":"0.0-8.0-2.23","subject":"89tjwumsgd28j96","sona":"6982"},{"rt":490.8050000667572,"stimulus":"<p>Welche Sequenz haben Sie als natürlicher empfunden?</p>","key_press":70,"test_part":"response","test_stimulus":{"position":0,"left":"bvh/pass-bottle-training4-lines.txt","right":"bvh/vr_prediction_models/model(vcgpdm)-dataset(pass-bottle)-mode(MAP)-parts(3)-hold(4)/final-lines.txt","att_check":false},"trial_type":"html-keyboard-response","trial_index":102,"time_elapsed":263747,"internal_node_id":"0.0-8.0-3.23","subject":"89tjwumsgd28j96","sona":"6982"},{"rt":278.91999995335937,"stimulus":"<p>Bereit?</p>","key_press":32,"trial_type":"html-keyboard-response","trial_index":103,"time_elapsed":264027,"internal_node_id":"0.0-8.0-0.24","subject":"89tjwumsgd28j96","sona":"6982"},{"rt":null,"stimulus":"<div style=\"font-size:60px;\">+</div>","key_press":null,"trial_type":"html-keyboard-response","trial_index":104,"time_elapsed":266030,"internal_node_id":"0.0-8.0-1.24","subject":"89tjwumsgd28j96","sona":"6982"},{"trial_type":"turing-test","trial_index":105,"time_elapsed":271047,"internal_node_id":"0.0-8.0-2.24","subject":"89tjwumsgd28j96","sona":"6982"},{"rt":745.9150000941008,"stimulus":"<p>Welche Sequenz haben Sie als natürlicher empfunden?</p>","key_press":70,"test_part":"response","test_stimulus":{"position":0,"left":"bvh/return-bottle-hold-training0-lines.txt","right":"bvh/vr_prediction_models/model(dmp)-dataset(return-bottle-hold)-npsi(90)-hold(0)/final-lines.txt","att_check":true},"trial_type":"html-keyboard-response","trial_index":106,"time_elapsed":271795,"internal_node_id":"0.0-8.0-3.24","subject":"89tjwumsgd28j96","sona":"6982"},{"rt":358.6200000718236,"stimulus":"<p>Bereit?</p>","key_press":32,"trial_type":"html-keyboard-response","trial_index":107,"time_elapsed":272155,"internal_node_id":"0.0-8.0-0.25","subject":"89tjwumsgd28j96","sona":"6982"},{"rt":null,"stimulus":"<div style=\"font-size:60px;\">+</div>","key_press":null,"trial_type":"html-keyboard-response","trial_index":108,"time_elapsed":274156,"internal_node_id":"0.0-8.0-1.25","subject":"89tjwumsgd28j96","sona":"6982"},{"trial_type":"turing-test","trial_index":109,"time_elapsed":280118,"internal_node_id":"0.0-8.0-2.25","subject":"89tjwumsgd28j96","sona":"6982"},{"rt":371.0650000721216,"stimulus":"<p>Welche Sequenz haben Sie als natürlicher empfunden?</p>","key_press":74,"test_part":"response","test_stimulus":{"position":0,"left":"bvh/return-bottle-training1-lines.txt","right":"bvh/vr_prediction_models/model(vcgpdm)-dataset(return-bottle)-mode(ELBO)-parts(1)-dyn(25)-lvm(35)-hold(1)/final-lines.txt","att_check":false},"trial_type":"html-keyboard-response","trial_index":110,"time_elapsed":280491,"internal_node_id":"0.0-8.0-3.25","subject":"89tjwumsgd28j96","sona":"6982"},{"rt":159.01000006124377,"stimulus":"<p>Bereit?</p>","key_press":32,"trial_type":"html-keyboard-response","trial_index":111,"time_elapsed":280651,"internal_node_id":"0.0-8.0-0.26","subject":"89tjwumsgd28j96","sona":"6982"},{"rt":null,"stimulus":"<div style=\"font-size:60px;\">+</div>","key_press":null,"trial_type":"html-keyboard-response","trial_index":112,"time_elapsed":282654,"internal_node_id":"0.0-8.0-1.26","subject":"89tjwumsgd28j96","sona":"6982"},{"trial_type":"turing-test","trial_index":113,"time_elapsed":287995,"internal_node_id":"0.0-8.0-2.26","subject":"89tjwumsgd28j96","sona":"6982"},{"rt":382.6649999246001,"stimulus":"<p>Welche Sequenz haben Sie als natürlicher empfunden?</p>","key_press":70,"test_part":"response","test_stimulus":{"position":0,"left":"bvh/pass-bottle-training1-lines.txt","right":"bvh/vr_prediction_models/model(tmp)-dataset(pass-bottle)-numprim(14)-hold(1)/final-lines.txt","att_check":false},"trial_type":"html-keyboard-response","trial_index":114,"time_elapsed":288379,"internal_node_id":"0.0-8.0-3.26","subject":"89tjwumsgd28j96","sona":"6982"},{"rt":198.57500004582107,"stimulus":"<p>Bereit?</p>","key_press":32,"trial_type":"html-keyboard-response","trial_index":115,"time_elapsed":288579,"internal_node_id":"0.0-8.0-0.27","subject":"89tjwumsgd28j96","sona":"6982"},{"rt":null,"stimulus":"<div style=\"font-size:60px;\">+</div>","key_press":null,"trial_type":"html-keyboard-response","trial_index":116,"time_elapsed":290582,"internal_node_id":"0.0-8.0-1.27","subject":"89tjwumsgd28j96","sona":"6982"},{"trial_type":"turing-test","trial_index":117,"time_elapsed":294138,"internal_node_id":"0.0-8.0-2.27","subject":"89tjwumsgd28j96","sona":"6982"},{"rt":590.9600001759827,"stimulus":"<p>Welche Sequenz haben Sie als natürlicher empfunden?</p>","key_press":70,"test_part":"response","test_stimulus":{"position":1,"left":"bvh/vr_prediction_models/model(vcgpdm)-dataset(return-bottle-hold)-mode(ELBO)-parts(1)-dyn(20)-lvm(30)-hold(3)/final-lines.txt","right":"bvh/return-bottle-hold-training3-lines.txt","att_check":false},"trial_type":"html-keyboard-response","trial_index":118,"time_elapsed":294731,"internal_node_id":"0.0-8.0-3.27","subject":"89tjwumsgd28j96","sona":"6982"},{"rt":711.1800001002848,"stimulus":"<p>Bereit?</p>","key_press":32,"trial_type":"html-keyboard-response","trial_index":119,"time_elapsed":295443,"internal_node_id":"0.0-8.0-0.28","subject":"89tjwumsgd28j96","sona":"6982"},{"rt":null,"stimulus":"<div style=\"font-size:60px;\">+</div>","key_press":null,"trial_type":"html-keyboard-response","trial_index":120,"time_elapsed":297445,"internal_node_id":"0.0-8.0-1.28","subject":"89tjwumsgd28j96","sona":"6982"},{"trial_type":"turing-test","trial_index":121,"time_elapsed":300707,"internal_node_id":"0.0-8.0-2.28","subject":"89tjwumsgd28j96","sona":"6982"},{"rt":758.7250000797212,"stimulus":"<p>Welche Sequenz haben Sie als natürlicher empfunden?</p>","key_press":74,"test_part":"response","test_stimulus":{"position":1,"left":"bvh/vr_prediction_models/model(vcgpdm)-dataset(return-bottle-hold)-mode(ELBO)-parts(1)-dyn(15)-lvm(35)-hold(1)/final-lines.txt","right":"bvh/return-bottle-hold-training1-lines.txt","att_check":false},"trial_type":"html-keyboard-response","trial_index":122,"time_elapsed":301467,"internal_node_id":"0.0-8.0-3.28","subject":"89tjwumsgd28j96","sona":"6982"},{"rt":158.56499993242323,"stimulus":"<p>Bereit?</p>","key_press":32,"trial_type":"html-keyboard-response","trial_index":123,"time_elapsed":301627,"internal_node_id":"0.0-8.0-0.29","subject":"89tjwumsgd28j96","sona":"6982"},{"rt":null,"stimulus":"<div style=\"font-size:60px;\">+</div>","key_press":null,"trial_type":"html-keyboard-response","trial_index":124,"time_elapsed":303630,"internal_node_id":"0.0-8.0-1.29","subject":"89tjwumsgd28j96","sona":"6982"},{"trial_type":"turing-test","trial_index":125,"time_elapsed":308593,"internal_node_id":"0.0-8.0-2.29","subject":"89tjwumsgd28j96","sona":"6982"},{"rt":288.88000012375414,"stimulus":"<p>Welche Sequenz haben Sie als natürlicher empfunden?</p>","key_press":70,"test_part":"response","test_stimulus":{"position":1,"left":"bvh/vr_prediction_models/model(dmp)-dataset(return-bottle-hold)-npsi(20)-hold(0)/final-lines.txt","right":"bvh/return-bottle-hold-training0-lines.txt","att_check":false},"trial_type":"html-keyboard-response","trial_index":126,"time_elapsed":308883,"internal_node_id":"0.0-8.0-3.29","subject":"89tjwumsgd28j96","sona":"6982"},{"rt":190.1149998884648,"stimulus":"<p>Bereit?</p>","key_press":32,"trial_type":"html-keyboard-response","trial_index":127,"time_elapsed":309075,"internal_node_id":"0.0-8.0-0.30","subject":"89tjwumsgd28j96","sona":"6982"},{"rt":null,"stimulus":"<div style=\"font-size:60px;\">+</div>","key_press":null,"trial_type":"html-keyboard-response","trial_index":128,"time_elapsed":311083,"internal_node_id":"0.0-8.0-1.30","subject":"89tjwumsgd28j96","sona":"6982"},{"trial_type":"turing-test","trial_index":129,"time_elapsed":314167,"internal_node_id":"0.0-8.0-2.30","subject":"89tjwumsgd28j96","sona":"6982"},{"rt":674.7200000099838,"stimulus":"<p>Welche Sequenz haben Sie als natürlicher empfunden?</p>","key_press":74,"test_part":"response","test_stimulus":{"position":1,"left":"bvh/vr_prediction_models/model(dmp)-dataset(pass-bottle-hold)-npsi(100)-hold(1)/final-lines.txt","right":"bvh/pass-bottle-hold-training1-lines.txt","att_check":false},"trial_type":"html-keyboard-response","trial_index":130,"time_elapsed":314844,"internal_node_id":"0.0-8.0-3.30","subject":"89tjwumsgd28j96","sona":"6982"},{"rt":294.434999814257,"stimulus":"<p>Bereit?</p>","key_press":32,"trial_type":"html-keyboard-response","trial_index":131,"time_elapsed":315139,"internal_node_id":"0.0-8.0-0.31","subject":"89tjwumsgd28j96","sona":"6982"},{"rt":null,"stimulus":"<div style=\"font-size:60px;\">+</div>","key_press":null,"trial_type":"html-keyboard-response","trial_index":132,"time_elapsed":317144,"internal_node_id":"0.0-8.0-1.31","subject":"89tjwumsgd28j96","sona":"6982"},{"trial_type":"turing-test","trial_index":133,"time_elapsed":323793,"internal_node_id":"0.0-8.0-2.31","subject":"89tjwumsgd28j96","sona":"6982"},{"rt":312.72000004537404,"stimulus":"<p>Welche Sequenz haben Sie als natürlicher empfunden?</p>","key_press":70,"test_part":"response","test_stimulus":{"position":1,"left":"bvh/vr_prediction_models/model(vcgpdm)-dataset(pass-bottle)-mode(MAP)-parts(3)-hold(0)/final-lines.txt","right":"bvh/pass-bottle-training0-lines.txt","att_check":false},"trial_type":"html-keyboard-response","trial_index":134,"time_elapsed":324107,"internal_node_id":"0.0-8.0-3.31","subject":"89tjwumsgd28j96","sona":"6982"},{"rt":438.8649999164045,"stimulus":"<p>Bereit?</p>","key_press":32,"trial_type":"html-keyboard-response","trial_index":135,"time_elapsed":324547,"internal_node_id":"0.0-8.0-0.32","subject":"89tjwumsgd28j96","sona":"6982"},{"rt":null,"stimulus":"<div style=\"font-size:60px;\">+</div>","key_press":null,"trial_type":"html-keyboard-response","trial_index":136,"time_elapsed":326549,"internal_node_id":"0.0-8.0-1.32","subject":"89tjwumsgd28j96","sona":"6982"},{"trial_type":"turing-test","trial_index":137,"time_elapsed":329906,"internal_node_id":"0.0-8.0-2.32","subject":"89tjwumsgd28j96","sona":"6982"},{"rt":304.17999997735023,"stimulus":"<p>Welche Sequenz haben Sie als natürlicher empfunden?</p>","key_press":74,"test_part":"response","test_stimulus":{"position":1,"left":"bvh/vr_prediction_models/model(vcgpdm)-dataset(pass-bottle-hold)-mode(ELBO)-parts(1)-dyn(35)-lvm(30)-hold(0)/final-lines.txt","right":"bvh/pass-bottle-hold-training0-lines.txt","att_check":false},"trial_type":"html-keyboard-response","trial_index":138,"time_elapsed":330211,"internal_node_id":"0.0-8.0-3.32","subject":"89tjwumsgd28j96","sona":"6982"},{"rt":302.8200000990182,"stimulus":"<p>Bereit?</p>","key_press":32,"trial_type":"html-keyboard-response","trial_index":139,"time_elapsed":330515,"internal_node_id":"0.0-8.0-0.33","subject":"89tjwumsgd28j96","sona":"6982"},{"rt":null,"stimulus":"<div style=\"font-size:60px;\">+</div>","key_press":null,"trial_type":"html-keyboard-response","trial_index":140,"time_elapsed":332517,"internal_node_id":"0.0-8.0-1.33","subject":"89tjwumsgd28j96","sona":"6982"},{"trial_type":"turing-test","trial_index":141,"time_elapsed":337814,"internal_node_id":"0.0-8.0-2.33","subject":"89tjwumsgd28j96","sona":"6982"},{"rt":483.8499999605119,"stimulus":"<p>Welche Sequenz haben Sie als natürlicher empfunden?</p>","key_press":74,"test_part":"response","test_stimulus":{"position":1,"left":"bvh/vr_prediction_models/model(tmp)-dataset(pass-bottle)-numprim(12)-hold(1)/final-lines.txt","right":"bvh/pass-bottle-training1-lines.txt","att_check":false},"trial_type":"html-keyboard-response","trial_index":142,"time_elapsed":338299,"internal_node_id":"0.0-8.0-3.33","subject":"89tjwumsgd28j96","sona":"6982"},{"rt":222.88000001572073,"stimulus":"<p>Bereit?</p>","key_press":32,"trial_type":"html-keyboard-response","trial_index":143,"time_elapsed":338523,"internal_node_id":"0.0-8.0-0.34","subject":"89tjwumsgd28j96","sona":"6982"},{"rt":null,"stimulus":"<div style=\"font-size:60px;\">+</div>","key_press":null,"trial_type":"html-keyboard-response","trial_index":144,"time_elapsed":340525,"internal_node_id":"0.0-8.0-1.34","subject":"89tjwumsgd28j96","sona":"6982"},{"trial_type":"turing-test","trial_index":145,"time_elapsed":343937,"internal_node_id":"0.0-8.0-2.34","subject":"89tjwumsgd28j96","sona":"6982"},{"rt":512.8599999006838,"stimulus":"<p>Welche Sequenz haben Sie als natürlicher empfunden?</p>","key_press":70,"test_part":"response","test_stimulus":{"position":0,"left":"bvh/return-bottle-hold-training2-lines.txt","right":"bvh/vr_prediction_models/model(vcgpdm)-dataset(return-bottle-hold)-mode(ELBO)-parts(1)-dyn(10)-lvm(25)-hold(2)/final-lines.txt","att_check":false},"trial_type":"html-keyboard-response","trial_index":146,"time_elapsed":344451,"internal_node_id":"0.0-8.0-3.34","subject":"89tjwumsgd28j96","sona":"6982"},{"rt":446.55500003136694,"stimulus":"<p>Bereit?</p>","key_press":32,"trial_type":"html-keyboard-response","trial_index":147,"time_elapsed":344899,"internal_node_id":"0.0-8.0-0.35","subject":"89tjwumsgd28j96","sona":"6982"},{"rt":null,"stimulus":"<div style=\"font-size:60px;\">+</div>","key_press":null,"trial_type":"html-keyboard-response","trial_index":148,"time_elapsed":346902,"internal_node_id":"0.0-8.0-1.35","subject":"89tjwumsgd28j96","sona":"6982"},{"trial_type":"turing-test","trial_index":149,"time_elapsed":352603,"internal_node_id":"0.0-8.0-2.35","subject":"89tjwumsgd28j96","sona":"6982"},{"rt":734.9699998740107,"stimulus":"<p>Welche Sequenz haben Sie als natürlicher empfunden?</p>","key_press":70,"test_part":"response","test_stimulus":{"position":0,"left":"bvh/return-bottle-training4-lines.txt","right":"bvh/vr_prediction_models/model(tmp)-dataset(return-bottle)-numprim(11)-hold(4)/final-lines.txt","att_check":false},"trial_type":"html-keyboard-response","trial_index":150,"time_elapsed":353339,"internal_node_id":"0.0-8.0-3.35","subject":"89tjwumsgd28j96","sona":"6982"},{"rt":462.31499989517033,"stimulus":"<p>Bereit?</p>","key_press":32,"trial_type":"html-keyboard-response","trial_index":151,"time_elapsed":353803,"internal_node_id":"0.0-8.0-0.36","subject":"89tjwumsgd28j96","sona":"6982"},{"rt":null,"stimulus":"<div style=\"font-size:60px;\">+</div>","key_press":null,"trial_type":"html-keyboard-response","trial_index":152,"time_elapsed":355814,"internal_node_id":"0.0-8.0-1.36","subject":"89tjwumsgd28j96","sona":"6982"},{"trial_type":"turing-test","trial_index":153,"time_elapsed":359327,"internal_node_id":"0.0-8.0-2.36","subject":"89tjwumsgd28j96","sona":"6982"},{"rt":442.89999990724027,"stimulus":"<p>Welche Sequenz haben Sie als natürlicher empfunden?</p>","key_press":74,"test_part":"response","test_stimulus":{"position":1,"left":"bvh/vr_prediction_models/model(vcgpdm)-dataset(return-bottle-hold)-mode(MAP)-parts(1)-hold(3)/final-lines.txt","right":"bvh/return-bottle-hold-training3-lines.txt","att_check":false},"trial_type":"html-keyboard-response","trial_index":154,"time_elapsed":359772,"internal_node_id":"0.0-8.0-3.36","subject":"89tjwumsgd28j96","sona":"6982"},{"rt":262.63000001199543,"stimulus":"<p>Bereit?</p>","key_press":32,"trial_type":"html-keyboard-response","trial_index":155,"time_elapsed":360035,"internal_node_id":"0.0-8.0-0.37","subject":"89tjwumsgd28j96","sona":"6982"},{"rt":null,"stimulus":"<div style=\"font-size:60px;\">+</div>","key_press":null,"trial_type":"html-keyboard-response","trial_index":156,"time_elapsed":362038,"internal_node_id":"0.0-8.0-1.37","subject":"89tjwumsgd28j96","sona":"6982"},{"trial_type":"turing-test","trial_index":157,"time_elapsed":365238,"internal_node_id":"0.0-8.0-2.37","subject":"89tjwumsgd28j96","sona":"6982"},{"rt":339.2350000794977,"stimulus":"<p>Welche Sequenz haben Sie als natürlicher empfunden?</p>","key_press":70,"test_part":"response","test_stimulus":{"position":0,"left":"bvh/pass-bottle-hold-training1-lines.txt","right":"bvh/vr_prediction_models/model(vcgpdm)-dataset(pass-bottle-hold)-mode(ELBO)-parts(1)-dyn(30)-lvm(35)-hold(1)/final-lines.txt","att_check":false},"trial_type":"html-keyboard-response","trial_index":158,"time_elapsed":365579,"internal_node_id":"0.0-8.0-3.37","subject":"89tjwumsgd28j96","sona":"6982"},{"rt":270.83000005222857,"stimulus":"<p>Bereit?</p>","key_press":32,"trial_type":"html-keyboard-response","trial_index":159,"time_elapsed":365851,"internal_node_id":"0.0-8.0-0.38","subject":"89tjwumsgd28j96","sona":"6982"},{"rt":null,"stimulus":"<div style=\"font-size:60px;\">+</div>","key_press":null,"trial_type":"html-keyboard-response","trial_index":160,"time_elapsed":367853,"internal_node_id":"0.0-8.0-1.38","subject":"89tjwumsgd28j96","sona":"6982"},{"trial_type":"turing-test","trial_index":161,"time_elapsed":371436,"internal_node_id":"0.0-8.0-2.38","subject":"89tjwumsgd28j96","sona":"6982"},{"rt":366.0349999554455,"stimulus":"<p>Welche Sequenz haben Sie als natürlicher empfunden?</p>","key_press":74,"test_part":"response","test_stimulus":{"position":1,"left":"bvh/vr_prediction_models/model(vcgpdm)-dataset(return-bottle-hold)-mode(ELBO)-parts(1)-dyn(15)-lvm(35)-hold(3)/final-lines.txt","right":"bvh/return-bottle-hold-training3-lines.txt","att_check":false},"trial_type":"html-keyboard-response","trial_index":162,"time_elapsed":371803,"internal_node_id":"0.0-8.0-3.38","subject":"89tjwumsgd28j96","sona":"6982"},{"rt":206.7449998576194,"stimulus":"<p>Bereit?</p>","key_press":32,"trial_type":"html-keyboard-response","trial_index":163,"time_elapsed":372011,"internal_node_id":"0.0-8.0-0.39","subject":"89tjwumsgd28j96","sona":"6982"},{"rt":null,"stimulus":"<div style=\"font-size:60px;\">+</div>","key_press":null,"trial_type":"html-keyboard-response","trial_index":164,"time_elapsed":374013,"internal_node_id":"0.0-8.0-1.39","subject":"89tjwumsgd28j96","sona":"6982"},{"trial_type":"turing-test","trial_index":165,"time_elapsed":379749,"internal_node_id":"0.0-8.0-2.39","subject":"89tjwumsgd28j96","sona":"6982"},{"rt":365.1850000023842,"stimulus":"<p>Welche Sequenz haben Sie als natürlicher empfunden?</p>","key_press":74,"test_part":"response","test_stimulus":{"position":1,"left":"bvh/vr_prediction_models/model(vcgpdm)-dataset(pass-bottle)-mode(ELBO)-parts(3)-dyn(20)-lvm(15)-hold(3)/final-lines.txt","right":"bvh/pass-bottle-training3-lines.txt","att_check":false},"trial_type":"html-keyboard-response","trial_index":166,"time_elapsed":380116,"internal_node_id":"0.0-8.0-3.39","subject":"89tjwumsgd28j96","sona":"6982"},{"rt":302.5399998296052,"stimulus":"<p>Bereit?</p>","key_press":32,"trial_type":"html-keyboard-response","trial_index":167,"time_elapsed":380419,"internal_node_id":"0.0-8.0-0.40","subject":"89tjwumsgd28j96","sona":"6982"},{"rt":null,"stimulus":"<div style=\"font-size:60px;\">+</div>","key_press":null,"trial_type":"html-keyboard-response","trial_index":168,"time_elapsed":382423,"internal_node_id":"0.0-8.0-1.40","subject":"89tjwumsgd28j96","sona":"6982"},{"trial_type":"turing-test","trial_index":169,"time_elapsed":388020,"internal_node_id":"0.0-8.0-2.40","subject":"89tjwumsgd28j96","sona":"6982"},{"rt":357.9399997834116,"stimulus":"<p>Welche Sequenz haben Sie als natürlicher empfunden?</p>","key_press":74,"test_part":"response","test_stimulus":{"position":1,"left":"bvh/vr_prediction_models/model(vcgpdm)-dataset(pass-bottle)-mode(ELBO)-parts(1)-dyn(20)-lvm(5)-hold(4)/final-lines.txt","right":"bvh/pass-bottle-training4-lines.txt","att_check":false},"trial_type":"html-keyboard-response","trial_index":170,"time_elapsed":388380,"internal_node_id":"0.0-8.0-3.40","subject":"89tjwumsgd28j96","sona":"6982"},{"rt":246.684999903664,"stimulus":"<p>Bereit?</p>","key_press":32,"trial_type":"html-keyboard-response","trial_index":171,"time_elapsed":388628,"internal_node_id":"0.0-8.0-0.41","subject":"89tjwumsgd28j96","sona":"6982"},{"rt":null,"stimulus":"<div style=\"font-size:60px;\">+</div>","key_press":null,"trial_type":"html-keyboard-response","trial_index":172,"time_elapsed":390630,"internal_node_id":"0.0-8.0-1.41","subject":"89tjwumsgd28j96","sona":"6982"},{"trial_type":"turing-test","trial_index":173,"time_elapsed":396287,"internal_node_id":"0.0-8.0-2.41","subject":"89tjwumsgd28j96","sona":"6982"},{"rt":411.2899999599904,"stimulus":"<p>Welche Sequenz haben Sie als natürlicher empfunden?</p>","key_press":74,"test_part":"response","test_stimulus":{"position":1,"left":"bvh/vr_prediction_models/model(vcgpdm)-dataset(pass-bottle)-mode(ELBO)-parts(1)-dyn(10)-lvm(30)-hold(4)/final-lines.txt","right":"bvh/pass-bottle-training4-lines.txt","att_check":false},"trial_type":"html-keyboard-response","trial_index":174,"time_elapsed":396699,"internal_node_id":"0.0-8.0-3.41","subject":"89tjwumsgd28j96","sona":"6982"},{"rt":271.02499990724027,"stimulus":"<p>Bereit?</p>","key_press":32,"trial_type":"html-keyboard-response","trial_index":175,"time_elapsed":396972,"internal_node_id":"0.0-8.0-0.42","subject":"89tjwumsgd28j96","sona":"6982"},{"rt":null,"stimulus":"<div style=\"font-size:60px;\">+</div>","key_press":null,"trial_type":"html-keyboard-response","trial_index":176,"time_elapsed":398973,"internal_node_id":"0.0-8.0-1.42","subject":"89tjwumsgd28j96","sona":"6982"},{"trial_type":"turing-test","trial_index":177,"time_elapsed":404238,"internal_node_id":"0.0-8.0-2.42","subject":"89tjwumsgd28j96","sona":"6982"},{"rt":460.07000003010035,"stimulus":"<p>Welche Sequenz haben Sie als natürlicher empfunden?</p>","key_press":74,"test_part":"response","test_stimulus":{"position":1,"left":"bvh/vr_prediction_models/model(vcgpdm)-dataset(return-bottle)-mode(ELBO)-parts(1)-dyn(10)-lvm(5)-hold(0)/final-lines.txt","right":"bvh/return-bottle-training0-lines.txt","att_check":false},"trial_type":"html-keyboard-response","trial_index":178,"time_elapsed":404699,"internal_node_id":"0.0-8.0-3.42","subject":"89tjwumsgd28j96","sona":"6982"},{"rt":198.58499988913536,"stimulus":"<p>Bereit?</p>","key_press":32,"trial_type":"html-keyboard-response","trial_index":179,"time_elapsed":404899,"internal_node_id":"0.0-8.0-0.43","subject":"89tjwumsgd28j96","sona":"6982"},{"rt":null,"stimulus":"<div style=\"font-size:60px;\">+</div>","key_press":null,"trial_type":"html-keyboard-response","trial_index":180,"time_elapsed":406902,"internal_node_id":"0.0-8.0-1.43","subject":"89tjwumsgd28j96","sona":"6982"},{"trial_type":"turing-test","trial_index":181,"time_elapsed":412817,"internal_node_id":"0.0-8.0-2.43","subject":"89tjwumsgd28j96","sona":"6982"},{"rt":704.5599999837577,"stimulus":"<p>Welche Sequenz haben Sie als natürlicher empfunden?</p>","key_press":70,"test_part":"response","test_stimulus":{"position":0,"left":"bvh/return-bottle-training1-lines.txt","right":"bvh/vr_prediction_models/model(dmp)-dataset(return-bottle)-npsi(80)-hold(1)/final-lines.txt","att_check":false},"trial_type":"html-keyboard-response","trial_index":182,"time_elapsed":413524,"internal_node_id":"0.0-8.0-3.43","subject":"89tjwumsgd28j96","sona":"6982"},{"rt":773.615000071004,"stimulus":"<p>Bereit?</p>","key_press":32,"trial_type":"html-keyboard-response","trial_index":183,"time_elapsed":414299,"internal_node_id":"0.0-8.0-0.44","subject":"89tjwumsgd28j96","sona":"6982"},{"rt":null,"stimulus":"<div style=\"font-size:60px;\">+</div>","key_press":null,"trial_type":"html-keyboard-response","trial_index":184,"time_elapsed":416302,"internal_node_id":"0.0-8.0-1.44","subject":"89tjwumsgd28j96","sona":"6982"},{"trial_type":"turing-test","trial_index":185,"time_elapsed":422002,"internal_node_id":"0.0-8.0-2.44","subject":"89tjwumsgd28j96","sona":"6982"},{"rt":824.2199998348951,"stimulus":"<p>Welche Sequenz haben Sie als natürlicher empfunden?</p>","key_press":74,"test_part":"response","test_stimulus":{"position":0,"left":"bvh/return-bottle-training4-lines.txt","right":"bvh/vr_prediction_models/model(vcgpdm)-dataset(return-bottle)-mode(ELBO)-parts(3)-dyn(20)-lvm(20)-hold(4)/final-lines.txt","att_check":false},"trial_type":"html-keyboard-response","trial_index":186,"time_elapsed":422828,"internal_node_id":"0.0-8.0-3.44","subject":"89tjwumsgd28j96","sona":"6982"},{"rt":286.45500005222857,"stimulus":"<p>Bereit?</p>","key_press":32,"trial_type":"html-keyboard-response","trial_index":187,"time_elapsed":423116,"internal_node_id":"0.0-8.0-0.45","subject":"89tjwumsgd28j96","sona":"6982"},{"rt":null,"stimulus":"<div style=\"font-size:60px;\">+</div>","key_press":null,"trial_type":"html-keyboard-response","trial_index":188,"time_elapsed":425118,"internal_node_id":"0.0-8.0-1.45","subject":"89tjwumsgd28j96","sona":"6982"},{"trial_type":"turing-test","trial_index":189,"time_elapsed":431075,"internal_node_id":"0.0-8.0-2.45","subject":"89tjwumsgd28j96","sona":"6982"},{"rt":678.5999999847263,"stimulus":"<p>Welche Sequenz haben Sie als natürlicher empfunden?</p>","key_press":70,"test_part":"response","test_stimulus":{"position":0,"left":"bvh/pass-bottle-training2-lines.txt","right":"bvh/vr_prediction_models/model(dmp)-dataset(pass-bottle)-npsi(60)-hold(2)/final-lines.txt","att_check":false},"trial_type":"html-keyboard-response","trial_index":190,"time_elapsed":431756,"internal_node_id":"0.0-8.0-3.45","subject":"89tjwumsgd28j96","sona":"6982"},{"rt":366.67999997735023,"stimulus":"<p>Bereit?</p>","key_press":32,"trial_type":"html-keyboard-response","trial_index":191,"time_elapsed":432124,"internal_node_id":"0.0-8.0-0.46","subject":"89tjwumsgd28j96","sona":"6982"},{"rt":null,"stimulus":"<div style=\"font-size:60px;\">+</div>","key_press":null,"trial_type":"html-keyboard-response","trial_index":192,"time_elapsed":434135,"internal_node_id":"0.0-8.0-1.46","subject":"89tjwumsgd28j96","sona":"6982"},{"trial_type":"turing-test","trial_index":193,"time_elapsed":439766,"internal_node_id":"0.0-8.0-2.46","subject":"89tjwumsgd28j96","sona":"6982"},{"rt":931.4700001850724,"stimulus":"<p>Welche Sequenz haben Sie als natürlicher empfunden?</p>","key_press":74,"test_part":"response","test_stimulus":{"position":0,"left":"bvh/return-bottle-training4-lines.txt","right":"bvh/vr_prediction_models/model(tmp)-dataset(return-bottle)-numprim(4)-hold(4)/final-lines.txt","att_check":false},"trial_type":"html-keyboard-response","trial_index":194,"time_elapsed":440699,"internal_node_id":"0.0-8.0-3.46","subject":"89tjwumsgd28j96","sona":"6982"},{"rt":270.69499995559454,"stimulus":"<p>Bereit?</p>","key_press":32,"trial_type":"html-keyboard-response","trial_index":195,"time_elapsed":440971,"internal_node_id":"0.0-8.0-0.47","subject":"89tjwumsgd28j96","sona":"6982"},{"rt":null,"stimulus":"<div style=\"font-size:60px;\">+</div>","key_press":null,"trial_type":"html-keyboard-response","trial_index":196,"time_elapsed":442973,"internal_node_id":"0.0-8.0-1.47","subject":"89tjwumsgd28j96","sona":"6982"},{"trial_type":"turing-test","trial_index":197,"time_elapsed":446527,"internal_node_id":"0.0-8.0-2.47","subject":"89tjwumsgd28j96","sona":"6982"},{"rt":378.3099998254329,"stimulus":"<p>Welche Sequenz haben Sie als natürlicher empfunden?</p>","key_press":70,"test_part":"response","test_stimulus":{"position":0,"left":"bvh/return-bottle-hold-training3-lines.txt","right":"bvh/vr_prediction_models/model(vcgpdm)-dataset(return-bottle-hold)-mode(ELBO)-parts(3)-dyn(10)-lvm(10)-hold(3)/final-lines.txt","att_check":false},"trial_type":"html-keyboard-response","trial_index":198,"time_elapsed":446907,"internal_node_id":"0.0-8.0-3.47","subject":"89tjwumsgd28j96","sona":"6982"},{"rt":278.77999981865287,"stimulus":"<p>Bereit?</p>","key_press":32,"trial_type":"html-keyboard-response","trial_index":199,"time_elapsed":447188,"internal_node_id":"0.0-8.0-0.48","subject":"89tjwumsgd28j96","sona":"6982"},{"rt":null,"stimulus":"<div style=\"font-size:60px;\">+</div>","key_press":null,"trial_type":"html-keyboard-response","trial_index":200,"time_elapsed":449190,"internal_node_id":"0.0-8.0-1.48","subject":"89tjwumsgd28j96","sona":"6982"},{"trial_type":"turing-test","trial_index":201,"time_elapsed":454447,"internal_node_id":"0.0-8.0-2.48","subject":"89tjwumsgd28j96","sona":"6982"},{"rt":465.9949999768287,"stimulus":"<p>Welche Sequenz haben Sie als natürlicher empfunden?</p>","key_press":74,"test_part":"response","test_stimulus":{"position":1,"left":"bvh/vr_prediction_models/model(dmp)-dataset(return-bottle)-npsi(40)-hold(0)/final-lines.txt","right":"bvh/return-bottle-training0-lines.txt","att_check":false},"trial_type":"html-keyboard-response","trial_index":202,"time_elapsed":454916,"internal_node_id":"0.0-8.0-3.48","subject":"89tjwumsgd28j96","sona":"6982"},{"rt":301.5999998897314,"stimulus":"<p>Bereit?</p>","key_press":32,"trial_type":"html-keyboard-response","trial_index":203,"time_elapsed":455219,"internal_node_id":"0.0-8.0-0.49","subject":"89tjwumsgd28j96","sona":"6982"},{"rt":null,"stimulus":"<div style=\"font-size:60px;\">+</div>","key_press":null,"trial_type":"html-keyboard-response","trial_index":204,"time_elapsed":457222,"internal_node_id":"0.0-8.0-1.49","subject":"89tjwumsgd28j96","sona":"6982"},{"trial_type":"turing-test","trial_index":205,"time_elapsed":462992,"internal_node_id":"0.0-8.0-2.49","subject":"89tjwumsgd28j96","sona":"6982"},{"rt":337.085000006482,"stimulus":"<p>Welche Sequenz haben Sie als natürlicher empfunden?</p>","key_press":70,"test_part":"response","test_stimulus":{"position":0,"left":"bvh/return-bottle-training4-lines.txt","right":"bvh/vr_prediction_models/model(vcgpdm)-dataset(return-bottle)-mode(ELBO)-parts(1)-dyn(10)-lvm(30)-hold(4)/final-lines.txt","att_check":false},"trial_type":"html-keyboard-response","trial_index":206,"time_elapsed":463331,"internal_node_id":"0.0-8.0-3.49","subject":"89tjwumsgd28j96","sona":"6982"},{"rt":390.46999998390675,"stimulus":"<p>Bereit?</p>","key_press":32,"trial_type":"html-keyboard-response","trial_index":207,"time_elapsed":463723,"internal_node_id":"0.0-8.0-0.50","subject":"89tjwumsgd28j96","sona":"6982"},{"rt":null,"stimulus":"<div style=\"font-size:60px;\">+</div>","key_press":null,"trial_type":"html-keyboard-response","trial_index":208,"time_elapsed":465725,"internal_node_id":"0.0-8.0-1.50","subject":"89tjwumsgd28j96","sona":"6982"},{"trial_type":"turing-test","trial_index":209,"time_elapsed":470983,"internal_node_id":"0.0-8.0-2.50","subject":"89tjwumsgd28j96","sona":"6982"},{"rt":563.300000037998,"stimulus":"<p>Welche Sequenz haben Sie als natürlicher empfunden?</p>","key_press":74,"test_part":"response","test_stimulus":{"position":0,"left":"bvh/return-bottle-training0-lines.txt","right":"bvh/vr_prediction_models/model(tmp)-dataset(return-bottle)-numprim(9)-hold(0)/final-lines.txt","att_check":false},"trial_type":"html-keyboard-response","trial_index":210,"time_elapsed":471548,"internal_node_id":"0.0-8.0-3.50","subject":"89tjwumsgd28j96","sona":"6982"},{"rt":310.19000010564923,"stimulus":"<p>Bereit?</p>","key_press":32,"trial_type":"html-keyboard-response","trial_index":211,"time_elapsed":471859,"internal_node_id":"0.0-8.0-0.51","subject":"89tjwumsgd28j96","sona":"6982"},{"rt":null,"stimulus":"<div style=\"font-size:60px;\">+</div>","key_press":null,"trial_type":"html-keyboard-response","trial_index":212,"time_elapsed":473862,"internal_node_id":"0.0-8.0-1.51","subject":"89tjwumsgd28j96","sona":"6982"},{"trial_type":"turing-test","trial_index":213,"time_elapsed":478888,"internal_node_id":"0.0-8.0-2.51","subject":"89tjwumsgd28j96","sona":"6982"},{"rt":288.55499997735023,"stimulus":"<p>Welche Sequenz haben Sie als natürlicher empfunden?</p>","key_press":74,"test_part":"response","test_stimulus":{"position":1,"left":"bvh/vr_prediction_models/model(tmp)-dataset(return-bottle-hold)-numprim(11)-hold(0)/final-lines.txt","right":"bvh/return-bottle-hold-training0-lines.txt","att_check":false},"trial_type":"html-keyboard-response","trial_index":214,"time_elapsed":479179,"internal_node_id":"0.0-8.0-3.51","subject":"89tjwumsgd28j96","sona":"6982"},{"rt":327.00999989174306,"stimulus":"<p>Bereit?</p>","key_press":32,"trial_type":"html-keyboard-response","trial_index":215,"time_elapsed":479507,"internal_node_id":"0.0-8.0-0.52","subject":"89tjwumsgd28j96","sona":"6982"},{"rt":null,"stimulus":"<div style=\"font-size:60px;\">+</div>","key_press":null,"trial_type":"html-keyboard-response","trial_index":216,"time_elapsed":481510,"internal_node_id":"0.0-8.0-1.52","subject":"89tjwumsgd28j96","sona":"6982"},{"trial_type":"turing-test","trial_index":217,"time_elapsed":484893,"internal_node_id":"0.0-8.0-2.52","subject":"89tjwumsgd28j96","sona":"6982"},{"rt":340.715000173077,"stimulus":"<p>Welche Sequenz haben Sie als natürlicher empfunden?</p>","key_press":70,"test_part":"response","test_stimulus":{"position":0,"left":"bvh/return-bottle-hold-training2-lines.txt","right":"bvh/vr_prediction_models/model(vcgpdm)-dataset(return-bottle-hold)-mode(ELBO)-parts(3)-dyn(35)-lvm(20)-hold(2)/final-lines.txt","att_check":false},"trial_type":"html-keyboard-response","trial_index":218,"time_elapsed":485236,"internal_node_id":"0.0-8.0-3.52","subject":"89tjwumsgd28j96","sona":"6982"},{"rt":286.2599999643862,"stimulus":"<p>Bereit?</p>","key_press":32,"trial_type":"html-keyboard-response","trial_index":219,"time_elapsed":485523,"internal_node_id":"0.0-8.0-0.53","subject":"89tjwumsgd28j96","sona":"6982"},{"rt":null,"stimulus":"<div style=\"font-size:60px;\">+</div>","key_press":null,"trial_type":"html-keyboard-response","trial_index":220,"time_elapsed":487526,"internal_node_id":"0.0-8.0-1.53","subject":"89tjwumsgd28j96","sona":"6982"},{"trial_type":"turing-test","trial_index":221,"time_elapsed":490982,"internal_node_id":"0.0-8.0-2.53","subject":"89tjwumsgd28j96","sona":"6982"},{"rt":666.3749997969717,"stimulus":"<p>Welche Sequenz haben Sie als natürlicher empfunden?</p>","key_press":70,"test_part":"response","test_stimulus":{"position":0,"left":"bvh/pass-bottle-hold-training4-lines.txt","right":"bvh/vr_prediction_models/model(dmp)-dataset(pass-bottle-hold)-npsi(30)-hold(4)/final-lines.txt","att_check":false},"trial_type":"html-keyboard-response","trial_index":222,"time_elapsed":491651,"internal_node_id":"0.0-8.0-3.53","subject":"89tjwumsgd28j96","sona":"6982"},{"rt":350.79500009305775,"stimulus":"<p>Bereit?</p>","key_press":32,"trial_type":"html-keyboard-response","trial_index":223,"time_elapsed":492003,"internal_node_id":"0.0-8.0-0.54","subject":"89tjwumsgd28j96","sona":"6982"},{"rt":null,"stimulus":"<div style=\"font-size:60px;\">+</div>","key_press":null,"trial_type":"html-keyboard-response","trial_index":224,"time_elapsed":494013,"internal_node_id":"0.0-8.0-1.54","subject":"89tjwumsgd28j96","sona":"6982"},{"trial_type":"turing-test","trial_index":225,"time_elapsed":497349,"internal_node_id":"0.0-8.0-2.54","subject":"89tjwumsgd28j96","sona":"6982"},{"rt":645.6899999175221,"stimulus":"<p>Welche Sequenz haben Sie als natürlicher empfunden?</p>","key_press":70,"test_part":"response","test_stimulus":{"position":0,"left":"bvh/return-bottle-hold-training2-lines.txt","right":"bvh/vr_prediction_models/model(tmp)-dataset(return-bottle-hold)-numprim(8)-hold(2)/final-lines.txt","att_check":false},"trial_type":"html-keyboard-response","trial_index":226,"time_elapsed":497996,"internal_node_id":"0.0-8.0-3.54","subject":"89tjwumsgd28j96","sona":"6982"},{"rt":3422.109999926761,"stimulus":"<p>Bereit?</p>","key_press":32,"trial_type":"html-keyboard-response","trial_index":227,"time_elapsed":501419,"internal_node_id":"0.0-8.0-0.55","subject":"89tjwumsgd28j96","sona":"6982"},{"rt":null,"stimulus":"<div style=\"font-size:60px;\">+</div>","key_press":null,"trial_type":"html-keyboard-response","trial_index":228,"time_elapsed":503422,"internal_node_id":"0.0-8.0-1.55","subject":"89tjwumsgd28j96","sona":"6982"},{"trial_type":"turing-test","trial_index":229,"time_elapsed":506661,"internal_node_id":"0.0-8.0-2.55","subject":"89tjwumsgd28j96","sona":"6982"},{"rt":668.7849999871105,"stimulus":"<p>Welche Sequenz haben Sie als natürlicher empfunden?</p>","key_press":74,"test_part":"response","test_stimulus":{"position":0,"left":"bvh/pass-bottle-hold-training0-lines.txt","right":"bvh/vr_prediction_models/model(dmp)-dataset(pass-bottle-hold)-npsi(50)-hold(0)/final-lines.txt","att_check":false},"trial_type":"html-keyboard-response","trial_index":230,"time_elapsed":507332,"internal_node_id":"0.0-8.0-3.55","subject":"89tjwumsgd28j96","sona":"6982"},{"rt":310.37999992258847,"stimulus":"<p>Bereit?</p>","key_press":32,"trial_type":"html-keyboard-response","trial_index":231,"time_elapsed":507643,"internal_node_id":"0.0-8.0-0.56","subject":"89tjwumsgd28j96","sona":"6982"},{"rt":null,"stimulus":"<div style=\"font-size:60px;\">+</div>","key_press":null,"trial_type":"html-keyboard-response","trial_index":232,"time_elapsed":509646,"internal_node_id":"0.0-8.0-1.56","subject":"89tjwumsgd28j96","sona":"6982"},{"trial_type":"turing-test","trial_index":233,"time_elapsed":513162,"internal_node_id":"0.0-8.0-2.56","subject":"89tjwumsgd28j96","sona":"6982"},{"rt":543.4149999637157,"stimulus":"<p>Welche Sequenz haben Sie als natürlicher empfunden?</p>","key_press":70,"test_part":"response","test_stimulus":{"position":1,"left":"bvh/vr_prediction_models/model(vcgpdm)-dataset(pass-bottle-hold)-mode(ELBO)-parts(1)-dyn(30)-lvm(20)-hold(4)/final-lines.txt","right":"bvh/pass-bottle-hold-training4-lines.txt","att_check":false},"trial_type":"html-keyboard-response","trial_index":234,"time_elapsed":513708,"internal_node_id":"0.0-8.0-3.56","subject":"89tjwumsgd28j96","sona":"6982"},{"rt":246.4499999769032,"stimulus":"<p>Bereit?</p>","key_press":32,"trial_type":"html-keyboard-response","trial_index":235,"time_elapsed":513955,"internal_node_id":"0.0-8.0-0.57","subject":"89tjwumsgd28j96","sona":"6982"},{"rt":null,"stimulus":"<div style=\"font-size:60px;\">+</div>","key_press":null,"trial_type":"html-keyboard-response","trial_index":236,"time_elapsed":515957,"internal_node_id":"0.0-8.0-1.57","subject":"89tjwumsgd28j96","sona":"6982"},{"trial_type":"turing-test","trial_index":237,"time_elapsed":520919,"internal_node_id":"0.0-8.0-2.57","subject":"89tjwumsgd28j96","sona":"6982"},{"rt":978.7900000810623,"stimulus":"<p>Welche Sequenz haben Sie als natürlicher empfunden?</p>","key_press":74,"test_part":"response","test_stimulus":{"position":1,"left":"bvh/vr_prediction_models/model(tmp)-dataset(return-bottle-hold)-numprim(7)-hold(0)/final-lines.txt","right":"bvh/return-bottle-hold-training0-lines.txt","att_check":false},"trial_type":"html-keyboard-response","trial_index":238,"time_elapsed":521899,"internal_node_id":"0.0-8.0-3.57","subject":"89tjwumsgd28j96","sona":"6982"},{"rt":5127.155000111088,"stimulus":"<p>Bereit?</p>","key_press":32,"trial_type":"html-keyboard-response","trial_index":239,"time_elapsed":527028,"internal_node_id":"0.0-8.0-0.58","subject":"89tjwumsgd28j96","sona":"6982"},{"rt":null,"stimulus":"<div style=\"font-size:60px;\">+</div>","key_press":null,"trial_type":"html-keyboard-response","trial_index":240,"time_elapsed":529030,"internal_node_id":"0.0-8.0-1.58","subject":"89tjwumsgd28j96","sona":"6982"},{"trial_type":"turing-test","trial_index":241,"time_elapsed":532672,"internal_node_id":"0.0-8.0-2.58","subject":"89tjwumsgd28j96","sona":"6982"},{"rt":1017.4200001638383,"stimulus":"<p>Welche Sequenz haben Sie als natürlicher empfunden?</p>","key_press":70,"test_part":"response","test_stimulus":{"position":0,"left":"bvh/return-bottle-hold-training3-lines.txt","right":"bvh/vr_prediction_models/model(vcgpdm)-dataset(return-bottle-hold)-mode(ELBO)-parts(3)-dyn(25)-lvm(25)-hold(3)/final-lines.txt","att_check":false},"trial_type":"html-keyboard-response","trial_index":242,"time_elapsed":533691,"internal_node_id":"0.0-8.0-3.58","subject":"89tjwumsgd28j96","sona":"6982"},{"rt":374.57500002346933,"stimulus":"<p>Bereit?</p>","key_press":32,"trial_type":"html-keyboard-response","trial_index":243,"time_elapsed":534067,"internal_node_id":"0.0-8.0-0.59","subject":"89tjwumsgd28j96","sona":"6982"},{"rt":null,"stimulus":"<div style=\"font-size:60px;\">+</div>","key_press":null,"trial_type":"html-keyboard-response","trial_index":244,"time_elapsed":536070,"internal_node_id":"0.0-8.0-1.59","subject":"89tjwumsgd28j96","sona":"6982"},{"trial_type":"turing-test","trial_index":245,"time_elapsed":542706,"internal_node_id":"0.0-8.0-2.59","subject":"89tjwumsgd28j96","sona":"6982"},{"rt":671.074999962002,"stimulus":"<p>Welche Sequenz haben Sie als natürlicher empfunden?</p>","key_press":70,"test_part":"response","test_stimulus":{"position":0,"left":"bvh/pass-bottle-training0-lines.txt","right":"bvh/vr_prediction_models/model(vcgpdm)-dataset(pass-bottle)-mode(ELBO)-parts(1)-dyn(10)-lvm(5)-hold(0)/final-lines.txt","att_check":false},"trial_type":"html-keyboard-response","trial_index":246,"time_elapsed":543379,"internal_node_id":"0.0-8.0-3.59","subject":"89tjwumsgd28j96","sona":"6982"},{"rt":374.9400000087917,"stimulus":"<p>Bereit?</p>","key_press":32,"trial_type":"html-keyboard-response","trial_index":247,"time_elapsed":543755,"internal_node_id":"0.0-8.0-0.60","subject":"89tjwumsgd28j96","sona":"6982"},{"rt":null,"stimulus":"<div style=\"font-size:60px;\">+</div>","key_press":null,"trial_type":"html-keyboard-response","trial_index":248,"time_elapsed":545770,"internal_node_id":"0.0-8.0-1.60","subject":"89tjwumsgd28j96","sona":"6982"},{"trial_type":"turing-test","trial_index":249,"time_elapsed":549267,"internal_node_id":"0.0-8.0-2.60","subject":"89tjwumsgd28j96","sona":"6982"},{"rt":438.2700000423938,"stimulus":"<p>Welche Sequenz haben Sie als natürlicher empfunden?</p>","key_press":74,"test_part":"response","test_stimulus":{"position":1,"left":"bvh/vr_prediction_models/model(tmp)-dataset(return-bottle-hold)-numprim(9)-hold(3)/final-lines.txt","right":"bvh/return-bottle-hold-training3-lines.txt","att_check":false},"trial_type":"html-keyboard-response","trial_index":250,"time_elapsed":549707,"internal_node_id":"0.0-8.0-3.60","subject":"89tjwumsgd28j96","sona":"6982"},{"rt":246.65499990805984,"stimulus":"<p>Bereit?</p>","key_press":32,"trial_type":"html-keyboard-response","trial_index":251,"time_elapsed":549955,"internal_node_id":"0.0-8.0-0.61","subject":"89tjwumsgd28j96","sona":"6982"},{"rt":null,"stimulus":"<div style=\"font-size:60px;\">+</div>","key_press":null,"trial_type":"html-keyboard-response","trial_index":252,"time_elapsed":551958,"internal_node_id":"0.0-8.0-1.61","subject":"89tjwumsgd28j96","sona":"6982"},{"trial_type":"turing-test","trial_index":253,"time_elapsed":555454,"internal_node_id":"0.0-8.0-2.61","subject":"89tjwumsgd28j96","sona":"6982"},{"rt":507.19999987632036,"stimulus":"<p>Welche Sequenz haben Sie als natürlicher empfunden?</p>","key_press":70,"test_part":"response","test_stimulus":{"position":0,"left":"bvh/return-bottle-hold-training3-lines.txt","right":"bvh/vr_prediction_models/model(dmp)-dataset(return-bottle-hold)-npsi(30)-hold(3)/final-lines.txt","att_check":false},"trial_type":"html-keyboard-response","trial_index":254,"time_elapsed":555963,"internal_node_id":"0.0-8.0-3.61","subject":"89tjwumsgd28j96","sona":"6982"},{"rt":357.9100000206381,"stimulus":"<p>Bereit?</p>","key_press":32,"trial_type":"html-keyboard-response","trial_index":255,"time_elapsed":556323,"internal_node_id":"0.0-8.0-0.62","subject":"89tjwumsgd28j96","sona":"6982"},{"rt":null,"stimulus":"<div style=\"font-size:60px;\">+</div>","key_press":null,"trial_type":"html-keyboard-response","trial_index":256,"time_elapsed":558325,"internal_node_id":"0.0-8.0-1.62","subject":"89tjwumsgd28j96","sona":"6982"},{"trial_type":"turing-test","trial_index":257,"time_elapsed":564037,"internal_node_id":"0.0-8.0-2.62","subject":"89tjwumsgd28j96","sona":"6982"},{"rt":387.6950000412762,"stimulus":"<p>Welche Sequenz haben Sie als natürlicher empfunden?</p>","key_press":74,"test_part":"response","test_stimulus":{"position":1,"left":"bvh/vr_prediction_models/model(dmp)-dataset(pass-bottle)-npsi(10)-hold(3)/final-lines.txt","right":"bvh/pass-bottle-training3-lines.txt","att_check":false},"trial_type":"html-keyboard-response","trial_index":258,"time_elapsed":564427,"internal_node_id":"0.0-8.0-3.62","subject":"89tjwumsgd28j96","sona":"6982"},{"rt":758.0500000622123,"stimulus":"<p>Bereit?</p>","key_press":32,"trial_type":"html-keyboard-response","trial_index":259,"time_elapsed":565187,"internal_node_id":"0.0-8.0-0.63","subject":"89tjwumsgd28j96","sona":"6982"},{"rt":null,"stimulus":"<div style=\"font-size:60px;\">+</div>","key_press":null,"trial_type":"html-keyboard-response","trial_index":260,"time_elapsed":567190,"internal_node_id":"0.0-8.0-1.63","subject":"89tjwumsgd28j96","sona":"6982"},{"trial_type":"turing-test","trial_index":261,"time_elapsed":572558,"internal_node_id":"0.0-8.0-2.63","subject":"89tjwumsgd28j96","sona":"6982"},{"rt":1723.3100000303239,"stimulus":"<p>Welche Sequenz haben Sie als natürlicher empfunden?</p>","key_press":74,"test_part":"response","test_stimulus":{"position":0,"left":"bvh/pass-bottle-training1-lines.txt","right":"bvh/vr_prediction_models/model(vcgpdm)-dataset(pass-bottle)-mode(ELBO)-parts(1)-dyn(25)-lvm(35)-hold(1)/final-lines.txt","att_check":false},"trial_type":"html-keyboard-response","trial_index":262,"time_elapsed":574283,"internal_node_id":"0.0-8.0-3.63","subject":"89tjwumsgd28j96","sona":"6982"},{"rt":213.90500012785196,"stimulus":"<p>Bereit?</p>","key_press":32,"trial_type":"html-keyboard-response","trial_index":263,"time_elapsed":574499,"internal_node_id":"0.0-8.0-0.64","subject":"89tjwumsgd28j96","sona":"6982"},{"rt":null,"stimulus":"<div style=\"font-size:60px;\">+</div>","key_press":null,"trial_type":"html-keyboard-response","trial_index":264,"time_elapsed":576502,"internal_node_id":"0.0-8.0-1.64","subject":"89tjwumsgd28j96","sona":"6982"},{"trial_type":"turing-test","trial_index":265,"time_elapsed":580468,"internal_node_id":"0.0-8.0-2.64","subject":"89tjwumsgd28j96","sona":"6982"},{"rt":12.92000012472272,"stimulus":"<p>Welche Sequenz haben Sie als natürlicher empfunden?</p>","key_press":70,"test_part":"response","test_stimulus":{"position":0,"left":"bvh/return-bottle-hold-training4-lines.txt","right":"bvh/vr_prediction_models/model(vcgpdm)-dataset(return-bottle-hold)-mode(ELBO)-parts(1)-dyn(30)-lvm(30)-hold(4)/final-lines.txt","att_check":false},"trial_type":"html-keyboard-response","trial_index":266,"time_elapsed":580483,"internal_node_id":"0.0-8.0-3.64","subject":"89tjwumsgd28j96","sona":"6982"},{"rt":367.06000007689,"stimulus":"<p>Bereit?</p>","key_press":32,"trial_type":"html-keyboard-response","trial_index":267,"time_elapsed":580851,"internal_node_id":"0.0-8.0-0.65","subject":"89tjwumsgd28j96","sona":"6982"},{"rt":null,"stimulus":"<div style=\"font-size:60px;\">+</div>","key_press":null,"trial_type":"html-keyboard-response","trial_index":268,"time_elapsed":582853,"internal_node_id":"0.0-8.0-1.65","subject":"89tjwumsgd28j96","sona":"6982"},{"trial_type":"turing-test","trial_index":269,"time_elapsed":588444,"internal_node_id":"0.0-8.0-2.65","subject":"89tjwumsgd28j96","sona":"6982"},{"rt":548.7599999178201,"stimulus":"<p>Welche Sequenz haben Sie als natürlicher empfunden?</p>","key_press":74,"test_part":"response","test_stimulus":{"position":0,"left":"bvh/return-bottle-training3-lines.txt","right":"bvh/vr_prediction_models/model(dmp)-dataset(return-bottle)-npsi(80)-hold(3)/final-lines.txt","att_check":false},"trial_type":"html-keyboard-response","trial_index":270,"time_elapsed":588995,"internal_node_id":"0.0-8.0-3.65","subject":"89tjwumsgd28j96","sona":"6982"},{"rt":230.574999935925,"stimulus":"<p>Bereit?</p>","key_press":32,"trial_type":"html-keyboard-response","trial_index":271,"time_elapsed":589227,"internal_node_id":"0.0-8.0-0.66","subject":"89tjwumsgd28j96","sona":"6982"},{"rt":null,"stimulus":"<div style=\"font-size:60px;\">+</div>","key_press":null,"trial_type":"html-keyboard-response","trial_index":272,"time_elapsed":591230,"internal_node_id":"0.0-8.0-1.66","subject":"89tjwumsgd28j96","sona":"6982"},{"trial_type":"turing-test","trial_index":273,"time_elapsed":594873,"internal_node_id":"0.0-8.0-2.66","subject":"89tjwumsgd28j96","sona":"6982"},{"rt":551.5850000083447,"stimulus":"<p>Welche Sequenz haben Sie als natürlicher empfunden?</p>","key_press":70,"test_part":"response","test_stimulus":{"position":0,"left":"bvh/return-bottle-hold-training4-lines.txt","right":"bvh/vr_prediction_models/model(vcgpdm)-dataset(return-bottle-hold)-mode(ELBO)-parts(1)-dyn(10)-lvm(25)-hold(4)/final-lines.txt","att_check":false},"trial_type":"html-keyboard-response","trial_index":274,"time_elapsed":595427,"internal_node_id":"0.0-8.0-3.66","subject":"89tjwumsgd28j96","sona":"6982"},{"rt":294.2399999592453,"stimulus":"<p>Bereit?</p>","key_press":32,"trial_type":"html-keyboard-response","trial_index":275,"time_elapsed":595723,"internal_node_id":"0.0-8.0-0.67","subject":"89tjwumsgd28j96","sona":"6982"},{"rt":null,"stimulus":"<div style=\"font-size:60px;\">+</div>","key_press":null,"trial_type":"html-keyboard-response","trial_index":276,"time_elapsed":597725,"internal_node_id":"0.0-8.0-1.67","subject":"89tjwumsgd28j96","sona":"6982"},{"trial_type":"turing-test","trial_index":277,"time_elapsed":603698,"internal_node_id":"0.0-8.0-2.67","subject":"89tjwumsgd28j96","sona":"6982"},{"rt":439.45499998517334,"stimulus":"<p>Welche Sequenz haben Sie als natürlicher empfunden?</p>","key_press":74,"test_part":"response","test_stimulus":{"position":1,"left":"bvh/vr_prediction_models/model(vcgpdm)-dataset(pass-bottle)-mode(MAP)-parts(3)-hold(2)/final-lines.txt","right":"bvh/pass-bottle-training2-lines.txt","att_check":false},"trial_type":"html-keyboard-response","trial_index":278,"time_elapsed":604139,"internal_node_id":"0.0-8.0-3.67","subject":"89tjwumsgd28j96","sona":"6982"},{"rt":358.3100000396371,"stimulus":"<p>Bereit?</p>","key_press":32,"trial_type":"html-keyboard-response","trial_index":279,"time_elapsed":604499,"internal_node_id":"0.0-8.0-0.68","subject":"89tjwumsgd28j96","sona":"6982"},{"rt":null,"stimulus":"<div style=\"font-size:60px;\">+</div>","key_press":null,"trial_type":"html-keyboard-response","trial_index":280,"time_elapsed":606501,"internal_node_id":"0.0-8.0-1.68","subject":"89tjwumsgd28j96","sona":"6982"},{"trial_type":"turing-test","trial_index":281,"time_elapsed":612132,"internal_node_id":"0.0-8.0-2.68","subject":"89tjwumsgd28j96","sona":"6982"},{"rt":556.7049998790026,"stimulus":"<p>Welche Sequenz haben Sie als natürlicher empfunden?</p>","key_press":74,"test_part":"response","test_stimulus":{"position":0,"left":"bvh/return-bottle-training4-lines.txt","right":"bvh/vr_prediction_models/model(tmp)-dataset(return-bottle)-numprim(8)-hold(4)/final-lines.txt","att_check":false},"trial_type":"html-keyboard-response","trial_index":282,"time_elapsed":612691,"internal_node_id":"0.0-8.0-3.68","subject":"89tjwumsgd28j96","sona":"6982"},{"rt":422.0000000204891,"stimulus":"<p>Bereit?</p>","key_press":32,"trial_type":"html-keyboard-response","trial_index":283,"time_elapsed":613115,"internal_node_id":"0.0-8.0-0.69","subject":"89tjwumsgd28j96","sona":"6982"},{"rt":null,"stimulus":"<div style=\"font-size:60px;\">+</div>","key_press":null,"trial_type":"html-keyboard-response","trial_index":284,"time_elapsed":615117,"internal_node_id":"0.0-8.0-1.69","subject":"89tjwumsgd28j96","sona":"6982"},{"trial_type":"turing-test","trial_index":285,"time_elapsed":620800,"internal_node_id":"0.0-8.0-2.69","subject":"89tjwumsgd28j96","sona":"6982"},{"rt":745.5700000282377,"stimulus":"<p>Welche Sequenz haben Sie als natürlicher empfunden?</p>","key_press":74,"test_part":"response","test_stimulus":{"position":1,"left":"bvh/vr_prediction_models/model(vcgpdm)-dataset(pass-bottle)-mode(ELBO)-parts(3)-dyn(30)-lvm(15)-hold(4)/final-lines.txt","right":"bvh/pass-bottle-training4-lines.txt","att_check":false},"trial_type":"html-keyboard-response","trial_index":286,"time_elapsed":621547,"internal_node_id":"0.0-8.0-3.69","subject":"89tjwumsgd28j96","sona":"6982"},{"rt":5190.2000000700355,"stimulus":"<p>Bereit?</p>","key_press":32,"trial_type":"html-keyboard-response","trial_index":287,"time_elapsed":626739,"internal_node_id":"0.0-8.0-0.70","subject":"89tjwumsgd28j96","sona":"6982"},{"rt":null,"stimulus":"<div style=\"font-size:60px;\">+</div>","key_press":null,"trial_type":"html-keyboard-response","trial_index":288,"time_elapsed":628742,"internal_node_id":"0.0-8.0-1.70","subject":"89tjwumsgd28j96","sona":"6982"},{"trial_type":"turing-test","trial_index":289,"time_elapsed":632325,"internal_node_id":"0.0-8.0-2.70","subject":"89tjwumsgd28j96","sona":"6982"},{"rt":1252.814999781549,"stimulus":"<p>Welche Sequenz haben Sie als natürlicher empfunden?</p>","key_press":70,"test_part":"response","test_stimulus":{"position":0,"left":"bvh/return-bottle-hold-training4-lines.txt","right":"bvh/vr_prediction_models/model(dmp)-dataset(return-bottle-hold)-npsi(90)-hold(4)/final-lines.txt","att_check":false},"trial_type":"html-keyboard-response","trial_index":290,"time_elapsed":633579,"internal_node_id":"0.0-8.0-3.70","subject":"89tjwumsgd28j96","sona":"6982"},{"rt":389.5500001963228,"stimulus":"<p>Bereit?</p>","key_press":32,"trial_type":"html-keyboard-response","trial_index":291,"time_elapsed":633971,"internal_node_id":"0.0-8.0-0.71","subject":"89tjwumsgd28j96","sona":"6982"},{"rt":null,"stimulus":"<div style=\"font-size:60px;\">+</div>","key_press":null,"trial_type":"html-keyboard-response","trial_index":292,"time_elapsed":635973,"internal_node_id":"0.0-8.0-1.71","subject":"89tjwumsgd28j96","sona":"6982"},{"trial_type":"turing-test","trial_index":293,"time_elapsed":641563,"internal_node_id":"0.0-8.0-2.71","subject":"89tjwumsgd28j96","sona":"6982"},{"rt":1510.0299997720867,"stimulus":"<p>Welche Sequenz haben Sie als natürlicher empfunden?</p>","key_press":74,"test_part":"response","test_stimulus":{"position":1,"left":"bvh/vr_prediction_models/model(dmp)-dataset(pass-bottle)-npsi(90)-hold(4)/final-lines.txt","right":"bvh/pass-bottle-training4-lines.txt","att_check":false},"trial_type":"html-keyboard-response","trial_index":294,"time_elapsed":643075,"internal_node_id":"0.0-8.0-3.71","subject":"89tjwumsgd28j96","sona":"6982"},{"rt":429.7899999655783,"stimulus":"<p>Bereit?</p>","key_press":32,"trial_type":"html-keyboard-response","trial_index":295,"time_elapsed":643507,"internal_node_id":"0.0-8.0-0.72","subject":"89tjwumsgd28j96","sona":"6982"},{"rt":null,"stimulus":"<div style=\"font-size:60px;\">+</div>","key_press":null,"trial_type":"html-keyboard-response","trial_index":296,"time_elapsed":645510,"internal_node_id":"0.0-8.0-1.72","subject":"89tjwumsgd28j96","sona":"6982"},{"trial_type":"turing-test","trial_index":297,"time_elapsed":650824,"internal_node_id":"0.0-8.0-2.72","subject":"89tjwumsgd28j96","sona":"6982"},{"rt":442.005000077188,"stimulus":"<p>Welche Sequenz haben Sie als natürlicher empfunden?</p>","key_press":70,"test_part":"response","test_stimulus":{"position":0,"left":"bvh/pass-bottle-training1-lines.txt","right":"bvh/vr_prediction_models/model(dmp)-dataset(pass-bottle)-npsi(20)-hold(1)/final-lines.txt","att_check":false},"trial_type":"html-keyboard-response","trial_index":298,"time_elapsed":651267,"internal_node_id":"0.0-8.0-3.72","subject":"89tjwumsgd28j96","sona":"6982"},{"rt":445.59499993920326,"stimulus":"<p>Bereit?</p>","key_press":32,"trial_type":"html-keyboard-response","trial_index":299,"time_elapsed":651715,"internal_node_id":"0.0-8.0-0.73","subject":"89tjwumsgd28j96","sona":"6982"},{"rt":null,"stimulus":"<div style=\"font-size:60px;\">+</div>","key_press":null,"trial_type":"html-keyboard-response","trial_index":300,"time_elapsed":653717,"internal_node_id":"0.0-8.0-1.73","subject":"89tjwumsgd28j96","sona":"6982"},{"trial_type":"turing-test","trial_index":301,"time_elapsed":657243,"internal_node_id":"0.0-8.0-2.73","subject":"89tjwumsgd28j96","sona":"6982"},{"rt":629.6900000888854,"stimulus":"<p>Welche Sequenz haben Sie als natürlicher empfunden?</p>","key_press":74,"test_part":"response","test_stimulus":{"position":1,"left":"bvh/vr_prediction_models/model(vcgpdm)-dataset(pass-bottle-hold)-mode(ELBO)-parts(1)-dyn(10)-lvm(5)-hold(4)/final-lines.txt","right":"bvh/pass-bottle-hold-training4-lines.txt","att_check":false},"trial_type":"html-keyboard-response","trial_index":302,"time_elapsed":657875,"internal_node_id":"0.0-8.0-3.73","subject":"89tjwumsgd28j96","sona":"6982"},{"rt":246.66499998420477,"stimulus":"<p>Bereit?</p>","key_press":32,"trial_type":"html-keyboard-response","trial_index":303,"time_elapsed":658123,"internal_node_id":"0.0-8.0-0.74","subject":"89tjwumsgd28j96","sona":"6982"},{"rt":null,"stimulus":"<div style=\"font-size:60px;\">+</div>","key_press":null,"trial_type":"html-keyboard-response","trial_index":304,"time_elapsed":660125,"internal_node_id":"0.0-8.0-1.74","subject":"89tjwumsgd28j96","sona":"6982"},{"trial_type":"turing-test","trial_index":305,"time_elapsed":663756,"internal_node_id":"0.0-8.0-2.74","subject":"89tjwumsgd28j96","sona":"6982"},{"rt":1068.8199999276549,"stimulus":"<p>Welche Sequenz haben Sie als natürlicher empfunden?</p>","key_press":70,"test_part":"response","test_stimulus":{"position":0,"left":"bvh/return-bottle-hold-training4-lines.txt","right":"bvh/vr_prediction_models/model(dmp)-dataset(return-bottle-hold)-npsi(70)-hold(4)/final-lines.txt","att_check":false},"trial_type":"html-keyboard-response","trial_index":306,"time_elapsed":664827,"internal_node_id":"0.0-8.0-3.74","subject":"89tjwumsgd28j96","sona":"6982"},{"rt":341.8050000909716,"stimulus":"<p>Bereit?</p>","key_press":32,"trial_type":"html-keyboard-response","trial_index":307,"time_elapsed":665171,"internal_node_id":"0.0-8.0-0.75","subject":"89tjwumsgd28j96","sona":"6982"},{"rt":null,"stimulus":"<div style=\"font-size:60px;\">+</div>","key_press":null,"trial_type":"html-keyboard-response","trial_index":308,"time_elapsed":667172,"internal_node_id":"0.0-8.0-1.75","subject":"89tjwumsgd28j96","sona":"6982"},{"trial_type":"turing-test","trial_index":309,"time_elapsed":670757,"internal_node_id":"0.0-8.0-2.75","subject":"89tjwumsgd28j96","sona":"6982"},{"rt":932.3799998965114,"stimulus":"<p>Welche Sequenz haben Sie als natürlicher empfunden?</p>","key_press":70,"test_part":"response","test_stimulus":{"position":0,"left":"bvh/return-bottle-hold-training4-lines.txt","right":"bvh/vr_prediction_models/model(dmp)-dataset(return-bottle-hold)-npsi(20)-hold(4)/final-lines.txt","att_check":true},"trial_type":"html-keyboard-response","trial_index":310,"time_elapsed":671691,"internal_node_id":"0.0-8.0-3.75","subject":"89tjwumsgd28j96","sona":"6982"},{"rt":398.05999980308115,"stimulus":"<p>Bereit?</p>","key_press":32,"trial_type":"html-keyboard-response","trial_index":311,"time_elapsed":672091,"internal_node_id":"0.0-8.0-0.76","subject":"89tjwumsgd28j96","sona":"6982"},{"rt":null,"stimulus":"<div style=\"font-size:60px;\">+</div>","key_press":null,"trial_type":"html-keyboard-response","trial_index":312,"time_elapsed":674097,"internal_node_id":"0.0-8.0-1.76","subject":"89tjwumsgd28j96","sona":"6982"},{"trial_type":"turing-test","trial_index":313,"time_elapsed":677302,"internal_node_id":"0.0-8.0-2.76","subject":"89tjwumsgd28j96","sona":"6982"},{"rt":442.0199999585748,"stimulus":"<p>Welche Sequenz haben Sie als natürlicher empfunden?</p>","key_press":70,"test_part":"response","test_stimulus":{"position":0,"left":"bvh/return-bottle-hold-training1-lines.txt","right":"bvh/vr_prediction_models/model(tmp)-dataset(return-bottle-hold)-numprim(3)-hold(1)/final-lines.txt","att_check":false},"trial_type":"html-keyboard-response","trial_index":314,"time_elapsed":677747,"internal_node_id":"0.0-8.0-3.76","subject":"89tjwumsgd28j96","sona":"6982"},{"rt":325.6800000090152,"stimulus":"<p>Bereit?</p>","key_press":32,"trial_type":"html-keyboard-response","trial_index":315,"time_elapsed":678074,"internal_node_id":"0.0-8.0-0.77","subject":"89tjwumsgd28j96","sona":"6982"},{"rt":null,"stimulus":"<div style=\"font-size:60px;\">+</div>","key_press":null,"trial_type":"html-keyboard-response","trial_index":316,"time_elapsed":680077,"internal_node_id":"0.0-8.0-1.77","subject":"89tjwumsgd28j96","sona":"6982"},{"trial_type":"turing-test","trial_index":317,"time_elapsed":685755,"internal_node_id":"0.0-8.0-2.77","subject":"89tjwumsgd28j96","sona":"6982"},{"rt":468.800000147894,"stimulus":"<p>Welche Sequenz haben Sie als natürlicher empfunden?</p>","key_press":74,"test_part":"response","test_stimulus":{"position":0,"left":"bvh/pass-bottle-training4-lines.txt","right":"bvh/vr_prediction_models/model(vcgpdm)-dataset(pass-bottle)-mode(ELBO)-parts(1)-dyn(30)-lvm(20)-hold(4)/final-lines.txt","att_check":false},"trial_type":"html-keyboard-response","trial_index":318,"time_elapsed":686226,"internal_node_id":"0.0-8.0-3.77","subject":"89tjwumsgd28j96","sona":"6982"},{"rt":238.2049998268485,"stimulus":"<p>Bereit?</p>","key_press":32,"trial_type":"html-keyboard-response","trial_index":319,"time_elapsed":686466,"internal_node_id":"0.0-8.0-0.78","subject":"89tjwumsgd28j96","sona":"6982"},{"rt":null,"stimulus":"<div style=\"font-size:60px;\">+</div>","key_press":null,"trial_type":"html-keyboard-response","trial_index":320,"time_elapsed":688468,"internal_node_id":"0.0-8.0-1.78","subject":"89tjwumsgd28j96","sona":"6982"},{"trial_type":"turing-test","trial_index":321,"time_elapsed":691729,"internal_node_id":"0.0-8.0-2.78","subject":"89tjwumsgd28j96","sona":"6982"},{"rt":367.1200000680983,"stimulus":"<p>Welche Sequenz haben Sie als natürlicher empfunden?</p>","key_press":70,"test_part":"response","test_stimulus":{"position":0,"left":"bvh/return-bottle-hold-training1-lines.txt","right":"bvh/vr_prediction_models/model(vcgpdm)-dataset(return-bottle-hold)-mode(ELBO)-parts(1)-dyn(10)-lvm(25)-hold(1)/final-lines.txt","att_check":false},"trial_type":"html-keyboard-response","trial_index":322,"time_elapsed":692098,"internal_node_id":"0.0-8.0-3.78","subject":"89tjwumsgd28j96","sona":"6982"},{"rt":245.74499996379018,"stimulus":"<p>Bereit?</p>","key_press":32,"trial_type":"html-keyboard-response","trial_index":323,"time_elapsed":692346,"internal_node_id":"0.0-8.0-0.79","subject":"89tjwumsgd28j96","sona":"6982"},{"rt":null,"stimulus":"<div style=\"font-size:60px;\">+</div>","key_press":null,"trial_type":"html-keyboard-response","trial_index":324,"time_elapsed":694349,"internal_node_id":"0.0-8.0-1.79","subject":"89tjwumsgd28j96","sona":"6982"},{"trial_type":"turing-test","trial_index":325,"time_elapsed":700268,"internal_node_id":"0.0-8.0-2.79","subject":"89tjwumsgd28j96","sona":"6982"},{"rt":444.0300001297146,"stimulus":"<p>Welche Sequenz haben Sie als natürlicher empfunden?</p>","key_press":74,"test_part":"response","test_stimulus":{"position":1,"left":"bvh/vr_prediction_models/model(tmp)-dataset(return-bottle)-numprim(6)-hold(1)/final-lines.txt","right":"bvh/return-bottle-training1-lines.txt","att_check":false},"trial_type":"html-keyboard-response","trial_index":326,"time_elapsed":700714,"internal_node_id":"0.0-8.0-3.79","subject":"89tjwumsgd28j96","sona":"6982"},{"rt":7146.580000175163,"responses":"{\"age\":\"25\",\"gender\":\"männlich\"}","trial_type":"survey-text","trial_index":327,"time_elapsed":707867,"internal_node_id":"0.0-10.0-0.0","subject":"89tjwumsgd28j96","sona":"6982"},{"rt":33624.59000013769,"responses":"{\"area\":\"Arme, Rücken\",\"Q1\":\"langsame, gleichmäßige Bewegung\",\"Q2\":\"kleine Bewegungen des Rückens und der Beine\"}","trial_type":"survey-text","trial_index":328,"time_elapsed":741499,"internal_node_id":"0.0-10.0-1.0","subject":"89tjwumsgd28j96","sona":"6982"}]