[{"rt":1734.7849999787286,"stimulus":"<p>Welcome!<br> Please choose your language to start the experiment in the chosen language.</p><p>Willkommen!<br> Bitte wählen Sie eine Sprache, um das Experiment in der ausgewählten Sprache zu starten</p>","button_pressed":"1","trial_type":"html-button-response","trial_index":0,"time_elapsed":1761,"internal_node_id":"0.0-0.0","subject":"wdd0gyo17999kok","sona":"8698"},{"view_history":"[{\"page_index\":0,\"viewing_time\":2270.2649999409914},{\"page_index\":1,\"viewing_time\":1458.0000001005828},{\"page_index\":2,\"viewing_time\":1660.494999960065},{\"page_index\":3,\"viewing_time\":1566.995000001043},{\"page_index\":4,\"viewing_time\":1930.6499999947846}]","rt":8887.4599999981,"trial_type":"instructions","trial_index":1,"time_elapsed":10650,"internal_node_id":"0.0-1.0-0.0","subject":"wdd0gyo17999kok","sona":"8698"},{"rt":1209.8600000608712,"stimulus":"<p>Bereit?</p>","key_press":32,"trial_type":"html-keyboard-response","trial_index":2,"time_elapsed":11862,"internal_node_id":"0.0-3.0","subject":"wdd0gyo17999kok","sona":"8698"},{"rt":null,"stimulus":"<div style=\"font-size:60px;\">+</div>","key_press":null,"trial_type":"html-keyboard-response","trial_index":3,"time_elapsed":13866,"internal_node_id":"0.0-4.0","subject":"wdd0gyo17999kok","sona":"8698"},{"trial_type":"training","trial_index":4,"time_elapsed":17154,"internal_node_id":"0.0-5.0","subject":"wdd0gyo17999kok","sona":"8698"},{"rt":417.3549999250099,"stimulus":"<p>Welche Sequenz haben Sie als natürlicher empfunden?</p>","key_press":70,"trial_type":"html-keyboard-response","trial_index":5,"time_elapsed":17574,"internal_node_id":"0.0-6.0","subject":"wdd0gyo17999kok","sona":"8698"},{"rt":2319.4300000322983,"stimulus":"<p>Das Experiment startet nun.</p><p><small>Bitte drücken Sie den Knopf, wenn Sie bereit sind.</small></p>","button_pressed":"0","trial_type":"html-button-response","trial_index":6,"time_elapsed":19896,"internal_node_id":"0.0-7.0","subject":"wdd0gyo17999kok","sona":"8698"},{"rt":1514.7799999685958,"stimulus":"<p>Bereit?</p>","key_press":32,"trial_type":"html-keyboard-response","trial_index":7,"time_elapsed":21412,"internal_node_id":"0.0-8.0-0.0","subject":"wdd0gyo17999kok","sona":"8698"},{"rt":null,"stimulus":"<div style=\"font-size:60px;\">+</div>","key_press":null,"trial_type":"html-keyboard-response","trial_index":8,"time_elapsed":23423,"internal_node_id":"0.0-8.0-1.0","subject":"wdd0gyo17999kok","sona":"8698"},{"trial_type":"turing-test","trial_index":9,"time_elapsed":31007,"internal_node_id":"0.0-8.0-2.0","subject":"wdd0gyo17999kok","sona":"8698"},{"rt":482.08500002510846,"stimulus":"<p>Welche Sequenz haben Sie als natürlicher empfunden?</p>","key_press":74,"test_part":"response","test_stimulus":{"position":1,"left":"bvh/vr_prediction_models/model(dmp)-dataset(return-bottle)-npsi(100)-hold(1)/final-lines.txt","right":"bvh/return-bottle-training1-lines.txt","att_check":false},"trial_type":"html-keyboard-response","trial_index":10,"time_elapsed":31495,"internal_node_id":"0.0-8.0-3.0","subject":"wdd0gyo17999kok","sona":"8698"},{"rt":343.44500000588596,"stimulus":"<p>Bereit?</p>","key_press":32,"trial_type":"html-keyboard-response","trial_index":11,"time_elapsed":31843,"internal_node_id":"0.0-8.0-0.1","subject":"wdd0gyo17999kok","sona":"8698"},{"rt":null,"stimulus":"<div style=\"font-size:60px;\">+</div>","key_press":null,"trial_type":"html-keyboard-response","trial_index":12,"time_elapsed":33868,"internal_node_id":"0.0-8.0-1.1","subject":"wdd0gyo17999kok","sona":"8698"},{"trial_type":"turing-test","trial_index":13,"time_elapsed":37624,"internal_node_id":"0.0-8.0-2.1","subject":"wdd0gyo17999kok","sona":"8698"},{"rt":404.5449999393895,"stimulus":"<p>Welche Sequenz haben Sie als natürlicher empfunden?</p>","key_press":70,"test_part":"response","test_stimulus":{"position":0,"left":"bvh/pass-bottle-hold-training3-lines.txt","right":"bvh/vr_prediction_models/model(tmp)-dataset(pass-bottle-hold)-numprim(4)-hold(3)/final-lines.txt","att_check":false},"trial_type":"html-keyboard-response","trial_index":14,"time_elapsed":38036,"internal_node_id":"0.0-8.0-3.1","subject":"wdd0gyo17999kok","sona":"8698"},{"rt":277.39499998278916,"stimulus":"<p>Bereit?</p>","key_press":32,"trial_type":"html-keyboard-response","trial_index":15,"time_elapsed":38318,"internal_node_id":"0.0-8.0-0.2","subject":"wdd0gyo17999kok","sona":"8698"},{"rt":null,"stimulus":"<div style=\"font-size:60px;\">+</div>","key_press":null,"trial_type":"html-keyboard-response","trial_index":16,"time_elapsed":40334,"internal_node_id":"0.0-8.0-1.2","subject":"wdd0gyo17999kok","sona":"8698"},{"trial_type":"turing-test","trial_index":17,"time_elapsed":44125,"internal_node_id":"0.0-8.0-2.2","subject":"wdd0gyo17999kok","sona":"8698"},{"rt":284.07500009052455,"stimulus":"<p>Welche Sequenz haben Sie als natürlicher empfunden?</p>","key_press":74,"test_part":"response","test_stimulus":{"position":1,"left":"bvh/vr_prediction_models/model(vcgpdm)-dataset(pass-bottle-hold)-mode(ELBO)-parts(1)-dyn(35)-lvm(30)-hold(3)/final-lines.txt","right":"bvh/pass-bottle-hold-training3-lines.txt","att_check":false},"trial_type":"html-keyboard-response","trial_index":18,"time_elapsed":44416,"internal_node_id":"0.0-8.0-3.2","subject":"wdd0gyo17999kok","sona":"8698"},{"rt":284.21000007074326,"stimulus":"<p>Bereit?</p>","key_press":32,"trial_type":"html-keyboard-response","trial_index":19,"time_elapsed":44704,"internal_node_id":"0.0-8.0-0.3","subject":"wdd0gyo17999kok","sona":"8698"},{"rt":null,"stimulus":"<div style=\"font-size:60px;\">+</div>","key_press":null,"trial_type":"html-keyboard-response","trial_index":20,"time_elapsed":46718,"internal_node_id":"0.0-8.0-1.3","subject":"wdd0gyo17999kok","sona":"8698"},{"trial_type":"turing-test","trial_index":21,"time_elapsed":50557,"internal_node_id":"0.0-8.0-2.3","subject":"wdd0gyo17999kok","sona":"8698"},{"rt":406.8099999567494,"stimulus":"<p>Welche Sequenz haben Sie als natürlicher empfunden?</p>","key_press":70,"test_part":"response","test_stimulus":{"position":0,"left":"bvh/return-bottle-hold-training3-lines.txt","right":"bvh/vr_prediction_models/model(vcgpdm)-dataset(return-bottle-hold)-mode(ELBO)-parts(3)-dyn(20)-lvm(35)-hold(3)/final-lines.txt","att_check":false},"trial_type":"html-keyboard-response","trial_index":22,"time_elapsed":50971,"internal_node_id":"0.0-8.0-3.3","subject":"wdd0gyo17999kok","sona":"8698"},{"rt":259.0000000782311,"stimulus":"<p>Bereit?</p>","key_press":32,"trial_type":"html-keyboard-response","trial_index":23,"time_elapsed":51235,"internal_node_id":"0.0-8.0-0.4","subject":"wdd0gyo17999kok","sona":"8698"},{"rt":null,"stimulus":"<div style=\"font-size:60px;\">+</div>","key_press":null,"trial_type":"html-keyboard-response","trial_index":24,"time_elapsed":53252,"internal_node_id":"0.0-8.0-1.4","subject":"wdd0gyo17999kok","sona":"8698"},{"trial_type":"turing-test","trial_index":25,"time_elapsed":57183,"internal_node_id":"0.0-8.0-2.4","subject":"wdd0gyo17999kok","sona":"8698"},{"rt":415.48000008333474,"stimulus":"<p>Welche Sequenz haben Sie als natürlicher empfunden?</p>","key_press":74,"test_part":"response","test_stimulus":{"position":0,"left":"bvh/pass-bottle-hold-training4-lines.txt","right":"bvh/vr_prediction_models/model(dmp)-dataset(pass-bottle-hold)-npsi(90)-hold(4)/final-lines.txt","att_check":false},"trial_type":"html-keyboard-response","trial_index":26,"time_elapsed":57603,"internal_node_id":"0.0-8.0-3.4","subject":"wdd0gyo17999kok","sona":"8698"},{"rt":270.0900000054389,"stimulus":"<p>Bereit?</p>","key_press":32,"trial_type":"html-keyboard-response","trial_index":27,"time_elapsed":57879,"internal_node_id":"0.0-8.0-0.5","subject":"wdd0gyo17999kok","sona":"8698"},{"rt":null,"stimulus":"<div style=\"font-size:60px;\">+</div>","key_press":null,"trial_type":"html-keyboard-response","trial_index":28,"time_elapsed":59894,"internal_node_id":"0.0-8.0-1.5","subject":"wdd0gyo17999kok","sona":"8698"},{"trial_type":"turing-test","trial_index":29,"time_elapsed":63575,"internal_node_id":"0.0-8.0-2.5","subject":"wdd0gyo17999kok","sona":"8698"},{"rt":293.50499995052814,"stimulus":"<p>Welche Sequenz haben Sie als natürlicher empfunden?</p>","key_press":74,"test_part":"response","test_stimulus":{"position":1,"left":"bvh/vr_prediction_models/model(tmp)-dataset(return-bottle-hold)-numprim(7)-hold(3)/final-lines.txt","right":"bvh/return-bottle-hold-training3-lines.txt","att_check":false},"trial_type":"html-keyboard-response","trial_index":30,"time_elapsed":63874,"internal_node_id":"0.0-8.0-3.5","subject":"wdd0gyo17999kok","sona":"8698"},{"rt":285.0199999520555,"stimulus":"<p>Bereit?</p>","key_press":32,"trial_type":"html-keyboard-response","trial_index":31,"time_elapsed":64164,"internal_node_id":"0.0-8.0-0.6","subject":"wdd0gyo17999kok","sona":"8698"},{"rt":null,"stimulus":"<div style=\"font-size:60px;\">+</div>","key_press":null,"trial_type":"html-keyboard-response","trial_index":32,"time_elapsed":66173,"internal_node_id":"0.0-8.0-1.6","subject":"wdd0gyo17999kok","sona":"8698"},{"trial_type":"turing-test","trial_index":33,"time_elapsed":71573,"internal_node_id":"0.0-8.0-2.6","subject":"wdd0gyo17999kok","sona":"8698"},{"rt":409.59499997552484,"stimulus":"<p>Welche Sequenz haben Sie als natürlicher empfunden?</p>","key_press":70,"test_part":"response","test_stimulus":{"position":0,"left":"bvh/return-bottle-training0-lines.txt","right":"bvh/vr_prediction_models/model(vcgpdm)-dataset(return-bottle)-mode(ELBO)-parts(1)-dyn(10)-lvm(25)-hold(0)/final-lines.txt","att_check":false},"trial_type":"html-keyboard-response","trial_index":34,"time_elapsed":71991,"internal_node_id":"0.0-8.0-3.6","subject":"wdd0gyo17999kok","sona":"8698"},{"rt":308.70000005234033,"stimulus":"<p>Bereit?</p>","key_press":32,"trial_type":"html-keyboard-response","trial_index":35,"time_elapsed":72304,"internal_node_id":"0.0-8.0-0.7","subject":"wdd0gyo17999kok","sona":"8698"},{"rt":null,"stimulus":"<div style=\"font-size:60px;\">+</div>","key_press":null,"trial_type":"html-keyboard-response","trial_index":36,"time_elapsed":74310,"internal_node_id":"0.0-8.0-1.7","subject":"wdd0gyo17999kok","sona":"8698"},{"trial_type":"turing-test","trial_index":37,"time_elapsed":80747,"internal_node_id":"0.0-8.0-2.7","subject":"wdd0gyo17999kok","sona":"8698"},{"rt":420.06999999284744,"stimulus":"<p>Welche Sequenz haben Sie als natürlicher empfunden?</p>","key_press":70,"test_part":"response","test_stimulus":{"position":0,"left":"bvh/pass-bottle-training2-lines.txt","right":"bvh/vr_prediction_models/model(tmp)-dataset(pass-bottle)-numprim(8)-hold(2)/final-lines.txt","att_check":false},"trial_type":"html-keyboard-response","trial_index":38,"time_elapsed":81177,"internal_node_id":"0.0-8.0-3.7","subject":"wdd0gyo17999kok","sona":"8698"},{"rt":291.88999999314547,"stimulus":"<p>Bereit?</p>","key_press":32,"trial_type":"html-keyboard-response","trial_index":39,"time_elapsed":81474,"internal_node_id":"0.0-8.0-0.8","subject":"wdd0gyo17999kok","sona":"8698"},{"rt":null,"stimulus":"<div style=\"font-size:60px;\">+</div>","key_press":null,"trial_type":"html-keyboard-response","trial_index":40,"time_elapsed":83492,"internal_node_id":"0.0-8.0-1.8","subject":"wdd0gyo17999kok","sona":"8698"},{"trial_type":"turing-test","trial_index":41,"time_elapsed":86936,"internal_node_id":"0.0-8.0-2.8","subject":"wdd0gyo17999kok","sona":"8698"},{"rt":403.09500007424504,"stimulus":"<p>Welche Sequenz haben Sie als natürlicher empfunden?</p>","key_press":74,"test_part":"response","test_stimulus":{"position":1,"left":"bvh/vr_prediction_models/model(vcgpdm)-dataset(return-bottle-hold)-mode(ELBO)-parts(3)-dyn(20)-lvm(20)-hold(1)/final-lines.txt","right":"bvh/return-bottle-hold-training1-lines.txt","att_check":false},"trial_type":"html-keyboard-response","trial_index":42,"time_elapsed":87344,"internal_node_id":"0.0-8.0-3.8","subject":"wdd0gyo17999kok","sona":"8698"},{"rt":270.1949999900535,"stimulus":"<p>Bereit?</p>","key_press":32,"trial_type":"html-keyboard-response","trial_index":43,"time_elapsed":87619,"internal_node_id":"0.0-8.0-0.9","subject":"wdd0gyo17999kok","sona":"8698"},{"rt":null,"stimulus":"<div style=\"font-size:60px;\">+</div>","key_press":null,"trial_type":"html-keyboard-response","trial_index":44,"time_elapsed":89630,"internal_node_id":"0.0-8.0-1.9","subject":"wdd0gyo17999kok","sona":"8698"},{"trial_type":"turing-test","trial_index":45,"time_elapsed":93530,"internal_node_id":"0.0-8.0-2.9","subject":"wdd0gyo17999kok","sona":"8698"},{"rt":291.8999999528751,"stimulus":"<p>Welche Sequenz haben Sie als natürlicher empfunden?</p>","key_press":70,"test_part":"response","test_stimulus":{"position":0,"left":"bvh/return-bottle-hold-training3-lines.txt","right":"bvh/vr_prediction_models/model(vcgpdm)-dataset(return-bottle-hold)-mode(ELBO)-parts(3)-dyn(25)-lvm(30)-hold(3)/final-lines.txt","att_check":false},"trial_type":"html-keyboard-response","trial_index":46,"time_elapsed":93828,"internal_node_id":"0.0-8.0-3.9","subject":"wdd0gyo17999kok","sona":"8698"},{"rt":135.2650000480935,"stimulus":"<p>Bereit?</p>","key_press":32,"trial_type":"html-keyboard-response","trial_index":47,"time_elapsed":93968,"internal_node_id":"0.0-8.0-0.10","subject":"wdd0gyo17999kok","sona":"8698"},{"rt":null,"stimulus":"<div style=\"font-size:60px;\">+</div>","key_press":null,"trial_type":"html-keyboard-response","trial_index":48,"time_elapsed":95989,"internal_node_id":"0.0-8.0-1.10","subject":"wdd0gyo17999kok","sona":"8698"},{"trial_type":"turing-test","trial_index":49,"time_elapsed":99454,"internal_node_id":"0.0-8.0-2.10","subject":"wdd0gyo17999kok","sona":"8698"},{"rt":266.60999993328005,"stimulus":"<p>Welche Sequenz haben Sie als natürlicher empfunden?</p>","key_press":70,"test_part":"response","test_stimulus":{"position":0,"left":"bvh/return-bottle-hold-training1-lines.txt","right":"bvh/vr_prediction_models/model(vcgpdm)-dataset(return-bottle-hold)-mode(ELBO)-parts(3)-dyn(20)-lvm(35)-hold(1)/final-lines.txt","att_check":false},"trial_type":"html-keyboard-response","trial_index":50,"time_elapsed":99728,"internal_node_id":"0.0-8.0-3.10","subject":"wdd0gyo17999kok","sona":"8698"},{"rt":217.30499994009733,"stimulus":"<p>Bereit?</p>","key_press":32,"trial_type":"html-keyboard-response","trial_index":51,"time_elapsed":99949,"internal_node_id":"0.0-8.0-0.11","subject":"wdd0gyo17999kok","sona":"8698"},{"rt":null,"stimulus":"<div style=\"font-size:60px;\">+</div>","key_press":null,"trial_type":"html-keyboard-response","trial_index":52,"time_elapsed":101973,"internal_node_id":"0.0-8.0-1.11","subject":"wdd0gyo17999kok","sona":"8698"},{"trial_type":"turing-test","trial_index":53,"time_elapsed":107814,"internal_node_id":"0.0-8.0-2.11","subject":"wdd0gyo17999kok","sona":"8698"},{"rt":300.1599999843165,"stimulus":"<p>Welche Sequenz haben Sie als natürlicher empfunden?</p>","key_press":70,"test_part":"response","test_stimulus":{"position":0,"left":"bvh/return-bottle-training4-lines.txt","right":"bvh/vr_prediction_models/model(vcgpdm)-dataset(return-bottle)-mode(ELBO)-parts(1)-dyn(30)-lvm(20)-hold(4)/final-lines.txt","att_check":false},"trial_type":"html-keyboard-response","trial_index":54,"time_elapsed":108122,"internal_node_id":"0.0-8.0-3.11","subject":"wdd0gyo17999kok","sona":"8698"},{"rt":207.45500002522022,"stimulus":"<p>Bereit?</p>","key_press":32,"trial_type":"html-keyboard-response","trial_index":55,"time_elapsed":108334,"internal_node_id":"0.0-8.0-0.12","subject":"wdd0gyo17999kok","sona":"8698"},{"rt":null,"stimulus":"<div style=\"font-size:60px;\">+</div>","key_press":null,"trial_type":"html-keyboard-response","trial_index":56,"time_elapsed":110363,"internal_node_id":"0.0-8.0-1.12","subject":"wdd0gyo17999kok","sona":"8698"},{"trial_type":"turing-test","trial_index":57,"time_elapsed":117021,"internal_node_id":"0.0-8.0-2.12","subject":"wdd0gyo17999kok","sona":"8698"},{"rt":297.75999998673797,"stimulus":"<p>Welche Sequenz haben Sie als natürlicher empfunden?</p>","key_press":70,"test_part":"response","test_stimulus":{"position":0,"left":"bvh/pass-bottle-training4-lines.txt","right":"bvh/vr_prediction_models/model(vcgpdm)-dataset(pass-bottle)-mode(ELBO)-parts(3)-dyn(25)-lvm(30)-hold(4)/final-lines.txt","att_check":false},"trial_type":"html-keyboard-response","trial_index":58,"time_elapsed":117325,"internal_node_id":"0.0-8.0-3.12","subject":"wdd0gyo17999kok","sona":"8698"},{"rt":195.24999998975545,"stimulus":"<p>Bereit?</p>","key_press":32,"trial_type":"html-keyboard-response","trial_index":59,"time_elapsed":117525,"internal_node_id":"0.0-8.0-0.13","subject":"wdd0gyo17999kok","sona":"8698"},{"rt":null,"stimulus":"<div style=\"font-size:60px;\">+</div>","key_press":null,"trial_type":"html-keyboard-response","trial_index":60,"time_elapsed":119533,"internal_node_id":"0.0-8.0-1.13","subject":"wdd0gyo17999kok","sona":"8698"},{"trial_type":"turing-test","trial_index":61,"time_elapsed":125784,"internal_node_id":"0.0-8.0-2.13","subject":"wdd0gyo17999kok","sona":"8698"},{"rt":433.2799999974668,"stimulus":"<p>Welche Sequenz haben Sie als natürlicher empfunden?</p>","key_press":74,"test_part":"response","test_stimulus":{"position":1,"left":"bvh/vr_prediction_models/model(vcgpdm)-dataset(return-bottle)-mode(ELBO)-parts(3)-dyn(15)-lvm(30)-hold(3)/final-lines.txt","right":"bvh/return-bottle-training3-lines.txt","att_check":false},"trial_type":"html-keyboard-response","trial_index":62,"time_elapsed":126224,"internal_node_id":"0.0-8.0-3.13","subject":"wdd0gyo17999kok","sona":"8698"},{"rt":269.0900000743568,"stimulus":"<p>Bereit?</p>","key_press":32,"trial_type":"html-keyboard-response","trial_index":63,"time_elapsed":126498,"internal_node_id":"0.0-8.0-0.14","subject":"wdd0gyo17999kok","sona":"8698"},{"rt":null,"stimulus":"<div style=\"font-size:60px;\">+</div>","key_press":null,"trial_type":"html-keyboard-response","trial_index":64,"time_elapsed":128503,"internal_node_id":"0.0-8.0-1.14","subject":"wdd0gyo17999kok","sona":"8698"},{"trial_type":"turing-test","trial_index":65,"time_elapsed":134324,"internal_node_id":"0.0-8.0-2.14","subject":"wdd0gyo17999kok","sona":"8698"},{"rt":308.8149999966845,"stimulus":"<p>Welche Sequenz haben Sie als natürlicher empfunden?</p>","key_press":70,"test_part":"response","test_stimulus":{"position":0,"left":"bvh/return-bottle-training3-lines.txt","right":"bvh/vr_prediction_models/model(vcgpdm)-dataset(return-bottle)-mode(ELBO)-parts(3)-dyn(10)-lvm(25)-hold(3)/final-lines.txt","att_check":false},"trial_type":"html-keyboard-response","trial_index":66,"time_elapsed":134639,"internal_node_id":"0.0-8.0-3.14","subject":"wdd0gyo17999kok","sona":"8698"},{"rt":194.59500000812113,"stimulus":"<p>Bereit?</p>","key_press":32,"trial_type":"html-keyboard-response","trial_index":67,"time_elapsed":134842,"internal_node_id":"0.0-8.0-0.15","subject":"wdd0gyo17999kok","sona":"8698"},{"rt":null,"stimulus":"<div style=\"font-size:60px;\">+</div>","key_press":null,"trial_type":"html-keyboard-response","trial_index":68,"time_elapsed":136854,"internal_node_id":"0.0-8.0-1.15","subject":"wdd0gyo17999kok","sona":"8698"},{"trial_type":"turing-test","trial_index":69,"time_elapsed":142747,"internal_node_id":"0.0-8.0-2.15","subject":"wdd0gyo17999kok","sona":"8698"},{"rt":253.56500002089888,"stimulus":"<p>Welche Sequenz haben Sie als natürlicher empfunden?</p>","key_press":74,"test_part":"response","test_stimulus":{"position":1,"left":"bvh/vr_prediction_models/model(vcgpdm)-dataset(return-bottle)-mode(ELBO)-parts(3)-dyn(10)-lvm(25)-hold(0)/final-lines.txt","right":"bvh/return-bottle-training0-lines.txt","att_check":false},"trial_type":"html-keyboard-response","trial_index":70,"time_elapsed":143008,"internal_node_id":"0.0-8.0-3.15","subject":"wdd0gyo17999kok","sona":"8698"},{"rt":215.7700000097975,"stimulus":"<p>Bereit?</p>","key_press":32,"trial_type":"html-keyboard-response","trial_index":71,"time_elapsed":143228,"internal_node_id":"0.0-8.0-0.16","subject":"wdd0gyo17999kok","sona":"8698"},{"rt":null,"stimulus":"<div style=\"font-size:60px;\">+</div>","key_press":null,"trial_type":"html-keyboard-response","trial_index":72,"time_elapsed":145251,"internal_node_id":"0.0-8.0-1.16","subject":"wdd0gyo17999kok","sona":"8698"},{"trial_type":"turing-test","trial_index":73,"time_elapsed":150768,"internal_node_id":"0.0-8.0-2.16","subject":"wdd0gyo17999kok","sona":"8698"},{"rt":283.9699999894947,"stimulus":"<p>Welche Sequenz haben Sie als natürlicher empfunden?</p>","key_press":70,"test_part":"response","test_stimulus":{"position":0,"left":"bvh/return-bottle-training0-lines.txt","right":"bvh/vr_prediction_models/model(tmp)-dataset(return-bottle)-numprim(15)-hold(0)/final-lines.txt","att_check":false},"trial_type":"html-keyboard-response","trial_index":74,"time_elapsed":151059,"internal_node_id":"0.0-8.0-3.16","subject":"wdd0gyo17999kok","sona":"8698"},{"rt":125.62499998603016,"stimulus":"<p>Bereit?</p>","key_press":32,"trial_type":"html-keyboard-response","trial_index":75,"time_elapsed":151190,"internal_node_id":"0.0-8.0-0.17","subject":"wdd0gyo17999kok","sona":"8698"},{"rt":null,"stimulus":"<div style=\"font-size:60px;\">+</div>","key_press":null,"trial_type":"html-keyboard-response","trial_index":76,"time_elapsed":153206,"internal_node_id":"0.0-8.0-1.17","subject":"wdd0gyo17999kok","sona":"8698"},{"trial_type":"turing-test","trial_index":77,"time_elapsed":156846,"internal_node_id":"0.0-8.0-2.17","subject":"wdd0gyo17999kok","sona":"8698"},{"rt":566.5250000311062,"stimulus":"<p>Welche Sequenz haben Sie als natürlicher empfunden?</p>","key_press":70,"test_part":"response","test_stimulus":{"position":1,"left":"bvh/vr_prediction_models/model(vcgpdm)-dataset(pass-bottle-hold)-mode(ELBO)-parts(3)-dyn(15)-lvm(30)-hold(2)/final-lines.txt","right":"bvh/pass-bottle-hold-training2-lines.txt","att_check":false},"trial_type":"html-keyboard-response","trial_index":78,"time_elapsed":157420,"internal_node_id":"0.0-8.0-3.17","subject":"wdd0gyo17999kok","sona":"8698"},{"rt":148.09500006958842,"stimulus":"<p>Bereit?</p>","key_press":32,"trial_type":"html-keyboard-response","trial_index":79,"time_elapsed":157573,"internal_node_id":"0.0-8.0-0.18","subject":"wdd0gyo17999kok","sona":"8698"},{"rt":null,"stimulus":"<div style=\"font-size:60px;\">+</div>","key_press":null,"trial_type":"html-keyboard-response","trial_index":80,"time_elapsed":159589,"internal_node_id":"0.0-8.0-1.18","subject":"wdd0gyo17999kok","sona":"8698"},{"trial_type":"turing-test","trial_index":81,"time_elapsed":166755,"internal_node_id":"0.0-8.0-2.18","subject":"wdd0gyo17999kok","sona":"8698"},{"rt":360.42499996256083,"stimulus":"<p>Welche Sequenz haben Sie als natürlicher empfunden?</p>","key_press":74,"test_part":"response","test_stimulus":{"position":1,"left":"bvh/vr_prediction_models/model(dmp)-dataset(pass-bottle)-npsi(20)-hold(3)/final-lines.txt","right":"bvh/pass-bottle-training3-lines.txt","att_check":false},"trial_type":"html-keyboard-response","trial_index":82,"time_elapsed":167121,"internal_node_id":"0.0-8.0-3.18","subject":"wdd0gyo17999kok","sona":"8698"},{"rt":270.0549999717623,"stimulus":"<p>Bereit?</p>","key_press":32,"trial_type":"html-keyboard-response","trial_index":83,"time_elapsed":167396,"internal_node_id":"0.0-8.0-0.19","subject":"wdd0gyo17999kok","sona":"8698"},{"rt":null,"stimulus":"<div style=\"font-size:60px;\">+</div>","key_press":null,"trial_type":"html-keyboard-response","trial_index":84,"time_elapsed":169418,"internal_node_id":"0.0-8.0-1.19","subject":"wdd0gyo17999kok","sona":"8698"},{"trial_type":"turing-test","trial_index":85,"time_elapsed":172699,"internal_node_id":"0.0-8.0-2.19","subject":"wdd0gyo17999kok","sona":"8698"},{"rt":579.4049999676645,"stimulus":"<p>Welche Sequenz haben Sie als natürlicher empfunden?</p>","key_press":74,"test_part":"response","test_stimulus":{"position":1,"left":"bvh/vr_prediction_models/model(dmp)-dataset(return-bottle-hold)-npsi(80)-hold(1)/final-lines.txt","right":"bvh/return-bottle-hold-training1-lines.txt","att_check":true},"trial_type":"html-keyboard-response","trial_index":86,"time_elapsed":173284,"internal_node_id":"0.0-8.0-3.19","subject":"wdd0gyo17999kok","sona":"8698"},{"rt":282.1049999911338,"stimulus":"<p>Bereit?</p>","key_press":32,"trial_type":"html-keyboard-response","trial_index":87,"time_elapsed":173572,"internal_node_id":"0.0-8.0-0.20","subject":"wdd0gyo17999kok","sona":"8698"},{"rt":null,"stimulus":"<div style=\"font-size:60px;\">+</div>","key_press":null,"trial_type":"html-keyboard-response","trial_index":88,"time_elapsed":175582,"internal_node_id":"0.0-8.0-1.20","subject":"wdd0gyo17999kok","sona":"8698"},{"trial_type":"turing-test","trial_index":89,"time_elapsed":183854,"internal_node_id":"0.0-8.0-2.20","subject":"wdd0gyo17999kok","sona":"8698"},{"rt":426.57000001054257,"stimulus":"<p>Welche Sequenz haben Sie als natürlicher empfunden?</p>","key_press":74,"test_part":"response","test_stimulus":{"position":1,"left":"bvh/vr_prediction_models/model(vcgpdm)-dataset(pass-bottle)-mode(ELBO)-parts(3)-dyn(25)-lvm(25)-hold(2)/final-lines.txt","right":"bvh/pass-bottle-training2-lines.txt","att_check":false},"trial_type":"html-keyboard-response","trial_index":90,"time_elapsed":184289,"internal_node_id":"0.0-8.0-3.20","subject":"wdd0gyo17999kok","sona":"8698"},{"rt":263.73000000603497,"stimulus":"<p>Bereit?</p>","key_press":32,"trial_type":"html-keyboard-response","trial_index":91,"time_elapsed":184557,"internal_node_id":"0.0-8.0-0.21","subject":"wdd0gyo17999kok","sona":"8698"},{"rt":null,"stimulus":"<div style=\"font-size:60px;\">+</div>","key_press":null,"trial_type":"html-keyboard-response","trial_index":92,"time_elapsed":186570,"internal_node_id":"0.0-8.0-1.21","subject":"wdd0gyo17999kok","sona":"8698"},{"trial_type":"turing-test","trial_index":93,"time_elapsed":194394,"internal_node_id":"0.0-8.0-2.21","subject":"wdd0gyo17999kok","sona":"8698"},{"rt":575.5200000712648,"stimulus":"<p>Welche Sequenz haben Sie als natürlicher empfunden?</p>","key_press":74,"test_part":"response","test_stimulus":{"position":1,"left":"bvh/vr_prediction_models/model(vcgpdm)-dataset(pass-bottle)-mode(ELBO)-parts(3)-dyn(20)-lvm(20)-hold(0)/final-lines.txt","right":"bvh/pass-bottle-training0-lines.txt","att_check":false},"trial_type":"html-keyboard-response","trial_index":94,"time_elapsed":194977,"internal_node_id":"0.0-8.0-3.21","subject":"wdd0gyo17999kok","sona":"8698"},{"rt":281.34500002488494,"stimulus":"<p>Bereit?</p>","key_press":32,"trial_type":"html-keyboard-response","trial_index":95,"time_elapsed":195264,"internal_node_id":"0.0-8.0-0.22","subject":"wdd0gyo17999kok","sona":"8698"},{"rt":null,"stimulus":"<div style=\"font-size:60px;\">+</div>","key_press":null,"trial_type":"html-keyboard-response","trial_index":96,"time_elapsed":197271,"internal_node_id":"0.0-8.0-1.22","subject":"wdd0gyo17999kok","sona":"8698"},{"trial_type":"turing-test","trial_index":97,"time_elapsed":201083,"internal_node_id":"0.0-8.0-2.22","subject":"wdd0gyo17999kok","sona":"8698"},{"rt":224.2599999299273,"stimulus":"<p>Welche Sequenz haben Sie als natürlicher empfunden?</p>","key_press":70,"test_part":"response","test_stimulus":{"position":0,"left":"bvh/pass-bottle-hold-training3-lines.txt","right":"bvh/vr_prediction_models/model(tmp)-dataset(pass-bottle-hold)-numprim(9)-hold(3)/final-lines.txt","att_check":false},"trial_type":"html-keyboard-response","trial_index":98,"time_elapsed":201315,"internal_node_id":"0.0-8.0-3.22","subject":"wdd0gyo17999kok","sona":"8698"},{"rt":179.72500005271286,"stimulus":"<p>Bereit?</p>","key_press":32,"trial_type":"html-keyboard-response","trial_index":99,"time_elapsed":201500,"internal_node_id":"0.0-8.0-0.23","subject":"wdd0gyo17999kok","sona":"8698"},{"rt":null,"stimulus":"<div style=\"font-size:60px;\">+</div>","key_press":null,"trial_type":"html-keyboard-response","trial_index":100,"time_elapsed":203515,"internal_node_id":"0.0-8.0-1.23","subject":"wdd0gyo17999kok","sona":"8698"},{"trial_type":"turing-test","trial_index":101,"time_elapsed":210466,"internal_node_id":"0.0-8.0-2.23","subject":"wdd0gyo17999kok","sona":"8698"},{"rt":337.41499995812774,"stimulus":"<p>Welche Sequenz haben Sie als natürlicher empfunden?</p>","key_press":74,"test_part":"response","test_stimulus":{"position":1,"left":"bvh/vr_prediction_models/model(vcgpdm)-dataset(pass-bottle)-mode(ELBO)-parts(1)-dyn(35)-lvm(30)-hold(0)/final-lines.txt","right":"bvh/pass-bottle-training0-lines.txt","att_check":false},"trial_type":"html-keyboard-response","trial_index":102,"time_elapsed":210812,"internal_node_id":"0.0-8.0-3.23","subject":"wdd0gyo17999kok","sona":"8698"},{"rt":259.08000010531396,"stimulus":"<p>Bereit?</p>","key_press":32,"trial_type":"html-keyboard-response","trial_index":103,"time_elapsed":211076,"internal_node_id":"0.0-8.0-0.24","subject":"wdd0gyo17999kok","sona":"8698"},{"rt":null,"stimulus":"<div style=\"font-size:60px;\">+</div>","key_press":null,"trial_type":"html-keyboard-response","trial_index":104,"time_elapsed":213090,"internal_node_id":"0.0-8.0-1.24","subject":"wdd0gyo17999kok","sona":"8698"},{"trial_type":"turing-test","trial_index":105,"time_elapsed":216371,"internal_node_id":"0.0-8.0-2.24","subject":"wdd0gyo17999kok","sona":"8698"},{"rt":485.8900000108406,"stimulus":"<p>Welche Sequenz haben Sie als natürlicher empfunden?</p>","key_press":70,"test_part":"response","test_stimulus":{"position":0,"left":"bvh/pass-bottle-hold-training1-lines.txt","right":"bvh/vr_prediction_models/model(dmp)-dataset(pass-bottle-hold)-npsi(10)-hold(1)/final-lines.txt","att_check":false},"trial_type":"html-keyboard-response","trial_index":106,"time_elapsed":216863,"internal_node_id":"0.0-8.0-3.24","subject":"wdd0gyo17999kok","sona":"8698"},{"rt":137.56499998271465,"stimulus":"<p>Bereit?</p>","key_press":32,"trial_type":"html-keyboard-response","trial_index":107,"time_elapsed":217008,"internal_node_id":"0.0-8.0-0.25","subject":"wdd0gyo17999kok","sona":"8698"},{"rt":null,"stimulus":"<div style=\"font-size:60px;\">+</div>","key_press":null,"trial_type":"html-keyboard-response","trial_index":108,"time_elapsed":219032,"internal_node_id":"0.0-8.0-1.25","subject":"wdd0gyo17999kok","sona":"8698"},{"trial_type":"turing-test","trial_index":109,"time_elapsed":225746,"internal_node_id":"0.0-8.0-2.25","subject":"wdd0gyo17999kok","sona":"8698"},{"rt":345.06999992299825,"stimulus":"<p>Welche Sequenz haben Sie als natürlicher empfunden?</p>","key_press":74,"test_part":"response","test_stimulus":{"position":1,"left":"bvh/vr_prediction_models/model(dmp)-dataset(pass-bottle)-npsi(50)-hold(0)/final-lines.txt","right":"bvh/pass-bottle-training0-lines.txt","att_check":true},"trial_type":"html-keyboard-response","trial_index":110,"time_elapsed":226100,"internal_node_id":"0.0-8.0-3.25","subject":"wdd0gyo17999kok","sona":"8698"},{"rt":255.52499992772937,"stimulus":"<p>Bereit?</p>","key_press":32,"trial_type":"html-keyboard-response","trial_index":111,"time_elapsed":226361,"internal_node_id":"0.0-8.0-0.26","subject":"wdd0gyo17999kok","sona":"8698"},{"rt":null,"stimulus":"<div style=\"font-size:60px;\">+</div>","key_press":null,"trial_type":"html-keyboard-response","trial_index":112,"time_elapsed":228369,"internal_node_id":"0.0-8.0-1.26","subject":"wdd0gyo17999kok","sona":"8698"},{"trial_type":"turing-test","trial_index":113,"time_elapsed":235104,"internal_node_id":"0.0-8.0-2.26","subject":"wdd0gyo17999kok","sona":"8698"},{"rt":434.5549999270588,"stimulus":"<p>Welche Sequenz haben Sie als natürlicher empfunden?</p>","key_press":74,"test_part":"response","test_stimulus":{"position":1,"left":"bvh/vr_prediction_models/model(vcgpdm)-dataset(pass-bottle)-mode(ELBO)-parts(1)-dyn(20)-lvm(5)-hold(0)/final-lines.txt","right":"bvh/pass-bottle-training0-lines.txt","att_check":false},"trial_type":"html-keyboard-response","trial_index":114,"time_elapsed":235548,"internal_node_id":"0.0-8.0-3.26","subject":"wdd0gyo17999kok","sona":"8698"},{"rt":208.98499991744757,"stimulus":"<p>Bereit?</p>","key_press":32,"trial_type":"html-keyboard-response","trial_index":115,"time_elapsed":235763,"internal_node_id":"0.0-8.0-0.27","subject":"wdd0gyo17999kok","sona":"8698"},{"rt":null,"stimulus":"<div style=\"font-size:60px;\">+</div>","key_press":null,"trial_type":"html-keyboard-response","trial_index":116,"time_elapsed":237783,"internal_node_id":"0.0-8.0-1.27","subject":"wdd0gyo17999kok","sona":"8698"},{"trial_type":"turing-test","trial_index":117,"time_elapsed":244554,"internal_node_id":"0.0-8.0-2.27","subject":"wdd0gyo17999kok","sona":"8698"},{"rt":414.13499996997416,"stimulus":"<p>Welche Sequenz haben Sie als natürlicher empfunden?</p>","key_press":70,"test_part":"response","test_stimulus":{"position":0,"left":"bvh/pass-bottle-training0-lines.txt","right":"bvh/vr_prediction_models/model(tmp)-dataset(pass-bottle)-numprim(7)-hold(0)/final-lines.txt","att_check":false},"trial_type":"html-keyboard-response","trial_index":118,"time_elapsed":244976,"internal_node_id":"0.0-8.0-3.27","subject":"wdd0gyo17999kok","sona":"8698"},{"rt":226.8950000870973,"stimulus":"<p>Bereit?</p>","key_press":32,"trial_type":"html-keyboard-response","trial_index":119,"time_elapsed":245209,"internal_node_id":"0.0-8.0-0.28","subject":"wdd0gyo17999kok","sona":"8698"},{"rt":null,"stimulus":"<div style=\"font-size:60px;\">+</div>","key_press":null,"trial_type":"html-keyboard-response","trial_index":120,"time_elapsed":247219,"internal_node_id":"0.0-8.0-1.28","subject":"wdd0gyo17999kok","sona":"8698"},{"trial_type":"turing-test","trial_index":121,"time_elapsed":253442,"internal_node_id":"0.0-8.0-2.28","subject":"wdd0gyo17999kok","sona":"8698"},{"rt":355.77000002376735,"stimulus":"<p>Welche Sequenz haben Sie als natürlicher empfunden?</p>","key_press":74,"test_part":"response","test_stimulus":{"position":0,"left":"bvh/return-bottle-training3-lines.txt","right":"bvh/vr_prediction_models/model(tmp)-dataset(return-bottle)-numprim(12)-hold(3)/final-lines.txt","att_check":false},"trial_type":"html-keyboard-response","trial_index":122,"time_elapsed":253805,"internal_node_id":"0.0-8.0-3.28","subject":"wdd0gyo17999kok","sona":"8698"},{"rt":305.4149999516085,"stimulus":"<p>Bereit?</p>","key_press":32,"trial_type":"html-keyboard-response","trial_index":123,"time_elapsed":254116,"internal_node_id":"0.0-8.0-0.29","subject":"wdd0gyo17999kok","sona":"8698"},{"rt":null,"stimulus":"<div style=\"font-size:60px;\">+</div>","key_press":null,"trial_type":"html-keyboard-response","trial_index":124,"time_elapsed":256148,"internal_node_id":"0.0-8.0-1.29","subject":"wdd0gyo17999kok","sona":"8698"},{"trial_type":"turing-test","trial_index":125,"time_elapsed":261908,"internal_node_id":"0.0-8.0-2.29","subject":"wdd0gyo17999kok","sona":"8698"},{"rt":391.8549999361858,"stimulus":"<p>Welche Sequenz haben Sie als natürlicher empfunden?</p>","key_press":70,"test_part":"response","test_stimulus":{"position":0,"left":"bvh/pass-bottle-training3-lines.txt","right":"bvh/vr_prediction_models/model(tmp)-dataset(pass-bottle)-numprim(7)-hold(3)/final-lines.txt","att_check":false},"trial_type":"html-keyboard-response","trial_index":126,"time_elapsed":262307,"internal_node_id":"0.0-8.0-3.29","subject":"wdd0gyo17999kok","sona":"8698"},{"rt":250.21000008564442,"stimulus":"<p>Bereit?</p>","key_press":32,"trial_type":"html-keyboard-response","trial_index":127,"time_elapsed":262566,"internal_node_id":"0.0-8.0-0.30","subject":"wdd0gyo17999kok","sona":"8698"},{"rt":null,"stimulus":"<div style=\"font-size:60px;\">+</div>","key_press":null,"trial_type":"html-keyboard-response","trial_index":128,"time_elapsed":264574,"internal_node_id":"0.0-8.0-1.30","subject":"wdd0gyo17999kok","sona":"8698"},{"trial_type":"turing-test","trial_index":129,"time_elapsed":270174,"internal_node_id":"0.0-8.0-2.30","subject":"wdd0gyo17999kok","sona":"8698"},{"rt":222.4350000033155,"stimulus":"<p>Welche Sequenz haben Sie als natürlicher empfunden?</p>","key_press":74,"test_part":"response","test_stimulus":{"position":1,"left":"bvh/vr_prediction_models/model(vcgpdm)-dataset(pass-bottle)-mode(ELBO)-parts(1)-dyn(20)-lvm(5)-hold(1)/final-lines.txt","right":"bvh/pass-bottle-training1-lines.txt","att_check":false},"trial_type":"html-keyboard-response","trial_index":130,"time_elapsed":270405,"internal_node_id":"0.0-8.0-3.30","subject":"wdd0gyo17999kok","sona":"8698"},{"rt":242.38499999046326,"stimulus":"<p>Bereit?</p>","key_press":32,"trial_type":"html-keyboard-response","trial_index":131,"time_elapsed":270653,"internal_node_id":"0.0-8.0-0.31","subject":"wdd0gyo17999kok","sona":"8698"},{"rt":null,"stimulus":"<div style=\"font-size:60px;\">+</div>","key_press":null,"trial_type":"html-keyboard-response","trial_index":132,"time_elapsed":272672,"internal_node_id":"0.0-8.0-1.31","subject":"wdd0gyo17999kok","sona":"8698"},{"trial_type":"turing-test","trial_index":133,"time_elapsed":278841,"internal_node_id":"0.0-8.0-2.31","subject":"wdd0gyo17999kok","sona":"8698"},{"rt":271.87500009313226,"stimulus":"<p>Welche Sequenz haben Sie als natürlicher empfunden?</p>","key_press":74,"test_part":"response","test_stimulus":{"position":1,"left":"bvh/vr_prediction_models/model(dmp)-dataset(pass-bottle)-npsi(40)-hold(2)/final-lines.txt","right":"bvh/pass-bottle-training2-lines.txt","att_check":false},"trial_type":"html-keyboard-response","trial_index":134,"time_elapsed":279123,"internal_node_id":"0.0-8.0-3.31","subject":"wdd0gyo17999kok","sona":"8698"},{"rt":286.6749999811873,"stimulus":"<p>Bereit?</p>","key_press":32,"trial_type":"html-keyboard-response","trial_index":135,"time_elapsed":279416,"internal_node_id":"0.0-8.0-0.32","subject":"wdd0gyo17999kok","sona":"8698"},{"rt":null,"stimulus":"<div style=\"font-size:60px;\">+</div>","key_press":null,"trial_type":"html-keyboard-response","trial_index":136,"time_elapsed":281438,"internal_node_id":"0.0-8.0-1.32","subject":"wdd0gyo17999kok","sona":"8698"},{"trial_type":"turing-test","trial_index":137,"time_elapsed":287644,"internal_node_id":"0.0-8.0-2.32","subject":"wdd0gyo17999kok","sona":"8698"},{"rt":431.76999990828335,"stimulus":"<p>Welche Sequenz haben Sie als natürlicher empfunden?</p>","key_press":74,"test_part":"response","test_stimulus":{"position":0,"left":"bvh/return-bottle-training1-lines.txt","right":"bvh/vr_prediction_models/model(vcgpdm)-dataset(return-bottle)-mode(ELBO)-parts(1)-dyn(30)-lvm(20)-hold(1)/final-lines.txt","att_check":false},"trial_type":"html-keyboard-response","trial_index":138,"time_elapsed":288086,"internal_node_id":"0.0-8.0-3.32","subject":"wdd0gyo17999kok","sona":"8698"},{"rt":204.85500001814216,"stimulus":"<p>Bereit?</p>","key_press":32,"trial_type":"html-keyboard-response","trial_index":139,"time_elapsed":288297,"internal_node_id":"0.0-8.0-0.33","subject":"wdd0gyo17999kok","sona":"8698"},{"rt":null,"stimulus":"<div style=\"font-size:60px;\">+</div>","key_press":null,"trial_type":"html-keyboard-response","trial_index":140,"time_elapsed":290316,"internal_node_id":"0.0-8.0-1.33","subject":"wdd0gyo17999kok","sona":"8698"},{"trial_type":"turing-test","trial_index":141,"time_elapsed":293902,"internal_node_id":"0.0-8.0-2.33","subject":"wdd0gyo17999kok","sona":"8698"},{"rt":845.7800000905991,"stimulus":"<p>Welche Sequenz haben Sie als natürlicher empfunden?</p>","key_press":70,"test_part":"response","test_stimulus":{"position":0,"left":"bvh/pass-bottle-hold-training4-lines.txt","right":"bvh/vr_prediction_models/model(tmp)-dataset(pass-bottle-hold)-numprim(13)-hold(4)/final-lines.txt","att_check":false},"trial_type":"html-keyboard-response","trial_index":142,"time_elapsed":294755,"internal_node_id":"0.0-8.0-3.33","subject":"wdd0gyo17999kok","sona":"8698"},{"rt":291.1900000181049,"stimulus":"<p>Bereit?</p>","key_press":32,"trial_type":"html-keyboard-response","trial_index":143,"time_elapsed":295052,"internal_node_id":"0.0-8.0-0.34","subject":"wdd0gyo17999kok","sona":"8698"},{"rt":null,"stimulus":"<div style=\"font-size:60px;\">+</div>","key_press":null,"trial_type":"html-keyboard-response","trial_index":144,"time_elapsed":297065,"internal_node_id":"0.0-8.0-1.34","subject":"wdd0gyo17999kok","sona":"8698"},{"trial_type":"turing-test","trial_index":145,"time_elapsed":302499,"internal_node_id":"0.0-8.0-2.34","subject":"wdd0gyo17999kok","sona":"8698"},{"rt":330.17999993171543,"stimulus":"<p>Welche Sequenz haben Sie als natürlicher empfunden?</p>","key_press":70,"test_part":"response","test_stimulus":{"position":0,"left":"bvh/pass-bottle-training1-lines.txt","right":"bvh/vr_prediction_models/model(vcgpdm)-dataset(pass-bottle)-mode(ELBO)-parts(3)-dyn(10)-lvm(30)-hold(1)/final-lines.txt","att_check":false},"trial_type":"html-keyboard-response","trial_index":146,"time_elapsed":302837,"internal_node_id":"0.0-8.0-3.34","subject":"wdd0gyo17999kok","sona":"8698"},{"rt":147.63000002130866,"stimulus":"<p>Bereit?</p>","key_press":32,"trial_type":"html-keyboard-response","trial_index":147,"time_elapsed":302990,"internal_node_id":"0.0-8.0-0.35","subject":"wdd0gyo17999kok","sona":"8698"},{"rt":null,"stimulus":"<div style=\"font-size:60px;\">+</div>","key_press":null,"trial_type":"html-keyboard-response","trial_index":148,"time_elapsed":305008,"internal_node_id":"0.0-8.0-1.35","subject":"wdd0gyo17999kok","sona":"8698"},{"trial_type":"turing-test","trial_index":149,"time_elapsed":308483,"internal_node_id":"0.0-8.0-2.35","subject":"wdd0gyo17999kok","sona":"8698"},{"rt":149.37999995891005,"stimulus":"<p>Welche Sequenz haben Sie als natürlicher empfunden?</p>","key_press":70,"test_part":"response","test_stimulus":{"position":0,"left":"bvh/pass-bottle-hold-training0-lines.txt","right":"bvh/vr_prediction_models/model(vcgpdm)-dataset(pass-bottle-hold)-mode(ELBO)-parts(1)-dyn(20)-lvm(5)-hold(0)/final-lines.txt","att_check":false},"trial_type":"html-keyboard-response","trial_index":150,"time_elapsed":308641,"internal_node_id":"0.0-8.0-3.35","subject":"wdd0gyo17999kok","sona":"8698"},{"rt":294.4399999687448,"stimulus":"<p>Bereit?</p>","key_press":32,"trial_type":"html-keyboard-response","trial_index":151,"time_elapsed":308943,"internal_node_id":"0.0-8.0-0.36","subject":"wdd0gyo17999kok","sona":"8698"},{"rt":null,"stimulus":"<div style=\"font-size:60px;\">+</div>","key_press":null,"trial_type":"html-keyboard-response","trial_index":152,"time_elapsed":310961,"internal_node_id":"0.0-8.0-1.36","subject":"wdd0gyo17999kok","sona":"8698"},{"trial_type":"turing-test","trial_index":153,"time_elapsed":314129,"internal_node_id":"0.0-8.0-2.36","subject":"wdd0gyo17999kok","sona":"8698"},{"rt":292.3700000392273,"stimulus":"<p>Welche Sequenz haben Sie als natürlicher empfunden?</p>","key_press":70,"test_part":"response","test_stimulus":{"position":0,"left":"bvh/pass-bottle-hold-training1-lines.txt","right":"bvh/vr_prediction_models/model(dmp)-dataset(pass-bottle-hold)-npsi(10)-hold(1)/final-lines.txt","att_check":true},"trial_type":"html-keyboard-response","trial_index":154,"time_elapsed":314428,"internal_node_id":"0.0-8.0-3.36","subject":"wdd0gyo17999kok","sona":"8698"},{"rt":149.29500001017004,"stimulus":"<p>Bereit?</p>","key_press":32,"trial_type":"html-keyboard-response","trial_index":155,"time_elapsed":314586,"internal_node_id":"0.0-8.0-0.37","subject":"wdd0gyo17999kok","sona":"8698"},{"rt":null,"stimulus":"<div style=\"font-size:60px;\">+</div>","key_press":null,"trial_type":"html-keyboard-response","trial_index":156,"time_elapsed":316594,"internal_node_id":"0.0-8.0-1.37","subject":"wdd0gyo17999kok","sona":"8698"},{"trial_type":"turing-test","trial_index":157,"time_elapsed":319798,"internal_node_id":"0.0-8.0-2.37","subject":"wdd0gyo17999kok","sona":"8698"},{"rt":231.04999994393438,"stimulus":"<p>Welche Sequenz haben Sie als natürlicher empfunden?</p>","key_press":70,"test_part":"response","test_stimulus":{"position":1,"left":"bvh/vr_prediction_models/model(dmp)-dataset(pass-bottle-hold)-npsi(20)-hold(1)/final-lines.txt","right":"bvh/pass-bottle-hold-training1-lines.txt","att_check":false},"trial_type":"html-keyboard-response","trial_index":158,"time_elapsed":320038,"internal_node_id":"0.0-8.0-3.37","subject":"wdd0gyo17999kok","sona":"8698"},{"rt":145.52000002004206,"stimulus":"<p>Bereit?</p>","key_press":32,"trial_type":"html-keyboard-response","trial_index":159,"time_elapsed":320190,"internal_node_id":"0.0-8.0-0.38","subject":"wdd0gyo17999kok","sona":"8698"},{"rt":null,"stimulus":"<div style=\"font-size:60px;\">+</div>","key_press":null,"trial_type":"html-keyboard-response","trial_index":160,"time_elapsed":322198,"internal_node_id":"0.0-8.0-1.38","subject":"wdd0gyo17999kok","sona":"8698"},{"trial_type":"turing-test","trial_index":161,"time_elapsed":329174,"internal_node_id":"0.0-8.0-2.38","subject":"wdd0gyo17999kok","sona":"8698"},{"rt":47.790000098757446,"stimulus":"<p>Welche Sequenz haben Sie als natürlicher empfunden?</p>","key_press":70,"test_part":"response","test_stimulus":{"position":0,"left":"bvh/pass-bottle-training0-lines.txt","right":"bvh/vr_prediction_models/model(tmp)-dataset(pass-bottle)-numprim(5)-hold(0)/final-lines.txt","att_check":false},"trial_type":"html-keyboard-response","trial_index":162,"time_elapsed":329233,"internal_node_id":"0.0-8.0-3.38","subject":"wdd0gyo17999kok","sona":"8698"},{"rt":250.8899999083951,"stimulus":"<p>Bereit?</p>","key_press":32,"trial_type":"html-keyboard-response","trial_index":163,"time_elapsed":329490,"internal_node_id":"0.0-8.0-0.39","subject":"wdd0gyo17999kok","sona":"8698"},{"rt":null,"stimulus":"<div style=\"font-size:60px;\">+</div>","key_press":null,"trial_type":"html-keyboard-response","trial_index":164,"time_elapsed":331497,"internal_node_id":"0.0-8.0-1.39","subject":"wdd0gyo17999kok","sona":"8698"},{"trial_type":"turing-test","trial_index":165,"time_elapsed":334995,"internal_node_id":"0.0-8.0-2.39","subject":"wdd0gyo17999kok","sona":"8698"},{"rt":158.5600000107661,"stimulus":"<p>Welche Sequenz haben Sie als natürlicher empfunden?</p>","key_press":74,"test_part":"response","test_stimulus":{"position":1,"left":"bvh/vr_prediction_models/model(vcgpdm)-dataset(return-bottle-hold)-mode(MAP)-parts(3)-hold(1)/final-lines.txt","right":"bvh/return-bottle-hold-training1-lines.txt","att_check":false},"trial_type":"html-keyboard-response","trial_index":166,"time_elapsed":335161,"internal_node_id":"0.0-8.0-3.39","subject":"wdd0gyo17999kok","sona":"8698"},{"rt":220.9449999500066,"stimulus":"<p>Bereit?</p>","key_press":32,"trial_type":"html-keyboard-response","trial_index":167,"time_elapsed":335390,"internal_node_id":"0.0-8.0-0.40","subject":"wdd0gyo17999kok","sona":"8698"},{"rt":null,"stimulus":"<div style=\"font-size:60px;\">+</div>","key_press":null,"trial_type":"html-keyboard-response","trial_index":168,"time_elapsed":337401,"internal_node_id":"0.0-8.0-1.40","subject":"wdd0gyo17999kok","sona":"8698"},{"trial_type":"turing-test","trial_index":169,"time_elapsed":340954,"internal_node_id":"0.0-8.0-2.40","subject":"wdd0gyo17999kok","sona":"8698"},{"rt":277.680000057444,"stimulus":"<p>Welche Sequenz haben Sie als natürlicher empfunden?</p>","key_press":70,"test_part":"response","test_stimulus":{"position":0,"left":"bvh/return-bottle-hold-training1-lines.txt","right":"bvh/vr_prediction_models/model(vcgpdm)-dataset(return-bottle-hold)-mode(ELBO)-parts(1)-dyn(35)-lvm(10)-hold(1)/final-lines.txt","att_check":false},"trial_type":"html-keyboard-response","trial_index":170,"time_elapsed":341240,"internal_node_id":"0.0-8.0-3.40","subject":"wdd0gyo17999kok","sona":"8698"},{"rt":144.6350000333041,"stimulus":"<p>Bereit?</p>","key_press":32,"trial_type":"html-keyboard-response","trial_index":171,"time_elapsed":341392,"internal_node_id":"0.0-8.0-0.41","subject":"wdd0gyo17999kok","sona":"8698"},{"rt":null,"stimulus":"<div style=\"font-size:60px;\">+</div>","key_press":null,"trial_type":"html-keyboard-response","trial_index":172,"time_elapsed":343417,"internal_node_id":"0.0-8.0-1.41","subject":"wdd0gyo17999kok","sona":"8698"},{"trial_type":"turing-test","trial_index":173,"time_elapsed":349539,"internal_node_id":"0.0-8.0-2.41","subject":"wdd0gyo17999kok","sona":"8698"},{"rt":681.4950000261888,"stimulus":"<p>Welche Sequenz haben Sie als natürlicher empfunden?</p>","key_press":74,"test_part":"response","test_stimulus":{"position":1,"left":"bvh/vr_prediction_models/model(tmp)-dataset(pass-bottle)-numprim(15)-hold(2)/final-lines.txt","right":"bvh/pass-bottle-training2-lines.txt","att_check":false},"trial_type":"html-keyboard-response","trial_index":174,"time_elapsed":350232,"internal_node_id":"0.0-8.0-3.41","subject":"wdd0gyo17999kok","sona":"8698"},{"rt":322.3650000290945,"stimulus":"<p>Bereit?</p>","key_press":32,"trial_type":"html-keyboard-response","trial_index":175,"time_elapsed":350561,"internal_node_id":"0.0-8.0-0.42","subject":"wdd0gyo17999kok","sona":"8698"},{"rt":null,"stimulus":"<div style=\"font-size:60px;\">+</div>","key_press":null,"trial_type":"html-keyboard-response","trial_index":176,"time_elapsed":352567,"internal_node_id":"0.0-8.0-1.42","subject":"wdd0gyo17999kok","sona":"8698"},{"trial_type":"turing-test","trial_index":177,"time_elapsed":356443,"internal_node_id":"0.0-8.0-2.42","subject":"wdd0gyo17999kok","sona":"8698"},{"rt":311.78500002715737,"stimulus":"<p>Welche Sequenz haben Sie als natürlicher empfunden?</p>","key_press":70,"test_part":"response","test_stimulus":{"position":0,"left":"bvh/return-bottle-hold-training4-lines.txt","right":"bvh/vr_prediction_models/model(vcgpdm)-dataset(return-bottle-hold)-mode(ELBO)-parts(3)-dyn(15)-lvm(30)-hold(4)/final-lines.txt","att_check":false},"trial_type":"html-keyboard-response","trial_index":178,"time_elapsed":356763,"internal_node_id":"0.0-8.0-3.42","subject":"wdd0gyo17999kok","sona":"8698"},{"rt":135.8100000070408,"stimulus":"<p>Bereit?</p>","key_press":32,"trial_type":"html-keyboard-response","trial_index":179,"time_elapsed":356908,"internal_node_id":"0.0-8.0-0.43","subject":"wdd0gyo17999kok","sona":"8698"},{"rt":null,"stimulus":"<div style=\"font-size:60px;\">+</div>","key_press":null,"trial_type":"html-keyboard-response","trial_index":180,"time_elapsed":358925,"internal_node_id":"0.0-8.0-1.43","subject":"wdd0gyo17999kok","sona":"8698"},{"trial_type":"turing-test","trial_index":181,"time_elapsed":364691,"internal_node_id":"0.0-8.0-2.43","subject":"wdd0gyo17999kok","sona":"8698"},{"rt":235.73999991640449,"stimulus":"<p>Welche Sequenz haben Sie als natürlicher empfunden?</p>","key_press":74,"test_part":"response","test_stimulus":{"position":1,"left":"bvh/vr_prediction_models/model(vcgpdm)-dataset(pass-bottle)-mode(ELBO)-parts(1)-dyn(20)-lvm(30)-hold(4)/final-lines.txt","right":"bvh/pass-bottle-training4-lines.txt","att_check":false},"trial_type":"html-keyboard-response","trial_index":182,"time_elapsed":364935,"internal_node_id":"0.0-8.0-3.43","subject":"wdd0gyo17999kok","sona":"8698"},{"rt":240.4049999313429,"stimulus":"<p>Bereit?</p>","key_press":32,"trial_type":"html-keyboard-response","trial_index":183,"time_elapsed":365182,"internal_node_id":"0.0-8.0-0.44","subject":"wdd0gyo17999kok","sona":"8698"},{"rt":null,"stimulus":"<div style=\"font-size:60px;\">+</div>","key_press":null,"trial_type":"html-keyboard-response","trial_index":184,"time_elapsed":367198,"internal_node_id":"0.0-8.0-1.44","subject":"wdd0gyo17999kok","sona":"8698"},{"trial_type":"turing-test","trial_index":185,"time_elapsed":373938,"internal_node_id":"0.0-8.0-2.44","subject":"wdd0gyo17999kok","sona":"8698"},{"rt":142.47000007890165,"stimulus":"<p>Welche Sequenz haben Sie als natürlicher empfunden?</p>","key_press":70,"test_part":"response","test_stimulus":{"position":0,"left":"bvh/return-bottle-training2-lines.txt","right":"bvh/vr_prediction_models/model(vcgpdm)-dataset(return-bottle)-mode(ELBO)-parts(3)-dyn(10)-lvm(25)-hold(2)/final-lines.txt","att_check":false},"trial_type":"html-keyboard-response","trial_index":186,"time_elapsed":374090,"internal_node_id":"0.0-8.0-3.44","subject":"wdd0gyo17999kok","sona":"8698"},{"rt":372.2299999790266,"stimulus":"<p>Bereit?</p>","key_press":32,"trial_type":"html-keyboard-response","trial_index":187,"time_elapsed":374471,"internal_node_id":"0.0-8.0-0.45","subject":"wdd0gyo17999kok","sona":"8698"},{"rt":null,"stimulus":"<div style=\"font-size:60px;\">+</div>","key_press":null,"trial_type":"html-keyboard-response","trial_index":188,"time_elapsed":376490,"internal_node_id":"0.0-8.0-1.45","subject":"wdd0gyo17999kok","sona":"8698"},{"trial_type":"turing-test","trial_index":189,"time_elapsed":382755,"internal_node_id":"0.0-8.0-2.45","subject":"wdd0gyo17999kok","sona":"8698"},{"rt":307.16999992728233,"stimulus":"<p>Welche Sequenz haben Sie als natürlicher empfunden?</p>","key_press":70,"test_part":"response","test_stimulus":{"position":0,"left":"bvh/pass-bottle-training2-lines.txt","right":"bvh/vr_prediction_models/model(tmp)-dataset(pass-bottle)-numprim(11)-hold(2)/final-lines.txt","att_check":false},"trial_type":"html-keyboard-response","trial_index":190,"time_elapsed":383075,"internal_node_id":"0.0-8.0-3.45","subject":"wdd0gyo17999kok","sona":"8698"},{"rt":347.7049999637529,"stimulus":"<p>Bereit?</p>","key_press":32,"trial_type":"html-keyboard-response","trial_index":191,"time_elapsed":383427,"internal_node_id":"0.0-8.0-0.46","subject":"wdd0gyo17999kok","sona":"8698"},{"rt":null,"stimulus":"<div style=\"font-size:60px;\">+</div>","key_press":null,"trial_type":"html-keyboard-response","trial_index":192,"time_elapsed":385434,"internal_node_id":"0.0-8.0-1.46","subject":"wdd0gyo17999kok","sona":"8698"},{"trial_type":"turing-test","trial_index":193,"time_elapsed":389060,"internal_node_id":"0.0-8.0-2.46","subject":"wdd0gyo17999kok","sona":"8698"},{"rt":348.29999995417893,"stimulus":"<p>Welche Sequenz haben Sie als natürlicher empfunden?</p>","key_press":70,"test_part":"response","test_stimulus":{"position":0,"left":"bvh/return-bottle-hold-training3-lines.txt","right":"bvh/vr_prediction_models/model(dmp)-dataset(return-bottle-hold)-npsi(20)-hold(3)/final-lines.txt","att_check":false},"trial_type":"html-keyboard-response","trial_index":194,"time_elapsed":389417,"internal_node_id":"0.0-8.0-3.46","subject":"wdd0gyo17999kok","sona":"8698"},{"rt":178.97499992977828,"stimulus":"<p>Bereit?</p>","key_press":32,"trial_type":"html-keyboard-response","trial_index":195,"time_elapsed":389606,"internal_node_id":"0.0-8.0-0.47","subject":"wdd0gyo17999kok","sona":"8698"},{"rt":null,"stimulus":"<div style=\"font-size:60px;\">+</div>","key_press":null,"trial_type":"html-keyboard-response","trial_index":196,"time_elapsed":391627,"internal_node_id":"0.0-8.0-1.47","subject":"wdd0gyo17999kok","sona":"8698"},{"trial_type":"turing-test","trial_index":197,"time_elapsed":395094,"internal_node_id":"0.0-8.0-2.47","subject":"wdd0gyo17999kok","sona":"8698"},{"rt":269.00500000920147,"stimulus":"<p>Welche Sequenz haben Sie als natürlicher empfunden?</p>","key_press":70,"test_part":"response","test_stimulus":{"position":0,"left":"bvh/return-bottle-hold-training2-lines.txt","right":"bvh/vr_prediction_models/model(tmp)-dataset(return-bottle-hold)-numprim(5)-hold(2)/final-lines.txt","att_check":false},"trial_type":"html-keyboard-response","trial_index":198,"time_elapsed":395372,"internal_node_id":"0.0-8.0-3.47","subject":"wdd0gyo17999kok","sona":"8698"},{"rt":164.34000001754612,"stimulus":"<p>Bereit?</p>","key_press":32,"trial_type":"html-keyboard-response","trial_index":199,"time_elapsed":395545,"internal_node_id":"0.0-8.0-0.48","subject":"wdd0gyo17999kok","sona":"8698"},{"rt":null,"stimulus":"<div style=\"font-size:60px;\">+</div>","key_press":null,"trial_type":"html-keyboard-response","trial_index":200,"time_elapsed":397569,"internal_node_id":"0.0-8.0-1.48","subject":"wdd0gyo17999kok","sona":"8698"},{"trial_type":"turing-test","trial_index":201,"time_elapsed":401288,"internal_node_id":"0.0-8.0-2.48","subject":"wdd0gyo17999kok","sona":"8698"},{"rt":334.7399999620393,"stimulus":"<p>Welche Sequenz haben Sie als natürlicher empfunden?</p>","key_press":74,"test_part":"response","test_stimulus":{"position":1,"left":"bvh/vr_prediction_models/model(vcgpdm)-dataset(pass-bottle-hold)-mode(ELBO)-parts(1)-dyn(15)-lvm(35)-hold(4)/final-lines.txt","right":"bvh/pass-bottle-hold-training4-lines.txt","att_check":false},"trial_type":"html-keyboard-response","trial_index":202,"time_elapsed":401637,"internal_node_id":"0.0-8.0-3.48","subject":"wdd0gyo17999kok","sona":"8698"},{"rt":254.57500002812594,"stimulus":"<p>Bereit?</p>","key_press":32,"trial_type":"html-keyboard-response","trial_index":203,"time_elapsed":401900,"internal_node_id":"0.0-8.0-0.49","subject":"wdd0gyo17999kok","sona":"8698"},{"rt":null,"stimulus":"<div style=\"font-size:60px;\">+</div>","key_press":null,"trial_type":"html-keyboard-response","trial_index":204,"time_elapsed":403920,"internal_node_id":"0.0-8.0-1.49","subject":"wdd0gyo17999kok","sona":"8698"},{"trial_type":"turing-test","trial_index":205,"time_elapsed":410162,"internal_node_id":"0.0-8.0-2.49","subject":"wdd0gyo17999kok","sona":"8698"},{"rt":277.8600000310689,"stimulus":"<p>Welche Sequenz haben Sie als natürlicher empfunden?</p>","key_press":74,"test_part":"response","test_stimulus":{"position":1,"left":"bvh/vr_prediction_models/model(vcgpdm)-dataset(pass-bottle)-mode(ELBO)-parts(1)-dyn(20)-lvm(5)-hold(2)/final-lines.txt","right":"bvh/pass-bottle-training2-lines.txt","att_check":false},"trial_type":"html-keyboard-response","trial_index":206,"time_elapsed":410449,"internal_node_id":"0.0-8.0-3.49","subject":"wdd0gyo17999kok","sona":"8698"},{"rt":228.64999994635582,"stimulus":"<p>Bereit?</p>","key_press":32,"trial_type":"html-keyboard-response","trial_index":207,"time_elapsed":410684,"internal_node_id":"0.0-8.0-0.50","subject":"wdd0gyo17999kok","sona":"8698"},{"rt":null,"stimulus":"<div style=\"font-size:60px;\">+</div>","key_press":null,"trial_type":"html-keyboard-response","trial_index":208,"time_elapsed":412708,"internal_node_id":"0.0-8.0-1.50","subject":"wdd0gyo17999kok","sona":"8698"},{"trial_type":"turing-test","trial_index":209,"time_elapsed":418962,"internal_node_id":"0.0-8.0-2.50","subject":"wdd0gyo17999kok","sona":"8698"},{"rt":365.67500000819564,"stimulus":"<p>Welche Sequenz haben Sie als natürlicher empfunden?</p>","key_press":74,"test_part":"response","test_stimulus":{"position":1,"left":"bvh/vr_prediction_models/model(vcgpdm)-dataset(return-bottle)-mode(ELBO)-parts(1)-dyn(10)-lvm(30)-hold(1)/final-lines.txt","right":"bvh/return-bottle-training1-lines.txt","att_check":false},"trial_type":"html-keyboard-response","trial_index":210,"time_elapsed":419340,"internal_node_id":"0.0-8.0-3.50","subject":"wdd0gyo17999kok","sona":"8698"},{"rt":221.46000002976507,"stimulus":"<p>Bereit?</p>","key_press":32,"trial_type":"html-keyboard-response","trial_index":211,"time_elapsed":419568,"internal_node_id":"0.0-8.0-0.51","subject":"wdd0gyo17999kok","sona":"8698"},{"rt":null,"stimulus":"<div style=\"font-size:60px;\">+</div>","key_press":null,"trial_type":"html-keyboard-response","trial_index":212,"time_elapsed":421585,"internal_node_id":"0.0-8.0-1.51","subject":"wdd0gyo17999kok","sona":"8698"},{"trial_type":"turing-test","trial_index":213,"time_elapsed":427175,"internal_node_id":"0.0-8.0-2.51","subject":"wdd0gyo17999kok","sona":"8698"},{"rt":305.0249998923391,"stimulus":"<p>Welche Sequenz haben Sie als natürlicher empfunden?</p>","key_press":74,"test_part":"response","test_stimulus":{"position":1,"left":"bvh/vr_prediction_models/model(vcgpdm)-dataset(pass-bottle)-mode(ELBO)-parts(3)-dyn(25)-lvm(15)-hold(1)/final-lines.txt","right":"bvh/pass-bottle-training1-lines.txt","att_check":false},"trial_type":"html-keyboard-response","trial_index":214,"time_elapsed":427493,"internal_node_id":"0.0-8.0-3.51","subject":"wdd0gyo17999kok","sona":"8698"},{"rt":263.46500008367,"stimulus":"<p>Bereit?</p>","key_press":32,"trial_type":"html-keyboard-response","trial_index":215,"time_elapsed":427764,"internal_node_id":"0.0-8.0-0.52","subject":"wdd0gyo17999kok","sona":"8698"},{"rt":null,"stimulus":"<div style=\"font-size:60px;\">+</div>","key_press":null,"trial_type":"html-keyboard-response","trial_index":216,"time_elapsed":429772,"internal_node_id":"0.0-8.0-1.52","subject":"wdd0gyo17999kok","sona":"8698"},{"trial_type":"turing-test","trial_index":217,"time_elapsed":436461,"internal_node_id":"0.0-8.0-2.52","subject":"wdd0gyo17999kok","sona":"8698"},{"rt":253.6250000121072,"stimulus":"<p>Welche Sequenz haben Sie als natürlicher empfunden?</p>","key_press":74,"test_part":"response","test_stimulus":{"position":1,"left":"bvh/vr_prediction_models/model(vcgpdm)-dataset(return-bottle)-mode(ELBO)-parts(3)-dyn(25)-lvm(25)-hold(2)/final-lines.txt","right":"bvh/return-bottle-training2-lines.txt","att_check":false},"trial_type":"html-keyboard-response","trial_index":218,"time_elapsed":436721,"internal_node_id":"0.0-8.0-3.52","subject":"wdd0gyo17999kok","sona":"8698"},{"rt":230.1149999257177,"stimulus":"<p>Bereit?</p>","key_press":32,"trial_type":"html-keyboard-response","trial_index":219,"time_elapsed":436961,"internal_node_id":"0.0-8.0-0.53","subject":"wdd0gyo17999kok","sona":"8698"},{"rt":null,"stimulus":"<div style=\"font-size:60px;\">+</div>","key_press":null,"trial_type":"html-keyboard-response","trial_index":220,"time_elapsed":438982,"internal_node_id":"0.0-8.0-1.53","subject":"wdd0gyo17999kok","sona":"8698"},{"trial_type":"turing-test","trial_index":221,"time_elapsed":442492,"internal_node_id":"0.0-8.0-2.53","subject":"wdd0gyo17999kok","sona":"8698"},{"rt":269.02000000700355,"stimulus":"<p>Welche Sequenz haben Sie als natürlicher empfunden?</p>","key_press":74,"test_part":"response","test_stimulus":{"position":1,"left":"bvh/vr_prediction_models/model(tmp)-dataset(return-bottle-hold)-numprim(8)-hold(2)/final-lines.txt","right":"bvh/return-bottle-hold-training2-lines.txt","att_check":false},"trial_type":"html-keyboard-response","trial_index":222,"time_elapsed":442771,"internal_node_id":"0.0-8.0-3.53","subject":"wdd0gyo17999kok","sona":"8698"},{"rt":210.08500002790242,"stimulus":"<p>Bereit?</p>","key_press":32,"trial_type":"html-keyboard-response","trial_index":223,"time_elapsed":442988,"internal_node_id":"0.0-8.0-0.54","subject":"wdd0gyo17999kok","sona":"8698"},{"rt":null,"stimulus":"<div style=\"font-size:60px;\">+</div>","key_press":null,"trial_type":"html-keyboard-response","trial_index":224,"time_elapsed":445007,"internal_node_id":"0.0-8.0-1.54","subject":"wdd0gyo17999kok","sona":"8698"},{"trial_type":"turing-test","trial_index":225,"time_elapsed":449895,"internal_node_id":"0.0-8.0-2.54","subject":"wdd0gyo17999kok","sona":"8698"},{"rt":419.0599999856204,"stimulus":"<p>Welche Sequenz haben Sie als natürlicher empfunden?</p>","key_press":74,"test_part":"response","test_stimulus":{"position":0,"left":"bvh/pass-bottle-hold-training0-lines.txt","right":"bvh/vr_prediction_models/model(vcgpdm)-dataset(pass-bottle-hold)-mode(ELBO)-parts(3)-dyn(25)-lvm(30)-hold(0)/final-lines.txt","att_check":false},"trial_type":"html-keyboard-response","trial_index":226,"time_elapsed":450321,"internal_node_id":"0.0-8.0-3.54","subject":"wdd0gyo17999kok","sona":"8698"},{"rt":213.4150000056252,"stimulus":"<p>Bereit?</p>","key_press":32,"trial_type":"html-keyboard-response","trial_index":227,"time_elapsed":450542,"internal_node_id":"0.0-8.0-0.55","subject":"wdd0gyo17999kok","sona":"8698"},{"rt":null,"stimulus":"<div style=\"font-size:60px;\">+</div>","key_press":null,"trial_type":"html-keyboard-response","trial_index":228,"time_elapsed":452573,"internal_node_id":"0.0-8.0-1.55","subject":"wdd0gyo17999kok","sona":"8698"},{"trial_type":"turing-test","trial_index":229,"time_elapsed":458623,"internal_node_id":"0.0-8.0-2.55","subject":"wdd0gyo17999kok","sona":"8698"},{"rt":263.41000001411885,"stimulus":"<p>Welche Sequenz haben Sie als natürlicher empfunden?</p>","key_press":74,"test_part":"response","test_stimulus":{"position":1,"left":"bvh/vr_prediction_models/model(tmp)-dataset(return-bottle)-numprim(7)-hold(1)/final-lines.txt","right":"bvh/return-bottle-training1-lines.txt","att_check":false},"trial_type":"html-keyboard-response","trial_index":230,"time_elapsed":458899,"internal_node_id":"0.0-8.0-3.55","subject":"wdd0gyo17999kok","sona":"8698"},{"rt":236.55000003054738,"stimulus":"<p>Bereit?</p>","key_press":32,"trial_type":"html-keyboard-response","trial_index":231,"time_elapsed":459143,"internal_node_id":"0.0-8.0-0.56","subject":"wdd0gyo17999kok","sona":"8698"},{"rt":null,"stimulus":"<div style=\"font-size:60px;\">+</div>","key_press":null,"trial_type":"html-keyboard-response","trial_index":232,"time_elapsed":461162,"internal_node_id":"0.0-8.0-1.56","subject":"wdd0gyo17999kok","sona":"8698"},{"trial_type":"turing-test","trial_index":233,"time_elapsed":464700,"internal_node_id":"0.0-8.0-2.56","subject":"wdd0gyo17999kok","sona":"8698"},{"rt":304.1199999861419,"stimulus":"<p>Welche Sequenz haben Sie als natürlicher empfunden?</p>","key_press":70,"test_part":"response","test_stimulus":{"position":0,"left":"bvh/pass-bottle-hold-training0-lines.txt","right":"bvh/vr_prediction_models/model(vcgpdm)-dataset(pass-bottle-hold)-mode(ELBO)-parts(1)-dyn(30)-lvm(20)-hold(0)/final-lines.txt","att_check":false},"trial_type":"html-keyboard-response","trial_index":234,"time_elapsed":465014,"internal_node_id":"0.0-8.0-3.56","subject":"wdd0gyo17999kok","sona":"8698"},{"rt":132.06999993417412,"stimulus":"<p>Bereit?</p>","key_press":32,"trial_type":"html-keyboard-response","trial_index":235,"time_elapsed":465154,"internal_node_id":"0.0-8.0-0.57","subject":"wdd0gyo17999kok","sona":"8698"},{"rt":null,"stimulus":"<div style=\"font-size:60px;\">+</div>","key_press":null,"trial_type":"html-keyboard-response","trial_index":236,"time_elapsed":467168,"internal_node_id":"0.0-8.0-1.57","subject":"wdd0gyo17999kok","sona":"8698"},{"trial_type":"turing-test","trial_index":237,"time_elapsed":470561,"internal_node_id":"0.0-8.0-2.57","subject":"wdd0gyo17999kok","sona":"8698"},{"rt":321.21000008191913,"stimulus":"<p>Welche Sequenz haben Sie als natürlicher empfunden?</p>","key_press":70,"test_part":"response","test_stimulus":{"position":0,"left":"bvh/pass-bottle-hold-training1-lines.txt","right":"bvh/vr_prediction_models/model(vcgpdm)-dataset(pass-bottle-hold)-mode(ELBO)-parts(1)-dyn(20)-lvm(5)-hold(1)/final-lines.txt","att_check":false},"trial_type":"html-keyboard-response","trial_index":238,"time_elapsed":470895,"internal_node_id":"0.0-8.0-3.57","subject":"wdd0gyo17999kok","sona":"8698"},{"rt":166.2399999331683,"stimulus":"<p>Bereit?</p>","key_press":32,"trial_type":"html-keyboard-response","trial_index":239,"time_elapsed":471069,"internal_node_id":"0.0-8.0-0.58","subject":"wdd0gyo17999kok","sona":"8698"},{"rt":null,"stimulus":"<div style=\"font-size:60px;\">+</div>","key_press":null,"trial_type":"html-keyboard-response","trial_index":240,"time_elapsed":473088,"internal_node_id":"0.0-8.0-1.58","subject":"wdd0gyo17999kok","sona":"8698"},{"trial_type":"turing-test","trial_index":241,"time_elapsed":479411,"internal_node_id":"0.0-8.0-2.58","subject":"wdd0gyo17999kok","sona":"8698"},{"rt":390.98000002559274,"stimulus":"<p>Welche Sequenz haben Sie als natürlicher empfunden?</p>","key_press":74,"test_part":"response","test_stimulus":{"position":1,"left":"bvh/vr_prediction_models/model(vcgpdm)-dataset(pass-bottle)-mode(ELBO)-parts(3)-dyn(25)-lvm(30)-hold(2)/final-lines.txt","right":"bvh/pass-bottle-training2-lines.txt","att_check":false},"trial_type":"html-keyboard-response","trial_index":242,"time_elapsed":479811,"internal_node_id":"0.0-8.0-3.58","subject":"wdd0gyo17999kok","sona":"8698"},{"rt":223.65499997977167,"stimulus":"<p>Bereit?</p>","key_press":32,"trial_type":"html-keyboard-response","trial_index":243,"time_elapsed":480042,"internal_node_id":"0.0-8.0-0.59","subject":"wdd0gyo17999kok","sona":"8698"},{"rt":null,"stimulus":"<div style=\"font-size:60px;\">+</div>","key_press":null,"trial_type":"html-keyboard-response","trial_index":244,"time_elapsed":482063,"internal_node_id":"0.0-8.0-1.59","subject":"wdd0gyo17999kok","sona":"8698"},{"trial_type":"turing-test","trial_index":245,"time_elapsed":488630,"internal_node_id":"0.0-8.0-2.59","subject":"wdd0gyo17999kok","sona":"8698"},{"rt":298.2499999925494,"stimulus":"<p>Welche Sequenz haben Sie als natürlicher empfunden?</p>","key_press":70,"test_part":"response","test_stimulus":{"position":0,"left":"bvh/return-bottle-training2-lines.txt","right":"bvh/vr_prediction_models/model(tmp)-dataset(return-bottle)-numprim(14)-hold(2)/final-lines.txt","att_check":false},"trial_type":"html-keyboard-response","trial_index":246,"time_elapsed":488938,"internal_node_id":"0.0-8.0-3.59","subject":"wdd0gyo17999kok","sona":"8698"},{"rt":207.12500007357448,"stimulus":"<p>Bereit?</p>","key_press":32,"trial_type":"html-keyboard-response","trial_index":247,"time_elapsed":489153,"internal_node_id":"0.0-8.0-0.60","subject":"wdd0gyo17999kok","sona":"8698"},{"rt":null,"stimulus":"<div style=\"font-size:60px;\">+</div>","key_press":null,"trial_type":"html-keyboard-response","trial_index":248,"time_elapsed":491166,"internal_node_id":"0.0-8.0-1.60","subject":"wdd0gyo17999kok","sona":"8698"},{"trial_type":"turing-test","trial_index":249,"time_elapsed":494499,"internal_node_id":"0.0-8.0-2.60","subject":"wdd0gyo17999kok","sona":"8698"},{"rt":523.1199999107048,"stimulus":"<p>Welche Sequenz haben Sie als natürlicher empfunden?</p>","key_press":70,"test_part":"response","test_stimulus":{"position":0,"left":"bvh/pass-bottle-hold-training2-lines.txt","right":"bvh/vr_prediction_models/model(dmp)-dataset(pass-bottle-hold)-npsi(30)-hold(2)/final-lines.txt","att_check":false},"trial_type":"html-keyboard-response","trial_index":250,"time_elapsed":495032,"internal_node_id":"0.0-8.0-3.60","subject":"wdd0gyo17999kok","sona":"8698"},{"rt":224.8700000345707,"stimulus":"<p>Bereit?</p>","key_press":32,"trial_type":"html-keyboard-response","trial_index":251,"time_elapsed":495264,"internal_node_id":"0.0-8.0-0.61","subject":"wdd0gyo17999kok","sona":"8698"},{"rt":null,"stimulus":"<div style=\"font-size:60px;\">+</div>","key_press":null,"trial_type":"html-keyboard-response","trial_index":252,"time_elapsed":497277,"internal_node_id":"0.0-8.0-1.61","subject":"wdd0gyo17999kok","sona":"8698"},{"trial_type":"turing-test","trial_index":253,"time_elapsed":503183,"internal_node_id":"0.0-8.0-2.61","subject":"wdd0gyo17999kok","sona":"8698"},{"rt":252.74999998509884,"stimulus":"<p>Welche Sequenz haben Sie als natürlicher empfunden?</p>","key_press":74,"test_part":"response","test_stimulus":{"position":1,"left":"bvh/vr_prediction_models/model(vcgpdm)-dataset(return-bottle)-mode(ELBO)-parts(3)-dyn(10)-lvm(30)-hold(3)/final-lines.txt","right":"bvh/return-bottle-training3-lines.txt","att_check":false},"trial_type":"html-keyboard-response","trial_index":254,"time_elapsed":503449,"internal_node_id":"0.0-8.0-3.61","subject":"wdd0gyo17999kok","sona":"8698"},{"rt":182.03000002540648,"stimulus":"<p>Bereit?</p>","key_press":32,"trial_type":"html-keyboard-response","trial_index":255,"time_elapsed":503642,"internal_node_id":"0.0-8.0-0.62","subject":"wdd0gyo17999kok","sona":"8698"},{"rt":null,"stimulus":"<div style=\"font-size:60px;\">+</div>","key_press":null,"trial_type":"html-keyboard-response","trial_index":256,"time_elapsed":505663,"internal_node_id":"0.0-8.0-1.62","subject":"wdd0gyo17999kok","sona":"8698"},{"trial_type":"turing-test","trial_index":257,"time_elapsed":512398,"internal_node_id":"0.0-8.0-2.62","subject":"wdd0gyo17999kok","sona":"8698"},{"rt":347.9600000428036,"stimulus":"<p>Welche Sequenz haben Sie als natürlicher empfunden?</p>","key_press":74,"test_part":"response","test_stimulus":{"position":1,"left":"bvh/vr_prediction_models/model(vcgpdm)-dataset(return-bottle)-mode(ELBO)-parts(3)-dyn(20)-lvm(20)-hold(2)/final-lines.txt","right":"bvh/return-bottle-training2-lines.txt","att_check":false},"trial_type":"html-keyboard-response","trial_index":258,"time_elapsed":512756,"internal_node_id":"0.0-8.0-3.62","subject":"wdd0gyo17999kok","sona":"8698"},{"rt":166.42000002320856,"stimulus":"<p>Bereit?</p>","key_press":32,"trial_type":"html-keyboard-response","trial_index":259,"time_elapsed":512933,"internal_node_id":"0.0-8.0-0.63","subject":"wdd0gyo17999kok","sona":"8698"},{"rt":null,"stimulus":"<div style=\"font-size:60px;\">+</div>","key_press":null,"trial_type":"html-keyboard-response","trial_index":260,"time_elapsed":514945,"internal_node_id":"0.0-8.0-1.63","subject":"wdd0gyo17999kok","sona":"8698"},{"trial_type":"turing-test","trial_index":261,"time_elapsed":519353,"internal_node_id":"0.0-8.0-2.63","subject":"wdd0gyo17999kok","sona":"8698"},{"rt":271.0400000214577,"stimulus":"<p>Welche Sequenz haben Sie als natürlicher empfunden?</p>","key_press":74,"test_part":"response","test_stimulus":{"position":1,"left":"bvh/vr_prediction_models/model(dmp)-dataset(return-bottle-hold)-npsi(40)-hold(4)/final-lines.txt","right":"bvh/return-bottle-hold-training4-lines.txt","att_check":false},"trial_type":"html-keyboard-response","trial_index":262,"time_elapsed":519633,"internal_node_id":"0.0-8.0-3.63","subject":"wdd0gyo17999kok","sona":"8698"},{"rt":162.7800000132993,"stimulus":"<p>Bereit?</p>","key_press":32,"trial_type":"html-keyboard-response","trial_index":263,"time_elapsed":519806,"internal_node_id":"0.0-8.0-0.64","subject":"wdd0gyo17999kok","sona":"8698"},{"rt":null,"stimulus":"<div style=\"font-size:60px;\">+</div>","key_press":null,"trial_type":"html-keyboard-response","trial_index":264,"time_elapsed":521826,"internal_node_id":"0.0-8.0-1.64","subject":"wdd0gyo17999kok","sona":"8698"},{"trial_type":"turing-test","trial_index":265,"time_elapsed":525358,"internal_node_id":"0.0-8.0-2.64","subject":"wdd0gyo17999kok","sona":"8698"},{"rt":543.9949999563396,"stimulus":"<p>Welche Sequenz haben Sie als natürlicher empfunden?</p>","key_press":70,"test_part":"response","test_stimulus":{"position":0,"left":"bvh/pass-bottle-hold-training3-lines.txt","right":"bvh/vr_prediction_models/model(dmp)-dataset(pass-bottle-hold)-npsi(50)-hold(3)/final-lines.txt","att_check":false},"trial_type":"html-keyboard-response","trial_index":266,"time_elapsed":525915,"internal_node_id":"0.0-8.0-3.64","subject":"wdd0gyo17999kok","sona":"8698"},{"rt":227.7849999954924,"stimulus":"<p>Bereit?</p>","key_press":32,"trial_type":"html-keyboard-response","trial_index":267,"time_elapsed":526149,"internal_node_id":"0.0-8.0-0.65","subject":"wdd0gyo17999kok","sona":"8698"},{"rt":null,"stimulus":"<div style=\"font-size:60px;\">+</div>","key_press":null,"trial_type":"html-keyboard-response","trial_index":268,"time_elapsed":528175,"internal_node_id":"0.0-8.0-1.65","subject":"wdd0gyo17999kok","sona":"8698"},{"trial_type":"turing-test","trial_index":269,"time_elapsed":534244,"internal_node_id":"0.0-8.0-2.65","subject":"wdd0gyo17999kok","sona":"8698"},{"rt":297.94000007677823,"stimulus":"<p>Welche Sequenz haben Sie als natürlicher empfunden?</p>","key_press":70,"test_part":"response","test_stimulus":{"position":0,"left":"bvh/return-bottle-training1-lines.txt","right":"bvh/vr_prediction_models/model(tmp)-dataset(return-bottle)-numprim(11)-hold(1)/final-lines.txt","att_check":false},"trial_type":"html-keyboard-response","trial_index":270,"time_elapsed":534555,"internal_node_id":"0.0-8.0-3.65","subject":"wdd0gyo17999kok","sona":"8698"},{"rt":172.81000001821667,"stimulus":"<p>Bereit?</p>","key_press":32,"trial_type":"html-keyboard-response","trial_index":271,"time_elapsed":534737,"internal_node_id":"0.0-8.0-0.66","subject":"wdd0gyo17999kok","sona":"8698"},{"rt":null,"stimulus":"<div style=\"font-size:60px;\">+</div>","key_press":null,"trial_type":"html-keyboard-response","trial_index":272,"time_elapsed":536753,"internal_node_id":"0.0-8.0-1.66","subject":"wdd0gyo17999kok","sona":"8698"},{"trial_type":"turing-test","trial_index":273,"time_elapsed":541976,"internal_node_id":"0.0-8.0-2.66","subject":"wdd0gyo17999kok","sona":"8698"},{"rt":137.41000008303672,"stimulus":"<p>Welche Sequenz haben Sie als natürlicher empfunden?</p>","key_press":70,"test_part":"response","test_stimulus":{"position":0,"left":"bvh/return-bottle-hold-training0-lines.txt","right":"bvh/vr_prediction_models/model(vcgpdm)-dataset(return-bottle-hold)-mode(ELBO)-parts(1)-dyn(15)-lvm(35)-hold(0)/final-lines.txt","att_check":false},"trial_type":"html-keyboard-response","trial_index":274,"time_elapsed":542122,"internal_node_id":"0.0-8.0-3.66","subject":"wdd0gyo17999kok","sona":"8698"},{"rt":375.09500002488494,"stimulus":"<p>Bereit?</p>","key_press":32,"trial_type":"html-keyboard-response","trial_index":275,"time_elapsed":542506,"internal_node_id":"0.0-8.0-0.67","subject":"wdd0gyo17999kok","sona":"8698"},{"rt":null,"stimulus":"<div style=\"font-size:60px;\">+</div>","key_press":null,"trial_type":"html-keyboard-response","trial_index":276,"time_elapsed":544517,"internal_node_id":"0.0-8.0-1.67","subject":"wdd0gyo17999kok","sona":"8698"},{"trial_type":"turing-test","trial_index":277,"time_elapsed":547864,"internal_node_id":"0.0-8.0-2.67","subject":"wdd0gyo17999kok","sona":"8698"},{"rt":293.35499997250736,"stimulus":"<p>Welche Sequenz haben Sie als natürlicher empfunden?</p>","key_press":74,"test_part":"response","test_stimulus":{"position":0,"left":"bvh/pass-bottle-hold-training2-lines.txt","right":"bvh/vr_prediction_models/model(tmp)-dataset(pass-bottle-hold)-numprim(15)-hold(2)/final-lines.txt","att_check":false},"trial_type":"html-keyboard-response","trial_index":278,"time_elapsed":548169,"internal_node_id":"0.0-8.0-3.67","subject":"wdd0gyo17999kok","sona":"8698"},{"rt":239.960000035353,"stimulus":"<p>Bereit?</p>","key_press":32,"trial_type":"html-keyboard-response","trial_index":279,"time_elapsed":548419,"internal_node_id":"0.0-8.0-0.68","subject":"wdd0gyo17999kok","sona":"8698"},{"rt":null,"stimulus":"<div style=\"font-size:60px;\">+</div>","key_press":null,"trial_type":"html-keyboard-response","trial_index":280,"time_elapsed":550429,"internal_node_id":"0.0-8.0-1.68","subject":"wdd0gyo17999kok","sona":"8698"},{"trial_type":"turing-test","trial_index":281,"time_elapsed":553672,"internal_node_id":"0.0-8.0-2.68","subject":"wdd0gyo17999kok","sona":"8698"},{"rt":385.17000002320856,"stimulus":"<p>Welche Sequenz haben Sie als natürlicher empfunden?</p>","key_press":74,"test_part":"response","test_stimulus":{"position":0,"left":"bvh/pass-bottle-hold-training1-lines.txt","right":"bvh/vr_prediction_models/model(tmp)-dataset(pass-bottle-hold)-numprim(11)-hold(1)/final-lines.txt","att_check":false},"trial_type":"html-keyboard-response","trial_index":282,"time_elapsed":554070,"internal_node_id":"0.0-8.0-3.68","subject":"wdd0gyo17999kok","sona":"8698"},{"rt":220.49499989952892,"stimulus":"<p>Bereit?</p>","key_press":32,"trial_type":"html-keyboard-response","trial_index":283,"time_elapsed":554296,"internal_node_id":"0.0-8.0-0.69","subject":"wdd0gyo17999kok","sona":"8698"},{"rt":null,"stimulus":"<div style=\"font-size:60px;\">+</div>","key_press":null,"trial_type":"html-keyboard-response","trial_index":284,"time_elapsed":556328,"internal_node_id":"0.0-8.0-1.69","subject":"wdd0gyo17999kok","sona":"8698"},{"trial_type":"turing-test","trial_index":285,"time_elapsed":562584,"internal_node_id":"0.0-8.0-2.69","subject":"wdd0gyo17999kok","sona":"8698"},{"rt":358.81000000517815,"stimulus":"<p>Welche Sequenz haben Sie als natürlicher empfunden?</p>","key_press":74,"test_part":"response","test_stimulus":{"position":1,"left":"bvh/vr_prediction_models/model(vcgpdm)-dataset(pass-bottle)-mode(ELBO)-parts(1)-dyn(35)-lvm(30)-hold(2)/final-lines.txt","right":"bvh/pass-bottle-training2-lines.txt","att_check":false},"trial_type":"html-keyboard-response","trial_index":286,"time_elapsed":562953,"internal_node_id":"0.0-8.0-3.69","subject":"wdd0gyo17999kok","sona":"8698"},{"rt":228.10500010382384,"stimulus":"<p>Bereit?</p>","key_press":32,"trial_type":"html-keyboard-response","trial_index":287,"time_elapsed":563188,"internal_node_id":"0.0-8.0-0.70","subject":"wdd0gyo17999kok","sona":"8698"},{"rt":null,"stimulus":"<div style=\"font-size:60px;\">+</div>","key_press":null,"trial_type":"html-keyboard-response","trial_index":288,"time_elapsed":565198,"internal_node_id":"0.0-8.0-1.70","subject":"wdd0gyo17999kok","sona":"8698"},{"trial_type":"turing-test","trial_index":289,"time_elapsed":570430,"internal_node_id":"0.0-8.0-2.70","subject":"wdd0gyo17999kok","sona":"8698"},{"rt":351.4699999941513,"stimulus":"<p>Welche Sequenz haben Sie als natürlicher empfunden?</p>","key_press":74,"test_part":"response","test_stimulus":{"position":1,"left":"bvh/vr_prediction_models/model(vcgpdm)-dataset(return-bottle-hold)-mode(ELBO)-parts(3)-dyn(25)-lvm(25)-hold(0)/final-lines.txt","right":"bvh/return-bottle-hold-training0-lines.txt","att_check":false},"trial_type":"html-keyboard-response","trial_index":290,"time_elapsed":570794,"internal_node_id":"0.0-8.0-3.70","subject":"wdd0gyo17999kok","sona":"8698"},{"rt":221.64000000339,"stimulus":"<p>Bereit?</p>","key_press":32,"trial_type":"html-keyboard-response","trial_index":291,"time_elapsed":571024,"internal_node_id":"0.0-8.0-0.71","subject":"wdd0gyo17999kok","sona":"8698"},{"rt":null,"stimulus":"<div style=\"font-size:60px;\">+</div>","key_press":null,"trial_type":"html-keyboard-response","trial_index":292,"time_elapsed":573039,"internal_node_id":"0.0-8.0-1.71","subject":"wdd0gyo17999kok","sona":"8698"},{"trial_type":"turing-test","trial_index":293,"time_elapsed":580595,"internal_node_id":"0.0-8.0-2.71","subject":"wdd0gyo17999kok","sona":"8698"},{"rt":352.5500000687316,"stimulus":"<p>Welche Sequenz haben Sie als natürlicher empfunden?</p>","key_press":74,"test_part":"response","test_stimulus":{"position":1,"left":"bvh/vr_prediction_models/model(vcgpdm)-dataset(return-bottle)-mode(ELBO)-parts(3)-dyn(15)-lvm(30)-hold(2)/final-lines.txt","right":"bvh/return-bottle-training2-lines.txt","att_check":false},"trial_type":"html-keyboard-response","trial_index":294,"time_elapsed":580957,"internal_node_id":"0.0-8.0-3.71","subject":"wdd0gyo17999kok","sona":"8698"},{"rt":234.91500003729016,"stimulus":"<p>Bereit?</p>","key_press":32,"trial_type":"html-keyboard-response","trial_index":295,"time_elapsed":581199,"internal_node_id":"0.0-8.0-0.72","subject":"wdd0gyo17999kok","sona":"8698"},{"rt":null,"stimulus":"<div style=\"font-size:60px;\">+</div>","key_press":null,"trial_type":"html-keyboard-response","trial_index":296,"time_elapsed":583220,"internal_node_id":"0.0-8.0-1.72","subject":"wdd0gyo17999kok","sona":"8698"},{"trial_type":"turing-test","trial_index":297,"time_elapsed":589147,"internal_node_id":"0.0-8.0-2.72","subject":"wdd0gyo17999kok","sona":"8698"},{"rt":291.77999997045845,"stimulus":"<p>Welche Sequenz haben Sie als natürlicher empfunden?</p>","key_press":70,"test_part":"response","test_stimulus":{"position":0,"left":"bvh/return-bottle-training3-lines.txt","right":"bvh/vr_prediction_models/model(vcgpdm)-dataset(return-bottle)-mode(ELBO)-parts(1)-dyn(20)-lvm(20)-hold(3)/final-lines.txt","att_check":false},"trial_type":"html-keyboard-response","trial_index":298,"time_elapsed":589443,"internal_node_id":"0.0-8.0-3.72","subject":"wdd0gyo17999kok","sona":"8698"},{"rt":136.24999998137355,"stimulus":"<p>Bereit?</p>","key_press":32,"trial_type":"html-keyboard-response","trial_index":299,"time_elapsed":589585,"internal_node_id":"0.0-8.0-0.73","subject":"wdd0gyo17999kok","sona":"8698"},{"rt":null,"stimulus":"<div style=\"font-size:60px;\">+</div>","key_press":null,"trial_type":"html-keyboard-response","trial_index":300,"time_elapsed":591606,"internal_node_id":"0.0-8.0-1.73","subject":"wdd0gyo17999kok","sona":"8698"},{"trial_type":"turing-test","trial_index":301,"time_elapsed":595131,"internal_node_id":"0.0-8.0-2.73","subject":"wdd0gyo17999kok","sona":"8698"},{"rt":316.18000008165836,"stimulus":"<p>Welche Sequenz haben Sie als natürlicher empfunden?</p>","key_press":70,"test_part":"response","test_stimulus":{"position":1,"left":"bvh/vr_prediction_models/model(vcgpdm)-dataset(pass-bottle-hold)-mode(ELBO)-parts(1)-dyn(10)-lvm(30)-hold(0)/final-lines.txt","right":"bvh/pass-bottle-hold-training0-lines.txt","att_check":false},"trial_type":"html-keyboard-response","trial_index":302,"time_elapsed":595457,"internal_node_id":"0.0-8.0-3.73","subject":"wdd0gyo17999kok","sona":"8698"},{"rt":108.03000000305474,"stimulus":"<p>Bereit?</p>","key_press":32,"trial_type":"html-keyboard-response","trial_index":303,"time_elapsed":595574,"internal_node_id":"0.0-8.0-0.74","subject":"wdd0gyo17999kok","sona":"8698"},{"rt":null,"stimulus":"<div style=\"font-size:60px;\">+</div>","key_press":null,"trial_type":"html-keyboard-response","trial_index":304,"time_elapsed":597580,"internal_node_id":"0.0-8.0-1.74","subject":"wdd0gyo17999kok","sona":"8698"},{"trial_type":"turing-test","trial_index":305,"time_elapsed":601193,"internal_node_id":"0.0-8.0-2.74","subject":"wdd0gyo17999kok","sona":"8698"},{"rt":392.1849998878315,"stimulus":"<p>Welche Sequenz haben Sie als natürlicher empfunden?</p>","key_press":70,"test_part":"response","test_stimulus":{"position":0,"left":"bvh/return-bottle-hold-training2-lines.txt","right":"bvh/vr_prediction_models/model(vcgpdm)-dataset(return-bottle-hold)-mode(ELBO)-parts(1)-dyn(15)-lvm(35)-hold(2)/final-lines.txt","att_check":false},"trial_type":"html-keyboard-response","trial_index":306,"time_elapsed":601590,"internal_node_id":"0.0-8.0-3.74","subject":"wdd0gyo17999kok","sona":"8698"},{"rt":182.80499998945743,"stimulus":"<p>Bereit?</p>","key_press":32,"trial_type":"html-keyboard-response","trial_index":307,"time_elapsed":601778,"internal_node_id":"0.0-8.0-0.75","subject":"wdd0gyo17999kok","sona":"8698"},{"rt":null,"stimulus":"<div style=\"font-size:60px;\">+</div>","key_press":null,"trial_type":"html-keyboard-response","trial_index":308,"time_elapsed":603785,"internal_node_id":"0.0-8.0-1.75","subject":"wdd0gyo17999kok","sona":"8698"},{"trial_type":"turing-test","trial_index":309,"time_elapsed":610599,"internal_node_id":"0.0-8.0-2.75","subject":"wdd0gyo17999kok","sona":"8698"},{"rt":327.7150000212714,"stimulus":"<p>Welche Sequenz haben Sie als natürlicher empfunden?</p>","key_press":70,"test_part":"response","test_stimulus":{"position":0,"left":"bvh/pass-bottle-training0-lines.txt","right":"bvh/vr_prediction_models/model(vcgpdm)-dataset(pass-bottle)-mode(ELBO)-parts(1)-dyn(10)-lvm(25)-hold(0)/final-lines.txt","att_check":false},"trial_type":"html-keyboard-response","trial_index":310,"time_elapsed":610937,"internal_node_id":"0.0-8.0-3.75","subject":"wdd0gyo17999kok","sona":"8698"},{"rt":171.84500000439584,"stimulus":"<p>Bereit?</p>","key_press":32,"trial_type":"html-keyboard-response","trial_index":311,"time_elapsed":611116,"internal_node_id":"0.0-8.0-0.76","subject":"wdd0gyo17999kok","sona":"8698"},{"rt":null,"stimulus":"<div style=\"font-size:60px;\">+</div>","key_press":null,"trial_type":"html-keyboard-response","trial_index":312,"time_elapsed":613126,"internal_node_id":"0.0-8.0-1.76","subject":"wdd0gyo17999kok","sona":"8698"},{"trial_type":"turing-test","trial_index":313,"time_elapsed":619840,"internal_node_id":"0.0-8.0-2.76","subject":"wdd0gyo17999kok","sona":"8698"},{"rt":355.30000005383044,"stimulus":"<p>Welche Sequenz haben Sie als natürlicher empfunden?</p>","key_press":70,"test_part":"response","test_stimulus":{"position":0,"left":"bvh/return-bottle-training3-lines.txt","right":"bvh/vr_prediction_models/model(vcgpdm)-dataset(return-bottle)-mode(ELBO)-parts(3)-dyn(20)-lvm(20)-hold(3)/final-lines.txt","att_check":false},"trial_type":"html-keyboard-response","trial_index":314,"time_elapsed":620208,"internal_node_id":"0.0-8.0-3.76","subject":"wdd0gyo17999kok","sona":"8698"},{"rt":156.01000003516674,"stimulus":"<p>Bereit?</p>","key_press":32,"trial_type":"html-keyboard-response","trial_index":315,"time_elapsed":620372,"internal_node_id":"0.0-8.0-0.77","subject":"wdd0gyo17999kok","sona":"8698"},{"rt":null,"stimulus":"<div style=\"font-size:60px;\">+</div>","key_press":null,"trial_type":"html-keyboard-response","trial_index":316,"time_elapsed":622394,"internal_node_id":"0.0-8.0-1.77","subject":"wdd0gyo17999kok","sona":"8698"},{"trial_type":"turing-test","trial_index":317,"time_elapsed":625834,"internal_node_id":"0.0-8.0-2.77","subject":"wdd0gyo17999kok","sona":"8698"},{"rt":351.37499996926636,"stimulus":"<p>Welche Sequenz haben Sie als natürlicher empfunden?</p>","key_press":70,"test_part":"response","test_stimulus":{"position":0,"left":"bvh/pass-bottle-hold-training1-lines.txt","right":"bvh/vr_prediction_models/model(vcgpdm)-dataset(pass-bottle-hold)-mode(ELBO)-parts(3)-dyn(20)-lvm(20)-hold(1)/final-lines.txt","att_check":false},"trial_type":"html-keyboard-response","trial_index":318,"time_elapsed":626197,"internal_node_id":"0.0-8.0-3.77","subject":"wdd0gyo17999kok","sona":"8698"},{"rt":276.09499997925013,"stimulus":"<p>Bereit?</p>","key_press":32,"trial_type":"html-keyboard-response","trial_index":319,"time_elapsed":626481,"internal_node_id":"0.0-8.0-0.78","subject":"wdd0gyo17999kok","sona":"8698"},{"rt":null,"stimulus":"<div style=\"font-size:60px;\">+</div>","key_press":null,"trial_type":"html-keyboard-response","trial_index":320,"time_elapsed":628500,"internal_node_id":"0.0-8.0-1.78","subject":"wdd0gyo17999kok","sona":"8698"},{"trial_type":"turing-test","trial_index":321,"time_elapsed":631969,"internal_node_id":"0.0-8.0-2.78","subject":"wdd0gyo17999kok","sona":"8698"},{"rt":292.2099999850616,"stimulus":"<p>Welche Sequenz haben Sie als natürlicher empfunden?</p>","key_press":74,"test_part":"response","test_stimulus":{"position":1,"left":"bvh/vr_prediction_models/model(vcgpdm)-dataset(pass-bottle-hold)-mode(ELBO)-parts(3)-dyn(10)-lvm(25)-hold(1)/final-lines.txt","right":"bvh/pass-bottle-hold-training1-lines.txt","att_check":false},"trial_type":"html-keyboard-response","trial_index":322,"time_elapsed":632271,"internal_node_id":"0.0-8.0-3.78","subject":"wdd0gyo17999kok","sona":"8698"},{"rt":185.14000007417053,"stimulus":"<p>Bereit?</p>","key_press":32,"trial_type":"html-keyboard-response","trial_index":323,"time_elapsed":632464,"internal_node_id":"0.0-8.0-0.79","subject":"wdd0gyo17999kok","sona":"8698"},{"rt":null,"stimulus":"<div style=\"font-size:60px;\">+</div>","key_press":null,"trial_type":"html-keyboard-response","trial_index":324,"time_elapsed":634472,"internal_node_id":"0.0-8.0-1.79","subject":"wdd0gyo17999kok","sona":"8698"},{"trial_type":"turing-test","trial_index":325,"time_elapsed":637829,"internal_node_id":"0.0-8.0-2.79","subject":"wdd0gyo17999kok","sona":"8698"},{"rt":232.33500006608665,"stimulus":"<p>Welche Sequenz haben Sie als natürlicher empfunden?</p>","key_press":74,"test_part":"response","test_stimulus":{"position":1,"left":"bvh/vr_prediction_models/model(tmp)-dataset(return-bottle-hold)-numprim(4)-hold(1)/final-lines.txt","right":"bvh/return-bottle-hold-training1-lines.txt","att_check":false},"trial_type":"html-keyboard-response","trial_index":326,"time_elapsed":638072,"internal_node_id":"0.0-8.0-3.79","subject":"wdd0gyo17999kok","sona":"8698"},{"rt":4877.080000005662,"responses":"{\"age\":\" 26\",\"gender\":\"weiblich\"}","trial_type":"survey-text","trial_index":327,"time_elapsed":642976,"internal_node_id":"0.0-10.0-0.0","subject":"wdd0gyo17999kok","sona":"8698"},{"rt":274123.8000000594,"responses":"{\"area\":\"Hals, Oberschenkel und Unterarme\",\"Q1\":\"Daran, dass die anderen Körperteile sich nicht mitbewegten, wenn beispielsweise ein Arm bewegt wurde. \",\"Q2\":\"Sich drehende Figuren, Figuren, deren Bewegungen nicht flüssig waren, Figuren, die erstarrt waren.\"}","trial_type":"survey-text","trial_index":328,"time_elapsed":917129,"internal_node_id":"0.0-10.0-1.0","subject":"wdd0gyo17999kok","sona":"8698"}]