[{"rt":7186.905000009574,"stimulus":"<p>Welcome!<br> Please choose your language to start the experiment in the chosen language.</p><p>Willkommen!<br> Bitte wählen Sie eine Sprache, um das Experiment in der ausgewählten Sprache zu starten</p>","button_pressed":"1","trial_type":"html-button-response","trial_index":0,"time_elapsed":7235,"internal_node_id":"0.0-0.0","subject":"e0ujufm5ck1aavk","sona":"9292"},{"view_history":"[{\"page_index\":0,\"viewing_time\":14551.285000052303},{\"page_index\":1,\"viewing_time\":3835.6849999981932},{\"page_index\":0,\"viewing_time\":8649.899999960326},{\"page_index\":1,\"viewing_time\":3286.145000020042},{\"page_index\":2,\"viewing_time\":4397.799999976996},{\"page_index\":3,\"viewing_time\":4980.719999992289},{\"page_index\":4,\"viewing_time\":2296.4750000392087}]","rt":41998.820000037085,"trial_type":"instructions","trial_index":1,"time_elapsed":49235,"internal_node_id":"0.0-1.0-0.0","subject":"e0ujufm5ck1aavk","sona":"9292"},{"rt":1561.6799999843352,"stimulus":"<p>Bereit?</p>","key_press":32,"trial_type":"html-keyboard-response","trial_index":2,"time_elapsed":50797,"internal_node_id":"0.0-3.0","subject":"e0ujufm5ck1aavk","sona":"9292"},{"rt":null,"stimulus":"<div style=\"font-size:60px;\">+</div>","key_press":null,"trial_type":"html-keyboard-response","trial_index":3,"time_elapsed":52804,"internal_node_id":"0.0-4.0","subject":"e0ujufm5ck1aavk","sona":"9292"},{"trial_type":"training","trial_index":4,"time_elapsed":56143,"internal_node_id":"0.0-5.0","subject":"e0ujufm5ck1aavk","sona":"9292"},{"rt":886.0250000143424,"stimulus":"<p>Welche Sequenz haben Sie als natürlicher empfunden?</p>","key_press":70,"trial_type":"html-keyboard-response","trial_index":5,"time_elapsed":57030,"internal_node_id":"0.0-6.0","subject":"e0ujufm5ck1aavk","sona":"9292"},{"rt":2902.7449999703094,"stimulus":"<p>Das Experiment startet nun.</p><p><small>Bitte drücken Sie den Knopf, wenn Sie bereit sind.</small></p>","button_pressed":"0","trial_type":"html-button-response","trial_index":6,"time_elapsed":59934,"internal_node_id":"0.0-7.0","subject":"e0ujufm5ck1aavk","sona":"9292"},{"rt":1673.389999952633,"stimulus":"<p>Bereit?</p>","key_press":32,"trial_type":"html-keyboard-response","trial_index":7,"time_elapsed":61608,"internal_node_id":"0.0-8.0-0.0","subject":"e0ujufm5ck1aavk","sona":"9292"},{"rt":null,"stimulus":"<div style=\"font-size:60px;\">+</div>","key_press":null,"trial_type":"html-keyboard-response","trial_index":8,"time_elapsed":63615,"internal_node_id":"0.0-8.0-1.0","subject":"e0ujufm5ck1aavk","sona":"9292"},{"trial_type":"turing-test","trial_index":9,"time_elapsed":69873,"internal_node_id":"0.0-8.0-2.0","subject":"e0ujufm5ck1aavk","sona":"9292"},{"rt":5368.360000022221,"stimulus":"<p>Welche Sequenz haben Sie als natürlicher empfunden?</p>","key_press":74,"test_part":"response","test_stimulus":{"position":0,"left":"bvh/pass-bottle-training2-lines.txt","right":"bvh/vr_prediction_models/model(vcgpdm)-dataset(pass-bottle)-mode(ELBO)-parts(1)-dyn(20)-lvm(5)-hold(2)/final-lines.txt","att_check":false},"trial_type":"html-keyboard-response","trial_index":10,"time_elapsed":75243,"internal_node_id":"0.0-8.0-3.0","subject":"e0ujufm5ck1aavk","sona":"9292"},{"rt":903.2749999896623,"stimulus":"<p>Bereit?</p>","key_press":32,"trial_type":"html-keyboard-response","trial_index":11,"time_elapsed":76148,"internal_node_id":"0.0-8.0-0.1","subject":"e0ujufm5ck1aavk","sona":"9292"},{"rt":null,"stimulus":"<div style=\"font-size:60px;\">+</div>","key_press":null,"trial_type":"html-keyboard-response","trial_index":12,"time_elapsed":78159,"internal_node_id":"0.0-8.0-1.1","subject":"e0ujufm5ck1aavk","sona":"9292"},{"trial_type":"turing-test","trial_index":13,"time_elapsed":83363,"internal_node_id":"0.0-8.0-2.1","subject":"e0ujufm5ck1aavk","sona":"9292"},{"rt":1331.145000003744,"stimulus":"<p>Welche Sequenz haben Sie als natürlicher empfunden?</p>","key_press":74,"test_part":"response","test_stimulus":{"position":1,"left":"bvh/vr_prediction_models/model(tmp)-dataset(return-bottle-hold)-numprim(10)-hold(0)/final-lines.txt","right":"bvh/return-bottle-hold-training0-lines.txt","att_check":false},"trial_type":"html-keyboard-response","trial_index":14,"time_elapsed":84696,"internal_node_id":"0.0-8.0-3.1","subject":"e0ujufm5ck1aavk","sona":"9292"},{"rt":1551.4349999721162,"stimulus":"<p>Bereit?</p>","key_press":32,"trial_type":"html-keyboard-response","trial_index":15,"time_elapsed":86249,"internal_node_id":"0.0-8.0-0.2","subject":"e0ujufm5ck1aavk","sona":"9292"},{"rt":null,"stimulus":"<div style=\"font-size:60px;\">+</div>","key_press":null,"trial_type":"html-keyboard-response","trial_index":16,"time_elapsed":88254,"internal_node_id":"0.0-8.0-1.2","subject":"e0ujufm5ck1aavk","sona":"9292"},{"trial_type":"turing-test","trial_index":17,"time_elapsed":91615,"internal_node_id":"0.0-8.0-2.2","subject":"e0ujufm5ck1aavk","sona":"9292"},{"rt":435.4200000525452,"stimulus":"<p>Welche Sequenz haben Sie als natürlicher empfunden?</p>","key_press":74,"test_part":"response","test_stimulus":{"position":0,"left":"bvh/pass-bottle-hold-training1-lines.txt","right":"bvh/vr_prediction_models/model(dmp)-dataset(pass-bottle-hold)-npsi(20)-hold(1)/final-lines.txt","att_check":false},"trial_type":"html-keyboard-response","trial_index":18,"time_elapsed":92052,"internal_node_id":"0.0-8.0-3.2","subject":"e0ujufm5ck1aavk","sona":"9292"},{"rt":1430.4450000054203,"stimulus":"<p>Bereit?</p>","key_press":32,"trial_type":"html-keyboard-response","trial_index":19,"time_elapsed":93484,"internal_node_id":"0.0-8.0-0.3","subject":"e0ujufm5ck1aavk","sona":"9292"},{"rt":null,"stimulus":"<div style=\"font-size:60px;\">+</div>","key_press":null,"trial_type":"html-keyboard-response","trial_index":20,"time_elapsed":95491,"internal_node_id":"0.0-8.0-1.3","subject":"e0ujufm5ck1aavk","sona":"9292"},{"trial_type":"turing-test","trial_index":21,"time_elapsed":99487,"internal_node_id":"0.0-8.0-2.3","subject":"e0ujufm5ck1aavk","sona":"9292"},{"rt":499.56500000553206,"stimulus":"<p>Welche Sequenz haben Sie als natürlicher empfunden?</p>","key_press":74,"test_part":"response","test_stimulus":{"position":0,"left":"bvh/return-bottle-hold-training4-lines.txt","right":"bvh/vr_prediction_models/model(vcgpdm)-dataset(return-bottle-hold)-mode(ELBO)-parts(1)-dyn(10)-lvm(5)-hold(4)/final-lines.txt","att_check":false},"trial_type":"html-keyboard-response","trial_index":22,"time_elapsed":99989,"internal_node_id":"0.0-8.0-3.3","subject":"e0ujufm5ck1aavk","sona":"9292"},{"rt":1073.5500000300817,"stimulus":"<p>Bereit?</p>","key_press":32,"trial_type":"html-keyboard-response","trial_index":23,"time_elapsed":101063,"internal_node_id":"0.0-8.0-0.4","subject":"e0ujufm5ck1aavk","sona":"9292"},{"rt":null,"stimulus":"<div style=\"font-size:60px;\">+</div>","key_press":null,"trial_type":"html-keyboard-response","trial_index":24,"time_elapsed":103069,"internal_node_id":"0.0-8.0-1.4","subject":"e0ujufm5ck1aavk","sona":"9292"},{"trial_type":"turing-test","trial_index":25,"time_elapsed":109134,"internal_node_id":"0.0-8.0-2.4","subject":"e0ujufm5ck1aavk","sona":"9292"},{"rt":616.6649999795482,"stimulus":"<p>Welche Sequenz haben Sie als natürlicher empfunden?</p>","key_press":74,"test_part":"response","test_stimulus":{"position":1,"left":"bvh/vr_prediction_models/model(tmp)-dataset(pass-bottle)-numprim(8)-hold(2)/final-lines.txt","right":"bvh/pass-bottle-training2-lines.txt","att_check":false},"trial_type":"html-keyboard-response","trial_index":26,"time_elapsed":109753,"internal_node_id":"0.0-8.0-3.4","subject":"e0ujufm5ck1aavk","sona":"9292"},{"rt":1077.515000011772,"stimulus":"<p>Bereit?</p>","key_press":32,"trial_type":"html-keyboard-response","trial_index":27,"time_elapsed":110831,"internal_node_id":"0.0-8.0-0.5","subject":"e0ujufm5ck1aavk","sona":"9292"},{"rt":null,"stimulus":"<div style=\"font-size:60px;\">+</div>","key_press":null,"trial_type":"html-keyboard-response","trial_index":28,"time_elapsed":112841,"internal_node_id":"0.0-8.0-1.5","subject":"e0ujufm5ck1aavk","sona":"9292"},{"trial_type":"turing-test","trial_index":29,"time_elapsed":116584,"internal_node_id":"0.0-8.0-2.5","subject":"e0ujufm5ck1aavk","sona":"9292"},{"rt":255.11999998707324,"stimulus":"<p>Welche Sequenz haben Sie als natürlicher empfunden?</p>","key_press":74,"test_part":"response","test_stimulus":{"position":0,"left":"bvh/return-bottle-hold-training4-lines.txt","right":"bvh/vr_prediction_models/model(tmp)-dataset(return-bottle-hold)-numprim(4)-hold(4)/final-lines.txt","att_check":false},"trial_type":"html-keyboard-response","trial_index":30,"time_elapsed":116842,"internal_node_id":"0.0-8.0-3.5","subject":"e0ujufm5ck1aavk","sona":"9292"},{"rt":1977.8800000203773,"stimulus":"<p>Bereit?</p>","key_press":32,"trial_type":"html-keyboard-response","trial_index":31,"time_elapsed":118821,"internal_node_id":"0.0-8.0-0.6","subject":"e0ujufm5ck1aavk","sona":"9292"},{"rt":null,"stimulus":"<div style=\"font-size:60px;\">+</div>","key_press":null,"trial_type":"html-keyboard-response","trial_index":32,"time_elapsed":120827,"internal_node_id":"0.0-8.0-1.6","subject":"e0ujufm5ck1aavk","sona":"9292"},{"trial_type":"turing-test","trial_index":33,"time_elapsed":124255,"internal_node_id":"0.0-8.0-2.6","subject":"e0ujufm5ck1aavk","sona":"9292"},{"rt":2391.8999999877997,"stimulus":"<p>Welche Sequenz haben Sie als natürlicher empfunden?</p>","key_press":70,"test_part":"response","test_stimulus":{"position":1,"left":"bvh/vr_prediction_models/model(dmp)-dataset(return-bottle-hold)-npsi(100)-hold(1)/final-lines.txt","right":"bvh/return-bottle-hold-training1-lines.txt","att_check":true},"trial_type":"html-keyboard-response","trial_index":34,"time_elapsed":126649,"internal_node_id":"0.0-8.0-3.6","subject":"e0ujufm5ck1aavk","sona":"9292"},{"rt":2054.2850000201724,"stimulus":"<p>Bereit?</p>","key_press":32,"trial_type":"html-keyboard-response","trial_index":35,"time_elapsed":128705,"internal_node_id":"0.0-8.0-0.7","subject":"e0ujufm5ck1aavk","sona":"9292"},{"rt":null,"stimulus":"<div style=\"font-size:60px;\">+</div>","key_press":null,"trial_type":"html-keyboard-response","trial_index":36,"time_elapsed":130711,"internal_node_id":"0.0-8.0-1.7","subject":"e0ujufm5ck1aavk","sona":"9292"},{"trial_type":"turing-test","trial_index":37,"time_elapsed":135932,"internal_node_id":"0.0-8.0-2.7","subject":"e0ujufm5ck1aavk","sona":"9292"},{"rt":2720.595000020694,"stimulus":"<p>Welche Sequenz haben Sie als natürlicher empfunden?</p>","key_press":74,"test_part":"response","test_stimulus":{"position":0,"left":"bvh/return-bottle-hold-training0-lines.txt","right":"bvh/vr_prediction_models/model(vcgpdm)-dataset(return-bottle-hold)-mode(ELBO)-parts(3)-dyn(35)-lvm(20)-hold(0)/final-lines.txt","att_check":false},"trial_type":"html-keyboard-response","trial_index":38,"time_elapsed":138655,"internal_node_id":"0.0-8.0-3.7","subject":"e0ujufm5ck1aavk","sona":"9292"},{"rt":1953.6450000014156,"stimulus":"<p>Bereit?</p>","key_press":32,"trial_type":"html-keyboard-response","trial_index":39,"time_elapsed":140610,"internal_node_id":"0.0-8.0-0.8","subject":"e0ujufm5ck1aavk","sona":"9292"},{"rt":null,"stimulus":"<div style=\"font-size:60px;\">+</div>","key_press":null,"trial_type":"html-keyboard-response","trial_index":40,"time_elapsed":142618,"internal_node_id":"0.0-8.0-1.8","subject":"e0ujufm5ck1aavk","sona":"9292"},{"trial_type":"turing-test","trial_index":41,"time_elapsed":148587,"internal_node_id":"0.0-8.0-2.8","subject":"e0ujufm5ck1aavk","sona":"9292"},{"rt":1983.4800000535324,"stimulus":"<p>Welche Sequenz haben Sie als natürlicher empfunden?</p>","key_press":74,"test_part":"response","test_stimulus":{"position":1,"left":"bvh/vr_prediction_models/model(dmp)-dataset(return-bottle)-npsi(70)-hold(4)/final-lines.txt","right":"bvh/return-bottle-training4-lines.txt","att_check":false},"trial_type":"html-keyboard-response","trial_index":42,"time_elapsed":150573,"internal_node_id":"0.0-8.0-3.8","subject":"e0ujufm5ck1aavk","sona":"9292"},{"rt":3588.705000001937,"stimulus":"<p>Bereit?</p>","key_press":32,"trial_type":"html-keyboard-response","trial_index":43,"time_elapsed":154163,"internal_node_id":"0.0-8.0-0.9","subject":"e0ujufm5ck1aavk","sona":"9292"},{"rt":null,"stimulus":"<div style=\"font-size:60px;\">+</div>","key_press":null,"trial_type":"html-keyboard-response","trial_index":44,"time_elapsed":156170,"internal_node_id":"0.0-8.0-1.9","subject":"e0ujufm5ck1aavk","sona":"9292"},{"trial_type":"turing-test","trial_index":45,"time_elapsed":159817,"internal_node_id":"0.0-8.0-2.9","subject":"e0ujufm5ck1aavk","sona":"9292"},{"rt":297.1150000230409,"stimulus":"<p>Welche Sequenz haben Sie als natürlicher empfunden?</p>","key_press":70,"test_part":"response","test_stimulus":{"position":1,"left":"bvh/vr_prediction_models/model(tmp)-dataset(return-bottle-hold)-numprim(13)-hold(3)/final-lines.txt","right":"bvh/return-bottle-hold-training3-lines.txt","att_check":false},"trial_type":"html-keyboard-response","trial_index":46,"time_elapsed":160117,"internal_node_id":"0.0-8.0-3.9","subject":"e0ujufm5ck1aavk","sona":"9292"},{"rt":1536.8100000196137,"stimulus":"<p>Bereit?</p>","key_press":32,"trial_type":"html-keyboard-response","trial_index":47,"time_elapsed":161655,"internal_node_id":"0.0-8.0-0.10","subject":"e0ujufm5ck1aavk","sona":"9292"},{"rt":null,"stimulus":"<div style=\"font-size:60px;\">+</div>","key_press":null,"trial_type":"html-keyboard-response","trial_index":48,"time_elapsed":163665,"internal_node_id":"0.0-8.0-1.10","subject":"e0ujufm5ck1aavk","sona":"9292"},{"trial_type":"turing-test","trial_index":49,"time_elapsed":167628,"internal_node_id":"0.0-8.0-2.10","subject":"e0ujufm5ck1aavk","sona":"9292"},{"rt":377.41000001551583,"stimulus":"<p>Welche Sequenz haben Sie als natürlicher empfunden?</p>","key_press":74,"test_part":"response","test_stimulus":{"position":1,"left":"bvh/vr_prediction_models/model(vcgpdm)-dataset(return-bottle-hold)-mode(ELBO)-parts(1)-dyn(20)-lvm(30)-hold(4)/final-lines.txt","right":"bvh/return-bottle-hold-training4-lines.txt","att_check":false},"trial_type":"html-keyboard-response","trial_index":50,"time_elapsed":168008,"internal_node_id":"0.0-8.0-3.10","subject":"e0ujufm5ck1aavk","sona":"9292"}]