[{"rt":6081,"stimulus":"<p>Welcome!<br> Please choose your language to start the experiment in the chosen language.</p><p>Willkommen!<br> Bitte wählen Sie eine Sprache, um das Experiment in der ausgewählten Sprache zu starten</p>","button_pressed":"1","trial_type":"html-button-response","trial_index":0,"time_elapsed":6096,"internal_node_id":"0.0-0.0","subject":"xtrt7ua5jlqm7lw","sona":"9457"},{"view_history":"[{\"page_index\":0,\"viewing_time\":4025},{\"page_index\":1,\"viewing_time\":4298},{\"page_index\":2,\"viewing_time\":4475},{\"page_index\":3,\"viewing_time\":4420},{\"page_index\":4,\"viewing_time\":3295}]","rt":20514,"trial_type":"instructions","trial_index":1,"time_elapsed":26614,"internal_node_id":"0.0-1.0-0.0","subject":"xtrt7ua5jlqm7lw","sona":"9457"},{"rt":1608,"stimulus":"<p>Bereit?</p>","key_press":32,"trial_type":"html-keyboard-response","trial_index":2,"time_elapsed":28226,"internal_node_id":"0.0-3.0","subject":"xtrt7ua5jlqm7lw","sona":"9457"},{"rt":null,"stimulus":"<div style=\"font-size:60px;\">+</div>","key_press":null,"trial_type":"html-keyboard-response","trial_index":3,"time_elapsed":30268,"internal_node_id":"0.0-4.0","subject":"xtrt7ua5jlqm7lw","sona":"9457"},{"trial_type":"training","trial_index":4,"time_elapsed":33969,"internal_node_id":"0.0-5.0","subject":"xtrt7ua5jlqm7lw","sona":"9457"},{"rt":3012,"stimulus":"<p>Welche Sequenz haben Sie als natürlicher empfunden?</p>","key_press":70,"trial_type":"html-keyboard-response","trial_index":5,"time_elapsed":36983,"internal_node_id":"0.0-6.0","subject":"xtrt7ua5jlqm7lw","sona":"9457"},{"rt":2346,"stimulus":"<p>Das Experiment startet nun.</p><p><small>Bitte drücken Sie den Knopf, wenn Sie bereit sind.</small></p>","button_pressed":"0","trial_type":"html-button-response","trial_index":6,"time_elapsed":39331,"internal_node_id":"0.0-7.0","subject":"xtrt7ua5jlqm7lw","sona":"9457"},{"rt":1238,"stimulus":"<p>Bereit?</p>","key_press":32,"trial_type":"html-keyboard-response","trial_index":7,"time_elapsed":40573,"internal_node_id":"0.0-8.0-0.0","subject":"xtrt7ua5jlqm7lw","sona":"9457"},{"rt":null,"stimulus":"<div style=\"font-size:60px;\">+</div>","key_press":null,"trial_type":"html-keyboard-response","trial_index":8,"time_elapsed":42590,"internal_node_id":"0.0-8.0-1.0","subject":"xtrt7ua5jlqm7lw","sona":"9457"},{"trial_type":"turing-test","trial_index":9,"time_elapsed":46164,"internal_node_id":"0.0-8.0-2.0","subject":"xtrt7ua5jlqm7lw","sona":"9457"},{"rt":779,"stimulus":"<p>Welche Sequenz haben Sie als natürlicher empfunden?</p>","key_press":70,"test_part":"response","test_stimulus":{"position":0,"left":"bvh/pass-bottle-hold-training2-lines.txt","right":"bvh/vr_prediction_models/model(vcgpdm)-dataset(pass-bottle-hold)-mode(ELBO)-parts(3)-dyn(10)-lvm(30)-hold(2)/final-lines.txt","att_check":false},"trial_type":"html-keyboard-response","trial_index":10,"time_elapsed":46947,"internal_node_id":"0.0-8.0-3.0","subject":"xtrt7ua5jlqm7lw","sona":"9457"},{"rt":1450,"stimulus":"<p>Bereit?</p>","key_press":32,"trial_type":"html-keyboard-response","trial_index":11,"time_elapsed":48402,"internal_node_id":"0.0-8.0-0.1","subject":"xtrt7ua5jlqm7lw","sona":"9457"},{"rt":null,"stimulus":"<div style=\"font-size:60px;\">+</div>","key_press":null,"trial_type":"html-keyboard-response","trial_index":12,"time_elapsed":50414,"internal_node_id":"0.0-8.0-1.1","subject":"xtrt7ua5jlqm7lw","sona":"9457"},{"trial_type":"turing-test","trial_index":13,"time_elapsed":53937,"internal_node_id":"0.0-8.0-2.1","subject":"xtrt7ua5jlqm7lw","sona":"9457"},{"rt":658,"stimulus":"<p>Welche Sequenz haben Sie als natürlicher empfunden?</p>","key_press":74,"test_part":"response","test_stimulus":{"position":1,"left":"bvh/vr_prediction_models/model(vcgpdm)-dataset(return-bottle-hold)-mode(ELBO)-parts(3)-dyn(20)-lvm(35)-hold(1)/final-lines.txt","right":"bvh/return-bottle-hold-training1-lines.txt","att_check":false},"trial_type":"html-keyboard-response","trial_index":14,"time_elapsed":54601,"internal_node_id":"0.0-8.0-3.1","subject":"xtrt7ua5jlqm7lw","sona":"9457"},{"rt":586,"stimulus":"<p>Bereit?</p>","key_press":32,"trial_type":"html-keyboard-response","trial_index":15,"time_elapsed":55190,"internal_node_id":"0.0-8.0-0.2","subject":"xtrt7ua5jlqm7lw","sona":"9457"},{"rt":null,"stimulus":"<div style=\"font-size:60px;\">+</div>","key_press":null,"trial_type":"html-keyboard-response","trial_index":16,"time_elapsed":57217,"internal_node_id":"0.0-8.0-1.2","subject":"xtrt7ua5jlqm7lw","sona":"9457"},{"trial_type":"turing-test","trial_index":17,"time_elapsed":60587,"internal_node_id":"0.0-8.0-2.2","subject":"xtrt7ua5jlqm7lw","sona":"9457"},{"rt":759,"stimulus":"<p>Welche Sequenz haben Sie als natürlicher empfunden?</p>","key_press":74,"test_part":"response","test_stimulus":{"position":1,"left":"bvh/vr_prediction_models/model(tmp)-dataset(pass-bottle-hold)-numprim(10)-hold(0)/final-lines.txt","right":"bvh/pass-bottle-hold-training0-lines.txt","att_check":false},"trial_type":"html-keyboard-response","trial_index":18,"time_elapsed":61350,"internal_node_id":"0.0-8.0-3.2","subject":"xtrt7ua5jlqm7lw","sona":"9457"},{"rt":448,"stimulus":"<p>Bereit?</p>","key_press":32,"trial_type":"html-keyboard-response","trial_index":19,"time_elapsed":61800,"internal_node_id":"0.0-8.0-0.3","subject":"xtrt7ua5jlqm7lw","sona":"9457"},{"rt":null,"stimulus":"<div style=\"font-size:60px;\">+</div>","key_press":null,"trial_type":"html-keyboard-response","trial_index":20,"time_elapsed":63828,"internal_node_id":"0.0-8.0-1.3","subject":"xtrt7ua5jlqm7lw","sona":"9457"},{"trial_type":"turing-test","trial_index":21,"time_elapsed":69693,"internal_node_id":"0.0-8.0-2.3","subject":"xtrt7ua5jlqm7lw","sona":"9457"},{"rt":739,"stimulus":"<p>Welche Sequenz haben Sie als natürlicher empfunden?</p>","key_press":70,"test_part":"response","test_stimulus":{"position":1,"left":"bvh/vr_prediction_models/model(tmp)-dataset(return-bottle)-numprim(8)-hold(4)/final-lines.txt","right":"bvh/return-bottle-training4-lines.txt","att_check":false},"trial_type":"html-keyboard-response","trial_index":22,"time_elapsed":70438,"internal_node_id":"0.0-8.0-3.3","subject":"xtrt7ua5jlqm7lw","sona":"9457"},{"rt":511,"stimulus":"<p>Bereit?</p>","key_press":32,"trial_type":"html-keyboard-response","trial_index":23,"time_elapsed":70955,"internal_node_id":"0.0-8.0-0.4","subject":"xtrt7ua5jlqm7lw","sona":"9457"},{"rt":null,"stimulus":"<div style=\"font-size:60px;\">+</div>","key_press":null,"trial_type":"html-keyboard-response","trial_index":24,"time_elapsed":72983,"internal_node_id":"0.0-8.0-1.4","subject":"xtrt7ua5jlqm7lw","sona":"9457"},{"trial_type":"turing-test","trial_index":25,"time_elapsed":76650,"internal_node_id":"0.0-8.0-2.4","subject":"xtrt7ua5jlqm7lw","sona":"9457"},{"rt":810,"stimulus":"<p>Welche Sequenz haben Sie als natürlicher empfunden?</p>","key_press":74,"test_part":"response","test_stimulus":{"position":1,"left":"bvh/vr_prediction_models/model(tmp)-dataset(return-bottle-hold)-numprim(12)-hold(3)/final-lines.txt","right":"bvh/return-bottle-hold-training3-lines.txt","att_check":false},"trial_type":"html-keyboard-response","trial_index":26,"time_elapsed":77466,"internal_node_id":"0.0-8.0-3.4","subject":"xtrt7ua5jlqm7lw","sona":"9457"},{"rt":701,"stimulus":"<p>Bereit?</p>","key_press":32,"trial_type":"html-keyboard-response","trial_index":27,"time_elapsed":78171,"internal_node_id":"0.0-8.0-0.5","subject":"xtrt7ua5jlqm7lw","sona":"9457"},{"rt":null,"stimulus":"<div style=\"font-size:60px;\">+</div>","key_press":null,"trial_type":"html-keyboard-response","trial_index":28,"time_elapsed":80201,"internal_node_id":"0.0-8.0-1.5","subject":"xtrt7ua5jlqm7lw","sona":"9457"},{"trial_type":"turing-test","trial_index":29,"time_elapsed":83650,"internal_node_id":"0.0-8.0-2.5","subject":"xtrt7ua5jlqm7lw","sona":"9457"},{"rt":710,"stimulus":"<p>Welche Sequenz haben Sie als natürlicher empfunden?</p>","key_press":70,"test_part":"response","test_stimulus":{"position":0,"left":"bvh/return-bottle-hold-training1-lines.txt","right":"bvh/vr_prediction_models/model(vcgpdm)-dataset(return-bottle-hold)-mode(ELBO)-parts(3)-dyn(30)-lvm(15)-hold(1)/final-lines.txt","att_check":false},"trial_type":"html-keyboard-response","trial_index":30,"time_elapsed":84364,"internal_node_id":"0.0-8.0-3.5","subject":"xtrt7ua5jlqm7lw","sona":"9457"},{"rt":409,"stimulus":"<p>Bereit?</p>","key_press":32,"trial_type":"html-keyboard-response","trial_index":31,"time_elapsed":84777,"internal_node_id":"0.0-8.0-0.6","subject":"xtrt7ua5jlqm7lw","sona":"9457"},{"rt":null,"stimulus":"<div style=\"font-size:60px;\">+</div>","key_press":null,"trial_type":"html-keyboard-response","trial_index":32,"time_elapsed":86801,"internal_node_id":"0.0-8.0-1.6","subject":"xtrt7ua5jlqm7lw","sona":"9457"},{"trial_type":"turing-test","trial_index":33,"time_elapsed":92110,"internal_node_id":"0.0-8.0-2.6","subject":"xtrt7ua5jlqm7lw","sona":"9457"},{"rt":561,"stimulus":"<p>Welche Sequenz haben Sie als natürlicher empfunden?</p>","key_press":70,"test_part":"response","test_stimulus":{"position":1,"left":"bvh/vr_prediction_models/model(vcgpdm)-dataset(return-bottle-hold)-mode(ELBO)-parts(3)-dyn(20)-lvm(20)-hold(0)/final-lines.txt","right":"bvh/return-bottle-hold-training0-lines.txt","att_check":false},"trial_type":"html-keyboard-response","trial_index":34,"time_elapsed":92678,"internal_node_id":"0.0-8.0-3.6","subject":"xtrt7ua5jlqm7lw","sona":"9457"},{"rt":473,"stimulus":"<p>Bereit?</p>","key_press":32,"trial_type":"html-keyboard-response","trial_index":35,"time_elapsed":93155,"internal_node_id":"0.0-8.0-0.7","subject":"xtrt7ua5jlqm7lw","sona":"9457"},{"rt":null,"stimulus":"<div style=\"font-size:60px;\">+</div>","key_press":null,"trial_type":"html-keyboard-response","trial_index":36,"time_elapsed":95179,"internal_node_id":"0.0-8.0-1.7","subject":"xtrt7ua5jlqm7lw","sona":"9457"},{"trial_type":"turing-test","trial_index":37,"time_elapsed":102166,"internal_node_id":"0.0-8.0-2.7","subject":"xtrt7ua5jlqm7lw","sona":"9457"},{"rt":693,"stimulus":"<p>Welche Sequenz haben Sie als natürlicher empfunden?</p>","key_press":70,"test_part":"response","test_stimulus":{"position":0,"left":"bvh/pass-bottle-training0-lines.txt","right":"bvh/vr_prediction_models/model(vcgpdm)-dataset(pass-bottle)-mode(ELBO)-parts(1)-dyn(20)-lvm(5)-hold(0)/final-lines.txt","att_check":false},"trial_type":"html-keyboard-response","trial_index":38,"time_elapsed":102863,"internal_node_id":"0.0-8.0-3.7","subject":"xtrt7ua5jlqm7lw","sona":"9457"},{"rt":376,"stimulus":"<p>Bereit?</p>","key_press":32,"trial_type":"html-keyboard-response","trial_index":39,"time_elapsed":103242,"internal_node_id":"0.0-8.0-0.8","subject":"xtrt7ua5jlqm7lw","sona":"9457"},{"rt":null,"stimulus":"<div style=\"font-size:60px;\">+</div>","key_press":null,"trial_type":"html-keyboard-response","trial_index":40,"time_elapsed":105257,"internal_node_id":"0.0-8.0-1.8","subject":"xtrt7ua5jlqm7lw","sona":"9457"},{"trial_type":"turing-test","trial_index":41,"time_elapsed":108579,"internal_node_id":"0.0-8.0-2.8","subject":"xtrt7ua5jlqm7lw","sona":"9457"},{"rt":3141,"stimulus":"<p>Welche Sequenz haben Sie als natürlicher empfunden?</p>","key_press":70,"test_part":"response","test_stimulus":{"position":0,"left":"bvh/pass-bottle-hold-training0-lines.txt","right":"bvh/vr_prediction_models/model(tmp)-dataset(pass-bottle-hold)-numprim(7)-hold(0)/final-lines.txt","att_check":false},"trial_type":"html-keyboard-response","trial_index":42,"time_elapsed":111724,"internal_node_id":"0.0-8.0-3.8","subject":"xtrt7ua5jlqm7lw","sona":"9457"},{"rt":532,"stimulus":"<p>Bereit?</p>","key_press":32,"trial_type":"html-keyboard-response","trial_index":43,"time_elapsed":112260,"internal_node_id":"0.0-8.0-0.9","subject":"xtrt7ua5jlqm7lw","sona":"9457"},{"rt":null,"stimulus":"<div style=\"font-size:60px;\">+</div>","key_press":null,"trial_type":"html-keyboard-response","trial_index":44,"time_elapsed":114299,"internal_node_id":"0.0-8.0-1.9","subject":"xtrt7ua5jlqm7lw","sona":"9457"},{"trial_type":"turing-test","trial_index":45,"time_elapsed":120452,"internal_node_id":"0.0-8.0-2.9","subject":"xtrt7ua5jlqm7lw","sona":"9457"},{"rt":421,"stimulus":"<p>Welche Sequenz haben Sie als natürlicher empfunden?</p>","key_press":74,"test_part":"response","test_stimulus":{"position":1,"left":"bvh/vr_prediction_models/model(tmp)-dataset(pass-bottle)-numprim(10)-hold(2)/final-lines.txt","right":"bvh/pass-bottle-training2-lines.txt","att_check":false},"trial_type":"html-keyboard-response","trial_index":46,"time_elapsed":120877,"internal_node_id":"0.0-8.0-3.9","subject":"xtrt7ua5jlqm7lw","sona":"9457"},{"rt":507,"stimulus":"<p>Bereit?</p>","key_press":32,"trial_type":"html-keyboard-response","trial_index":47,"time_elapsed":121388,"internal_node_id":"0.0-8.0-0.10","subject":"xtrt7ua5jlqm7lw","sona":"9457"},{"rt":null,"stimulus":"<div style=\"font-size:60px;\">+</div>","key_press":null,"trial_type":"html-keyboard-response","trial_index":48,"time_elapsed":123402,"internal_node_id":"0.0-8.0-1.10","subject":"xtrt7ua5jlqm7lw","sona":"9457"},{"trial_type":"turing-test","trial_index":49,"time_elapsed":129495,"internal_node_id":"0.0-8.0-2.10","subject":"xtrt7ua5jlqm7lw","sona":"9457"},{"rt":627,"stimulus":"<p>Welche Sequenz haben Sie als natürlicher empfunden?</p>","key_press":74,"test_part":"response","test_stimulus":{"position":0,"left":"bvh/pass-bottle-training3-lines.txt","right":"bvh/vr_prediction_models/model(vcgpdm)-dataset(pass-bottle)-mode(ELBO)-parts(3)-dyn(10)-lvm(10)-hold(3)/final-lines.txt","att_check":false},"trial_type":"html-keyboard-response","trial_index":50,"time_elapsed":130125,"internal_node_id":"0.0-8.0-3.10","subject":"xtrt7ua5jlqm7lw","sona":"9457"},{"rt":356,"stimulus":"<p>Bereit?</p>","key_press":32,"trial_type":"html-keyboard-response","trial_index":51,"time_elapsed":130484,"internal_node_id":"0.0-8.0-0.11","subject":"xtrt7ua5jlqm7lw","sona":"9457"},{"rt":null,"stimulus":"<div style=\"font-size:60px;\">+</div>","key_press":null,"trial_type":"html-keyboard-response","trial_index":52,"time_elapsed":132504,"internal_node_id":"0.0-8.0-1.11","subject":"xtrt7ua5jlqm7lw","sona":"9457"},{"trial_type":"turing-test","trial_index":53,"time_elapsed":135822,"internal_node_id":"0.0-8.0-2.11","subject":"xtrt7ua5jlqm7lw","sona":"9457"}]