[{"rt":1895.1349999988452,"stimulus":"<p>Welcome!<br> Please choose your language to start the experiment in the chosen language.</p><p>Willkommen!<br> Bitte wählen Sie eine Sprache, um das Experiment in der ausgewählten Sprache zu starten</p>","button_pressed":"1","trial_type":"html-button-response","trial_index":0,"time_elapsed":1926,"internal_node_id":"0.0-0.0","subject":"rmraqkvqxrdwk3p","sona":"9304"},{"view_history":"[{\"page_index\":0,\"viewing_time\":1928.864999965299},{\"page_index\":1,\"viewing_time\":1518.6050000484101},{\"page_index\":2,\"viewing_time\":4057.319999963511},{\"page_index\":3,\"viewing_time\":7212.3950000386685},{\"page_index\":4,\"viewing_time\":2497.784999955911}]","rt":17215.704999980517,"trial_type":"instructions","trial_index":1,"time_elapsed":19143,"internal_node_id":"0.0-1.0-0.0","subject":"rmraqkvqxrdwk3p","sona":"9304"},{"rt":1516.1749999970198,"stimulus":"<p>Bereit?</p>","key_press":32,"trial_type":"html-keyboard-response","trial_index":2,"time_elapsed":20661,"internal_node_id":"0.0-3.0","subject":"rmraqkvqxrdwk3p","sona":"9304"},{"rt":null,"stimulus":"<div style=\"font-size:60px;\">+</div>","key_press":null,"trial_type":"html-keyboard-response","trial_index":3,"time_elapsed":22675,"internal_node_id":"0.0-4.0","subject":"rmraqkvqxrdwk3p","sona":"9304"},{"trial_type":"training","trial_index":4,"time_elapsed":26022,"internal_node_id":"0.0-5.0","subject":"rmraqkvqxrdwk3p","sona":"9304"},{"rt":267.3399999621324,"stimulus":"<p>Welche Sequenz haben Sie als natürlicher empfunden?</p>","key_press":70,"trial_type":"html-keyboard-response","trial_index":5,"time_elapsed":26290,"internal_node_id":"0.0-6.0","subject":"rmraqkvqxrdwk3p","sona":"9304"},{"rt":6445.025000022724,"stimulus":"<p>Das Experiment startet nun.</p><p><small>Bitte drücken Sie den Knopf, wenn Sie bereit sind.</small></p>","button_pressed":"0","trial_type":"html-button-response","trial_index":6,"time_elapsed":32736,"internal_node_id":"0.0-7.0","subject":"rmraqkvqxrdwk3p","sona":"9304"},{"rt":1201.4649999910034,"stimulus":"<p>Bereit?</p>","key_press":32,"trial_type":"html-keyboard-response","trial_index":7,"time_elapsed":33941,"internal_node_id":"0.0-8.0-0.0","subject":"rmraqkvqxrdwk3p","sona":"9304"},{"rt":null,"stimulus":"<div style=\"font-size:60px;\">+</div>","key_press":null,"trial_type":"html-keyboard-response","trial_index":8,"time_elapsed":35944,"internal_node_id":"0.0-8.0-1.0","subject":"rmraqkvqxrdwk3p","sona":"9304"},{"trial_type":"turing-test","trial_index":9,"time_elapsed":41756,"internal_node_id":"0.0-8.0-2.0","subject":"rmraqkvqxrdwk3p","sona":"9304"},{"rt":204.78000002913177,"stimulus":"<p>Welche Sequenz haben Sie als natürlicher empfunden?</p>","key_press":74,"test_part":"response","test_stimulus":{"position":1,"left":"bvh/vr_prediction_models/model(vcgpdm)-dataset(return-bottle)-mode(ELBO)-parts(1)-dyn(20)-lvm(30)-hold(3)/final-lines.txt","right":"bvh/return-bottle-training3-lines.txt","att_check":false},"trial_type":"html-keyboard-response","trial_index":10,"time_elapsed":41963,"internal_node_id":"0.0-8.0-3.0","subject":"rmraqkvqxrdwk3p","sona":"9304"},{"rt":1414.8600000189617,"stimulus":"<p>Bereit?</p>","key_press":32,"trial_type":"html-keyboard-response","trial_index":11,"time_elapsed":43380,"internal_node_id":"0.0-8.0-0.1","subject":"rmraqkvqxrdwk3p","sona":"9304"},{"rt":null,"stimulus":"<div style=\"font-size:60px;\">+</div>","key_press":null,"trial_type":"html-keyboard-response","trial_index":12,"time_elapsed":45381,"internal_node_id":"0.0-8.0-1.1","subject":"rmraqkvqxrdwk3p","sona":"9304"},{"trial_type":"turing-test","trial_index":13,"time_elapsed":49059,"internal_node_id":"0.0-8.0-2.1","subject":"rmraqkvqxrdwk3p","sona":"9304"},{"rt":574.3350000120699,"stimulus":"<p>Welche Sequenz haben Sie als natürlicher empfunden?</p>","key_press":70,"test_part":"response","test_stimulus":{"position":1,"left":"bvh/vr_prediction_models/model(vcgpdm)-dataset(pass-bottle-hold)-mode(ELBO)-parts(1)-dyn(20)-lvm(20)-hold(4)/final-lines.txt","right":"bvh/pass-bottle-hold-training4-lines.txt","att_check":false},"trial_type":"html-keyboard-response","trial_index":14,"time_elapsed":49635,"internal_node_id":"0.0-8.0-3.1","subject":"rmraqkvqxrdwk3p","sona":"9304"},{"rt":468.8150000292808,"stimulus":"<p>Bereit?</p>","key_press":32,"trial_type":"html-keyboard-response","trial_index":15,"time_elapsed":50106,"internal_node_id":"0.0-8.0-0.2","subject":"rmraqkvqxrdwk3p","sona":"9304"},{"rt":null,"stimulus":"<div style=\"font-size:60px;\">+</div>","key_press":null,"trial_type":"html-keyboard-response","trial_index":16,"time_elapsed":52109,"internal_node_id":"0.0-8.0-1.2","subject":"rmraqkvqxrdwk3p","sona":"9304"},{"trial_type":"turing-test","trial_index":17,"time_elapsed":55685,"internal_node_id":"0.0-8.0-2.2","subject":"rmraqkvqxrdwk3p","sona":"9304"},{"rt":299.0799999679439,"stimulus":"<p>Welche Sequenz haben Sie als natürlicher empfunden?</p>","key_press":74,"test_part":"response","test_stimulus":{"position":1,"left":"bvh/vr_prediction_models/model(tmp)-dataset(return-bottle-hold)-numprim(14)-hold(3)/final-lines.txt","right":"bvh/return-bottle-hold-training3-lines.txt","att_check":false},"trial_type":"html-keyboard-response","trial_index":18,"time_elapsed":55986,"internal_node_id":"0.0-8.0-3.2","subject":"rmraqkvqxrdwk3p","sona":"9304"},{"rt":472.20499999821186,"stimulus":"<p>Bereit?</p>","key_press":32,"trial_type":"html-keyboard-response","trial_index":19,"time_elapsed":56460,"internal_node_id":"0.0-8.0-0.3","subject":"rmraqkvqxrdwk3p","sona":"9304"},{"rt":null,"stimulus":"<div style=\"font-size:60px;\">+</div>","key_press":null,"trial_type":"html-keyboard-response","trial_index":20,"time_elapsed":58463,"internal_node_id":"0.0-8.0-1.3","subject":"rmraqkvqxrdwk3p","sona":"9304"},{"trial_type":"turing-test","trial_index":21,"time_elapsed":64568,"internal_node_id":"0.0-8.0-2.3","subject":"rmraqkvqxrdwk3p","sona":"9304"},{"rt":219.43999995710328,"stimulus":"<p>Welche Sequenz haben Sie als natürlicher empfunden?</p>","key_press":74,"test_part":"response","test_stimulus":{"position":1,"left":"bvh/vr_prediction_models/model(vcgpdm)-dataset(return-bottle)-mode(ELBO)-parts(3)-dyn(10)-lvm(25)-hold(1)/final-lines.txt","right":"bvh/return-bottle-training1-lines.txt","att_check":false},"trial_type":"html-keyboard-response","trial_index":22,"time_elapsed":64790,"internal_node_id":"0.0-8.0-3.3","subject":"rmraqkvqxrdwk3p","sona":"9304"},{"rt":594.1200000233948,"stimulus":"<p>Bereit?</p>","key_press":32,"trial_type":"html-keyboard-response","trial_index":23,"time_elapsed":65385,"internal_node_id":"0.0-8.0-0.4","subject":"rmraqkvqxrdwk3p","sona":"9304"},{"rt":null,"stimulus":"<div style=\"font-size:60px;\">+</div>","key_press":null,"trial_type":"html-keyboard-response","trial_index":24,"time_elapsed":67388,"internal_node_id":"0.0-8.0-1.4","subject":"rmraqkvqxrdwk3p","sona":"9304"},{"trial_type":"turing-test","trial_index":25,"time_elapsed":73278,"internal_node_id":"0.0-8.0-2.4","subject":"rmraqkvqxrdwk3p","sona":"9304"},{"rt":407.3149999603629,"stimulus":"<p>Welche Sequenz haben Sie als natürlicher empfunden?</p>","key_press":70,"test_part":"response","test_stimulus":{"position":0,"left":"bvh/pass-bottle-training3-lines.txt","right":"bvh/vr_prediction_models/model(vcgpdm)-dataset(pass-bottle)-mode(ELBO)-parts(1)-dyn(15)-lvm(35)-hold(3)/final-lines.txt","att_check":false},"trial_type":"html-keyboard-response","trial_index":26,"time_elapsed":73689,"internal_node_id":"0.0-8.0-3.4","subject":"rmraqkvqxrdwk3p","sona":"9304"},{"rt":449.4499999564141,"stimulus":"<p>Bereit?</p>","key_press":32,"trial_type":"html-keyboard-response","trial_index":27,"time_elapsed":74140,"internal_node_id":"0.0-8.0-0.5","subject":"rmraqkvqxrdwk3p","sona":"9304"},{"rt":null,"stimulus":"<div style=\"font-size:60px;\">+</div>","key_press":null,"trial_type":"html-keyboard-response","trial_index":28,"time_elapsed":76146,"internal_node_id":"0.0-8.0-1.5","subject":"rmraqkvqxrdwk3p","sona":"9304"},{"trial_type":"turing-test","trial_index":29,"time_elapsed":81868,"internal_node_id":"0.0-8.0-2.5","subject":"rmraqkvqxrdwk3p","sona":"9304"},{"rt":437.65500001609325,"stimulus":"<p>Welche Sequenz haben Sie als natürlicher empfunden?</p>","key_press":70,"test_part":"response","test_stimulus":{"position":0,"left":"bvh/pass-bottle-training4-lines.txt","right":"bvh/vr_prediction_models/model(dmp)-dataset(pass-bottle)-npsi(70)-hold(4)/final-lines.txt","att_check":false},"trial_type":"html-keyboard-response","trial_index":30,"time_elapsed":82309,"internal_node_id":"0.0-8.0-3.5","subject":"rmraqkvqxrdwk3p","sona":"9304"},{"rt":374.82000002637506,"stimulus":"<p>Bereit?</p>","key_press":32,"trial_type":"html-keyboard-response","trial_index":31,"time_elapsed":82688,"internal_node_id":"0.0-8.0-0.6","subject":"rmraqkvqxrdwk3p","sona":"9304"},{"rt":null,"stimulus":"<div style=\"font-size:60px;\">+</div>","key_press":null,"trial_type":"html-keyboard-response","trial_index":32,"time_elapsed":84692,"internal_node_id":"0.0-8.0-1.6","subject":"rmraqkvqxrdwk3p","sona":"9304"},{"trial_type":"turing-test","trial_index":33,"time_elapsed":90453,"internal_node_id":"0.0-8.0-2.6","subject":"rmraqkvqxrdwk3p","sona":"9304"},{"rt":248.7400000100024,"stimulus":"<p>Welche Sequenz haben Sie als natürlicher empfunden?</p>","key_press":70,"test_part":"response","test_stimulus":{"position":0,"left":"bvh/pass-bottle-training3-lines.txt","right":"bvh/vr_prediction_models/model(tmp)-dataset(pass-bottle)-numprim(13)-hold(3)/final-lines.txt","att_check":false},"trial_type":"html-keyboard-response","trial_index":34,"time_elapsed":90704,"internal_node_id":"0.0-8.0-3.6","subject":"rmraqkvqxrdwk3p","sona":"9304"},{"rt":365.25000003166497,"stimulus":"<p>Bereit?</p>","key_press":32,"trial_type":"html-keyboard-response","trial_index":35,"time_elapsed":91071,"internal_node_id":"0.0-8.0-0.7","subject":"rmraqkvqxrdwk3p","sona":"9304"},{"rt":null,"stimulus":"<div style=\"font-size:60px;\">+</div>","key_press":null,"trial_type":"html-keyboard-response","trial_index":36,"time_elapsed":93073,"internal_node_id":"0.0-8.0-1.7","subject":"rmraqkvqxrdwk3p","sona":"9304"},{"trial_type":"turing-test","trial_index":37,"time_elapsed":96609,"internal_node_id":"0.0-8.0-2.7","subject":"rmraqkvqxrdwk3p","sona":"9304"},{"rt":2547.0949999871664,"stimulus":"<p>Welche Sequenz haben Sie als natürlicher empfunden?</p>","key_press":74,"test_part":"response","test_stimulus":{"position":1,"left":"bvh/vr_prediction_models/model(vcgpdm)-dataset(return-bottle-hold)-mode(ELBO)-parts(1)-dyn(15)-lvm(35)-hold(2)/final-lines.txt","right":"bvh/return-bottle-hold-training2-lines.txt","att_check":false},"trial_type":"html-keyboard-response","trial_index":38,"time_elapsed":99159,"internal_node_id":"0.0-8.0-3.7","subject":"rmraqkvqxrdwk3p","sona":"9304"},{"rt":567.7750000031665,"stimulus":"<p>Bereit?</p>","key_press":32,"trial_type":"html-keyboard-response","trial_index":39,"time_elapsed":99728,"internal_node_id":"0.0-8.0-0.8","subject":"rmraqkvqxrdwk3p","sona":"9304"},{"rt":null,"stimulus":"<div style=\"font-size:60px;\">+</div>","key_press":null,"trial_type":"html-keyboard-response","trial_index":40,"time_elapsed":101731,"internal_node_id":"0.0-8.0-1.8","subject":"rmraqkvqxrdwk3p","sona":"9304"},{"trial_type":"turing-test","trial_index":41,"time_elapsed":107809,"internal_node_id":"0.0-8.0-2.8","subject":"rmraqkvqxrdwk3p","sona":"9304"},{"rt":1677.7899999869987,"stimulus":"<p>Welche Sequenz haben Sie als natürlicher empfunden?</p>","key_press":74,"test_part":"response","test_stimulus":{"position":1,"left":"bvh/vr_prediction_models/model(vcgpdm)-dataset(return-bottle)-mode(ELBO)-parts(1)-dyn(20)-lvm(5)-hold(1)/final-lines.txt","right":"bvh/return-bottle-training1-lines.txt","att_check":false},"trial_type":"html-keyboard-response","trial_index":42,"time_elapsed":109489,"internal_node_id":"0.0-8.0-3.8","subject":"rmraqkvqxrdwk3p","sona":"9304"},{"rt":539.0400000032969,"stimulus":"<p>Bereit?</p>","key_press":32,"trial_type":"html-keyboard-response","trial_index":43,"time_elapsed":110034,"internal_node_id":"0.0-8.0-0.9","subject":"rmraqkvqxrdwk3p","sona":"9304"},{"rt":null,"stimulus":"<div style=\"font-size:60px;\">+</div>","key_press":null,"trial_type":"html-keyboard-response","trial_index":44,"time_elapsed":112035,"internal_node_id":"0.0-8.0-1.9","subject":"rmraqkvqxrdwk3p","sona":"9304"},{"trial_type":"turing-test","trial_index":45,"time_elapsed":115722,"internal_node_id":"0.0-8.0-2.9","subject":"rmraqkvqxrdwk3p","sona":"9304"},{"rt":482.4549999902956,"stimulus":"<p>Welche Sequenz haben Sie als natürlicher empfunden?</p>","key_press":70,"test_part":"response","test_stimulus":{"position":0,"left":"bvh/return-bottle-hold-training4-lines.txt","right":"bvh/vr_prediction_models/model(dmp)-dataset(return-bottle-hold)-npsi(60)-hold(4)/final-lines.txt","att_check":false},"trial_type":"html-keyboard-response","trial_index":46,"time_elapsed":116212,"internal_node_id":"0.0-8.0-3.9","subject":"rmraqkvqxrdwk3p","sona":"9304"},{"rt":531.8899999838322,"stimulus":"<p>Bereit?</p>","key_press":32,"trial_type":"html-keyboard-response","trial_index":47,"time_elapsed":116746,"internal_node_id":"0.0-8.0-0.10","subject":"rmraqkvqxrdwk3p","sona":"9304"},{"rt":null,"stimulus":"<div style=\"font-size:60px;\">+</div>","key_press":null,"trial_type":"html-keyboard-response","trial_index":48,"time_elapsed":118750,"internal_node_id":"0.0-8.0-1.10","subject":"rmraqkvqxrdwk3p","sona":"9304"},{"trial_type":"turing-test","trial_index":49,"time_elapsed":122437,"internal_node_id":"0.0-8.0-2.10","subject":"rmraqkvqxrdwk3p","sona":"9304"},{"rt":281.68999997433275,"stimulus":"<p>Welche Sequenz haben Sie als natürlicher empfunden?</p>","key_press":70,"test_part":"response","test_stimulus":{"position":0,"left":"bvh/return-bottle-hold-training4-lines.txt","right":"bvh/vr_prediction_models/model(dmp)-dataset(return-bottle-hold)-npsi(70)-hold(4)/final-lines.txt","att_check":false},"trial_type":"html-keyboard-response","trial_index":50,"time_elapsed":122721,"internal_node_id":"0.0-8.0-3.10","subject":"rmraqkvqxrdwk3p","sona":"9304"},{"rt":422.49500000616536,"stimulus":"<p>Bereit?</p>","key_press":32,"trial_type":"html-keyboard-response","trial_index":51,"time_elapsed":123145,"internal_node_id":"0.0-8.0-0.11","subject":"rmraqkvqxrdwk3p","sona":"9304"},{"rt":null,"stimulus":"<div style=\"font-size:60px;\">+</div>","key_press":null,"trial_type":"html-keyboard-response","trial_index":52,"time_elapsed":125147,"internal_node_id":"0.0-8.0-1.11","subject":"rmraqkvqxrdwk3p","sona":"9304"}]