[{"rt":2275,"stimulus":"<p>Welcome!<br> Please choose your language to start the experiment in the chosen language.</p><p>Willkommen!<br> Bitte wählen Sie eine Sprache, um das Experiment in der ausgewählten Sprache zu starten</p>","button_pressed":"1","trial_type":"html-button-response","trial_index":0,"time_elapsed":2284,"internal_node_id":"0.0-0.0","subject":"zx561f2a7h3jy9q","sona":"7429"},{"view_history":"[{\"page_index\":0,\"viewing_time\":861},{\"page_index\":1,\"viewing_time\":886},{\"page_index\":2,\"viewing_time\":982},{\"page_index\":3,\"viewing_time\":903},{\"page_index\":4,\"viewing_time\":1531}]","rt":5164,"trial_type":"instructions","trial_index":1,"time_elapsed":7453,"internal_node_id":"0.0-1.0-0.0","subject":"zx561f2a7h3jy9q","sona":"7429"},{"rt":1124,"stimulus":"<p>Bereit?</p>","key_press":32,"trial_type":"html-keyboard-response","trial_index":2,"time_elapsed":8581,"internal_node_id":"0.0-3.0","subject":"zx561f2a7h3jy9q","sona":"7429"},{"rt":null,"stimulus":"<div style=\"font-size:60px;\">+</div>","key_press":null,"trial_type":"html-keyboard-response","trial_index":3,"time_elapsed":10589,"internal_node_id":"0.0-4.0","subject":"zx561f2a7h3jy9q","sona":"7429"},{"trial_type":"training","trial_index":4,"time_elapsed":14034,"internal_node_id":"0.0-5.0","subject":"zx561f2a7h3jy9q","sona":"7429"},{"rt":182,"stimulus":"<p>Welche Sequenz haben Sie als natürlicher empfunden?</p>","key_press":70,"trial_type":"html-keyboard-response","trial_index":5,"time_elapsed":14220,"internal_node_id":"0.0-6.0","subject":"zx561f2a7h3jy9q","sona":"7429"},{"rt":3409,"stimulus":"<p>Das Experiment startet nun.</p><p><small>Bitte drücken Sie den Knopf, wenn Sie bereit sind.</small></p>","button_pressed":"0","trial_type":"html-button-response","trial_index":6,"time_elapsed":17631,"internal_node_id":"0.0-7.0","subject":"zx561f2a7h3jy9q","sona":"7429"},{"rt":49444,"stimulus":"<p>Bereit?</p>","key_press":32,"trial_type":"html-keyboard-response","trial_index":7,"time_elapsed":67080,"internal_node_id":"0.0-8.0-0.0","subject":"zx561f2a7h3jy9q","sona":"7429"},{"rt":null,"stimulus":"<div style=\"font-size:60px;\">+</div>","key_press":null,"trial_type":"html-keyboard-response","trial_index":8,"time_elapsed":69109,"internal_node_id":"0.0-8.0-1.0","subject":"zx561f2a7h3jy9q","sona":"7429"},{"trial_type":"turing-test","trial_index":9,"time_elapsed":73278,"internal_node_id":"0.0-8.0-2.0","subject":"zx561f2a7h3jy9q","sona":"7429"},{"rt":965,"stimulus":"<p>Welche Sequenz haben Sie als natürlicher empfunden?</p>","key_press":70,"test_part":"response","test_stimulus":{"position":0,"left":"bvh/return-bottle-hold-training4-lines.txt","right":"bvh/vr_prediction_models/model(vcgpdm)-dataset(return-bottle-hold)-mode(ELBO)-parts(1)-dyn(20)-lvm(30)-hold(4)/final-lines.txt","att_check":false},"trial_type":"html-keyboard-response","trial_index":10,"time_elapsed":74252,"internal_node_id":"0.0-8.0-3.0","subject":"zx561f2a7h3jy9q","sona":"7429"},{"rt":1092,"stimulus":"<p>Bereit?</p>","key_press":32,"trial_type":"html-keyboard-response","trial_index":11,"time_elapsed":75348,"internal_node_id":"0.0-8.0-0.1","subject":"zx561f2a7h3jy9q","sona":"7429"},{"rt":null,"stimulus":"<div style=\"font-size:60px;\">+</div>","key_press":null,"trial_type":"html-keyboard-response","trial_index":12,"time_elapsed":77373,"internal_node_id":"0.0-8.0-1.1","subject":"zx561f2a7h3jy9q","sona":"7429"},{"trial_type":"turing-test","trial_index":13,"time_elapsed":83522,"internal_node_id":"0.0-8.0-2.1","subject":"zx561f2a7h3jy9q","sona":"7429"},{"rt":638,"stimulus":"<p>Welche Sequenz haben Sie als natürlicher empfunden?</p>","key_press":70,"test_part":"response","test_stimulus":{"position":0,"left":"bvh/pass-bottle-training2-lines.txt","right":"bvh/vr_prediction_models/model(dmp)-dataset(pass-bottle)-npsi(50)-hold(2)/final-lines.txt","att_check":true},"trial_type":"html-keyboard-response","trial_index":14,"time_elapsed":84164,"internal_node_id":"0.0-8.0-3.1","subject":"zx561f2a7h3jy9q","sona":"7429"},{"rt":512,"stimulus":"<p>Bereit?</p>","key_press":32,"trial_type":"html-keyboard-response","trial_index":15,"time_elapsed":84680,"internal_node_id":"0.0-8.0-0.2","subject":"zx561f2a7h3jy9q","sona":"7429"},{"rt":null,"stimulus":"<div style=\"font-size:60px;\">+</div>","key_press":null,"trial_type":"html-keyboard-response","trial_index":16,"time_elapsed":86710,"internal_node_id":"0.0-8.0-1.2","subject":"zx561f2a7h3jy9q","sona":"7429"},{"trial_type":"turing-test","trial_index":17,"time_elapsed":92678,"internal_node_id":"0.0-8.0-2.2","subject":"zx561f2a7h3jy9q","sona":"7429"},{"rt":516,"stimulus":"<p>Welche Sequenz haben Sie als natürlicher empfunden?</p>","key_press":70,"test_part":"response","test_stimulus":{"position":0,"left":"bvh/return-bottle-training4-lines.txt","right":"bvh/vr_prediction_models/model(vcgpdm)-dataset(return-bottle)-mode(ELBO)-parts(1)-dyn(25)-lvm(35)-hold(4)/final-lines.txt","att_check":false},"trial_type":"html-keyboard-response","trial_index":18,"time_elapsed":93198,"internal_node_id":"0.0-8.0-3.2","subject":"zx561f2a7h3jy9q","sona":"7429"},{"rt":488,"stimulus":"<p>Bereit?</p>","key_press":32,"trial_type":"html-keyboard-response","trial_index":19,"time_elapsed":93688,"internal_node_id":"0.0-8.0-0.3","subject":"zx561f2a7h3jy9q","sona":"7429"},{"rt":null,"stimulus":"<div style=\"font-size:60px;\">+</div>","key_press":null,"trial_type":"html-keyboard-response","trial_index":20,"time_elapsed":95710,"internal_node_id":"0.0-8.0-1.3","subject":"zx561f2a7h3jy9q","sona":"7429"},{"trial_type":"turing-test","trial_index":21,"time_elapsed":102656,"internal_node_id":"0.0-8.0-2.3","subject":"zx561f2a7h3jy9q","sona":"7429"},{"rt":1349,"stimulus":"<p>Welche Sequenz haben Sie als natürlicher empfunden?</p>","key_press":70,"test_part":"response","test_stimulus":{"position":0,"left":"bvh/pass-bottle-training0-lines.txt","right":"bvh/vr_prediction_models/model(vcgpdm)-dataset(pass-bottle)-mode(ELBO)-parts(1)-dyn(35)-lvm(10)-hold(0)/final-lines.txt","att_check":false},"trial_type":"html-keyboard-response","trial_index":22,"time_elapsed":104009,"internal_node_id":"0.0-8.0-3.3","subject":"zx561f2a7h3jy9q","sona":"7429"},{"rt":1623,"stimulus":"<p>Bereit?</p>","key_press":32,"trial_type":"html-keyboard-response","trial_index":23,"time_elapsed":105635,"internal_node_id":"0.0-8.0-0.4","subject":"zx561f2a7h3jy9q","sona":"7429"},{"rt":null,"stimulus":"<div style=\"font-size:60px;\">+</div>","key_press":null,"trial_type":"html-keyboard-response","trial_index":24,"time_elapsed":107643,"internal_node_id":"0.0-8.0-1.4","subject":"zx561f2a7h3jy9q","sona":"7429"},{"trial_type":"turing-test","trial_index":25,"time_elapsed":112915,"internal_node_id":"0.0-8.0-2.4","subject":"zx561f2a7h3jy9q","sona":"7429"},{"rt":7279,"stimulus":"<p>Welche Sequenz haben Sie als natürlicher empfunden?</p>","key_press":74,"test_part":"response","test_stimulus":{"position":1,"left":"bvh/vr_prediction_models/model(tmp)-dataset(return-bottle-hold)-numprim(11)-hold(0)/final-lines.txt","right":"bvh/return-bottle-hold-training0-lines.txt","att_check":false},"trial_type":"html-keyboard-response","trial_index":26,"time_elapsed":120198,"internal_node_id":"0.0-8.0-3.4","subject":"zx561f2a7h3jy9q","sona":"7429"},{"rt":490,"stimulus":"<p>Bereit?</p>","key_press":32,"trial_type":"html-keyboard-response","trial_index":27,"time_elapsed":120691,"internal_node_id":"0.0-8.0-0.5","subject":"zx561f2a7h3jy9q","sona":"7429"},{"rt":null,"stimulus":"<div style=\"font-size:60px;\">+</div>","key_press":null,"trial_type":"html-keyboard-response","trial_index":28,"time_elapsed":122714,"internal_node_id":"0.0-8.0-1.5","subject":"zx561f2a7h3jy9q","sona":"7429"},{"trial_type":"turing-test","trial_index":29,"time_elapsed":128627,"internal_node_id":"0.0-8.0-2.5","subject":"zx561f2a7h3jy9q","sona":"7429"},{"rt":347,"stimulus":"<p>Welche Sequenz haben Sie als natürlicher empfunden?</p>","key_press":70,"test_part":"response","test_stimulus":{"position":0,"left":"bvh/pass-bottle-training3-lines.txt","right":"bvh/vr_prediction_models/model(dmp)-dataset(pass-bottle)-npsi(60)-hold(3)/final-lines.txt","att_check":false},"trial_type":"html-keyboard-response","trial_index":30,"time_elapsed":128978,"internal_node_id":"0.0-8.0-3.5","subject":"zx561f2a7h3jy9q","sona":"7429"},{"rt":625,"stimulus":"<p>Bereit?</p>","key_press":32,"trial_type":"html-keyboard-response","trial_index":31,"time_elapsed":129606,"internal_node_id":"0.0-8.0-0.6","subject":"zx561f2a7h3jy9q","sona":"7429"},{"rt":null,"stimulus":"<div style=\"font-size:60px;\">+</div>","key_press":null,"trial_type":"html-keyboard-response","trial_index":32,"time_elapsed":131613,"internal_node_id":"0.0-8.0-1.6","subject":"zx561f2a7h3jy9q","sona":"7429"},{"trial_type":"turing-test","trial_index":33,"time_elapsed":137253,"internal_node_id":"0.0-8.0-2.6","subject":"zx561f2a7h3jy9q","sona":"7429"},{"rt":1331,"stimulus":"<p>Welche Sequenz haben Sie als natürlicher empfunden?</p>","key_press":70,"test_part":"response","test_stimulus":{"position":0,"left":"bvh/pass-bottle-training1-lines.txt","right":"bvh/vr_prediction_models/model(vcgpdm)-dataset(pass-bottle)-mode(ELBO)-parts(3)-dyn(25)-lvm(30)-hold(1)/final-lines.txt","att_check":false},"trial_type":"html-keyboard-response","trial_index":34,"time_elapsed":138590,"internal_node_id":"0.0-8.0-3.6","subject":"zx561f2a7h3jy9q","sona":"7429"},{"rt":442,"stimulus":"<p>Bereit?</p>","key_press":32,"trial_type":"html-keyboard-response","trial_index":35,"time_elapsed":139035,"internal_node_id":"0.0-8.0-0.7","subject":"zx561f2a7h3jy9q","sona":"7429"},{"rt":null,"stimulus":"<div style=\"font-size:60px;\">+</div>","key_press":null,"trial_type":"html-keyboard-response","trial_index":36,"time_elapsed":141066,"internal_node_id":"0.0-8.0-1.7","subject":"zx561f2a7h3jy9q","sona":"7429"},{"trial_type":"turing-test","trial_index":37,"time_elapsed":144745,"internal_node_id":"0.0-8.0-2.7","subject":"zx561f2a7h3jy9q","sona":"7429"},{"rt":3431,"stimulus":"<p>Welche Sequenz haben Sie als natürlicher empfunden?</p>","key_press":70,"test_part":"response","test_stimulus":{"position":0,"left":"bvh/pass-bottle-hold-training4-lines.txt","right":"bvh/vr_prediction_models/model(dmp)-dataset(pass-bottle-hold)-npsi(40)-hold(4)/final-lines.txt","att_check":false},"trial_type":"html-keyboard-response","trial_index":38,"time_elapsed":148179,"internal_node_id":"0.0-8.0-3.7","subject":"zx561f2a7h3jy9q","sona":"7429"},{"rt":202,"stimulus":"<p>Bereit?</p>","key_press":32,"trial_type":"html-keyboard-response","trial_index":39,"time_elapsed":148385,"internal_node_id":"0.0-8.0-0.8","subject":"zx561f2a7h3jy9q","sona":"7429"},{"rt":null,"stimulus":"<div style=\"font-size:60px;\">+</div>","key_press":null,"trial_type":"html-keyboard-response","trial_index":40,"time_elapsed":150403,"internal_node_id":"0.0-8.0-1.8","subject":"zx561f2a7h3jy9q","sona":"7429"},{"trial_type":"turing-test","trial_index":41,"time_elapsed":156003,"internal_node_id":"0.0-8.0-2.8","subject":"zx561f2a7h3jy9q","sona":"7429"},{"rt":1249,"stimulus":"<p>Welche Sequenz haben Sie als natürlicher empfunden?</p>","key_press":74,"test_part":"response","test_stimulus":{"position":0,"left":"bvh/pass-bottle-training1-lines.txt","right":"bvh/vr_prediction_models/model(vcgpdm)-dataset(pass-bottle)-mode(ELBO)-parts(3)-dyn(20)-lvm(20)-hold(1)/final-lines.txt","att_check":false},"trial_type":"html-keyboard-response","trial_index":42,"time_elapsed":157255,"internal_node_id":"0.0-8.0-3.8","subject":"zx561f2a7h3jy9q","sona":"7429"},{"rt":190,"stimulus":"<p>Bereit?</p>","key_press":32,"trial_type":"html-keyboard-response","trial_index":43,"time_elapsed":157448,"internal_node_id":"0.0-8.0-0.9","subject":"zx561f2a7h3jy9q","sona":"7429"},{"rt":null,"stimulus":"<div style=\"font-size:60px;\">+</div>","key_press":null,"trial_type":"html-keyboard-response","trial_index":44,"time_elapsed":159473,"internal_node_id":"0.0-8.0-1.9","subject":"zx561f2a7h3jy9q","sona":"7429"},{"trial_type":"turing-test","trial_index":45,"time_elapsed":165527,"internal_node_id":"0.0-8.0-2.9","subject":"zx561f2a7h3jy9q","sona":"7429"},{"rt":795,"stimulus":"<p>Welche Sequenz haben Sie als natürlicher empfunden?</p>","key_press":74,"test_part":"response","test_stimulus":{"position":1,"left":"bvh/vr_prediction_models/model(vcgpdm)-dataset(pass-bottle)-mode(ELBO)-parts(1)-dyn(10)-lvm(5)-hold(4)/final-lines.txt","right":"bvh/pass-bottle-training4-lines.txt","att_check":false},"trial_type":"html-keyboard-response","trial_index":46,"time_elapsed":166326,"internal_node_id":"0.0-8.0-3.9","subject":"zx561f2a7h3jy9q","sona":"7429"},{"rt":195,"stimulus":"<p>Bereit?</p>","key_press":32,"trial_type":"html-keyboard-response","trial_index":47,"time_elapsed":166524,"internal_node_id":"0.0-8.0-0.10","subject":"zx561f2a7h3jy9q","sona":"7429"},{"rt":null,"stimulus":"<div style=\"font-size:60px;\">+</div>","key_press":null,"trial_type":"html-keyboard-response","trial_index":48,"time_elapsed":168543,"internal_node_id":"0.0-8.0-1.10","subject":"zx561f2a7h3jy9q","sona":"7429"},{"trial_type":"turing-test","trial_index":49,"time_elapsed":174566,"internal_node_id":"0.0-8.0-2.10","subject":"zx561f2a7h3jy9q","sona":"7429"},{"rt":2333,"stimulus":"<p>Welche Sequenz haben Sie als natürlicher empfunden?</p>","key_press":74,"test_part":"response","test_stimulus":{"position":0,"left":"bvh/return-bottle-training4-lines.txt","right":"bvh/vr_prediction_models/model(vcgpdm)-dataset(return-bottle)-mode(ELBO)-parts(1)-dyn(30)-lvm(30)-hold(4)/final-lines.txt","att_check":false},"trial_type":"html-keyboard-response","trial_index":50,"time_elapsed":176904,"internal_node_id":"0.0-8.0-3.10","subject":"zx561f2a7h3jy9q","sona":"7429"},{"rt":290,"stimulus":"<p>Bereit?</p>","key_press":32,"trial_type":"html-keyboard-response","trial_index":51,"time_elapsed":177198,"internal_node_id":"0.0-8.0-0.11","subject":"zx561f2a7h3jy9q","sona":"7429"},{"rt":null,"stimulus":"<div style=\"font-size:60px;\">+</div>","key_press":null,"trial_type":"html-keyboard-response","trial_index":52,"time_elapsed":179223,"internal_node_id":"0.0-8.0-1.11","subject":"zx561f2a7h3jy9q","sona":"7429"},{"trial_type":"turing-test","trial_index":53,"time_elapsed":182575,"internal_node_id":"0.0-8.0-2.11","subject":"zx561f2a7h3jy9q","sona":"7429"}]