[{"rt":1276.3650000561029,"stimulus":"<p>Welcome!<br> Please choose your language to start the experiment in the chosen language.</p><p>Willkommen!<br> Bitte wählen Sie eine Sprache, um das Experiment in der ausgewählten Sprache zu starten</p>","button_pressed":"1","trial_type":"html-button-response","trial_index":0,"time_elapsed":1301,"internal_node_id":"0.0-0.0","subject":"cpjwjnkjbp0plma","sona":"8665"},{"view_history":"[{\"page_index\":0,\"viewing_time\":408.0599998123944},{\"page_index\":1,\"viewing_time\":517.1400001272559},{\"page_index\":2,\"viewing_time\":402.8449999168515},{\"page_index\":3,\"viewing_time\":579.060000134632},{\"page_index\":4,\"viewing_time\":626.8649999983609}]","rt":2534.1849999967963,"trial_type":"instructions","trial_index":1,"time_elapsed":3836,"internal_node_id":"0.0-1.0-0.0","subject":"cpjwjnkjbp0plma","sona":"8665"},{"rt":1003.0450001358986,"stimulus":"<p>Bereit?</p>","key_press":32,"trial_type":"html-keyboard-response","trial_index":2,"time_elapsed":4840,"internal_node_id":"0.0-3.0","subject":"cpjwjnkjbp0plma","sona":"8665"},{"rt":null,"stimulus":"<div style=\"font-size:60px;\">+</div>","key_press":null,"trial_type":"html-keyboard-response","trial_index":3,"time_elapsed":6855,"internal_node_id":"0.0-4.0","subject":"cpjwjnkjbp0plma","sona":"8665"},{"trial_type":"training","trial_index":4,"time_elapsed":10072,"internal_node_id":"0.0-5.0","subject":"cpjwjnkjbp0plma","sona":"8665"},{"rt":423.2399999164045,"stimulus":"<p>Welche Sequenz haben Sie als natürlicher empfunden?</p>","key_press":70,"trial_type":"html-keyboard-response","trial_index":5,"time_elapsed":10496,"internal_node_id":"0.0-6.0","subject":"cpjwjnkjbp0plma","sona":"8665"},{"rt":40662.96499990858,"stimulus":"<p>Das Experiment startet nun.</p><p><small>Bitte drücken Sie den Knopf, wenn Sie bereit sind.</small></p>","button_pressed":"0","trial_type":"html-button-response","trial_index":6,"time_elapsed":51159,"internal_node_id":"0.0-7.0","subject":"cpjwjnkjbp0plma","sona":"8665"},{"rt":1503.2250001095235,"stimulus":"<p>Bereit?</p>","key_press":32,"trial_type":"html-keyboard-response","trial_index":7,"time_elapsed":52663,"internal_node_id":"0.0-8.0-0.0","subject":"cpjwjnkjbp0plma","sona":"8665"},{"rt":null,"stimulus":"<div style=\"font-size:60px;\">+</div>","key_press":null,"trial_type":"html-keyboard-response","trial_index":8,"time_elapsed":54675,"internal_node_id":"0.0-8.0-1.0","subject":"cpjwjnkjbp0plma","sona":"8665"},{"trial_type":"turing-test","trial_index":9,"time_elapsed":58008,"internal_node_id":"0.0-8.0-2.0","subject":"cpjwjnkjbp0plma","sona":"8665"},{"rt":382.3949999641627,"stimulus":"<p>Welche Sequenz haben Sie als natürlicher empfunden?</p>","key_press":74,"test_part":"response","test_stimulus":{"position":1,"left":"bvh/vr_prediction_models/model(vcgpdm)-dataset(pass-bottle-hold)-mode(ELBO)-parts(1)-dyn(35)-lvm(10)-hold(2)/final-lines.txt","right":"bvh/pass-bottle-hold-training2-lines.txt","att_check":false},"trial_type":"html-keyboard-response","trial_index":10,"time_elapsed":58391,"internal_node_id":"0.0-8.0-3.0","subject":"cpjwjnkjbp0plma","sona":"8665"},{"rt":9263.374999864027,"stimulus":"<p>Bereit?</p>","key_press":32,"trial_type":"html-keyboard-response","trial_index":11,"time_elapsed":67655,"internal_node_id":"0.0-8.0-0.1","subject":"cpjwjnkjbp0plma","sona":"8665"},{"rt":null,"stimulus":"<div style=\"font-size:60px;\">+</div>","key_press":null,"trial_type":"html-keyboard-response","trial_index":12,"time_elapsed":69668,"internal_node_id":"0.0-8.0-1.1","subject":"cpjwjnkjbp0plma","sona":"8665"},{"trial_type":"turing-test","trial_index":13,"time_elapsed":76384,"internal_node_id":"0.0-8.0-2.1","subject":"cpjwjnkjbp0plma","sona":"8665"},{"rt":389.22499981708825,"stimulus":"<p>Welche Sequenz haben Sie als natürlicher empfunden?</p>","key_press":74,"test_part":"response","test_stimulus":{"position":1,"left":"bvh/vr_prediction_models/model(vcgpdm)-dataset(pass-bottle)-mode(ELBO)-parts(1)-dyn(15)-lvm(35)-hold(0)/final-lines.txt","right":"bvh/pass-bottle-training0-lines.txt","att_check":false},"trial_type":"html-keyboard-response","trial_index":14,"time_elapsed":76775,"internal_node_id":"0.0-8.0-3.1","subject":"cpjwjnkjbp0plma","sona":"8665"},{"rt":2719.885000027716,"stimulus":"<p>Bereit?</p>","key_press":32,"trial_type":"html-keyboard-response","trial_index":15,"time_elapsed":79496,"internal_node_id":"0.0-8.0-0.2","subject":"cpjwjnkjbp0plma","sona":"8665"},{"rt":null,"stimulus":"<div style=\"font-size:60px;\">+</div>","key_press":null,"trial_type":"html-keyboard-response","trial_index":16,"time_elapsed":81503,"internal_node_id":"0.0-8.0-1.2","subject":"cpjwjnkjbp0plma","sona":"8665"},{"trial_type":"turing-test","trial_index":17,"time_elapsed":87157,"internal_node_id":"0.0-8.0-2.2","subject":"cpjwjnkjbp0plma","sona":"8665"},{"rt":393.6499999836087,"stimulus":"<p>Welche Sequenz haben Sie als natürlicher empfunden?</p>","key_press":70,"test_part":"response","test_stimulus":{"position":0,"left":"bvh/pass-bottle-training4-lines.txt","right":"bvh/vr_prediction_models/model(tmp)-dataset(pass-bottle)-numprim(15)-hold(4)/final-lines.txt","att_check":false},"trial_type":"html-keyboard-response","trial_index":18,"time_elapsed":87551,"internal_node_id":"0.0-8.0-3.2","subject":"cpjwjnkjbp0plma","sona":"8665"},{"rt":423.3249998651445,"stimulus":"<p>Bereit?</p>","key_press":32,"trial_type":"html-keyboard-response","trial_index":19,"time_elapsed":87975,"internal_node_id":"0.0-8.0-0.3","subject":"cpjwjnkjbp0plma","sona":"8665"},{"rt":null,"stimulus":"<div style=\"font-size:60px;\">+</div>","key_press":null,"trial_type":"html-keyboard-response","trial_index":20,"time_elapsed":89991,"internal_node_id":"0.0-8.0-1.3","subject":"cpjwjnkjbp0plma","sona":"8665"},{"trial_type":"turing-test","trial_index":21,"time_elapsed":93376,"internal_node_id":"0.0-8.0-2.3","subject":"cpjwjnkjbp0plma","sona":"8665"},{"rt":326.46499993279576,"stimulus":"<p>Welche Sequenz haben Sie als natürlicher empfunden?</p>","key_press":74,"test_part":"response","test_stimulus":{"position":1,"left":"bvh/vr_prediction_models/model(vcgpdm)-dataset(pass-bottle-hold)-mode(ELBO)-parts(3)-dyn(20)-lvm(35)-hold(2)/final-lines.txt","right":"bvh/pass-bottle-hold-training2-lines.txt","att_check":false},"trial_type":"html-keyboard-response","trial_index":22,"time_elapsed":93703,"internal_node_id":"0.0-8.0-3.3","subject":"cpjwjnkjbp0plma","sona":"8665"},{"rt":359.1550001874566,"stimulus":"<p>Bereit?</p>","key_press":32,"trial_type":"html-keyboard-response","trial_index":23,"time_elapsed":94063,"internal_node_id":"0.0-8.0-0.4","subject":"cpjwjnkjbp0plma","sona":"8665"},{"rt":null,"stimulus":"<div style=\"font-size:60px;\">+</div>","key_press":null,"trial_type":"html-keyboard-response","trial_index":24,"time_elapsed":96074,"internal_node_id":"0.0-8.0-1.4","subject":"cpjwjnkjbp0plma","sona":"8665"},{"trial_type":"turing-test","trial_index":25,"time_elapsed":99320,"internal_node_id":"0.0-8.0-2.4","subject":"cpjwjnkjbp0plma","sona":"8665"},{"rt":358.3949999883771,"stimulus":"<p>Welche Sequenz haben Sie als natürlicher empfunden?</p>","key_press":74,"test_part":"response","test_stimulus":{"position":1,"left":"bvh/vr_prediction_models/model(tmp)-dataset(pass-bottle-hold)-numprim(11)-hold(0)/final-lines.txt","right":"bvh/pass-bottle-hold-training0-lines.txt","att_check":false},"trial_type":"html-keyboard-response","trial_index":26,"time_elapsed":99679,"internal_node_id":"0.0-8.0-3.4","subject":"cpjwjnkjbp0plma","sona":"8665"},{"rt":383.0800000578165,"stimulus":"<p>Bereit?</p>","key_press":32,"trial_type":"html-keyboard-response","trial_index":27,"time_elapsed":100063,"internal_node_id":"0.0-8.0-0.5","subject":"cpjwjnkjbp0plma","sona":"8665"},{"rt":null,"stimulus":"<div style=\"font-size:60px;\">+</div>","key_press":null,"trial_type":"html-keyboard-response","trial_index":28,"time_elapsed":102068,"internal_node_id":"0.0-8.0-1.5","subject":"cpjwjnkjbp0plma","sona":"8665"},{"trial_type":"turing-test","trial_index":29,"time_elapsed":105287,"internal_node_id":"0.0-8.0-2.5","subject":"cpjwjnkjbp0plma","sona":"8665"},{"rt":247.69000010564923,"stimulus":"<p>Welche Sequenz haben Sie als natürlicher empfunden?</p>","key_press":70,"test_part":"response","test_stimulus":{"position":0,"left":"bvh/pass-bottle-hold-training0-lines.txt","right":"bvh/vr_prediction_models/model(vcgpdm)-dataset(pass-bottle-hold)-mode(ELBO)-parts(1)-dyn(35)-lvm(30)-hold(0)/final-lines.txt","att_check":false},"trial_type":"html-keyboard-response","trial_index":30,"time_elapsed":105535,"internal_node_id":"0.0-8.0-3.5","subject":"cpjwjnkjbp0plma","sona":"8665"},{"rt":439.1349998768419,"stimulus":"<p>Bereit?</p>","key_press":32,"trial_type":"html-keyboard-response","trial_index":31,"time_elapsed":105975,"internal_node_id":"0.0-8.0-0.6","subject":"cpjwjnkjbp0plma","sona":"8665"},{"rt":null,"stimulus":"<div style=\"font-size:60px;\">+</div>","key_press":null,"trial_type":"html-keyboard-response","trial_index":32,"time_elapsed":107997,"internal_node_id":"0.0-8.0-1.6","subject":"cpjwjnkjbp0plma","sona":"8665"},{"trial_type":"turing-test","trial_index":33,"time_elapsed":111430,"internal_node_id":"0.0-8.0-2.6","subject":"cpjwjnkjbp0plma","sona":"8665"},{"rt":383.4999999962747,"stimulus":"<p>Welche Sequenz haben Sie als natürlicher empfunden?</p>","key_press":70,"test_part":"response","test_stimulus":{"position":0,"left":"bvh/pass-bottle-hold-training3-lines.txt","right":"bvh/vr_prediction_models/model(tmp)-dataset(pass-bottle-hold)-numprim(11)-hold(3)/final-lines.txt","att_check":false},"trial_type":"html-keyboard-response","trial_index":34,"time_elapsed":111815,"internal_node_id":"0.0-8.0-3.6","subject":"cpjwjnkjbp0plma","sona":"8665"},{"rt":358.7249999400228,"stimulus":"<p>Bereit?</p>","key_press":32,"trial_type":"html-keyboard-response","trial_index":35,"time_elapsed":112175,"internal_node_id":"0.0-8.0-0.7","subject":"cpjwjnkjbp0plma","sona":"8665"},{"rt":null,"stimulus":"<div style=\"font-size:60px;\">+</div>","key_press":null,"trial_type":"html-keyboard-response","trial_index":36,"time_elapsed":114183,"internal_node_id":"0.0-8.0-1.7","subject":"cpjwjnkjbp0plma","sona":"8665"},{"trial_type":"turing-test","trial_index":37,"time_elapsed":119913,"internal_node_id":"0.0-8.0-2.7","subject":"cpjwjnkjbp0plma","sona":"8665"},{"rt":365.1199999731034,"stimulus":"<p>Welche Sequenz haben Sie als natürlicher empfunden?</p>","key_press":74,"test_part":"response","test_stimulus":{"position":1,"left":"bvh/vr_prediction_models/model(vcgpdm)-dataset(return-bottle)-mode(ELBO)-parts(3)-dyn(10)-lvm(25)-hold(4)/final-lines.txt","right":"bvh/return-bottle-training4-lines.txt","att_check":false},"trial_type":"html-keyboard-response","trial_index":38,"time_elapsed":120279,"internal_node_id":"0.0-8.0-3.7","subject":"cpjwjnkjbp0plma","sona":"8665"},{"rt":14935.370000079274,"stimulus":"<p>Bereit?</p>","key_press":32,"trial_type":"html-keyboard-response","trial_index":39,"time_elapsed":135215,"internal_node_id":"0.0-8.0-0.8","subject":"cpjwjnkjbp0plma","sona":"8665"},{"rt":null,"stimulus":"<div style=\"font-size:60px;\">+</div>","key_press":null,"trial_type":"html-keyboard-response","trial_index":40,"time_elapsed":137221,"internal_node_id":"0.0-8.0-1.8","subject":"cpjwjnkjbp0plma","sona":"8665"},{"trial_type":"turing-test","trial_index":41,"time_elapsed":143264,"internal_node_id":"0.0-8.0-2.8","subject":"cpjwjnkjbp0plma","sona":"8665"},{"rt":493.90999996103346,"stimulus":"<p>Welche Sequenz haben Sie als natürlicher empfunden?</p>","key_press":70,"test_part":"response","test_stimulus":{"position":0,"left":"bvh/return-bottle-training1-lines.txt","right":"bvh/vr_prediction_models/model(vcgpdm)-dataset(return-bottle)-mode(ELBO)-parts(1)-dyn(35)-lvm(30)-hold(1)/final-lines.txt","att_check":false},"trial_type":"html-keyboard-response","trial_index":42,"time_elapsed":143759,"internal_node_id":"0.0-8.0-3.8","subject":"cpjwjnkjbp0plma","sona":"8665"},{"rt":335.22000000812113,"stimulus":"<p>Bereit?</p>","key_press":32,"trial_type":"html-keyboard-response","trial_index":43,"time_elapsed":144095,"internal_node_id":"0.0-8.0-0.9","subject":"cpjwjnkjbp0plma","sona":"8665"},{"rt":null,"stimulus":"<div style=\"font-size:60px;\">+</div>","key_press":null,"trial_type":"html-keyboard-response","trial_index":44,"time_elapsed":146120,"internal_node_id":"0.0-8.0-1.9","subject":"cpjwjnkjbp0plma","sona":"8665"},{"trial_type":"turing-test","trial_index":45,"time_elapsed":149368,"internal_node_id":"0.0-8.0-2.9","subject":"cpjwjnkjbp0plma","sona":"8665"},{"rt":317.35999998636544,"stimulus":"<p>Welche Sequenz haben Sie als natürlicher empfunden?</p>","key_press":70,"test_part":"response","test_stimulus":{"position":0,"left":"bvh/pass-bottle-hold-training0-lines.txt","right":"bvh/vr_prediction_models/model(tmp)-dataset(pass-bottle-hold)-numprim(7)-hold(0)/final-lines.txt","att_check":false},"trial_type":"html-keyboard-response","trial_index":46,"time_elapsed":149687,"internal_node_id":"0.0-8.0-3.9","subject":"cpjwjnkjbp0plma","sona":"8665"},{"rt":286.6249999497086,"stimulus":"<p>Bereit?</p>","key_press":32,"trial_type":"html-keyboard-response","trial_index":47,"time_elapsed":149975,"internal_node_id":"0.0-8.0-0.10","subject":"cpjwjnkjbp0plma","sona":"8665"},{"rt":null,"stimulus":"<div style=\"font-size:60px;\">+</div>","key_press":null,"trial_type":"html-keyboard-response","trial_index":48,"time_elapsed":151982,"internal_node_id":"0.0-8.0-1.10","subject":"cpjwjnkjbp0plma","sona":"8665"},{"trial_type":"turing-test","trial_index":49,"time_elapsed":155517,"internal_node_id":"0.0-8.0-2.10","subject":"cpjwjnkjbp0plma","sona":"8665"},{"rt":617.3099998850375,"stimulus":"<p>Welche Sequenz haben Sie als natürlicher empfunden?</p>","key_press":74,"test_part":"response","test_stimulus":{"position":0,"left":"bvh/pass-bottle-hold-training3-lines.txt","right":"bvh/vr_prediction_models/model(vcgpdm)-dataset(pass-bottle-hold)-mode(ELBO)-parts(3)-dyn(20)-lvm(15)-hold(3)/final-lines.txt","att_check":false},"trial_type":"html-keyboard-response","trial_index":50,"time_elapsed":156135,"internal_node_id":"0.0-8.0-3.10","subject":"cpjwjnkjbp0plma","sona":"8665"},{"rt":303.3549999818206,"stimulus":"<p>Bereit?</p>","key_press":32,"trial_type":"html-keyboard-response","trial_index":51,"time_elapsed":156439,"internal_node_id":"0.0-8.0-0.11","subject":"cpjwjnkjbp0plma","sona":"8665"},{"rt":null,"stimulus":"<div style=\"font-size:60px;\">+</div>","key_press":null,"trial_type":"html-keyboard-response","trial_index":52,"time_elapsed":158460,"internal_node_id":"0.0-8.0-1.11","subject":"cpjwjnkjbp0plma","sona":"8665"}]