[{"rt":2015.4749999928754,"stimulus":"<p>Welcome!<br> Please choose your language to start the experiment in the chosen language.</p><p>Willkommen!<br> Bitte wählen Sie eine Sprache, um das Experiment in der ausgewählten Sprache zu starten</p>","button_pressed":"1","trial_type":"html-button-response","trial_index":0,"time_elapsed":2050,"internal_node_id":"0.0-0.0","subject":"r2zrxwvzzw96wur","sona":"7600"},{"view_history":"[{\"page_index\":0,\"viewing_time\":5377.5449999957345},{\"page_index\":1,\"viewing_time\":2172.1550000074785},{\"page_index\":2,\"viewing_time\":2335.269999995944},{\"page_index\":3,\"viewing_time\":4557.05499999749},{\"page_index\":4,\"viewing_time\":1665.6400000065332}]","rt":16108.984999998938,"trial_type":"instructions","trial_index":1,"time_elapsed":18162,"internal_node_id":"0.0-1.0-0.0","subject":"r2zrxwvzzw96wur","sona":"7600"},{"rt":1145.1950000046054,"stimulus":"<p>Bereit?</p>","key_press":32,"trial_type":"html-keyboard-response","trial_index":2,"time_elapsed":19312,"internal_node_id":"0.0-3.0","subject":"r2zrxwvzzw96wur","sona":"7600"},{"rt":null,"stimulus":"<div style=\"font-size:60px;\">+</div>","key_press":null,"trial_type":"html-keyboard-response","trial_index":3,"time_elapsed":21315,"internal_node_id":"0.0-4.0","subject":"r2zrxwvzzw96wur","sona":"7600"},{"trial_type":"training","trial_index":4,"time_elapsed":24874,"internal_node_id":"0.0-5.0","subject":"r2zrxwvzzw96wur","sona":"7600"},{"rt":138.69000000704546,"stimulus":"<p>Welche Sequenz haben Sie als natürlicher empfunden?</p>","key_press":70,"trial_type":"html-keyboard-response","trial_index":5,"time_elapsed":25015,"internal_node_id":"0.0-6.0","subject":"r2zrxwvzzw96wur","sona":"7600"},{"rt":2306.3549999933457,"stimulus":"<p>Das Experiment startet nun.</p><p><small>Bitte drücken Sie den Knopf, wenn Sie bereit sind.</small></p>","button_pressed":"0","trial_type":"html-button-response","trial_index":6,"time_elapsed":27324,"internal_node_id":"0.0-7.0","subject":"r2zrxwvzzw96wur","sona":"7600"},{"rt":1419.914999991306,"stimulus":"<p>Bereit?</p>","key_press":32,"trial_type":"html-keyboard-response","trial_index":7,"time_elapsed":28747,"internal_node_id":"0.0-8.0-0.0","subject":"r2zrxwvzzw96wur","sona":"7600"},{"rt":null,"stimulus":"<div style=\"font-size:60px;\">+</div>","key_press":null,"trial_type":"html-keyboard-response","trial_index":8,"time_elapsed":30753,"internal_node_id":"0.0-8.0-1.0","subject":"r2zrxwvzzw96wur","sona":"7600"},{"trial_type":"turing-test","trial_index":9,"time_elapsed":34117,"internal_node_id":"0.0-8.0-2.0","subject":"r2zrxwvzzw96wur","sona":"7600"},{"rt":448.4249999950407,"stimulus":"<p>Welche Sequenz haben Sie als natürlicher empfunden?</p>","key_press":70,"test_part":"response","test_stimulus":{"position":0,"left":"bvh/pass-bottle-hold-training1-lines.txt","right":"bvh/vr_prediction_models/model(tmp)-dataset(pass-bottle-hold)-numprim(5)-hold(1)/final-lines.txt","att_check":false},"trial_type":"html-keyboard-response","trial_index":10,"time_elapsed":34571,"internal_node_id":"0.0-8.0-3.0","subject":"r2zrxwvzzw96wur","sona":"7600"},{"rt":580.4300000017975,"stimulus":"<p>Bereit?</p>","key_press":32,"trial_type":"html-keyboard-response","trial_index":11,"time_elapsed":35156,"internal_node_id":"0.0-8.0-0.1","subject":"r2zrxwvzzw96wur","sona":"7600"},{"rt":null,"stimulus":"<div style=\"font-size:60px;\">+</div>","key_press":null,"trial_type":"html-keyboard-response","trial_index":12,"time_elapsed":37159,"internal_node_id":"0.0-8.0-1.1","subject":"r2zrxwvzzw96wur","sona":"7600"},{"trial_type":"turing-test","trial_index":13,"time_elapsed":40638,"internal_node_id":"0.0-8.0-2.1","subject":"r2zrxwvzzw96wur","sona":"7600"},{"rt":189.3500000005588,"stimulus":"<p>Welche Sequenz haben Sie als natürlicher empfunden?</p>","key_press":74,"test_part":"response","test_stimulus":{"position":1,"left":"bvh/vr_prediction_models/model(vcgpdm)-dataset(pass-bottle-hold)-mode(ELBO)-parts(3)-dyn(25)-lvm(30)-hold(1)/final-lines.txt","right":"bvh/pass-bottle-hold-training1-lines.txt","att_check":false},"trial_type":"html-keyboard-response","trial_index":14,"time_elapsed":40835,"internal_node_id":"0.0-8.0-3.1","subject":"r2zrxwvzzw96wur","sona":"7600"},{"rt":640.8099999971455,"stimulus":"<p>Bereit?</p>","key_press":32,"trial_type":"html-keyboard-response","trial_index":15,"time_elapsed":41480,"internal_node_id":"0.0-8.0-0.2","subject":"r2zrxwvzzw96wur","sona":"7600"},{"rt":null,"stimulus":"<div style=\"font-size:60px;\">+</div>","key_press":null,"trial_type":"html-keyboard-response","trial_index":16,"time_elapsed":43483,"internal_node_id":"0.0-8.0-1.2","subject":"r2zrxwvzzw96wur","sona":"7600"},{"trial_type":"turing-test","trial_index":17,"time_elapsed":49716,"internal_node_id":"0.0-8.0-2.2","subject":"r2zrxwvzzw96wur","sona":"7600"},{"rt":1549.0350000036415,"stimulus":"<p>Welche Sequenz haben Sie als natürlicher empfunden?</p>","key_press":74,"test_part":"response","test_stimulus":{"position":1,"left":"bvh/vr_prediction_models/model(dmp)-dataset(pass-bottle)-npsi(40)-hold(2)/final-lines.txt","right":"bvh/pass-bottle-training2-lines.txt","att_check":false},"trial_type":"html-keyboard-response","trial_index":18,"time_elapsed":51271,"internal_node_id":"0.0-8.0-3.2","subject":"r2zrxwvzzw96wur","sona":"7600"},{"rt":355.3050000045914,"stimulus":"<p>Bereit?</p>","key_press":32,"trial_type":"html-keyboard-response","trial_index":19,"time_elapsed":51631,"internal_node_id":"0.0-8.0-0.3","subject":"r2zrxwvzzw96wur","sona":"7600"},{"rt":null,"stimulus":"<div style=\"font-size:60px;\">+</div>","key_press":null,"trial_type":"html-keyboard-response","trial_index":20,"time_elapsed":53634,"internal_node_id":"0.0-8.0-1.3","subject":"r2zrxwvzzw96wur","sona":"7600"},{"trial_type":"turing-test","trial_index":21,"time_elapsed":57420,"internal_node_id":"0.0-8.0-2.3","subject":"r2zrxwvzzw96wur","sona":"7600"},{"rt":282.03499999654014,"stimulus":"<p>Welche Sequenz haben Sie als natürlicher empfunden?</p>","key_press":70,"test_part":"response","test_stimulus":{"position":1,"left":"bvh/vr_prediction_models/model(vcgpdm)-dataset(return-bottle-hold)-mode(ELBO)-parts(1)-dyn(10)-lvm(30)-hold(2)/final-lines.txt","right":"bvh/return-bottle-hold-training2-lines.txt","att_check":false},"trial_type":"html-keyboard-response","trial_index":22,"time_elapsed":57708,"internal_node_id":"0.0-8.0-3.3","subject":"r2zrxwvzzw96wur","sona":"7600"},{"rt":282.50000000116415,"stimulus":"<p>Bereit?</p>","key_press":32,"trial_type":"html-keyboard-response","trial_index":23,"time_elapsed":57995,"internal_node_id":"0.0-8.0-0.4","subject":"r2zrxwvzzw96wur","sona":"7600"},{"rt":null,"stimulus":"<div style=\"font-size:60px;\">+</div>","key_press":null,"trial_type":"html-keyboard-response","trial_index":24,"time_elapsed":59999,"internal_node_id":"0.0-8.0-1.4","subject":"r2zrxwvzzw96wur","sona":"7600"},{"trial_type":"turing-test","trial_index":25,"time_elapsed":65885,"internal_node_id":"0.0-8.0-2.4","subject":"r2zrxwvzzw96wur","sona":"7600"},{"rt":93.10500000719912,"stimulus":"<p>Welche Sequenz haben Sie als natürlicher empfunden?</p>","key_press":70,"test_part":"response","test_stimulus":{"position":0,"left":"bvh/return-bottle-training3-lines.txt","right":"bvh/vr_prediction_models/model(tmp)-dataset(return-bottle)-numprim(15)-hold(3)/final-lines.txt","att_check":false},"trial_type":"html-keyboard-response","trial_index":26,"time_elapsed":65985,"internal_node_id":"0.0-8.0-3.4","subject":"r2zrxwvzzw96wur","sona":"7600"},{"rt":637.4950000026729,"stimulus":"<p>Bereit?</p>","key_press":32,"trial_type":"html-keyboard-response","trial_index":27,"time_elapsed":66626,"internal_node_id":"0.0-8.0-0.5","subject":"r2zrxwvzzw96wur","sona":"7600"},{"rt":null,"stimulus":"<div style=\"font-size:60px;\">+</div>","key_press":null,"trial_type":"html-keyboard-response","trial_index":28,"time_elapsed":68629,"internal_node_id":"0.0-8.0-1.5","subject":"r2zrxwvzzw96wur","sona":"7600"},{"trial_type":"turing-test","trial_index":29,"time_elapsed":74060,"internal_node_id":"0.0-8.0-2.5","subject":"r2zrxwvzzw96wur","sona":"7600"},{"rt":169.59000000497326,"stimulus":"<p>Welche Sequenz haben Sie als natürlicher empfunden?</p>","key_press":70,"test_part":"response","test_stimulus":{"position":0,"left":"bvh/return-bottle-hold-training0-lines.txt","right":"bvh/vr_prediction_models/model(vcgpdm)-dataset(return-bottle-hold)-mode(ELBO)-parts(3)-dyn(10)-lvm(30)-hold(0)/final-lines.txt","att_check":false},"trial_type":"html-keyboard-response","trial_index":30,"time_elapsed":74236,"internal_node_id":"0.0-8.0-3.5","subject":"r2zrxwvzzw96wur","sona":"7600"},{"rt":629.9650000000838,"stimulus":"<p>Bereit?</p>","key_press":32,"trial_type":"html-keyboard-response","trial_index":31,"time_elapsed":74871,"internal_node_id":"0.0-8.0-0.6","subject":"r2zrxwvzzw96wur","sona":"7600"},{"rt":null,"stimulus":"<div style=\"font-size:60px;\">+</div>","key_press":null,"trial_type":"html-keyboard-response","trial_index":32,"time_elapsed":76874,"internal_node_id":"0.0-8.0-1.6","subject":"r2zrxwvzzw96wur","sona":"7600"},{"trial_type":"turing-test","trial_index":33,"time_elapsed":80540,"internal_node_id":"0.0-8.0-2.6","subject":"r2zrxwvzzw96wur","sona":"7600"},{"rt":93.2699999975739,"stimulus":"<p>Welche Sequenz haben Sie als natürlicher empfunden?</p>","key_press":74,"test_part":"response","test_stimulus":{"position":1,"left":"bvh/vr_prediction_models/model(tmp)-dataset(pass-bottle-hold)-numprim(15)-hold(3)/final-lines.txt","right":"bvh/pass-bottle-hold-training3-lines.txt","att_check":false},"trial_type":"html-keyboard-response","trial_index":34,"time_elapsed":80640,"internal_node_id":"0.0-8.0-3.6","subject":"r2zrxwvzzw96wur","sona":"7600"},{"rt":349.99999999126885,"stimulus":"<p>Bereit?</p>","key_press":32,"trial_type":"html-keyboard-response","trial_index":35,"time_elapsed":80995,"internal_node_id":"0.0-8.0-0.7","subject":"r2zrxwvzzw96wur","sona":"7600"},{"rt":null,"stimulus":"<div style=\"font-size:60px;\">+</div>","key_press":null,"trial_type":"html-keyboard-response","trial_index":36,"time_elapsed":82998,"internal_node_id":"0.0-8.0-1.7","subject":"r2zrxwvzzw96wur","sona":"7600"},{"trial_type":"turing-test","trial_index":37,"time_elapsed":88954,"internal_node_id":"0.0-8.0-2.7","subject":"r2zrxwvzzw96wur","sona":"7600"},{"rt":89.6599999978207,"stimulus":"<p>Welche Sequenz haben Sie als natürlicher empfunden?</p>","key_press":70,"test_part":"response","test_stimulus":{"position":1,"left":"bvh/vr_prediction_models/model(tmp)-dataset(pass-bottle)-numprim(12)-hold(3)/final-lines.txt","right":"bvh/pass-bottle-training3-lines.txt","att_check":false},"trial_type":"html-keyboard-response","trial_index":38,"time_elapsed":89052,"internal_node_id":"0.0-8.0-3.7","subject":"r2zrxwvzzw96wur","sona":"7600"},{"rt":484.0999999869382,"stimulus":"<p>Bereit?</p>","key_press":32,"trial_type":"html-keyboard-response","trial_index":39,"time_elapsed":89540,"internal_node_id":"0.0-8.0-0.8","subject":"r2zrxwvzzw96wur","sona":"7600"},{"rt":null,"stimulus":"<div style=\"font-size:60px;\">+</div>","key_press":null,"trial_type":"html-keyboard-response","trial_index":40,"time_elapsed":91543,"internal_node_id":"0.0-8.0-1.8","subject":"r2zrxwvzzw96wur","sona":"7600"},{"trial_type":"turing-test","trial_index":41,"time_elapsed":94997,"internal_node_id":"0.0-8.0-2.8","subject":"r2zrxwvzzw96wur","sona":"7600"},{"rt":231.36499999964144,"stimulus":"<p>Welche Sequenz haben Sie als natürlicher empfunden?</p>","key_press":70,"test_part":"response","test_stimulus":{"position":1,"left":"bvh/vr_prediction_models/model(tmp)-dataset(pass-bottle-hold)-numprim(3)-hold(2)/final-lines.txt","right":"bvh/pass-bottle-hold-training2-lines.txt","att_check":false},"trial_type":"html-keyboard-response","trial_index":42,"time_elapsed":95232,"internal_node_id":"0.0-8.0-3.8","subject":"r2zrxwvzzw96wur","sona":"7600"},{"rt":448.9800000010291,"stimulus":"<p>Bereit?</p>","key_press":32,"trial_type":"html-keyboard-response","trial_index":43,"time_elapsed":95683,"internal_node_id":"0.0-8.0-0.9","subject":"r2zrxwvzzw96wur","sona":"7600"},{"rt":null,"stimulus":"<div style=\"font-size:60px;\">+</div>","key_press":null,"trial_type":"html-keyboard-response","trial_index":44,"time_elapsed":97686,"internal_node_id":"0.0-8.0-1.9","subject":"r2zrxwvzzw96wur","sona":"7600"},{"trial_type":"turing-test","trial_index":45,"time_elapsed":103346,"internal_node_id":"0.0-8.0-2.9","subject":"r2zrxwvzzw96wur","sona":"7600"},{"rt":772.3899999982677,"stimulus":"<p>Welche Sequenz haben Sie als natürlicher empfunden?</p>","key_press":70,"test_part":"response","test_stimulus":{"position":1,"left":"bvh/vr_prediction_models/model(vcgpdm)-dataset(return-bottle)-mode(ELBO)-parts(1)-dyn(20)-lvm(5)-hold(0)/final-lines.txt","right":"bvh/return-bottle-training0-lines.txt","att_check":false},"trial_type":"html-keyboard-response","trial_index":46,"time_elapsed":104123,"internal_node_id":"0.0-8.0-3.9","subject":"r2zrxwvzzw96wur","sona":"7600"},{"rt":696.3600000017323,"stimulus":"<p>Bereit?</p>","key_press":32,"trial_type":"html-keyboard-response","trial_index":47,"time_elapsed":104824,"internal_node_id":"0.0-8.0-0.10","subject":"r2zrxwvzzw96wur","sona":"7600"},{"rt":null,"stimulus":"<div style=\"font-size:60px;\">+</div>","key_press":null,"trial_type":"html-keyboard-response","trial_index":48,"time_elapsed":106826,"internal_node_id":"0.0-8.0-1.10","subject":"r2zrxwvzzw96wur","sona":"7600"},{"trial_type":"turing-test","trial_index":49,"time_elapsed":110406,"internal_node_id":"0.0-8.0-2.10","subject":"r2zrxwvzzw96wur","sona":"7600"},{"rt":405.7850000099279,"stimulus":"<p>Welche Sequenz haben Sie als natürlicher empfunden?</p>","key_press":74,"test_part":"response","test_stimulus":{"position":1,"left":"bvh/vr_prediction_models/model(vcgpdm)-dataset(pass-bottle-hold)-mode(ELBO)-parts(3)-dyn(10)-lvm(25)-hold(0)/final-lines.txt","right":"bvh/pass-bottle-hold-training0-lines.txt","att_check":false},"trial_type":"html-keyboard-response","trial_index":50,"time_elapsed":110818,"internal_node_id":"0.0-8.0-3.10","subject":"r2zrxwvzzw96wur","sona":"7600"},{"rt":552.5800000032177,"stimulus":"<p>Bereit?</p>","key_press":32,"trial_type":"html-keyboard-response","trial_index":51,"time_elapsed":111374,"internal_node_id":"0.0-8.0-0.11","subject":"r2zrxwvzzw96wur","sona":"7600"},{"rt":null,"stimulus":"<div style=\"font-size:60px;\">+</div>","key_press":null,"trial_type":"html-keyboard-response","trial_index":52,"time_elapsed":113377,"internal_node_id":"0.0-8.0-1.11","subject":"r2zrxwvzzw96wur","sona":"7600"}]