[{"rt":3213.539999909699,"stimulus":"<p>Welcome!<br> Please choose your language to start the experiment in the chosen language.</p><p>Willkommen!<br> Bitte wählen Sie eine Sprache, um das Experiment in der ausgewählten Sprache zu starten</p>","button_pressed":"1","trial_type":"html-button-response","trial_index":0,"time_elapsed":3235,"internal_node_id":"0.0-0.0","subject":"5voxns2ua76xxck","sona":"7549"},{"view_history":"[{\"page_index\":0,\"viewing_time\":4761.759999906644},{\"page_index\":1,\"viewing_time\":2816.4200000464916},{\"page_index\":2,\"viewing_time\":8474.240000126883},{\"page_index\":3,\"viewing_time\":50490.65999989398},{\"page_index\":4,\"viewing_time\":2382.2200000286102}]","rt":68926.29499989562,"trial_type":"instructions","trial_index":1,"time_elapsed":72163,"internal_node_id":"0.0-1.0-0.0","subject":"5voxns2ua76xxck","sona":"7549"},{"rt":7965.769999893382,"stimulus":"<p>Bereit?</p>","key_press":32,"trial_type":"html-keyboard-response","trial_index":2,"time_elapsed":80131,"internal_node_id":"0.0-3.0","subject":"5voxns2ua76xxck","sona":"7549"},{"rt":null,"stimulus":"<div style=\"font-size:60px;\">+</div>","key_press":null,"trial_type":"html-keyboard-response","trial_index":3,"time_elapsed":82136,"internal_node_id":"0.0-4.0","subject":"5voxns2ua76xxck","sona":"7549"},{"trial_type":"training","trial_index":4,"time_elapsed":85558,"internal_node_id":"0.0-5.0","subject":"5voxns2ua76xxck","sona":"7549"},{"rt":1197.5800001528114,"stimulus":"<p>Welche Sequenz haben Sie als natürlicher empfunden?</p>","key_press":70,"trial_type":"html-keyboard-response","trial_index":5,"time_elapsed":86758,"internal_node_id":"0.0-6.0","subject":"5voxns2ua76xxck","sona":"7549"},{"rt":6105.070000048727,"stimulus":"<p>Das Experiment startet nun.</p><p><small>Bitte drücken Sie den Knopf, wenn Sie bereit sind.</small></p>","button_pressed":"0","trial_type":"html-button-response","trial_index":6,"time_elapsed":92865,"internal_node_id":"0.0-7.0","subject":"5voxns2ua76xxck","sona":"7549"},{"rt":2645.354999927804,"stimulus":"<p>Bereit?</p>","key_press":32,"trial_type":"html-keyboard-response","trial_index":7,"time_elapsed":95511,"internal_node_id":"0.0-8.0-0.0","subject":"5voxns2ua76xxck","sona":"7549"},{"rt":null,"stimulus":"<div style=\"font-size:60px;\">+</div>","key_press":null,"trial_type":"html-keyboard-response","trial_index":8,"time_elapsed":97516,"internal_node_id":"0.0-8.0-1.0","subject":"5voxns2ua76xxck","sona":"7549"},{"trial_type":"turing-test","trial_index":9,"time_elapsed":102966,"internal_node_id":"0.0-8.0-2.0","subject":"5voxns2ua76xxck","sona":"7549"},{"rt":1102.055000141263,"stimulus":"<p>Welche Sequenz haben Sie als natürlicher empfunden?</p>","key_press":74,"test_part":"response","test_stimulus":{"position":1,"left":"bvh/vr_prediction_models/model(tmp)-dataset(return-bottle)-numprim(15)-hold(0)/final-lines.txt","right":"bvh/return-bottle-training0-lines.txt","att_check":false},"trial_type":"html-keyboard-response","trial_index":10,"time_elapsed":104072,"internal_node_id":"0.0-8.0-3.0","subject":"5voxns2ua76xxck","sona":"7549"},{"rt":1595.7650002092123,"stimulus":"<p>Bereit?</p>","key_press":32,"trial_type":"html-keyboard-response","trial_index":11,"time_elapsed":105672,"internal_node_id":"0.0-8.0-0.1","subject":"5voxns2ua76xxck","sona":"7549"},{"rt":null,"stimulus":"<div style=\"font-size:60px;\">+</div>","key_press":null,"trial_type":"html-keyboard-response","trial_index":12,"time_elapsed":107675,"internal_node_id":"0.0-8.0-1.1","subject":"5voxns2ua76xxck","sona":"7549"},{"trial_type":"turing-test","trial_index":13,"time_elapsed":111309,"internal_node_id":"0.0-8.0-2.1","subject":"5voxns2ua76xxck","sona":"7549"},{"rt":716.4249999914318,"stimulus":"<p>Welche Sequenz haben Sie als natürlicher empfunden?</p>","key_press":70,"test_part":"response","test_stimulus":{"position":0,"left":"bvh/return-bottle-hold-training3-lines.txt","right":"bvh/vr_prediction_models/model(tmp)-dataset(return-bottle-hold)-numprim(4)-hold(3)/final-lines.txt","att_check":false},"trial_type":"html-keyboard-response","trial_index":14,"time_elapsed":112030,"internal_node_id":"0.0-8.0-3.1","subject":"5voxns2ua76xxck","sona":"7549"},{"rt":2599.3600001093,"stimulus":"<p>Bereit?</p>","key_press":32,"trial_type":"html-keyboard-response","trial_index":15,"time_elapsed":114632,"internal_node_id":"0.0-8.0-0.2","subject":"5voxns2ua76xxck","sona":"7549"},{"rt":null,"stimulus":"<div style=\"font-size:60px;\">+</div>","key_press":null,"trial_type":"html-keyboard-response","trial_index":16,"time_elapsed":116635,"internal_node_id":"0.0-8.0-1.2","subject":"5voxns2ua76xxck","sona":"7549"},{"trial_type":"turing-test","trial_index":17,"time_elapsed":120533,"internal_node_id":"0.0-8.0-2.2","subject":"5voxns2ua76xxck","sona":"7549"},{"rt":956.9049999117851,"stimulus":"<p>Welche Sequenz haben Sie als natürlicher empfunden?</p>","key_press":74,"test_part":"response","test_stimulus":{"position":1,"left":"bvh/vr_prediction_models/model(vcgpdm)-dataset(return-bottle-hold)-mode(ELBO)-parts(3)-dyn(25)-lvm(30)-hold(4)/final-lines.txt","right":"bvh/return-bottle-hold-training4-lines.txt","att_check":false},"trial_type":"html-keyboard-response","trial_index":18,"time_elapsed":121494,"internal_node_id":"0.0-8.0-3.2","subject":"5voxns2ua76xxck","sona":"7549"},{"rt":972.7450001519173,"stimulus":"<p>Bereit?</p>","key_press":32,"trial_type":"html-keyboard-response","trial_index":19,"time_elapsed":122470,"internal_node_id":"0.0-8.0-0.3","subject":"5voxns2ua76xxck","sona":"7549"},{"rt":null,"stimulus":"<div style=\"font-size:60px;\">+</div>","key_press":null,"trial_type":"html-keyboard-response","trial_index":20,"time_elapsed":124474,"internal_node_id":"0.0-8.0-1.3","subject":"5voxns2ua76xxck","sona":"7549"},{"trial_type":"turing-test","trial_index":21,"time_elapsed":127863,"internal_node_id":"0.0-8.0-2.3","subject":"5voxns2ua76xxck","sona":"7549"},{"rt":1211.864999961108,"stimulus":"<p>Welche Sequenz haben Sie als natürlicher empfunden?</p>","key_press":74,"test_part":"response","test_stimulus":{"position":0,"left":"bvh/pass-bottle-hold-training0-lines.txt","right":"bvh/vr_prediction_models/model(vcgpdm)-dataset(pass-bottle-hold)-mode(ELBO)-parts(3)-dyn(10)-lvm(25)-hold(0)/final-lines.txt","att_check":false},"trial_type":"html-keyboard-response","trial_index":22,"time_elapsed":129078,"internal_node_id":"0.0-8.0-3.3","subject":"5voxns2ua76xxck","sona":"7549"},{"rt":659.514999948442,"stimulus":"<p>Bereit?</p>","key_press":32,"trial_type":"html-keyboard-response","trial_index":23,"time_elapsed":129741,"internal_node_id":"0.0-8.0-0.4","subject":"5voxns2ua76xxck","sona":"7549"},{"rt":null,"stimulus":"<div style=\"font-size:60px;\">+</div>","key_press":null,"trial_type":"html-keyboard-response","trial_index":24,"time_elapsed":131746,"internal_node_id":"0.0-8.0-1.4","subject":"5voxns2ua76xxck","sona":"7549"},{"trial_type":"turing-test","trial_index":25,"time_elapsed":135099,"internal_node_id":"0.0-8.0-2.4","subject":"5voxns2ua76xxck","sona":"7549"},{"rt":987.7649999689311,"stimulus":"<p>Welche Sequenz haben Sie als natürlicher empfunden?</p>","key_press":70,"test_part":"response","test_stimulus":{"position":0,"left":"bvh/pass-bottle-hold-training2-lines.txt","right":"bvh/vr_prediction_models/model(dmp)-dataset(pass-bottle-hold)-npsi(20)-hold(2)/final-lines.txt","att_check":false},"trial_type":"html-keyboard-response","trial_index":26,"time_elapsed":136091,"internal_node_id":"0.0-8.0-3.4","subject":"5voxns2ua76xxck","sona":"7549"},{"rt":789.0149999875575,"stimulus":"<p>Bereit?</p>","key_press":32,"trial_type":"html-keyboard-response","trial_index":27,"time_elapsed":136884,"internal_node_id":"0.0-8.0-0.5","subject":"5voxns2ua76xxck","sona":"7549"},{"rt":null,"stimulus":"<div style=\"font-size:60px;\">+</div>","key_press":null,"trial_type":"html-keyboard-response","trial_index":28,"time_elapsed":138889,"internal_node_id":"0.0-8.0-1.5","subject":"5voxns2ua76xxck","sona":"7549"},{"trial_type":"turing-test","trial_index":29,"time_elapsed":142625,"internal_node_id":"0.0-8.0-2.5","subject":"5voxns2ua76xxck","sona":"7549"},{"rt":654.9949999898672,"stimulus":"<p>Welche Sequenz haben Sie als natürlicher empfunden?</p>","key_press":70,"test_part":"response","test_stimulus":{"position":0,"left":"bvh/return-bottle-hold-training1-lines.txt","right":"bvh/vr_prediction_models/model(vcgpdm)-dataset(return-bottle-hold)-mode(MAP)-parts(1)-hold(1)/final-lines.txt","att_check":false},"trial_type":"html-keyboard-response","trial_index":30,"time_elapsed":143283,"internal_node_id":"0.0-8.0-3.5","subject":"5voxns2ua76xxck","sona":"7549"},{"rt":636.1350000370294,"stimulus":"<p>Bereit?</p>","key_press":32,"trial_type":"html-keyboard-response","trial_index":31,"time_elapsed":143923,"internal_node_id":"0.0-8.0-0.6","subject":"5voxns2ua76xxck","sona":"7549"},{"rt":null,"stimulus":"<div style=\"font-size:60px;\">+</div>","key_press":null,"trial_type":"html-keyboard-response","trial_index":32,"time_elapsed":145927,"internal_node_id":"0.0-8.0-1.6","subject":"5voxns2ua76xxck","sona":"7549"},{"trial_type":"turing-test","trial_index":33,"time_elapsed":152040,"internal_node_id":"0.0-8.0-2.6","subject":"5voxns2ua76xxck","sona":"7549"},{"rt":958.1699999980628,"stimulus":"<p>Welche Sequenz haben Sie als natürlicher empfunden?</p>","key_press":74,"test_part":"response","test_stimulus":{"position":1,"left":"bvh/vr_prediction_models/model(tmp)-dataset(pass-bottle)-numprim(14)-hold(2)/final-lines.txt","right":"bvh/pass-bottle-training2-lines.txt","att_check":false},"trial_type":"html-keyboard-response","trial_index":34,"time_elapsed":153003,"internal_node_id":"0.0-8.0-3.6","subject":"5voxns2ua76xxck","sona":"7549"},{"rt":662.294999929145,"stimulus":"<p>Bereit?</p>","key_press":32,"trial_type":"html-keyboard-response","trial_index":35,"time_elapsed":153668,"internal_node_id":"0.0-8.0-0.7","subject":"5voxns2ua76xxck","sona":"7549"},{"rt":null,"stimulus":"<div style=\"font-size:60px;\">+</div>","key_press":null,"trial_type":"html-keyboard-response","trial_index":36,"time_elapsed":155671,"internal_node_id":"0.0-8.0-1.7","subject":"5voxns2ua76xxck","sona":"7549"},{"trial_type":"turing-test","trial_index":37,"time_elapsed":161880,"internal_node_id":"0.0-8.0-2.7","subject":"5voxns2ua76xxck","sona":"7549"},{"rt":653.9650000631809,"stimulus":"<p>Welche Sequenz haben Sie als natürlicher empfunden?</p>","key_press":74,"test_part":"response","test_stimulus":{"position":1,"left":"bvh/vr_prediction_models/model(vcgpdm)-dataset(return-bottle)-mode(ELBO)-parts(1)-dyn(10)-lvm(30)-hold(1)/final-lines.txt","right":"bvh/return-bottle-training1-lines.txt","att_check":false},"trial_type":"html-keyboard-response","trial_index":38,"time_elapsed":162538,"internal_node_id":"0.0-8.0-3.7","subject":"5voxns2ua76xxck","sona":"7549"},{"rt":481.544999871403,"stimulus":"<p>Bereit?</p>","key_press":32,"trial_type":"html-keyboard-response","trial_index":39,"time_elapsed":163027,"internal_node_id":"0.0-8.0-0.8","subject":"5voxns2ua76xxck","sona":"7549"},{"rt":null,"stimulus":"<div style=\"font-size:60px;\">+</div>","key_press":null,"trial_type":"html-keyboard-response","trial_index":40,"time_elapsed":165029,"internal_node_id":"0.0-8.0-1.8","subject":"5voxns2ua76xxck","sona":"7549"},{"trial_type":"turing-test","trial_index":41,"time_elapsed":168424,"internal_node_id":"0.0-8.0-2.8","subject":"5voxns2ua76xxck","sona":"7549"},{"rt":846.2549999821931,"stimulus":"<p>Welche Sequenz haben Sie als natürlicher empfunden?</p>","key_press":70,"test_part":"response","test_stimulus":{"position":0,"left":"bvh/pass-bottle-hold-training0-lines.txt","right":"bvh/vr_prediction_models/model(dmp)-dataset(pass-bottle-hold)-npsi(30)-hold(0)/final-lines.txt","att_check":false},"trial_type":"html-keyboard-response","trial_index":42,"time_elapsed":169274,"internal_node_id":"0.0-8.0-3.8","subject":"5voxns2ua76xxck","sona":"7549"},{"rt":467.160000000149,"stimulus":"<p>Bereit?</p>","key_press":32,"trial_type":"html-keyboard-response","trial_index":43,"time_elapsed":169745,"internal_node_id":"0.0-8.0-0.9","subject":"5voxns2ua76xxck","sona":"7549"},{"rt":null,"stimulus":"<div style=\"font-size:60px;\">+</div>","key_press":null,"trial_type":"html-keyboard-response","trial_index":44,"time_elapsed":171748,"internal_node_id":"0.0-8.0-1.9","subject":"5voxns2ua76xxck","sona":"7549"},{"trial_type":"turing-test","trial_index":45,"time_elapsed":177492,"internal_node_id":"0.0-8.0-2.9","subject":"5voxns2ua76xxck","sona":"7549"},{"rt":648.6700000241399,"stimulus":"<p>Welche Sequenz haben Sie als natürlicher empfunden?</p>","key_press":74,"test_part":"response","test_stimulus":{"position":1,"left":"bvh/vr_prediction_models/model(tmp)-dataset(return-bottle)-numprim(7)-hold(3)/final-lines.txt","right":"bvh/return-bottle-training3-lines.txt","att_check":false},"trial_type":"html-keyboard-response","trial_index":46,"time_elapsed":178145,"internal_node_id":"0.0-8.0-3.9","subject":"5voxns2ua76xxck","sona":"7549"},{"rt":483.7850001640618,"stimulus":"<p>Bereit?</p>","key_press":32,"trial_type":"html-keyboard-response","trial_index":47,"time_elapsed":178633,"internal_node_id":"0.0-8.0-0.10","subject":"5voxns2ua76xxck","sona":"7549"},{"rt":null,"stimulus":"<div style=\"font-size:60px;\">+</div>","key_press":null,"trial_type":"html-keyboard-response","trial_index":48,"time_elapsed":180635,"internal_node_id":"0.0-8.0-1.10","subject":"5voxns2ua76xxck","sona":"7549"},{"trial_type":"turing-test","trial_index":49,"time_elapsed":186499,"internal_node_id":"0.0-8.0-2.10","subject":"5voxns2ua76xxck","sona":"7549"},{"rt":593.6249999795109,"stimulus":"<p>Welche Sequenz haben Sie als natürlicher empfunden?</p>","key_press":74,"test_part":"response","test_stimulus":{"position":0,"left":"bvh/pass-bottle-training3-lines.txt","right":"bvh/vr_prediction_models/model(tmp)-dataset(pass-bottle)-numprim(13)-hold(3)/final-lines.txt","att_check":false},"trial_type":"html-keyboard-response","trial_index":50,"time_elapsed":187097,"internal_node_id":"0.0-8.0-3.10","subject":"5voxns2ua76xxck","sona":"7549"},{"rt":434.3250000383705,"stimulus":"<p>Bereit?</p>","key_press":32,"trial_type":"html-keyboard-response","trial_index":51,"time_elapsed":187536,"internal_node_id":"0.0-8.0-0.11","subject":"5voxns2ua76xxck","sona":"7549"},{"rt":null,"stimulus":"<div style=\"font-size:60px;\">+</div>","key_press":null,"trial_type":"html-keyboard-response","trial_index":52,"time_elapsed":189539,"internal_node_id":"0.0-8.0-1.11","subject":"5voxns2ua76xxck","sona":"7549"},{"trial_type":"turing-test","trial_index":53,"time_elapsed":193396,"internal_node_id":"0.0-8.0-2.11","subject":"5voxns2ua76xxck","sona":"7549"},{"rt":1030.1149999722838,"stimulus":"<p>Welche Sequenz haben Sie als natürlicher empfunden?</p>","key_press":70,"test_part":"response","test_stimulus":{"position":0,"left":"bvh/return-bottle-hold-training4-lines.txt","right":"bvh/vr_prediction_models/model(vcgpdm)-dataset(return-bottle-hold)-mode(ELBO)-parts(1)-dyn(20)-lvm(20)-hold(4)/final-lines.txt","att_check":false},"trial_type":"html-keyboard-response","trial_index":54,"time_elapsed":194430,"internal_node_id":"0.0-8.0-3.11","subject":"5voxns2ua76xxck","sona":"7549"},{"rt":589.1549999359995,"stimulus":"<p>Bereit?</p>","key_press":32,"trial_type":"html-keyboard-response","trial_index":55,"time_elapsed":195023,"internal_node_id":"0.0-8.0-0.12","subject":"5voxns2ua76xxck","sona":"7549"},{"rt":null,"stimulus":"<div style=\"font-size:60px;\">+</div>","key_press":null,"trial_type":"html-keyboard-response","trial_index":56,"time_elapsed":197027,"internal_node_id":"0.0-8.0-1.12","subject":"5voxns2ua76xxck","sona":"7549"},{"trial_type":"turing-test","trial_index":57,"time_elapsed":200607,"internal_node_id":"0.0-8.0-2.12","subject":"5voxns2ua76xxck","sona":"7549"},{"rt":1035.1800001226366,"stimulus":"<p>Welche Sequenz haben Sie als natürlicher empfunden?</p>","key_press":70,"test_part":"response","test_stimulus":{"position":0,"left":"bvh/return-bottle-hold-training3-lines.txt","right":"bvh/vr_prediction_models/model(dmp)-dataset(return-bottle-hold)-npsi(40)-hold(3)/final-lines.txt","att_check":true},"trial_type":"html-keyboard-response","trial_index":58,"time_elapsed":201647,"internal_node_id":"0.0-8.0-3.12","subject":"5voxns2ua76xxck","sona":"7549"},{"rt":523.3800001442432,"stimulus":"<p>Bereit?</p>","key_press":32,"trial_type":"html-keyboard-response","trial_index":59,"time_elapsed":202174,"internal_node_id":"0.0-8.0-0.13","subject":"5voxns2ua76xxck","sona":"7549"},{"rt":null,"stimulus":"<div style=\"font-size:60px;\">+</div>","key_press":null,"trial_type":"html-keyboard-response","trial_index":60,"time_elapsed":204178,"internal_node_id":"0.0-8.0-1.13","subject":"5voxns2ua76xxck","sona":"7549"},{"trial_type":"turing-test","trial_index":61,"time_elapsed":210259,"internal_node_id":"0.0-8.0-2.13","subject":"5voxns2ua76xxck","sona":"7549"},{"rt":718.0049999151379,"stimulus":"<p>Welche Sequenz haben Sie als natürlicher empfunden?</p>","key_press":70,"test_part":"response","test_stimulus":{"position":0,"left":"bvh/pass-bottle-training2-lines.txt","right":"bvh/vr_prediction_models/model(tmp)-dataset(pass-bottle)-numprim(3)-hold(2)/final-lines.txt","att_check":false},"trial_type":"html-keyboard-response","trial_index":62,"time_elapsed":210981,"internal_node_id":"0.0-8.0-3.13","subject":"5voxns2ua76xxck","sona":"7549"},{"rt":540.8449999522418,"stimulus":"<p>Bereit?</p>","key_press":32,"trial_type":"html-keyboard-response","trial_index":63,"time_elapsed":211525,"internal_node_id":"0.0-8.0-0.14","subject":"5voxns2ua76xxck","sona":"7549"},{"rt":null,"stimulus":"<div style=\"font-size:60px;\">+</div>","key_press":null,"trial_type":"html-keyboard-response","trial_index":64,"time_elapsed":213528,"internal_node_id":"0.0-8.0-1.14","subject":"5voxns2ua76xxck","sona":"7549"},{"trial_type":"turing-test","trial_index":65,"time_elapsed":217200,"internal_node_id":"0.0-8.0-2.14","subject":"5voxns2ua76xxck","sona":"7549"},{"rt":704.5949997846037,"stimulus":"<p>Welche Sequenz haben Sie als natürlicher empfunden?</p>","key_press":74,"test_part":"response","test_stimulus":{"position":0,"left":"bvh/pass-bottle-hold-training4-lines.txt","right":"bvh/vr_prediction_models/model(tmp)-dataset(pass-bottle-hold)-numprim(7)-hold(4)/final-lines.txt","att_check":false},"trial_type":"html-keyboard-response","trial_index":66,"time_elapsed":217909,"internal_node_id":"0.0-8.0-3.14","subject":"5voxns2ua76xxck","sona":"7549"},{"rt":482.5349999591708,"stimulus":"<p>Bereit?</p>","key_press":32,"trial_type":"html-keyboard-response","trial_index":67,"time_elapsed":218396,"internal_node_id":"0.0-8.0-0.15","subject":"5voxns2ua76xxck","sona":"7549"},{"rt":null,"stimulus":"<div style=\"font-size:60px;\">+</div>","key_press":null,"trial_type":"html-keyboard-response","trial_index":68,"time_elapsed":220400,"internal_node_id":"0.0-8.0-1.15","subject":"5voxns2ua76xxck","sona":"7549"},{"trial_type":"turing-test","trial_index":69,"time_elapsed":224097,"internal_node_id":"0.0-8.0-2.15","subject":"5voxns2ua76xxck","sona":"7549"},{"rt":821.6600001323968,"stimulus":"<p>Welche Sequenz haben Sie als natürlicher empfunden?</p>","key_press":74,"test_part":"response","test_stimulus":{"position":1,"left":"bvh/vr_prediction_models/model(dmp)-dataset(return-bottle-hold)-npsi(40)-hold(4)/final-lines.txt","right":"bvh/return-bottle-hold-training4-lines.txt","att_check":false},"trial_type":"html-keyboard-response","trial_index":70,"time_elapsed":224923,"internal_node_id":"0.0-8.0-3.15","subject":"5voxns2ua76xxck","sona":"7549"},{"rt":355.8449998963624,"stimulus":"<p>Bereit?</p>","key_press":32,"trial_type":"html-keyboard-response","trial_index":71,"time_elapsed":225283,"internal_node_id":"0.0-8.0-0.16","subject":"5voxns2ua76xxck","sona":"7549"},{"rt":null,"stimulus":"<div style=\"font-size:60px;\">+</div>","key_press":null,"trial_type":"html-keyboard-response","trial_index":72,"time_elapsed":227286,"internal_node_id":"0.0-8.0-1.16","subject":"5voxns2ua76xxck","sona":"7549"},{"trial_type":"turing-test","trial_index":73,"time_elapsed":233039,"internal_node_id":"0.0-8.0-2.16","subject":"5voxns2ua76xxck","sona":"7549"},{"rt":455.47499996609986,"stimulus":"<p>Welche Sequenz haben Sie als natürlicher empfunden?</p>","key_press":74,"test_part":"response","test_stimulus":{"position":1,"left":"bvh/vr_prediction_models/model(dmp)-dataset(pass-bottle)-npsi(50)-hold(4)/final-lines.txt","right":"bvh/pass-bottle-training4-lines.txt","att_check":false},"trial_type":"html-keyboard-response","trial_index":74,"time_elapsed":233499,"internal_node_id":"0.0-8.0-3.16","subject":"5voxns2ua76xxck","sona":"7549"},{"rt":531.0100000351667,"stimulus":"<p>Bereit?</p>","key_press":32,"trial_type":"html-keyboard-response","trial_index":75,"time_elapsed":234034,"internal_node_id":"0.0-8.0-0.17","subject":"5voxns2ua76xxck","sona":"7549"},{"rt":null,"stimulus":"<div style=\"font-size:60px;\">+</div>","key_press":null,"trial_type":"html-keyboard-response","trial_index":76,"time_elapsed":236039,"internal_node_id":"0.0-8.0-1.17","subject":"5voxns2ua76xxck","sona":"7549"},{"trial_type":"turing-test","trial_index":77,"time_elapsed":241508,"internal_node_id":"0.0-8.0-2.17","subject":"5voxns2ua76xxck","sona":"7549"},{"rt":584.9249998573214,"stimulus":"<p>Welche Sequenz haben Sie als natürlicher empfunden?</p>","key_press":70,"test_part":"response","test_stimulus":{"position":0,"left":"bvh/pass-bottle-training1-lines.txt","right":"bvh/vr_prediction_models/model(dmp)-dataset(pass-bottle)-npsi(30)-hold(1)/final-lines.txt","att_check":false},"trial_type":"html-keyboard-response","trial_index":78,"time_elapsed":242097,"internal_node_id":"0.0-8.0-3.17","subject":"5voxns2ua76xxck","sona":"7549"},{"rt":428.4900000784546,"stimulus":"<p>Bereit?</p>","key_press":32,"trial_type":"html-keyboard-response","trial_index":79,"time_elapsed":242529,"internal_node_id":"0.0-8.0-0.18","subject":"5voxns2ua76xxck","sona":"7549"},{"rt":null,"stimulus":"<div style=\"font-size:60px;\">+</div>","key_press":null,"trial_type":"html-keyboard-response","trial_index":80,"time_elapsed":244533,"internal_node_id":"0.0-8.0-1.18","subject":"5voxns2ua76xxck","sona":"7549"},{"trial_type":"turing-test","trial_index":81,"time_elapsed":247974,"internal_node_id":"0.0-8.0-2.18","subject":"5voxns2ua76xxck","sona":"7549"},{"rt":566.2899999879301,"stimulus":"<p>Welche Sequenz haben Sie als natürlicher empfunden?</p>","key_press":74,"test_part":"response","test_stimulus":{"position":0,"left":"bvh/return-bottle-hold-training1-lines.txt","right":"bvh/vr_prediction_models/model(vcgpdm)-dataset(return-bottle-hold)-mode(ELBO)-parts(1)-dyn(35)-lvm(10)-hold(1)/final-lines.txt","att_check":false},"trial_type":"html-keyboard-response","trial_index":82,"time_elapsed":248546,"internal_node_id":"0.0-8.0-3.18","subject":"5voxns2ua76xxck","sona":"7549"},{"rt":386.35000004433095,"stimulus":"<p>Bereit?</p>","key_press":32,"trial_type":"html-keyboard-response","trial_index":83,"time_elapsed":248936,"internal_node_id":"0.0-8.0-0.19","subject":"5voxns2ua76xxck","sona":"7549"},{"rt":null,"stimulus":"<div style=\"font-size:60px;\">+</div>","key_press":null,"trial_type":"html-keyboard-response","trial_index":84,"time_elapsed":250940,"internal_node_id":"0.0-8.0-1.19","subject":"5voxns2ua76xxck","sona":"7549"},{"trial_type":"turing-test","trial_index":85,"time_elapsed":254370,"internal_node_id":"0.0-8.0-2.19","subject":"5voxns2ua76xxck","sona":"7549"},{"rt":568.6599998734891,"stimulus":"<p>Welche Sequenz haben Sie als natürlicher empfunden?</p>","key_press":70,"test_part":"response","test_stimulus":{"position":0,"left":"bvh/return-bottle-hold-training1-lines.txt","right":"bvh/vr_prediction_models/model(vcgpdm)-dataset(return-bottle-hold)-mode(ELBO)-parts(3)-dyn(15)-lvm(30)-hold(1)/final-lines.txt","att_check":false},"trial_type":"html-keyboard-response","trial_index":86,"time_elapsed":254942,"internal_node_id":"0.0-8.0-3.19","subject":"5voxns2ua76xxck","sona":"7549"},{"rt":308.784999884665,"stimulus":"<p>Bereit?</p>","key_press":32,"trial_type":"html-keyboard-response","trial_index":87,"time_elapsed":255255,"internal_node_id":"0.0-8.0-0.20","subject":"5voxns2ua76xxck","sona":"7549"},{"rt":null,"stimulus":"<div style=\"font-size:60px;\">+</div>","key_press":null,"trial_type":"html-keyboard-response","trial_index":88,"time_elapsed":257258,"internal_node_id":"0.0-8.0-1.20","subject":"5voxns2ua76xxck","sona":"7549"},{"trial_type":"turing-test","trial_index":89,"time_elapsed":260759,"internal_node_id":"0.0-8.0-2.20","subject":"5voxns2ua76xxck","sona":"7549"},{"rt":883.6199999786913,"stimulus":"<p>Welche Sequenz haben Sie als natürlicher empfunden?</p>","key_press":70,"test_part":"response","test_stimulus":{"position":0,"left":"bvh/pass-bottle-hold-training2-lines.txt","right":"bvh/vr_prediction_models/model(vcgpdm)-dataset(pass-bottle-hold)-mode(ELBO)-parts(1)-dyn(30)-lvm(35)-hold(2)/final-lines.txt","att_check":false},"trial_type":"html-keyboard-response","trial_index":90,"time_elapsed":261646,"internal_node_id":"0.0-8.0-3.20","subject":"5voxns2ua76xxck","sona":"7549"},{"rt":322.7649999316782,"stimulus":"<p>Bereit?</p>","key_press":32,"trial_type":"html-keyboard-response","trial_index":91,"time_elapsed":261973,"internal_node_id":"0.0-8.0-0.21","subject":"5voxns2ua76xxck","sona":"7549"},{"rt":null,"stimulus":"<div style=\"font-size:60px;\">+</div>","key_press":null,"trial_type":"html-keyboard-response","trial_index":92,"time_elapsed":263977,"internal_node_id":"0.0-8.0-1.21","subject":"5voxns2ua76xxck","sona":"7549"},{"trial_type":"turing-test","trial_index":93,"time_elapsed":269878,"internal_node_id":"0.0-8.0-2.21","subject":"5voxns2ua76xxck","sona":"7549"},{"rt":569.8750000447035,"stimulus":"<p>Welche Sequenz haben Sie als natürlicher empfunden?</p>","key_press":74,"test_part":"response","test_stimulus":{"position":1,"left":"bvh/vr_prediction_models/model(vcgpdm)-dataset(return-bottle)-mode(ELBO)-parts(1)-dyn(20)-lvm(20)-hold(4)/final-lines.txt","right":"bvh/return-bottle-training4-lines.txt","att_check":false},"trial_type":"html-keyboard-response","trial_index":94,"time_elapsed":270453,"internal_node_id":"0.0-8.0-3.21","subject":"5voxns2ua76xxck","sona":"7549"},{"rt":291.97000013664365,"stimulus":"<p>Bereit?</p>","key_press":32,"trial_type":"html-keyboard-response","trial_index":95,"time_elapsed":270749,"internal_node_id":"0.0-8.0-0.22","subject":"5voxns2ua76xxck","sona":"7549"},{"rt":null,"stimulus":"<div style=\"font-size:60px;\">+</div>","key_press":null,"trial_type":"html-keyboard-response","trial_index":96,"time_elapsed":272753,"internal_node_id":"0.0-8.0-1.22","subject":"5voxns2ua76xxck","sona":"7549"},{"trial_type":"turing-test","trial_index":97,"time_elapsed":276335,"internal_node_id":"0.0-8.0-2.22","subject":"5voxns2ua76xxck","sona":"7549"},{"rt":472.6300002075732,"stimulus":"<p>Welche Sequenz haben Sie als natürlicher empfunden?</p>","key_press":74,"test_part":"response","test_stimulus":{"position":0,"left":"bvh/pass-bottle-hold-training3-lines.txt","right":"bvh/vr_prediction_models/model(dmp)-dataset(pass-bottle-hold)-npsi(30)-hold(3)/final-lines.txt","att_check":false},"trial_type":"html-keyboard-response","trial_index":98,"time_elapsed":276813,"internal_node_id":"0.0-8.0-3.22","subject":"5voxns2ua76xxck","sona":"7549"},{"rt":258.6349998600781,"stimulus":"<p>Bereit?</p>","key_press":32,"trial_type":"html-keyboard-response","trial_index":99,"time_elapsed":277075,"internal_node_id":"0.0-8.0-0.23","subject":"5voxns2ua76xxck","sona":"7549"},{"rt":null,"stimulus":"<div style=\"font-size:60px;\">+</div>","key_press":null,"trial_type":"html-keyboard-response","trial_index":100,"time_elapsed":279079,"internal_node_id":"0.0-8.0-1.23","subject":"5voxns2ua76xxck","sona":"7549"},{"trial_type":"turing-test","trial_index":101,"time_elapsed":282946,"internal_node_id":"0.0-8.0-2.23","subject":"5voxns2ua76xxck","sona":"7549"},{"rt":659.9799999967217,"stimulus":"<p>Welche Sequenz haben Sie als natürlicher empfunden?</p>","key_press":70,"test_part":"response","test_stimulus":{"position":0,"left":"bvh/pass-bottle-hold-training3-lines.txt","right":"bvh/vr_prediction_models/model(vcgpdm)-dataset(pass-bottle-hold)-mode(ELBO)-parts(3)-dyn(20)-lvm(20)-hold(3)/final-lines.txt","att_check":false},"trial_type":"html-keyboard-response","trial_index":102,"time_elapsed":283610,"internal_node_id":"0.0-8.0-3.23","subject":"5voxns2ua76xxck","sona":"7549"},{"rt":235.70000007748604,"stimulus":"<p>Bereit?</p>","key_press":32,"trial_type":"html-keyboard-response","trial_index":103,"time_elapsed":283850,"internal_node_id":"0.0-8.0-0.24","subject":"5voxns2ua76xxck","sona":"7549"},{"rt":null,"stimulus":"<div style=\"font-size:60px;\">+</div>","key_press":null,"trial_type":"html-keyboard-response","trial_index":104,"time_elapsed":285854,"internal_node_id":"0.0-8.0-1.24","subject":"5voxns2ua76xxck","sona":"7549"},{"trial_type":"turing-test","trial_index":105,"time_elapsed":289623,"internal_node_id":"0.0-8.0-2.24","subject":"5voxns2ua76xxck","sona":"7549"},{"rt":709.7400000784546,"stimulus":"<p>Welche Sequenz haben Sie als natürlicher empfunden?</p>","key_press":74,"test_part":"response","test_stimulus":{"position":1,"left":"bvh/vr_prediction_models/model(vcgpdm)-dataset(return-bottle-hold)-mode(ELBO)-parts(3)-dyn(30)-lvm(15)-hold(2)/final-lines.txt","right":"bvh/return-bottle-hold-training2-lines.txt","att_check":false},"trial_type":"html-keyboard-response","trial_index":106,"time_elapsed":290338,"internal_node_id":"0.0-8.0-3.24","subject":"5voxns2ua76xxck","sona":"7549"},{"rt":234.28500001318753,"stimulus":"<p>Bereit?</p>","key_press":32,"trial_type":"html-keyboard-response","trial_index":107,"time_elapsed":290577,"internal_node_id":"0.0-8.0-0.25","subject":"5voxns2ua76xxck","sona":"7549"},{"rt":null,"stimulus":"<div style=\"font-size:60px;\">+</div>","key_press":null,"trial_type":"html-keyboard-response","trial_index":108,"time_elapsed":292581,"internal_node_id":"0.0-8.0-1.25","subject":"5voxns2ua76xxck","sona":"7549"},{"trial_type":"turing-test","trial_index":109,"time_elapsed":296237,"internal_node_id":"0.0-8.0-2.25","subject":"5voxns2ua76xxck","sona":"7549"},{"rt":604.9949999433011,"stimulus":"<p>Welche Sequenz haben Sie als natürlicher empfunden?</p>","key_press":70,"test_part":"response","test_stimulus":{"position":0,"left":"bvh/return-bottle-hold-training2-lines.txt","right":"bvh/vr_prediction_models/model(vcgpdm)-dataset(return-bottle-hold)-mode(ELBO)-parts(3)-dyn(10)-lvm(30)-hold(2)/final-lines.txt","att_check":false},"trial_type":"html-keyboard-response","trial_index":110,"time_elapsed":296847,"internal_node_id":"0.0-8.0-3.25","subject":"5voxns2ua76xxck","sona":"7549"},{"rt":324.1149999666959,"stimulus":"<p>Bereit?</p>","key_press":32,"trial_type":"html-keyboard-response","trial_index":111,"time_elapsed":297175,"internal_node_id":"0.0-8.0-0.26","subject":"5voxns2ua76xxck","sona":"7549"},{"rt":null,"stimulus":"<div style=\"font-size:60px;\">+</div>","key_press":null,"trial_type":"html-keyboard-response","trial_index":112,"time_elapsed":299180,"internal_node_id":"0.0-8.0-1.26","subject":"5voxns2ua76xxck","sona":"7549"},{"trial_type":"turing-test","trial_index":113,"time_elapsed":305770,"internal_node_id":"0.0-8.0-2.26","subject":"5voxns2ua76xxck","sona":"7549"},{"rt":808.5099998861551,"stimulus":"<p>Welche Sequenz haben Sie als natürlicher empfunden?</p>","key_press":74,"test_part":"response","test_stimulus":{"position":1,"left":"bvh/vr_prediction_models/model(tmp)-dataset(return-bottle)-numprim(3)-hold(2)/final-lines.txt","right":"bvh/return-bottle-training2-lines.txt","att_check":false},"trial_type":"html-keyboard-response","trial_index":114,"time_elapsed":306584,"internal_node_id":"0.0-8.0-3.26","subject":"5voxns2ua76xxck","sona":"7549"},{"rt":272.4349999334663,"stimulus":"<p>Bereit?</p>","key_press":32,"trial_type":"html-keyboard-response","trial_index":115,"time_elapsed":306863,"internal_node_id":"0.0-8.0-0.27","subject":"5voxns2ua76xxck","sona":"7549"},{"rt":null,"stimulus":"<div style=\"font-size:60px;\">+</div>","key_press":null,"trial_type":"html-keyboard-response","trial_index":116,"time_elapsed":308867,"internal_node_id":"0.0-8.0-1.27","subject":"5voxns2ua76xxck","sona":"7549"},{"trial_type":"turing-test","trial_index":117,"time_elapsed":312194,"internal_node_id":"0.0-8.0-2.27","subject":"5voxns2ua76xxck","sona":"7549"},{"rt":3806.0749999713153,"stimulus":"<p>Welche Sequenz haben Sie als natürlicher empfunden?</p>","key_press":74,"test_part":"response","test_stimulus":{"position":0,"left":"bvh/pass-bottle-hold-training0-lines.txt","right":"bvh/vr_prediction_models/model(dmp)-dataset(pass-bottle-hold)-npsi(60)-hold(0)/final-lines.txt","att_check":true},"trial_type":"html-keyboard-response","trial_index":118,"time_elapsed":316007,"internal_node_id":"0.0-8.0-3.27","subject":"5voxns2ua76xxck","sona":"7549"},{"rt":852.7299999259412,"stimulus":"<p>Bereit?</p>","key_press":32,"trial_type":"html-keyboard-response","trial_index":119,"time_elapsed":316865,"internal_node_id":"0.0-8.0-0.28","subject":"5voxns2ua76xxck","sona":"7549"},{"rt":null,"stimulus":"<div style=\"font-size:60px;\">+</div>","key_press":null,"trial_type":"html-keyboard-response","trial_index":120,"time_elapsed":318869,"internal_node_id":"0.0-8.0-1.28","subject":"5voxns2ua76xxck","sona":"7549"},{"trial_type":"turing-test","trial_index":121,"time_elapsed":322282,"internal_node_id":"0.0-8.0-2.28","subject":"5voxns2ua76xxck","sona":"7549"},{"rt":1365.764999995008,"stimulus":"<p>Welche Sequenz haben Sie als natürlicher empfunden?</p>","key_press":70,"test_part":"response","test_stimulus":{"position":0,"left":"bvh/return-bottle-hold-training2-lines.txt","right":"bvh/vr_prediction_models/model(tmp)-dataset(return-bottle-hold)-numprim(3)-hold(2)/final-lines.txt","att_check":false},"trial_type":"html-keyboard-response","trial_index":122,"time_elapsed":323654,"internal_node_id":"0.0-8.0-3.28","subject":"5voxns2ua76xxck","sona":"7549"},{"rt":444.2650000564754,"stimulus":"<p>Bereit?</p>","key_press":32,"trial_type":"html-keyboard-response","trial_index":123,"time_elapsed":324102,"internal_node_id":"0.0-8.0-0.29","subject":"5voxns2ua76xxck","sona":"7549"},{"rt":null,"stimulus":"<div style=\"font-size:60px;\">+</div>","key_press":null,"trial_type":"html-keyboard-response","trial_index":124,"time_elapsed":326107,"internal_node_id":"0.0-8.0-1.29","subject":"5voxns2ua76xxck","sona":"7549"},{"trial_type":"turing-test","trial_index":125,"time_elapsed":329563,"internal_node_id":"0.0-8.0-2.29","subject":"5voxns2ua76xxck","sona":"7549"},{"rt":3838.9349998906255,"stimulus":"<p>Welche Sequenz haben Sie als natürlicher empfunden?</p>","key_press":74,"test_part":"response","test_stimulus":{"position":1,"left":"bvh/vr_prediction_models/model(vcgpdm)-dataset(pass-bottle-hold)-mode(ELBO)-parts(3)-dyn(35)-lvm(20)-hold(2)/final-lines.txt","right":"bvh/pass-bottle-hold-training2-lines.txt","att_check":false},"trial_type":"html-keyboard-response","trial_index":126,"time_elapsed":333407,"internal_node_id":"0.0-8.0-3.29","subject":"5voxns2ua76xxck","sona":"7549"},{"rt":513.9399999752641,"stimulus":"<p>Bereit?</p>","key_press":32,"trial_type":"html-keyboard-response","trial_index":127,"time_elapsed":333926,"internal_node_id":"0.0-8.0-0.30","subject":"5voxns2ua76xxck","sona":"7549"},{"rt":null,"stimulus":"<div style=\"font-size:60px;\">+</div>","key_press":null,"trial_type":"html-keyboard-response","trial_index":128,"time_elapsed":335930,"internal_node_id":"0.0-8.0-1.30","subject":"5voxns2ua76xxck","sona":"7549"},{"trial_type":"turing-test","trial_index":129,"time_elapsed":341984,"internal_node_id":"0.0-8.0-2.30","subject":"5voxns2ua76xxck","sona":"7549"},{"rt":1143.614999949932,"stimulus":"<p>Welche Sequenz haben Sie als natürlicher empfunden?</p>","key_press":70,"test_part":"response","test_stimulus":{"position":0,"left":"bvh/return-bottle-training1-lines.txt","right":"bvh/vr_prediction_models/model(tmp)-dataset(return-bottle)-numprim(6)-hold(1)/final-lines.txt","att_check":false},"trial_type":"html-keyboard-response","trial_index":130,"time_elapsed":343134,"internal_node_id":"0.0-8.0-3.30","subject":"5voxns2ua76xxck","sona":"7549"},{"rt":785.3849998209625,"stimulus":"<p>Bereit?</p>","key_press":32,"trial_type":"html-keyboard-response","trial_index":131,"time_elapsed":343927,"internal_node_id":"0.0-8.0-0.31","subject":"5voxns2ua76xxck","sona":"7549"},{"rt":null,"stimulus":"<div style=\"font-size:60px;\">+</div>","key_press":null,"trial_type":"html-keyboard-response","trial_index":132,"time_elapsed":345930,"internal_node_id":"0.0-8.0-1.31","subject":"5voxns2ua76xxck","sona":"7549"},{"trial_type":"turing-test","trial_index":133,"time_elapsed":351887,"internal_node_id":"0.0-8.0-2.31","subject":"5voxns2ua76xxck","sona":"7549"},{"rt":905.2849998697639,"stimulus":"<p>Welche Sequenz haben Sie als natürlicher empfunden?</p>","key_press":74,"test_part":"response","test_stimulus":{"position":0,"left":"bvh/return-bottle-training4-lines.txt","right":"bvh/vr_prediction_models/model(vcgpdm)-dataset(return-bottle)-mode(ELBO)-parts(3)-dyn(30)-lvm(15)-hold(4)/final-lines.txt","att_check":false},"trial_type":"html-keyboard-response","trial_index":134,"time_elapsed":352798,"internal_node_id":"0.0-8.0-3.31","subject":"5voxns2ua76xxck","sona":"7549"},{"rt":490.9500000067055,"stimulus":"<p>Bereit?</p>","key_press":32,"trial_type":"html-keyboard-response","trial_index":135,"time_elapsed":353294,"internal_node_id":"0.0-8.0-0.32","subject":"5voxns2ua76xxck","sona":"7549"},{"rt":null,"stimulus":"<div style=\"font-size:60px;\">+</div>","key_press":null,"trial_type":"html-keyboard-response","trial_index":136,"time_elapsed":355297,"internal_node_id":"0.0-8.0-1.32","subject":"5voxns2ua76xxck","sona":"7549"},{"trial_type":"turing-test","trial_index":137,"time_elapsed":361038,"internal_node_id":"0.0-8.0-2.32","subject":"5voxns2ua76xxck","sona":"7549"},{"rt":2343.0800000205636,"stimulus":"<p>Welche Sequenz haben Sie als natürlicher empfunden?</p>","key_press":74,"test_part":"response","test_stimulus":{"position":0,"left":"bvh/return-bottle-training3-lines.txt","right":"bvh/vr_prediction_models/model(dmp)-dataset(return-bottle)-npsi(10)-hold(3)/final-lines.txt","att_check":false},"trial_type":"html-keyboard-response","trial_index":138,"time_elapsed":363387,"internal_node_id":"0.0-8.0-3.32","subject":"5voxns2ua76xxck","sona":"7549"},{"rt":545.464999973774,"stimulus":"<p>Bereit?</p>","key_press":32,"trial_type":"html-keyboard-response","trial_index":139,"time_elapsed":363940,"internal_node_id":"0.0-8.0-0.33","subject":"5voxns2ua76xxck","sona":"7549"},{"rt":null,"stimulus":"<div style=\"font-size:60px;\">+</div>","key_press":null,"trial_type":"html-keyboard-response","trial_index":140,"time_elapsed":365944,"internal_node_id":"0.0-8.0-1.33","subject":"5voxns2ua76xxck","sona":"7549"},{"trial_type":"turing-test","trial_index":141,"time_elapsed":371502,"internal_node_id":"0.0-8.0-2.33","subject":"5voxns2ua76xxck","sona":"7549"},{"rt":2601.7799999099225,"stimulus":"<p>Welche Sequenz haben Sie als natürlicher empfunden?</p>","key_press":74,"test_part":"response","test_stimulus":{"position":1,"left":"bvh/vr_prediction_models/model(vcgpdm)-dataset(pass-bottle)-mode(ELBO)-parts(1)-dyn(10)-lvm(5)-hold(1)/final-lines.txt","right":"bvh/pass-bottle-training1-lines.txt","att_check":false},"trial_type":"html-keyboard-response","trial_index":142,"time_elapsed":374109,"internal_node_id":"0.0-8.0-3.33","subject":"5voxns2ua76xxck","sona":"7549"},{"rt":473.99500012397766,"stimulus":"<p>Bereit?</p>","key_press":32,"trial_type":"html-keyboard-response","trial_index":143,"time_elapsed":374588,"internal_node_id":"0.0-8.0-0.34","subject":"5voxns2ua76xxck","sona":"7549"},{"rt":null,"stimulus":"<div style=\"font-size:60px;\">+</div>","key_press":null,"trial_type":"html-keyboard-response","trial_index":144,"time_elapsed":376593,"internal_node_id":"0.0-8.0-1.34","subject":"5voxns2ua76xxck","sona":"7549"},{"trial_type":"turing-test","trial_index":145,"time_elapsed":380107,"internal_node_id":"0.0-8.0-2.34","subject":"5voxns2ua76xxck","sona":"7549"},{"rt":721.2950000539422,"stimulus":"<p>Welche Sequenz haben Sie als natürlicher empfunden?</p>","key_press":70,"test_part":"response","test_stimulus":{"position":0,"left":"bvh/pass-bottle-hold-training1-lines.txt","right":"bvh/vr_prediction_models/model(vcgpdm)-dataset(pass-bottle-hold)-mode(ELBO)-parts(1)-dyn(10)-lvm(5)-hold(1)/final-lines.txt","att_check":false},"trial_type":"html-keyboard-response","trial_index":146,"time_elapsed":380834,"internal_node_id":"0.0-8.0-3.34","subject":"5voxns2ua76xxck","sona":"7549"},{"rt":443.19999986328185,"stimulus":"<p>Bereit?</p>","key_press":32,"trial_type":"html-keyboard-response","trial_index":147,"time_elapsed":381283,"internal_node_id":"0.0-8.0-0.35","subject":"5voxns2ua76xxck","sona":"7549"},{"rt":null,"stimulus":"<div style=\"font-size:60px;\">+</div>","key_press":null,"trial_type":"html-keyboard-response","trial_index":148,"time_elapsed":383286,"internal_node_id":"0.0-8.0-1.35","subject":"5voxns2ua76xxck","sona":"7549"},{"trial_type":"turing-test","trial_index":149,"time_elapsed":389100,"internal_node_id":"0.0-8.0-2.35","subject":"5voxns2ua76xxck","sona":"7549"},{"rt":1642.4000000115484,"stimulus":"<p>Welche Sequenz haben Sie als natürlicher empfunden?</p>","key_press":74,"test_part":"response","test_stimulus":{"position":1,"left":"bvh/vr_prediction_models/model(dmp)-dataset(pass-bottle)-npsi(50)-hold(3)/final-lines.txt","right":"bvh/pass-bottle-training3-lines.txt","att_check":true},"trial_type":"html-keyboard-response","trial_index":150,"time_elapsed":390748,"internal_node_id":"0.0-8.0-3.35","subject":"5voxns2ua76xxck","sona":"7549"},{"rt":281.7600001581013,"stimulus":"<p>Bereit?</p>","key_press":32,"trial_type":"html-keyboard-response","trial_index":151,"time_elapsed":391034,"internal_node_id":"0.0-8.0-0.36","subject":"5voxns2ua76xxck","sona":"7549"},{"rt":null,"stimulus":"<div style=\"font-size:60px;\">+</div>","key_press":null,"trial_type":"html-keyboard-response","trial_index":152,"time_elapsed":393038,"internal_node_id":"0.0-8.0-1.36","subject":"5voxns2ua76xxck","sona":"7549"},{"trial_type":"turing-test","trial_index":153,"time_elapsed":398549,"internal_node_id":"0.0-8.0-2.36","subject":"5voxns2ua76xxck","sona":"7549"},{"rt":574.7950000222772,"stimulus":"<p>Welche Sequenz haben Sie als natürlicher empfunden?</p>","key_press":74,"test_part":"response","test_stimulus":{"position":1,"left":"bvh/vr_prediction_models/model(vcgpdm)-dataset(return-bottle)-mode(ELBO)-parts(3)-dyn(10)-lvm(10)-hold(0)/final-lines.txt","right":"bvh/return-bottle-training0-lines.txt","att_check":false},"trial_type":"html-keyboard-response","trial_index":154,"time_elapsed":399130,"internal_node_id":"0.0-8.0-3.36","subject":"5voxns2ua76xxck","sona":"7549"},{"rt":393.0349999573082,"stimulus":"<p>Bereit?</p>","key_press":32,"trial_type":"html-keyboard-response","trial_index":155,"time_elapsed":399530,"internal_node_id":"0.0-8.0-0.37","subject":"5voxns2ua76xxck","sona":"7549"},{"rt":null,"stimulus":"<div style=\"font-size:60px;\">+</div>","key_press":null,"trial_type":"html-keyboard-response","trial_index":156,"time_elapsed":401534,"internal_node_id":"0.0-8.0-1.37","subject":"5voxns2ua76xxck","sona":"7549"},{"trial_type":"turing-test","trial_index":157,"time_elapsed":405160,"internal_node_id":"0.0-8.0-2.37","subject":"5voxns2ua76xxck","sona":"7549"},{"rt":829.0549998637289,"stimulus":"<p>Welche Sequenz haben Sie als natürlicher empfunden?</p>","key_press":74,"test_part":"response","test_stimulus":{"position":1,"left":"bvh/vr_prediction_models/model(vcgpdm)-dataset(return-bottle-hold)-mode(ELBO)-parts(1)-dyn(10)-lvm(5)-hold(2)/final-lines.txt","right":"bvh/return-bottle-hold-training2-lines.txt","att_check":false},"trial_type":"html-keyboard-response","trial_index":158,"time_elapsed":405994,"internal_node_id":"0.0-8.0-3.37","subject":"5voxns2ua76xxck","sona":"7549"},{"rt":361.585000064224,"stimulus":"<p>Bereit?</p>","key_press":32,"trial_type":"html-keyboard-response","trial_index":159,"time_elapsed":406360,"internal_node_id":"0.0-8.0-0.38","subject":"5voxns2ua76xxck","sona":"7549"},{"rt":null,"stimulus":"<div style=\"font-size:60px;\">+</div>","key_press":null,"trial_type":"html-keyboard-response","trial_index":160,"time_elapsed":408364,"internal_node_id":"0.0-8.0-1.38","subject":"5voxns2ua76xxck","sona":"7549"},{"trial_type":"turing-test","trial_index":161,"time_elapsed":411721,"internal_node_id":"0.0-8.0-2.38","subject":"5voxns2ua76xxck","sona":"7549"},{"rt":824.5949998963624,"stimulus":"<p>Welche Sequenz haben Sie als natürlicher empfunden?</p>","key_press":70,"test_part":"response","test_stimulus":{"position":0,"left":"bvh/pass-bottle-hold-training1-lines.txt","right":"bvh/vr_prediction_models/model(vcgpdm)-dataset(pass-bottle-hold)-mode(ELBO)-parts(1)-dyn(30)-lvm(35)-hold(1)/final-lines.txt","att_check":false},"trial_type":"html-keyboard-response","trial_index":162,"time_elapsed":412551,"internal_node_id":"0.0-8.0-3.38","subject":"5voxns2ua76xxck","sona":"7549"},{"rt":371.1550000589341,"stimulus":"<p>Bereit?</p>","key_press":32,"trial_type":"html-keyboard-response","trial_index":163,"time_elapsed":412927,"internal_node_id":"0.0-8.0-0.39","subject":"5voxns2ua76xxck","sona":"7549"},{"rt":null,"stimulus":"<div style=\"font-size:60px;\">+</div>","key_press":null,"trial_type":"html-keyboard-response","trial_index":164,"time_elapsed":414930,"internal_node_id":"0.0-8.0-1.39","subject":"5voxns2ua76xxck","sona":"7549"},{"trial_type":"turing-test","trial_index":165,"time_elapsed":418774,"internal_node_id":"0.0-8.0-2.39","subject":"5voxns2ua76xxck","sona":"7549"},{"rt":635.0200001616031,"stimulus":"<p>Welche Sequenz haben Sie als natürlicher empfunden?</p>","key_press":74,"test_part":"response","test_stimulus":{"position":0,"left":"bvh/return-bottle-hold-training4-lines.txt","right":"bvh/vr_prediction_models/model(vcgpdm)-dataset(return-bottle-hold)-mode(ELBO)-parts(1)-dyn(20)-lvm(5)-hold(4)/final-lines.txt","att_check":false},"trial_type":"html-keyboard-response","trial_index":166,"time_elapsed":419415,"internal_node_id":"0.0-8.0-3.39","subject":"5voxns2ua76xxck","sona":"7549"},{"rt":297.8550000116229,"stimulus":"<p>Bereit?</p>","key_press":32,"trial_type":"html-keyboard-response","trial_index":167,"time_elapsed":419717,"internal_node_id":"0.0-8.0-0.40","subject":"5voxns2ua76xxck","sona":"7549"},{"rt":null,"stimulus":"<div style=\"font-size:60px;\">+</div>","key_press":null,"trial_type":"html-keyboard-response","trial_index":168,"time_elapsed":421722,"internal_node_id":"0.0-8.0-1.40","subject":"5voxns2ua76xxck","sona":"7549"},{"trial_type":"turing-test","trial_index":169,"time_elapsed":425386,"internal_node_id":"0.0-8.0-2.40","subject":"5voxns2ua76xxck","sona":"7549"},{"rt":1213.1850000005215,"stimulus":"<p>Welche Sequenz haben Sie als natürlicher empfunden?</p>","key_press":74,"test_part":"response","test_stimulus":{"position":1,"left":"bvh/vr_prediction_models/model(vcgpdm)-dataset(pass-bottle-hold)-mode(ELBO)-parts(1)-dyn(25)-lvm(35)-hold(3)/final-lines.txt","right":"bvh/pass-bottle-hold-training3-lines.txt","att_check":false},"trial_type":"html-keyboard-response","trial_index":170,"time_elapsed":426604,"internal_node_id":"0.0-8.0-3.40","subject":"5voxns2ua76xxck","sona":"7549"},{"rt":338.9699999243021,"stimulus":"<p>Bereit?</p>","key_press":32,"trial_type":"html-keyboard-response","trial_index":171,"time_elapsed":426948,"internal_node_id":"0.0-8.0-0.41","subject":"5voxns2ua76xxck","sona":"7549"},{"rt":null,"stimulus":"<div style=\"font-size:60px;\">+</div>","key_press":null,"trial_type":"html-keyboard-response","trial_index":172,"time_elapsed":428952,"internal_node_id":"0.0-8.0-1.41","subject":"5voxns2ua76xxck","sona":"7549"},{"trial_type":"turing-test","trial_index":173,"time_elapsed":435505,"internal_node_id":"0.0-8.0-2.41","subject":"5voxns2ua76xxck","sona":"7549"},{"rt":485.93500000424683,"stimulus":"<p>Welche Sequenz haben Sie als natürlicher empfunden?</p>","key_press":70,"test_part":"response","test_stimulus":{"position":0,"left":"bvh/return-bottle-training2-lines.txt","right":"bvh/vr_prediction_models/model(tmp)-dataset(return-bottle)-numprim(6)-hold(2)/final-lines.txt","att_check":false},"trial_type":"html-keyboard-response","trial_index":174,"time_elapsed":435997,"internal_node_id":"0.0-8.0-3.41","subject":"5voxns2ua76xxck","sona":"7549"},{"rt":378.3200001344085,"stimulus":"<p>Bereit?</p>","key_press":32,"trial_type":"html-keyboard-response","trial_index":175,"time_elapsed":436380,"internal_node_id":"0.0-8.0-0.42","subject":"5voxns2ua76xxck","sona":"7549"},{"rt":null,"stimulus":"<div style=\"font-size:60px;\">+</div>","key_press":null,"trial_type":"html-keyboard-response","trial_index":176,"time_elapsed":438384,"internal_node_id":"0.0-8.0-1.42","subject":"5voxns2ua76xxck","sona":"7549"},{"trial_type":"turing-test","trial_index":177,"time_elapsed":441746,"internal_node_id":"0.0-8.0-2.42","subject":"5voxns2ua76xxck","sona":"7549"},{"rt":3129.990000044927,"stimulus":"<p>Welche Sequenz haben Sie als natürlicher empfunden?</p>","key_press":74,"test_part":"response","test_stimulus":{"position":1,"left":"bvh/vr_prediction_models/model(vcgpdm)-dataset(pass-bottle-hold)-mode(ELBO)-parts(1)-dyn(20)-lvm(20)-hold(1)/final-lines.txt","right":"bvh/pass-bottle-hold-training1-lines.txt","att_check":false},"trial_type":"html-keyboard-response","trial_index":178,"time_elapsed":444881,"internal_node_id":"0.0-8.0-3.42","subject":"5voxns2ua76xxck","sona":"7549"},{"rt":619.3200000561774,"stimulus":"<p>Bereit?</p>","key_press":32,"trial_type":"html-keyboard-response","trial_index":179,"time_elapsed":445506,"internal_node_id":"0.0-8.0-0.43","subject":"5voxns2ua76xxck","sona":"7549"},{"rt":null,"stimulus":"<div style=\"font-size:60px;\">+</div>","key_press":null,"trial_type":"html-keyboard-response","trial_index":180,"time_elapsed":447509,"internal_node_id":"0.0-8.0-1.43","subject":"5voxns2ua76xxck","sona":"7549"},{"trial_type":"turing-test","trial_index":181,"time_elapsed":451000,"internal_node_id":"0.0-8.0-2.43","subject":"5voxns2ua76xxck","sona":"7549"},{"rt":803.0399999115616,"stimulus":"<p>Welche Sequenz haben Sie als natürlicher empfunden?</p>","key_press":70,"test_part":"response","test_stimulus":{"position":0,"left":"bvh/pass-bottle-hold-training1-lines.txt","right":"bvh/vr_prediction_models/model(vcgpdm)-dataset(pass-bottle-hold)-mode(ELBO)-parts(1)-dyn(35)-lvm(10)-hold(1)/final-lines.txt","att_check":false},"trial_type":"html-keyboard-response","trial_index":182,"time_elapsed":451809,"internal_node_id":"0.0-8.0-3.43","subject":"5voxns2ua76xxck","sona":"7549"},{"rt":601.2750000227243,"stimulus":"<p>Bereit?</p>","key_press":32,"trial_type":"html-keyboard-response","trial_index":183,"time_elapsed":452416,"internal_node_id":"0.0-8.0-0.44","subject":"5voxns2ua76xxck","sona":"7549"},{"rt":null,"stimulus":"<div style=\"font-size:60px;\">+</div>","key_press":null,"trial_type":"html-keyboard-response","trial_index":184,"time_elapsed":454419,"internal_node_id":"0.0-8.0-1.44","subject":"5voxns2ua76xxck","sona":"7549"},{"trial_type":"turing-test","trial_index":185,"time_elapsed":459853,"internal_node_id":"0.0-8.0-2.44","subject":"5voxns2ua76xxck","sona":"7549"},{"rt":3670.5300000030547,"stimulus":"<p>Welche Sequenz haben Sie als natürlicher empfunden?</p>","key_press":74,"test_part":"response","test_stimulus":{"position":1,"left":"bvh/vr_prediction_models/model(dmp)-dataset(pass-bottle)-npsi(100)-hold(1)/final-lines.txt","right":"bvh/pass-bottle-training1-lines.txt","att_check":false},"trial_type":"html-keyboard-response","trial_index":186,"time_elapsed":463530,"internal_node_id":"0.0-8.0-3.44","subject":"5voxns2ua76xxck","sona":"7549"},{"rt":335.23999992758036,"stimulus":"<p>Bereit?</p>","key_press":32,"trial_type":"html-keyboard-response","trial_index":187,"time_elapsed":463872,"internal_node_id":"0.0-8.0-0.45","subject":"5voxns2ua76xxck","sona":"7549"},{"rt":null,"stimulus":"<div style=\"font-size:60px;\">+</div>","key_press":null,"trial_type":"html-keyboard-response","trial_index":188,"time_elapsed":465876,"internal_node_id":"0.0-8.0-1.45","subject":"5voxns2ua76xxck","sona":"7549"},{"trial_type":"turing-test","trial_index":189,"time_elapsed":471770,"internal_node_id":"0.0-8.0-2.45","subject":"5voxns2ua76xxck","sona":"7549"},{"rt":431.51500006206334,"stimulus":"<p>Welche Sequenz haben Sie als natürlicher empfunden?</p>","key_press":70,"test_part":"response","test_stimulus":{"position":0,"left":"bvh/pass-bottle-training4-lines.txt","right":"bvh/vr_prediction_models/model(vcgpdm)-dataset(pass-bottle)-mode(ELBO)-parts(1)-dyn(10)-lvm(25)-hold(4)/final-lines.txt","att_check":false},"trial_type":"html-keyboard-response","trial_index":190,"time_elapsed":472208,"internal_node_id":"0.0-8.0-3.45","subject":"5voxns2ua76xxck","sona":"7549"},{"rt":466.87999996356666,"stimulus":"<p>Bereit?</p>","key_press":32,"trial_type":"html-keyboard-response","trial_index":191,"time_elapsed":472680,"internal_node_id":"0.0-8.0-0.46","subject":"5voxns2ua76xxck","sona":"7549"},{"rt":null,"stimulus":"<div style=\"font-size:60px;\">+</div>","key_press":null,"trial_type":"html-keyboard-response","trial_index":192,"time_elapsed":474685,"internal_node_id":"0.0-8.0-1.46","subject":"5voxns2ua76xxck","sona":"7549"},{"trial_type":"turing-test","trial_index":193,"time_elapsed":478435,"internal_node_id":"0.0-8.0-2.46","subject":"5voxns2ua76xxck","sona":"7549"},{"rt":1206.8650000728667,"stimulus":"<p>Welche Sequenz haben Sie als natürlicher empfunden?</p>","key_press":74,"test_part":"response","test_stimulus":{"position":1,"left":"bvh/vr_prediction_models/model(tmp)-dataset(return-bottle-hold)-numprim(4)-hold(4)/final-lines.txt","right":"bvh/return-bottle-hold-training4-lines.txt","att_check":false},"trial_type":"html-keyboard-response","trial_index":194,"time_elapsed":479648,"internal_node_id":"0.0-8.0-3.46","subject":"5voxns2ua76xxck","sona":"7549"},{"rt":345.14499991200864,"stimulus":"<p>Bereit?</p>","key_press":32,"trial_type":"html-keyboard-response","trial_index":195,"time_elapsed":479999,"internal_node_id":"0.0-8.0-0.47","subject":"5voxns2ua76xxck","sona":"7549"},{"rt":null,"stimulus":"<div style=\"font-size:60px;\">+</div>","key_press":null,"trial_type":"html-keyboard-response","trial_index":196,"time_elapsed":482002,"internal_node_id":"0.0-8.0-1.47","subject":"5voxns2ua76xxck","sona":"7549"},{"trial_type":"turing-test","trial_index":197,"time_elapsed":488702,"internal_node_id":"0.0-8.0-2.47","subject":"5voxns2ua76xxck","sona":"7549"},{"rt":4138.940000208095,"stimulus":"<p>Welche Sequenz haben Sie als natürlicher empfunden?</p>","key_press":70,"test_part":"response","test_stimulus":{"position":0,"left":"bvh/return-bottle-training2-lines.txt","right":"bvh/vr_prediction_models/model(vcgpdm)-dataset(return-bottle)-mode(ELBO)-parts(1)-dyn(10)-lvm(30)-hold(2)/final-lines.txt","att_check":false},"trial_type":"html-keyboard-response","trial_index":198,"time_elapsed":492850,"internal_node_id":"0.0-8.0-3.47","subject":"5voxns2ua76xxck","sona":"7549"},{"rt":330.6549999397248,"stimulus":"<p>Bereit?</p>","key_press":32,"trial_type":"html-keyboard-response","trial_index":199,"time_elapsed":493187,"internal_node_id":"0.0-8.0-0.48","subject":"5voxns2ua76xxck","sona":"7549"},{"rt":null,"stimulus":"<div style=\"font-size:60px;\">+</div>","key_press":null,"trial_type":"html-keyboard-response","trial_index":200,"time_elapsed":495190,"internal_node_id":"0.0-8.0-1.48","subject":"5voxns2ua76xxck","sona":"7549"},{"trial_type":"turing-test","trial_index":201,"time_elapsed":498807,"internal_node_id":"0.0-8.0-2.48","subject":"5voxns2ua76xxck","sona":"7549"},{"rt":1643.2749999221414,"stimulus":"<p>Welche Sequenz haben Sie als natürlicher empfunden?</p>","key_press":70,"test_part":"response","test_stimulus":{"position":0,"left":"bvh/return-bottle-hold-training3-lines.txt","right":"bvh/vr_prediction_models/model(dmp)-dataset(return-bottle-hold)-npsi(100)-hold(3)/final-lines.txt","att_check":false},"trial_type":"html-keyboard-response","trial_index":202,"time_elapsed":500457,"internal_node_id":"0.0-8.0-3.48","subject":"5voxns2ua76xxck","sona":"7549"},{"rt":602.9850000049919,"stimulus":"<p>Bereit?</p>","key_press":32,"trial_type":"html-keyboard-response","trial_index":203,"time_elapsed":501066,"internal_node_id":"0.0-8.0-0.49","subject":"5voxns2ua76xxck","sona":"7549"},{"rt":null,"stimulus":"<div style=\"font-size:60px;\">+</div>","key_press":null,"trial_type":"html-keyboard-response","trial_index":204,"time_elapsed":503069,"internal_node_id":"0.0-8.0-1.49","subject":"5voxns2ua76xxck","sona":"7549"},{"trial_type":"turing-test","trial_index":205,"time_elapsed":509148,"internal_node_id":"0.0-8.0-2.49","subject":"5voxns2ua76xxck","sona":"7549"},{"rt":462.89000008255243,"stimulus":"<p>Welche Sequenz haben Sie als natürlicher empfunden?</p>","key_press":70,"test_part":"response","test_stimulus":{"position":0,"left":"bvh/return-bottle-training1-lines.txt","right":"bvh/vr_prediction_models/model(dmp)-dataset(return-bottle)-npsi(20)-hold(1)/final-lines.txt","att_check":false},"trial_type":"html-keyboard-response","trial_index":206,"time_elapsed":509618,"internal_node_id":"0.0-8.0-3.49","subject":"5voxns2ua76xxck","sona":"7549"},{"rt":409.4999998342246,"stimulus":"<p>Bereit?</p>","key_press":32,"trial_type":"html-keyboard-response","trial_index":207,"time_elapsed":510033,"internal_node_id":"0.0-8.0-0.50","subject":"5voxns2ua76xxck","sona":"7549"},{"rt":null,"stimulus":"<div style=\"font-size:60px;\">+</div>","key_press":null,"trial_type":"html-keyboard-response","trial_index":208,"time_elapsed":512038,"internal_node_id":"0.0-8.0-1.50","subject":"5voxns2ua76xxck","sona":"7549"},{"trial_type":"turing-test","trial_index":209,"time_elapsed":515349,"internal_node_id":"0.0-8.0-2.50","subject":"5voxns2ua76xxck","sona":"7549"},{"rt":939.5149999763817,"stimulus":"<p>Welche Sequenz haben Sie als natürlicher empfunden?</p>","key_press":74,"test_part":"response","test_stimulus":{"position":0,"left":"bvh/pass-bottle-hold-training0-lines.txt","right":"bvh/vr_prediction_models/model(tmp)-dataset(pass-bottle-hold)-numprim(15)-hold(0)/final-lines.txt","att_check":false},"trial_type":"html-keyboard-response","trial_index":210,"time_elapsed":516295,"internal_node_id":"0.0-8.0-3.50","subject":"5voxns2ua76xxck","sona":"7549"},{"rt":324.45000018924475,"stimulus":"<p>Bereit?</p>","key_press":32,"trial_type":"html-keyboard-response","trial_index":211,"time_elapsed":516624,"internal_node_id":"0.0-8.0-0.51","subject":"5voxns2ua76xxck","sona":"7549"},{"rt":null,"stimulus":"<div style=\"font-size:60px;\">+</div>","key_press":null,"trial_type":"html-keyboard-response","trial_index":212,"time_elapsed":518628,"internal_node_id":"0.0-8.0-1.51","subject":"5voxns2ua76xxck","sona":"7549"},{"trial_type":"turing-test","trial_index":213,"time_elapsed":523761,"internal_node_id":"0.0-8.0-2.51","subject":"5voxns2ua76xxck","sona":"7549"},{"rt":960.1700000930578,"stimulus":"<p>Welche Sequenz haben Sie als natürlicher empfunden?</p>","key_press":74,"test_part":"response","test_stimulus":{"position":1,"left":"bvh/vr_prediction_models/model(tmp)-dataset(return-bottle-hold)-numprim(11)-hold(0)/final-lines.txt","right":"bvh/return-bottle-hold-training0-lines.txt","att_check":false},"trial_type":"html-keyboard-response","trial_index":214,"time_elapsed":524728,"internal_node_id":"0.0-8.0-3.51","subject":"5voxns2ua76xxck","sona":"7549"},{"rt":294.77999988012016,"stimulus":"<p>Bereit?</p>","key_press":32,"trial_type":"html-keyboard-response","trial_index":215,"time_elapsed":525031,"internal_node_id":"0.0-8.0-0.52","subject":"5voxns2ua76xxck","sona":"7549"},{"rt":null,"stimulus":"<div style=\"font-size:60px;\">+</div>","key_press":null,"trial_type":"html-keyboard-response","trial_index":216,"time_elapsed":527034,"internal_node_id":"0.0-8.0-1.52","subject":"5voxns2ua76xxck","sona":"7549"},{"trial_type":"turing-test","trial_index":217,"time_elapsed":530355,"internal_node_id":"0.0-8.0-2.52","subject":"5voxns2ua76xxck","sona":"7549"},{"rt":1108.5999999195337,"stimulus":"<p>Welche Sequenz haben Sie als natürlicher empfunden?</p>","key_press":70,"test_part":"response","test_stimulus":{"position":0,"left":"bvh/return-bottle-hold-training1-lines.txt","right":"bvh/vr_prediction_models/model(dmp)-dataset(return-bottle-hold)-npsi(50)-hold(1)/final-lines.txt","att_check":false},"trial_type":"html-keyboard-response","trial_index":218,"time_elapsed":531469,"internal_node_id":"0.0-8.0-3.52","subject":"5voxns2ua76xxck","sona":"7549"},{"rt":346.8449998181313,"stimulus":"<p>Bereit?</p>","key_press":32,"trial_type":"html-keyboard-response","trial_index":219,"time_elapsed":531821,"internal_node_id":"0.0-8.0-0.53","subject":"5voxns2ua76xxck","sona":"7549"},{"rt":null,"stimulus":"<div style=\"font-size:60px;\">+</div>","key_press":null,"trial_type":"html-keyboard-response","trial_index":220,"time_elapsed":533825,"internal_node_id":"0.0-8.0-1.53","subject":"5voxns2ua76xxck","sona":"7549"},{"trial_type":"turing-test","trial_index":221,"time_elapsed":537350,"internal_node_id":"0.0-8.0-2.53","subject":"5voxns2ua76xxck","sona":"7549"},{"rt":215.93499998562038,"stimulus":"<p>Welche Sequenz haben Sie als natürlicher empfunden?</p>","key_press":74,"test_part":"response","test_stimulus":{"position":1,"left":"bvh/vr_prediction_models/model(tmp)-dataset(pass-bottle-hold)-numprim(11)-hold(3)/final-lines.txt","right":"bvh/pass-bottle-hold-training3-lines.txt","att_check":false},"trial_type":"html-keyboard-response","trial_index":222,"time_elapsed":537573,"internal_node_id":"0.0-8.0-3.53","subject":"5voxns2ua76xxck","sona":"7549"},{"rt":384.8800000268966,"stimulus":"<p>Bereit?</p>","key_press":32,"trial_type":"html-keyboard-response","trial_index":223,"time_elapsed":537964,"internal_node_id":"0.0-8.0-0.54","subject":"5voxns2ua76xxck","sona":"7549"},{"rt":null,"stimulus":"<div style=\"font-size:60px;\">+</div>","key_press":null,"trial_type":"html-keyboard-response","trial_index":224,"time_elapsed":539968,"internal_node_id":"0.0-8.0-1.54","subject":"5voxns2ua76xxck","sona":"7549"},{"trial_type":"turing-test","trial_index":225,"time_elapsed":545852,"internal_node_id":"0.0-8.0-2.54","subject":"5voxns2ua76xxck","sona":"7549"},{"rt":1255.4399999789894,"stimulus":"<p>Welche Sequenz haben Sie als natürlicher empfunden?</p>","key_press":70,"test_part":"response","test_stimulus":{"position":1,"left":"bvh/vr_prediction_models/model(vcgpdm)-dataset(return-bottle)-mode(ELBO)-parts(3)-dyn(20)-lvm(15)-hold(3)/final-lines.txt","right":"bvh/return-bottle-training3-lines.txt","att_check":false},"trial_type":"html-keyboard-response","trial_index":226,"time_elapsed":547115,"internal_node_id":"0.0-8.0-3.54","subject":"5voxns2ua76xxck","sona":"7549"},{"rt":218.74499996192753,"stimulus":"<p>Bereit?</p>","key_press":32,"trial_type":"html-keyboard-response","trial_index":227,"time_elapsed":547340,"internal_node_id":"0.0-8.0-0.55","subject":"5voxns2ua76xxck","sona":"7549"},{"rt":null,"stimulus":"<div style=\"font-size:60px;\">+</div>","key_press":null,"trial_type":"html-keyboard-response","trial_index":228,"time_elapsed":549344,"internal_node_id":"0.0-8.0-1.55","subject":"5voxns2ua76xxck","sona":"7549"},{"trial_type":"turing-test","trial_index":229,"time_elapsed":552623,"internal_node_id":"0.0-8.0-2.55","subject":"5voxns2ua76xxck","sona":"7549"},{"rt":757.5999998953193,"stimulus":"<p>Welche Sequenz haben Sie als natürlicher empfunden?</p>","key_press":74,"test_part":"response","test_stimulus":{"position":1,"left":"bvh/vr_prediction_models/model(vcgpdm)-dataset(pass-bottle-hold)-mode(ELBO)-parts(3)-dyn(10)-lvm(25)-hold(0)/final-lines.txt","right":"bvh/pass-bottle-hold-training0-lines.txt","att_check":false},"trial_type":"html-keyboard-response","trial_index":230,"time_elapsed":553387,"internal_node_id":"0.0-8.0-3.55","subject":"5voxns2ua76xxck","sona":"7549"},{"rt":368.84999996982515,"stimulus":"<p>Bereit?</p>","key_press":32,"trial_type":"html-keyboard-response","trial_index":231,"time_elapsed":553761,"internal_node_id":"0.0-8.0-0.56","subject":"5voxns2ua76xxck","sona":"7549"},{"rt":null,"stimulus":"<div style=\"font-size:60px;\">+</div>","key_press":null,"trial_type":"html-keyboard-response","trial_index":232,"time_elapsed":555766,"internal_node_id":"0.0-8.0-1.56","subject":"5voxns2ua76xxck","sona":"7549"},{"trial_type":"turing-test","trial_index":233,"time_elapsed":561497,"internal_node_id":"0.0-8.0-2.56","subject":"5voxns2ua76xxck","sona":"7549"},{"rt":1006.1149999964982,"stimulus":"<p>Welche Sequenz haben Sie als natürlicher empfunden?</p>","key_press":70,"test_part":"response","test_stimulus":{"position":1,"left":"bvh/vr_prediction_models/model(tmp)-dataset(return-bottle)-numprim(13)-hold(3)/final-lines.txt","right":"bvh/return-bottle-training3-lines.txt","att_check":false},"trial_type":"html-keyboard-response","trial_index":234,"time_elapsed":562513,"internal_node_id":"0.0-8.0-3.56","subject":"5voxns2ua76xxck","sona":"7549"},{"rt":281.56499983742833,"stimulus":"<p>Bereit?</p>","key_press":32,"trial_type":"html-keyboard-response","trial_index":235,"time_elapsed":562801,"internal_node_id":"0.0-8.0-0.57","subject":"5voxns2ua76xxck","sona":"7549"},{"rt":null,"stimulus":"<div style=\"font-size:60px;\">+</div>","key_press":null,"trial_type":"html-keyboard-response","trial_index":236,"time_elapsed":564805,"internal_node_id":"0.0-8.0-1.57","subject":"5voxns2ua76xxck","sona":"7549"},{"trial_type":"turing-test","trial_index":237,"time_elapsed":568304,"internal_node_id":"0.0-8.0-2.57","subject":"5voxns2ua76xxck","sona":"7549"},{"rt":7136.620000004768,"stimulus":"<p>Welche Sequenz haben Sie als natürlicher empfunden?</p>","key_press":74,"test_part":"response","test_stimulus":{"position":1,"left":"bvh/vr_prediction_models/model(vcgpdm)-dataset(pass-bottle-hold)-mode(ELBO)-parts(1)-dyn(20)-lvm(5)-hold(0)/final-lines.txt","right":"bvh/pass-bottle-hold-training0-lines.txt","att_check":false},"trial_type":"html-keyboard-response","trial_index":238,"time_elapsed":575452,"internal_node_id":"0.0-8.0-3.57","subject":"5voxns2ua76xxck","sona":"7549"},{"rt":310.1999999489635,"stimulus":"<p>Bereit?</p>","key_press":32,"trial_type":"html-keyboard-response","trial_index":239,"time_elapsed":575770,"internal_node_id":"0.0-8.0-0.58","subject":"5voxns2ua76xxck","sona":"7549"},{"rt":null,"stimulus":"<div style=\"font-size:60px;\">+</div>","key_press":null,"trial_type":"html-keyboard-response","trial_index":240,"time_elapsed":577775,"internal_node_id":"0.0-8.0-1.58","subject":"5voxns2ua76xxck","sona":"7549"},{"trial_type":"turing-test","trial_index":241,"time_elapsed":582991,"internal_node_id":"0.0-8.0-2.58","subject":"5voxns2ua76xxck","sona":"7549"},{"rt":106.23000003397465,"stimulus":"<p>Welche Sequenz haben Sie als natürlicher empfunden?</p>","key_press":74,"test_part":"response","test_stimulus":{"position":1,"left":"bvh/vr_prediction_models/model(vcgpdm)-dataset(return-bottle-hold)-mode(ELBO)-parts(1)-dyn(10)-lvm(30)-hold(0)/final-lines.txt","right":"bvh/return-bottle-hold-training0-lines.txt","att_check":false},"trial_type":"html-keyboard-response","trial_index":242,"time_elapsed":583105,"internal_node_id":"0.0-8.0-3.58","subject":"5voxns2ua76xxck","sona":"7549"},{"rt":848.2599998824298,"stimulus":"<p>Bereit?</p>","key_press":32,"trial_type":"html-keyboard-response","trial_index":243,"time_elapsed":583961,"internal_node_id":"0.0-8.0-0.59","subject":"5voxns2ua76xxck","sona":"7549"},{"rt":null,"stimulus":"<div style=\"font-size:60px;\">+</div>","key_press":null,"trial_type":"html-keyboard-response","trial_index":244,"time_elapsed":585965,"internal_node_id":"0.0-8.0-1.59","subject":"5voxns2ua76xxck","sona":"7549"},{"trial_type":"turing-test","trial_index":245,"time_elapsed":589294,"internal_node_id":"0.0-8.0-2.59","subject":"5voxns2ua76xxck","sona":"7549"},{"rt":1188.5699999984354,"stimulus":"<p>Welche Sequenz haben Sie als natürlicher empfunden?</p>","key_press":70,"test_part":"response","test_stimulus":{"position":1,"left":"bvh/vr_prediction_models/model(vcgpdm)-dataset(pass-bottle-hold)-mode(ELBO)-parts(3)-dyn(25)-lvm(30)-hold(1)/final-lines.txt","right":"bvh/pass-bottle-hold-training1-lines.txt","att_check":false},"trial_type":"html-keyboard-response","trial_index":246,"time_elapsed":590488,"internal_node_id":"0.0-8.0-3.59","subject":"5voxns2ua76xxck","sona":"7549"},{"rt":409.2999999411404,"stimulus":"<p>Bereit?</p>","key_press":32,"trial_type":"html-keyboard-response","trial_index":247,"time_elapsed":590904,"internal_node_id":"0.0-8.0-0.60","subject":"5voxns2ua76xxck","sona":"7549"},{"rt":null,"stimulus":"<div style=\"font-size:60px;\">+</div>","key_press":null,"trial_type":"html-keyboard-response","trial_index":248,"time_elapsed":592908,"internal_node_id":"0.0-8.0-1.60","subject":"5voxns2ua76xxck","sona":"7549"},{"trial_type":"turing-test","trial_index":249,"time_elapsed":598746,"internal_node_id":"0.0-8.0-2.60","subject":"5voxns2ua76xxck","sona":"7549"},{"rt":515.1250001508743,"stimulus":"<p>Welche Sequenz haben Sie als natürlicher empfunden?</p>","key_press":74,"test_part":"response","test_stimulus":{"position":1,"left":"bvh/vr_prediction_models/model(dmp)-dataset(pass-bottle)-npsi(10)-hold(3)/final-lines.txt","right":"bvh/pass-bottle-training3-lines.txt","att_check":false},"trial_type":"html-keyboard-response","trial_index":250,"time_elapsed":599271,"internal_node_id":"0.0-8.0-3.60","subject":"5voxns2ua76xxck","sona":"7549"},{"rt":418.08999981731176,"stimulus":"<p>Bereit?</p>","key_press":32,"trial_type":"html-keyboard-response","trial_index":251,"time_elapsed":599695,"internal_node_id":"0.0-8.0-0.61","subject":"5voxns2ua76xxck","sona":"7549"},{"rt":null,"stimulus":"<div style=\"font-size:60px;\">+</div>","key_press":null,"trial_type":"html-keyboard-response","trial_index":252,"time_elapsed":601699,"internal_node_id":"0.0-8.0-1.61","subject":"5voxns2ua76xxck","sona":"7549"},{"trial_type":"turing-test","trial_index":253,"time_elapsed":605513,"internal_node_id":"0.0-8.0-2.61","subject":"5voxns2ua76xxck","sona":"7549"},{"rt":1175.1700001768768,"stimulus":"<p>Welche Sequenz haben Sie als natürlicher empfunden?</p>","key_press":74,"test_part":"response","test_stimulus":{"position":1,"left":"bvh/vr_prediction_models/model(vcgpdm)-dataset(pass-bottle-hold)-mode(ELBO)-parts(3)-dyn(25)-lvm(30)-hold(4)/final-lines.txt","right":"bvh/pass-bottle-hold-training4-lines.txt","att_check":false},"trial_type":"html-keyboard-response","trial_index":254,"time_elapsed":606695,"internal_node_id":"0.0-8.0-3.61","subject":"5voxns2ua76xxck","sona":"7549"},{"rt":386.87500008381903,"stimulus":"<p>Bereit?</p>","key_press":32,"trial_type":"html-keyboard-response","trial_index":255,"time_elapsed":607086,"internal_node_id":"0.0-8.0-0.62","subject":"5voxns2ua76xxck","sona":"7549"},{"rt":null,"stimulus":"<div style=\"font-size:60px;\">+</div>","key_press":null,"trial_type":"html-keyboard-response","trial_index":256,"time_elapsed":609089,"internal_node_id":"0.0-8.0-1.62","subject":"5voxns2ua76xxck","sona":"7549"},{"trial_type":"turing-test","trial_index":257,"time_elapsed":614485,"internal_node_id":"0.0-8.0-2.62","subject":"5voxns2ua76xxck","sona":"7549"},{"rt":1272.740000160411,"stimulus":"<p>Welche Sequenz haben Sie als natürlicher empfunden?</p>","key_press":70,"test_part":"response","test_stimulus":{"position":0,"left":"bvh/return-bottle-training0-lines.txt","right":"bvh/vr_prediction_models/model(dmp)-dataset(return-bottle)-npsi(10)-hold(0)/final-lines.txt","att_check":false},"trial_type":"html-keyboard-response","trial_index":258,"time_elapsed":615765,"internal_node_id":"0.0-8.0-3.62","subject":"5voxns2ua76xxck","sona":"7549"},{"rt":346.7999999411404,"stimulus":"<p>Bereit?</p>","key_press":32,"trial_type":"html-keyboard-response","trial_index":259,"time_elapsed":616117,"internal_node_id":"0.0-8.0-0.63","subject":"5voxns2ua76xxck","sona":"7549"},{"rt":null,"stimulus":"<div style=\"font-size:60px;\">+</div>","key_press":null,"trial_type":"html-keyboard-response","trial_index":260,"time_elapsed":618121,"internal_node_id":"0.0-8.0-1.63","subject":"5voxns2ua76xxck","sona":"7549"},{"trial_type":"turing-test","trial_index":261,"time_elapsed":621961,"internal_node_id":"0.0-8.0-2.63","subject":"5voxns2ua76xxck","sona":"7549"},{"rt":1036.6599999833852,"stimulus":"<p>Welche Sequenz haben Sie als natürlicher empfunden?</p>","key_press":70,"test_part":"response","test_stimulus":{"position":0,"left":"bvh/return-bottle-hold-training4-lines.txt","right":"bvh/vr_prediction_models/model(vcgpdm)-dataset(return-bottle-hold)-mode(ELBO)-parts(3)-dyn(15)-lvm(30)-hold(4)/final-lines.txt","att_check":false},"trial_type":"html-keyboard-response","trial_index":262,"time_elapsed":623005,"internal_node_id":"0.0-8.0-3.63","subject":"5voxns2ua76xxck","sona":"7549"},{"rt":374.8349999077618,"stimulus":"<p>Bereit?</p>","key_press":32,"trial_type":"html-keyboard-response","trial_index":263,"time_elapsed":623388,"internal_node_id":"0.0-8.0-0.64","subject":"5voxns2ua76xxck","sona":"7549"},{"rt":null,"stimulus":"<div style=\"font-size:60px;\">+</div>","key_press":null,"trial_type":"html-keyboard-response","trial_index":264,"time_elapsed":625393,"internal_node_id":"0.0-8.0-1.64","subject":"5voxns2ua76xxck","sona":"7549"},{"trial_type":"turing-test","trial_index":265,"time_elapsed":631565,"internal_node_id":"0.0-8.0-2.64","subject":"5voxns2ua76xxck","sona":"7549"},{"rt":462.8449999727309,"stimulus":"<p>Welche Sequenz haben Sie als natürlicher empfunden?</p>","key_press":70,"test_part":"response","test_stimulus":{"position":0,"left":"bvh/return-bottle-training1-lines.txt","right":"bvh/vr_prediction_models/model(vcgpdm)-dataset(return-bottle)-mode(ELBO)-parts(3)-dyn(10)-lvm(10)-hold(1)/final-lines.txt","att_check":false},"trial_type":"html-keyboard-response","trial_index":266,"time_elapsed":632035,"internal_node_id":"0.0-8.0-3.64","subject":"5voxns2ua76xxck","sona":"7549"},{"rt":441.74500019289553,"stimulus":"<p>Bereit?</p>","key_press":32,"trial_type":"html-keyboard-response","trial_index":267,"time_elapsed":632484,"internal_node_id":"0.0-8.0-0.65","subject":"5voxns2ua76xxck","sona":"7549"},{"rt":null,"stimulus":"<div style=\"font-size:60px;\">+</div>","key_press":null,"trial_type":"html-keyboard-response","trial_index":268,"time_elapsed":634488,"internal_node_id":"0.0-8.0-1.65","subject":"5voxns2ua76xxck","sona":"7549"},{"trial_type":"turing-test","trial_index":269,"time_elapsed":640226,"internal_node_id":"0.0-8.0-2.65","subject":"5voxns2ua76xxck","sona":"7549"},{"rt":1146.8449998646975,"stimulus":"<p>Welche Sequenz haben Sie als natürlicher empfunden?</p>","key_press":70,"test_part":"response","test_stimulus":{"position":0,"left":"bvh/pass-bottle-training4-lines.txt","right":"bvh/vr_prediction_models/model(tmp)-dataset(pass-bottle)-numprim(12)-hold(4)/final-lines.txt","att_check":false},"trial_type":"html-keyboard-response","trial_index":270,"time_elapsed":641380,"internal_node_id":"0.0-8.0-3.65","subject":"5voxns2ua76xxck","sona":"7549"},{"rt":344.5699999574572,"stimulus":"<p>Bereit?</p>","key_press":32,"trial_type":"html-keyboard-response","trial_index":271,"time_elapsed":641731,"internal_node_id":"0.0-8.0-0.66","subject":"5voxns2ua76xxck","sona":"7549"},{"rt":null,"stimulus":"<div style=\"font-size:60px;\">+</div>","key_press":null,"trial_type":"html-keyboard-response","trial_index":272,"time_elapsed":643736,"internal_node_id":"0.0-8.0-1.66","subject":"5voxns2ua76xxck","sona":"7549"},{"trial_type":"turing-test","trial_index":273,"time_elapsed":646930,"internal_node_id":"0.0-8.0-2.66","subject":"5voxns2ua76xxck","sona":"7549"},{"rt":544.5950001012534,"stimulus":"<p>Welche Sequenz haben Sie als natürlicher empfunden?</p>","key_press":74,"test_part":"response","test_stimulus":{"position":1,"left":"bvh/vr_prediction_models/model(dmp)-dataset(pass-bottle-hold)-npsi(80)-hold(1)/final-lines.txt","right":"bvh/pass-bottle-hold-training1-lines.txt","att_check":false},"trial_type":"html-keyboard-response","trial_index":274,"time_elapsed":647482,"internal_node_id":"0.0-8.0-3.66","subject":"5voxns2ua76xxck","sona":"7549"},{"rt":303.82000003010035,"stimulus":"<p>Bereit?</p>","key_press":32,"trial_type":"html-keyboard-response","trial_index":275,"time_elapsed":647793,"internal_node_id":"0.0-8.0-0.67","subject":"5voxns2ua76xxck","sona":"7549"},{"rt":null,"stimulus":"<div style=\"font-size:60px;\">+</div>","key_press":null,"trial_type":"html-keyboard-response","trial_index":276,"time_elapsed":649797,"internal_node_id":"0.0-8.0-1.67","subject":"5voxns2ua76xxck","sona":"7549"},{"trial_type":"turing-test","trial_index":277,"time_elapsed":655295,"internal_node_id":"0.0-8.0-2.67","subject":"5voxns2ua76xxck","sona":"7549"},{"rt":419.4900000002235,"stimulus":"<p>Welche Sequenz haben Sie als natürlicher empfunden?</p>","key_press":74,"test_part":"response","test_stimulus":{"position":1,"left":"bvh/vr_prediction_models/model(vcgpdm)-dataset(return-bottle)-mode(ELBO)-parts(3)-dyn(25)-lvm(15)-hold(0)/final-lines.txt","right":"bvh/return-bottle-training0-lines.txt","att_check":false},"trial_type":"html-keyboard-response","trial_index":278,"time_elapsed":655722,"internal_node_id":"0.0-8.0-3.67","subject":"5voxns2ua76xxck","sona":"7549"},{"rt":400.1700000371784,"stimulus":"<p>Bereit?</p>","key_press":32,"trial_type":"html-keyboard-response","trial_index":279,"time_elapsed":656129,"internal_node_id":"0.0-8.0-0.68","subject":"5voxns2ua76xxck","sona":"7549"},{"rt":null,"stimulus":"<div style=\"font-size:60px;\">+</div>","key_press":null,"trial_type":"html-keyboard-response","trial_index":280,"time_elapsed":658133,"internal_node_id":"0.0-8.0-1.68","subject":"5voxns2ua76xxck","sona":"7549"},{"trial_type":"turing-test","trial_index":281,"time_elapsed":665355,"internal_node_id":"0.0-8.0-2.68","subject":"5voxns2ua76xxck","sona":"7549"},{"rt":611.985000083223,"stimulus":"<p>Welche Sequenz haben Sie als natürlicher empfunden?</p>","key_press":70,"test_part":"response","test_stimulus":{"position":0,"left":"bvh/pass-bottle-training0-lines.txt","right":"bvh/vr_prediction_models/model(vcgpdm)-dataset(pass-bottle)-mode(ELBO)-parts(3)-dyn(20)-lvm(15)-hold(0)/final-lines.txt","att_check":false},"trial_type":"html-keyboard-response","trial_index":282,"time_elapsed":665975,"internal_node_id":"0.0-8.0-3.68","subject":"5voxns2ua76xxck","sona":"7549"},{"rt":312.48999992385507,"stimulus":"<p>Bereit?</p>","key_press":32,"trial_type":"html-keyboard-response","trial_index":283,"time_elapsed":666295,"internal_node_id":"0.0-8.0-0.69","subject":"5voxns2ua76xxck","sona":"7549"},{"rt":null,"stimulus":"<div style=\"font-size:60px;\">+</div>","key_press":null,"trial_type":"html-keyboard-response","trial_index":284,"time_elapsed":668299,"internal_node_id":"0.0-8.0-1.69","subject":"5voxns2ua76xxck","sona":"7549"},{"trial_type":"turing-test","trial_index":285,"time_elapsed":671649,"internal_node_id":"0.0-8.0-2.69","subject":"5voxns2ua76xxck","sona":"7549"},{"rt":1405.934999929741,"stimulus":"<p>Welche Sequenz haben Sie als natürlicher empfunden?</p>","key_press":74,"test_part":"response","test_stimulus":{"position":1,"left":"bvh/vr_prediction_models/model(vcgpdm)-dataset(pass-bottle-hold)-mode(MAP)-parts(3)-hold(1)/final-lines.txt","right":"bvh/pass-bottle-hold-training1-lines.txt","att_check":false},"trial_type":"html-keyboard-response","trial_index":286,"time_elapsed":673062,"internal_node_id":"0.0-8.0-3.69","subject":"5voxns2ua76xxck","sona":"7549"},{"rt":896.184999961406,"stimulus":"<p>Bereit?</p>","key_press":32,"trial_type":"html-keyboard-response","trial_index":287,"time_elapsed":673966,"internal_node_id":"0.0-8.0-0.70","subject":"5voxns2ua76xxck","sona":"7549"},{"rt":null,"stimulus":"<div style=\"font-size:60px;\">+</div>","key_press":null,"trial_type":"html-keyboard-response","trial_index":288,"time_elapsed":675970,"internal_node_id":"0.0-8.0-1.70","subject":"5voxns2ua76xxck","sona":"7549"},{"trial_type":"turing-test","trial_index":289,"time_elapsed":681771,"internal_node_id":"0.0-8.0-2.70","subject":"5voxns2ua76xxck","sona":"7549"},{"rt":907.8349999617785,"stimulus":"<p>Welche Sequenz haben Sie als natürlicher empfunden?</p>","key_press":70,"test_part":"response","test_stimulus":{"position":0,"left":"bvh/return-bottle-training3-lines.txt","right":"bvh/vr_prediction_models/model(dmp)-dataset(return-bottle)-npsi(40)-hold(3)/final-lines.txt","att_check":false},"trial_type":"html-keyboard-response","trial_index":290,"time_elapsed":682687,"internal_node_id":"0.0-8.0-3.70","subject":"5voxns2ua76xxck","sona":"7549"},{"rt":326.6249999869615,"stimulus":"<p>Bereit?</p>","key_press":32,"trial_type":"html-keyboard-response","trial_index":291,"time_elapsed":683022,"internal_node_id":"0.0-8.0-0.71","subject":"5voxns2ua76xxck","sona":"7549"},{"rt":null,"stimulus":"<div style=\"font-size:60px;\">+</div>","key_press":null,"trial_type":"html-keyboard-response","trial_index":292,"time_elapsed":685025,"internal_node_id":"0.0-8.0-1.71","subject":"5voxns2ua76xxck","sona":"7549"},{"trial_type":"turing-test","trial_index":293,"time_elapsed":691891,"internal_node_id":"0.0-8.0-2.71","subject":"5voxns2ua76xxck","sona":"7549"},{"rt":471.56999981962144,"stimulus":"<p>Welche Sequenz haben Sie als natürlicher empfunden?</p>","key_press":74,"test_part":"response","test_stimulus":{"position":0,"left":"bvh/pass-bottle-training0-lines.txt","right":"bvh/vr_prediction_models/model(vcgpdm)-dataset(pass-bottle)-mode(ELBO)-parts(3)-dyn(20)-lvm(20)-hold(0)/final-lines.txt","att_check":false},"trial_type":"html-keyboard-response","trial_index":294,"time_elapsed":692374,"internal_node_id":"0.0-8.0-3.71","subject":"5voxns2ua76xxck","sona":"7549"},{"rt":433.6050001438707,"stimulus":"<p>Bereit?</p>","key_press":32,"trial_type":"html-keyboard-response","trial_index":295,"time_elapsed":692815,"internal_node_id":"0.0-8.0-0.72","subject":"5voxns2ua76xxck","sona":"7549"},{"rt":null,"stimulus":"<div style=\"font-size:60px;\">+</div>","key_press":null,"trial_type":"html-keyboard-response","trial_index":296,"time_elapsed":694820,"internal_node_id":"0.0-8.0-1.72","subject":"5voxns2ua76xxck","sona":"7549"},{"trial_type":"turing-test","trial_index":297,"time_elapsed":698670,"internal_node_id":"0.0-8.0-2.72","subject":"5voxns2ua76xxck","sona":"7549"},{"rt":2117.8999999538064,"stimulus":"<p>Welche Sequenz haben Sie als natürlicher empfunden?</p>","key_press":70,"test_part":"response","test_stimulus":{"position":1,"left":"bvh/vr_prediction_models/model(vcgpdm)-dataset(return-bottle-hold)-mode(ELBO)-parts(1)-dyn(30)-lvm(20)-hold(3)/final-lines.txt","right":"bvh/return-bottle-hold-training3-lines.txt","att_check":false},"trial_type":"html-keyboard-response","trial_index":298,"time_elapsed":700796,"internal_node_id":"0.0-8.0-3.72","subject":"5voxns2ua76xxck","sona":"7549"},{"rt":440.7999999821186,"stimulus":"<p>Bereit?</p>","key_press":32,"trial_type":"html-keyboard-response","trial_index":299,"time_elapsed":701245,"internal_node_id":"0.0-8.0-0.73","subject":"5voxns2ua76xxck","sona":"7549"},{"rt":null,"stimulus":"<div style=\"font-size:60px;\">+</div>","key_press":null,"trial_type":"html-keyboard-response","trial_index":300,"time_elapsed":703249,"internal_node_id":"0.0-8.0-1.73","subject":"5voxns2ua76xxck","sona":"7549"},{"trial_type":"turing-test","trial_index":301,"time_elapsed":706710,"internal_node_id":"0.0-8.0-2.73","subject":"5voxns2ua76xxck","sona":"7549"},{"rt":983.3949999883771,"stimulus":"<p>Welche Sequenz haben Sie als natürlicher empfunden?</p>","key_press":74,"test_part":"response","test_stimulus":{"position":0,"left":"bvh/return-bottle-hold-training1-lines.txt","right":"bvh/vr_prediction_models/model(vcgpdm)-dataset(return-bottle-hold)-mode(ELBO)-parts(1)-dyn(30)-lvm(30)-hold(1)/final-lines.txt","att_check":false},"trial_type":"html-keyboard-response","trial_index":302,"time_elapsed":707701,"internal_node_id":"0.0-8.0-3.73","subject":"5voxns2ua76xxck","sona":"7549"},{"rt":382.9449999611825,"stimulus":"<p>Bereit?</p>","key_press":32,"trial_type":"html-keyboard-response","trial_index":303,"time_elapsed":708091,"internal_node_id":"0.0-8.0-0.74","subject":"5voxns2ua76xxck","sona":"7549"},{"rt":null,"stimulus":"<div style=\"font-size:60px;\">+</div>","key_press":null,"trial_type":"html-keyboard-response","trial_index":304,"time_elapsed":710096,"internal_node_id":"0.0-8.0-1.74","subject":"5voxns2ua76xxck","sona":"7549"},{"trial_type":"turing-test","trial_index":305,"time_elapsed":716759,"internal_node_id":"0.0-8.0-2.74","subject":"5voxns2ua76xxck","sona":"7549"},{"rt":715.6249999534339,"stimulus":"<p>Welche Sequenz haben Sie als natürlicher empfunden?</p>","key_press":74,"test_part":"response","test_stimulus":{"position":0,"left":"bvh/return-bottle-training2-lines.txt","right":"bvh/vr_prediction_models/model(vcgpdm)-dataset(return-bottle)-mode(ELBO)-parts(3)-dyn(10)-lvm(10)-hold(2)/final-lines.txt","att_check":false},"trial_type":"html-keyboard-response","trial_index":306,"time_elapsed":717483,"internal_node_id":"0.0-8.0-3.74","subject":"5voxns2ua76xxck","sona":"7549"},{"rt":379.1700000874698,"stimulus":"<p>Bereit?</p>","key_press":32,"trial_type":"html-keyboard-response","trial_index":307,"time_elapsed":717869,"internal_node_id":"0.0-8.0-0.75","subject":"5voxns2ua76xxck","sona":"7549"},{"rt":null,"stimulus":"<div style=\"font-size:60px;\">+</div>","key_press":null,"trial_type":"html-keyboard-response","trial_index":308,"time_elapsed":719871,"internal_node_id":"0.0-8.0-1.75","subject":"5voxns2ua76xxck","sona":"7549"},{"trial_type":"turing-test","trial_index":309,"time_elapsed":723034,"internal_node_id":"0.0-8.0-2.75","subject":"5voxns2ua76xxck","sona":"7549"},{"rt":1359.0450000483543,"stimulus":"<p>Welche Sequenz haben Sie als natürlicher empfunden?</p>","key_press":70,"test_part":"response","test_stimulus":{"position":1,"left":"bvh/vr_prediction_models/model(vcgpdm)-dataset(pass-bottle-hold)-mode(ELBO)-parts(1)-dyn(35)-lvm(10)-hold(1)/final-lines.txt","right":"bvh/pass-bottle-hold-training1-lines.txt","att_check":false},"trial_type":"html-keyboard-response","trial_index":310,"time_elapsed":724401,"internal_node_id":"0.0-8.0-3.75","subject":"5voxns2ua76xxck","sona":"7549"},{"rt":432.74999991990626,"stimulus":"<p>Bereit?</p>","key_press":32,"trial_type":"html-keyboard-response","trial_index":311,"time_elapsed":724842,"internal_node_id":"0.0-8.0-0.76","subject":"5voxns2ua76xxck","sona":"7549"},{"rt":null,"stimulus":"<div style=\"font-size:60px;\">+</div>","key_press":null,"trial_type":"html-keyboard-response","trial_index":312,"time_elapsed":726846,"internal_node_id":"0.0-8.0-1.76","subject":"5voxns2ua76xxck","sona":"7549"},{"trial_type":"turing-test","trial_index":313,"time_elapsed":733868,"internal_node_id":"0.0-8.0-2.76","subject":"5voxns2ua76xxck","sona":"7549"},{"rt":502.3699998855591,"stimulus":"<p>Welche Sequenz haben Sie als natürlicher empfunden?</p>","key_press":70,"test_part":"response","test_stimulus":{"position":1,"left":"bvh/vr_prediction_models/model(vcgpdm)-dataset(pass-bottle)-mode(ELBO)-parts(1)-dyn(35)-lvm(10)-hold(0)/final-lines.txt","right":"bvh/pass-bottle-training0-lines.txt","att_check":false},"trial_type":"html-keyboard-response","trial_index":314,"time_elapsed":734379,"internal_node_id":"0.0-8.0-3.76","subject":"5voxns2ua76xxck","sona":"7549"},{"rt":439.5200000144541,"stimulus":"<p>Bereit?</p>","key_press":32,"trial_type":"html-keyboard-response","trial_index":315,"time_elapsed":734826,"internal_node_id":"0.0-8.0-0.77","subject":"5voxns2ua76xxck","sona":"7549"},{"rt":null,"stimulus":"<div style=\"font-size:60px;\">+</div>","key_press":null,"trial_type":"html-keyboard-response","trial_index":316,"time_elapsed":736830,"internal_node_id":"0.0-8.0-1.77","subject":"5voxns2ua76xxck","sona":"7549"},{"trial_type":"turing-test","trial_index":317,"time_elapsed":741944,"internal_node_id":"0.0-8.0-2.77","subject":"5voxns2ua76xxck","sona":"7549"},{"rt":1073.0800000019372,"stimulus":"<p>Welche Sequenz haben Sie als natürlicher empfunden?</p>","key_press":74,"test_part":"response","test_stimulus":{"position":1,"left":"bvh/vr_prediction_models/model(dmp)-dataset(return-bottle-hold)-npsi(70)-hold(0)/final-lines.txt","right":"bvh/return-bottle-hold-training0-lines.txt","att_check":false},"trial_type":"html-keyboard-response","trial_index":318,"time_elapsed":743025,"internal_node_id":"0.0-8.0-3.77","subject":"5voxns2ua76xxck","sona":"7549"},{"rt":375.4750001244247,"stimulus":"<p>Bereit?</p>","key_press":32,"trial_type":"html-keyboard-response","trial_index":319,"time_elapsed":743409,"internal_node_id":"0.0-8.0-0.78","subject":"5voxns2ua76xxck","sona":"7549"},{"rt":null,"stimulus":"<div style=\"font-size:60px;\">+</div>","key_press":null,"trial_type":"html-keyboard-response","trial_index":320,"time_elapsed":745416,"internal_node_id":"0.0-8.0-1.78","subject":"5voxns2ua76xxck","sona":"7549"},{"trial_type":"turing-test","trial_index":321,"time_elapsed":750834,"internal_node_id":"0.0-8.0-2.78","subject":"5voxns2ua76xxck","sona":"7549"},{"rt":783.2849998958409,"stimulus":"<p>Welche Sequenz haben Sie als natürlicher empfunden?</p>","key_press":74,"test_part":"response","test_stimulus":{"position":1,"left":"bvh/vr_prediction_models/model(dmp)-dataset(return-bottle)-npsi(40)-hold(0)/final-lines.txt","right":"bvh/return-bottle-training0-lines.txt","att_check":false},"trial_type":"html-keyboard-response","trial_index":322,"time_elapsed":751625,"internal_node_id":"0.0-8.0-3.78","subject":"5voxns2ua76xxck","sona":"7549"},{"rt":413.7250001076609,"stimulus":"<p>Bereit?</p>","key_press":32,"trial_type":"html-keyboard-response","trial_index":323,"time_elapsed":752048,"internal_node_id":"0.0-8.0-0.79","subject":"5voxns2ua76xxck","sona":"7549"},{"rt":null,"stimulus":"<div style=\"font-size:60px;\">+</div>","key_press":null,"trial_type":"html-keyboard-response","trial_index":324,"time_elapsed":754052,"internal_node_id":"0.0-8.0-1.79","subject":"5voxns2ua76xxck","sona":"7549"},{"trial_type":"turing-test","trial_index":325,"time_elapsed":757366,"internal_node_id":"0.0-8.0-2.79","subject":"5voxns2ua76xxck","sona":"7549"},{"rt":1048.8150001037866,"stimulus":"<p>Welche Sequenz haben Sie als natürlicher empfunden?</p>","key_press":74,"test_part":"response","test_stimulus":{"position":1,"left":"bvh/vr_prediction_models/model(tmp)-dataset(pass-bottle-hold)-numprim(13)-hold(0)/final-lines.txt","right":"bvh/pass-bottle-hold-training0-lines.txt","att_check":false},"trial_type":"html-keyboard-response","trial_index":326,"time_elapsed":758423,"internal_node_id":"0.0-8.0-3.79","subject":"5voxns2ua76xxck","sona":"7549"},{"rt":12248.335000127554,"responses":"{\"age\":\" 20\",\"gender\":\"weiblich\"}","trial_type":"survey-text","trial_index":327,"time_elapsed":770690,"internal_node_id":"0.0-10.0-0.0","subject":"5voxns2ua76xxck","sona":"7549"},{"rt":70746.83499988168,"responses":"{\"area\":\"auf die Armbewegungen und den Kopf\",\"Q1\":\"wenn sich das Strichmännchen gedreht hat und die Bewegungen ruckig waren\",\"Q2\":\"wenn es zwischendrin große Pausen und unnatürliche Bewegungen gab\"}","trial_type":"survey-text","trial_index":328,"time_elapsed":841468,"internal_node_id":"0.0-10.0-1.0","subject":"5voxns2ua76xxck","sona":"7549"}]