[{"rt":4488.844999927096,"stimulus":"<p>Welcome!<br> Please choose your language to start the experiment in the chosen language.</p><p>Willkommen!<br> Bitte wählen Sie eine Sprache, um das Experiment in der ausgewählten Sprache zu starten</p>","button_pressed":"1","trial_type":"html-button-response","trial_index":0,"time_elapsed":4518,"internal_node_id":"0.0-0.0","subject":"t6whu9c3anq2hpo","sona":"8698"},{"view_history":"[{\"page_index\":0,\"viewing_time\":10000.570000032894},{\"page_index\":1,\"viewing_time\":3153.6149999592453},{\"page_index\":2,\"viewing_time\":4300.7800000486895},{\"page_index\":3,\"viewing_time\":3510.3349999990314},{\"page_index\":4,\"viewing_time\":1921.4350000256673}]","rt":22887.824999983422,"trial_type":"instructions","trial_index":1,"time_elapsed":27407,"internal_node_id":"0.0-1.0-0.0","subject":"t6whu9c3anq2hpo","sona":"8698"},{"rt":1520.714999991469,"stimulus":"<p>Bereit?</p>","key_press":32,"trial_type":"html-keyboard-response","trial_index":2,"time_elapsed":28930,"internal_node_id":"0.0-3.0","subject":"t6whu9c3anq2hpo","sona":"8698"},{"rt":null,"stimulus":"<div style=\"font-size:60px;\">+</div>","key_press":null,"trial_type":"html-keyboard-response","trial_index":3,"time_elapsed":30945,"internal_node_id":"0.0-4.0","subject":"t6whu9c3anq2hpo","sona":"8698"},{"trial_type":"training","trial_index":4,"time_elapsed":34312,"internal_node_id":"0.0-5.0","subject":"t6whu9c3anq2hpo","sona":"8698"},{"rt":424.4199999375269,"stimulus":"<p>Welche Sequenz haben Sie als natürlicher empfunden?</p>","key_press":70,"trial_type":"html-keyboard-response","trial_index":5,"time_elapsed":34739,"internal_node_id":"0.0-6.0","subject":"t6whu9c3anq2hpo","sona":"8698"},{"rt":2715.1600000215694,"stimulus":"<p>Das Experiment startet nun.</p><p><small>Bitte drücken Sie den Knopf, wenn Sie bereit sind.</small></p>","button_pressed":"0","trial_type":"html-button-response","trial_index":6,"time_elapsed":37456,"internal_node_id":"0.0-7.0","subject":"t6whu9c3anq2hpo","sona":"8698"},{"rt":1993.2750000152737,"stimulus":"<p>Bereit?</p>","key_press":32,"trial_type":"html-keyboard-response","trial_index":7,"time_elapsed":39452,"internal_node_id":"0.0-8.0-0.0","subject":"t6whu9c3anq2hpo","sona":"8698"},{"rt":null,"stimulus":"<div style=\"font-size:60px;\">+</div>","key_press":null,"trial_type":"html-keyboard-response","trial_index":8,"time_elapsed":41477,"internal_node_id":"0.0-8.0-1.0","subject":"t6whu9c3anq2hpo","sona":"8698"},{"trial_type":"turing-test","trial_index":9,"time_elapsed":45001,"internal_node_id":"0.0-8.0-2.0","subject":"t6whu9c3anq2hpo","sona":"8698"},{"rt":292.5350000150502,"stimulus":"<p>Welche Sequenz haben Sie als natürlicher empfunden?</p>","key_press":70,"test_part":"response","test_stimulus":{"position":0,"left":"bvh/return-bottle-hold-training2-lines.txt","right":"bvh/vr_prediction_models/model(dmp)-dataset(return-bottle-hold)-npsi(60)-hold(2)/final-lines.txt","att_check":true},"trial_type":"html-keyboard-response","trial_index":10,"time_elapsed":45299,"internal_node_id":"0.0-8.0-3.0","subject":"t6whu9c3anq2hpo","sona":"8698"},{"rt":2397.5899999495596,"stimulus":"<p>Bereit?</p>","key_press":32,"trial_type":"html-keyboard-response","trial_index":11,"time_elapsed":47702,"internal_node_id":"0.0-8.0-0.1","subject":"t6whu9c3anq2hpo","sona":"8698"},{"rt":null,"stimulus":"<div style=\"font-size:60px;\">+</div>","key_press":null,"trial_type":"html-keyboard-response","trial_index":12,"time_elapsed":49712,"internal_node_id":"0.0-8.0-1.1","subject":"t6whu9c3anq2hpo","sona":"8698"},{"trial_type":"turing-test","trial_index":13,"time_elapsed":53036,"internal_node_id":"0.0-8.0-2.1","subject":"t6whu9c3anq2hpo","sona":"8698"},{"rt":549.3449999485165,"stimulus":"<p>Welche Sequenz haben Sie als natürlicher empfunden?</p>","key_press":74,"test_part":"response","test_stimulus":{"position":1,"left":"bvh/vr_prediction_models/model(dmp)-dataset(pass-bottle-hold)-npsi(100)-hold(0)/final-lines.txt","right":"bvh/pass-bottle-hold-training0-lines.txt","att_check":true},"trial_type":"html-keyboard-response","trial_index":14,"time_elapsed":53592,"internal_node_id":"0.0-8.0-3.1","subject":"t6whu9c3anq2hpo","sona":"8698"},{"rt":966.6849999921396,"stimulus":"<p>Bereit?</p>","key_press":32,"trial_type":"html-keyboard-response","trial_index":15,"time_elapsed":54563,"internal_node_id":"0.0-8.0-0.2","subject":"t6whu9c3anq2hpo","sona":"8698"},{"rt":null,"stimulus":"<div style=\"font-size:60px;\">+</div>","key_press":null,"trial_type":"html-keyboard-response","trial_index":16,"time_elapsed":56578,"internal_node_id":"0.0-8.0-1.2","subject":"t6whu9c3anq2hpo","sona":"8698"},{"trial_type":"turing-test","trial_index":17,"time_elapsed":62312,"internal_node_id":"0.0-8.0-2.2","subject":"t6whu9c3anq2hpo","sona":"8698"},{"rt":338.86999997776,"stimulus":"<p>Welche Sequenz haben Sie als natürlicher empfunden?</p>","key_press":70,"test_part":"response","test_stimulus":{"position":0,"left":"bvh/pass-bottle-training4-lines.txt","right":"bvh/vr_prediction_models/model(tmp)-dataset(pass-bottle)-numprim(14)-hold(4)/final-lines.txt","att_check":false},"trial_type":"html-keyboard-response","trial_index":18,"time_elapsed":62656,"internal_node_id":"0.0-8.0-3.2","subject":"t6whu9c3anq2hpo","sona":"8698"},{"rt":3035.8900000574067,"stimulus":"<p>Bereit?</p>","key_press":32,"trial_type":"html-keyboard-response","trial_index":19,"time_elapsed":65696,"internal_node_id":"0.0-8.0-0.3","subject":"t6whu9c3anq2hpo","sona":"8698"},{"rt":null,"stimulus":"<div style=\"font-size:60px;\">+</div>","key_press":null,"trial_type":"html-keyboard-response","trial_index":20,"time_elapsed":67719,"internal_node_id":"0.0-8.0-1.3","subject":"t6whu9c3anq2hpo","sona":"8698"},{"trial_type":"turing-test","trial_index":21,"time_elapsed":73268,"internal_node_id":"0.0-8.0-2.3","subject":"t6whu9c3anq2hpo","sona":"8698"},{"rt":469.29999999701977,"stimulus":"<p>Welche Sequenz haben Sie als natürlicher empfunden?</p>","key_press":74,"test_part":"response","test_stimulus":{"position":1,"left":"bvh/vr_prediction_models/model(vcgpdm)-dataset(pass-bottle)-mode(ELBO)-parts(1)-dyn(10)-lvm(30)-hold(1)/final-lines.txt","right":"bvh/pass-bottle-training1-lines.txt","att_check":false},"trial_type":"html-keyboard-response","trial_index":22,"time_elapsed":73745,"internal_node_id":"0.0-8.0-3.3","subject":"t6whu9c3anq2hpo","sona":"8698"},{"rt":471.5950000099838,"stimulus":"<p>Bereit?</p>","key_press":32,"trial_type":"html-keyboard-response","trial_index":23,"time_elapsed":74221,"internal_node_id":"0.0-8.0-0.4","subject":"t6whu9c3anq2hpo","sona":"8698"},{"rt":null,"stimulus":"<div style=\"font-size:60px;\">+</div>","key_press":null,"trial_type":"html-keyboard-response","trial_index":24,"time_elapsed":76242,"internal_node_id":"0.0-8.0-1.4","subject":"t6whu9c3anq2hpo","sona":"8698"},{"trial_type":"turing-test","trial_index":25,"time_elapsed":79601,"internal_node_id":"0.0-8.0-2.4","subject":"t6whu9c3anq2hpo","sona":"8698"},{"rt":479.74999994039536,"stimulus":"<p>Welche Sequenz haben Sie als natürlicher empfunden?</p>","key_press":70,"test_part":"response","test_stimulus":{"position":1,"left":"bvh/vr_prediction_models/model(dmp)-dataset(pass-bottle-hold)-npsi(70)-hold(0)/final-lines.txt","right":"bvh/pass-bottle-hold-training0-lines.txt","att_check":false},"trial_type":"html-keyboard-response","trial_index":26,"time_elapsed":80087,"internal_node_id":"0.0-8.0-3.4","subject":"t6whu9c3anq2hpo","sona":"8698"},{"rt":380.4600000148639,"stimulus":"<p>Bereit?</p>","key_press":32,"trial_type":"html-keyboard-response","trial_index":27,"time_elapsed":80471,"internal_node_id":"0.0-8.0-0.5","subject":"t6whu9c3anq2hpo","sona":"8698"},{"rt":null,"stimulus":"<div style=\"font-size:60px;\">+</div>","key_press":null,"trial_type":"html-keyboard-response","trial_index":28,"time_elapsed":82479,"internal_node_id":"0.0-8.0-1.5","subject":"t6whu9c3anq2hpo","sona":"8698"},{"trial_type":"turing-test","trial_index":29,"time_elapsed":86215,"internal_node_id":"0.0-8.0-2.5","subject":"t6whu9c3anq2hpo","sona":"8698"},{"rt":558.0799999879673,"stimulus":"<p>Welche Sequenz haben Sie als natürlicher empfunden?</p>","key_press":70,"test_part":"response","test_stimulus":{"position":0,"left":"bvh/pass-bottle-hold-training4-lines.txt","right":"bvh/vr_prediction_models/model(vcgpdm)-dataset(pass-bottle-hold)-mode(ELBO)-parts(1)-dyn(25)-lvm(35)-hold(4)/final-lines.txt","att_check":false},"trial_type":"html-keyboard-response","trial_index":30,"time_elapsed":86779,"internal_node_id":"0.0-8.0-3.5","subject":"t6whu9c3anq2hpo","sona":"8698"},{"rt":393.39999994263053,"stimulus":"<p>Bereit?</p>","key_press":32,"trial_type":"html-keyboard-response","trial_index":31,"time_elapsed":87177,"internal_node_id":"0.0-8.0-0.6","subject":"t6whu9c3anq2hpo","sona":"8698"},{"rt":null,"stimulus":"<div style=\"font-size:60px;\">+</div>","key_press":null,"trial_type":"html-keyboard-response","trial_index":32,"time_elapsed":89188,"internal_node_id":"0.0-8.0-1.6","subject":"t6whu9c3anq2hpo","sona":"8698"},{"trial_type":"turing-test","trial_index":33,"time_elapsed":95331,"internal_node_id":"0.0-8.0-2.6","subject":"t6whu9c3anq2hpo","sona":"8698"},{"rt":354.3499999213964,"stimulus":"<p>Welche Sequenz haben Sie als natürlicher empfunden?</p>","key_press":74,"test_part":"response","test_stimulus":{"position":1,"left":"bvh/vr_prediction_models/model(vcgpdm)-dataset(return-bottle)-mode(ELBO)-parts(3)-dyn(10)-lvm(25)-hold(1)/final-lines.txt","right":"bvh/return-bottle-training1-lines.txt","att_check":false},"trial_type":"html-keyboard-response","trial_index":34,"time_elapsed":95691,"internal_node_id":"0.0-8.0-3.6","subject":"t6whu9c3anq2hpo","sona":"8698"},{"rt":456.7500000121072,"stimulus":"<p>Bereit?</p>","key_press":32,"trial_type":"html-keyboard-response","trial_index":35,"time_elapsed":96151,"internal_node_id":"0.0-8.0-0.7","subject":"t6whu9c3anq2hpo","sona":"8698"},{"rt":null,"stimulus":"<div style=\"font-size:60px;\">+</div>","key_press":null,"trial_type":"html-keyboard-response","trial_index":36,"time_elapsed":98163,"internal_node_id":"0.0-8.0-1.7","subject":"t6whu9c3anq2hpo","sona":"8698"},{"trial_type":"turing-test","trial_index":37,"time_elapsed":103822,"internal_node_id":"0.0-8.0-2.7","subject":"t6whu9c3anq2hpo","sona":"8698"},{"rt":352.5600000284612,"stimulus":"<p>Welche Sequenz haben Sie als natürlicher empfunden?</p>","key_press":74,"test_part":"response","test_stimulus":{"position":1,"left":"bvh/vr_prediction_models/model(vcgpdm)-dataset(pass-bottle)-mode(ELBO)-parts(3)-dyn(30)-lvm(15)-hold(1)/final-lines.txt","right":"bvh/pass-bottle-training1-lines.txt","att_check":false},"trial_type":"html-keyboard-response","trial_index":38,"time_elapsed":104183,"internal_node_id":"0.0-8.0-3.7","subject":"t6whu9c3anq2hpo","sona":"8698"},{"rt":396.2700000265613,"stimulus":"<p>Bereit?</p>","key_press":32,"trial_type":"html-keyboard-response","trial_index":39,"time_elapsed":104583,"internal_node_id":"0.0-8.0-0.8","subject":"t6whu9c3anq2hpo","sona":"8698"},{"rt":null,"stimulus":"<div style=\"font-size:60px;\">+</div>","key_press":null,"trial_type":"html-keyboard-response","trial_index":40,"time_elapsed":106590,"internal_node_id":"0.0-8.0-1.8","subject":"t6whu9c3anq2hpo","sona":"8698"},{"trial_type":"turing-test","trial_index":41,"time_elapsed":112781,"internal_node_id":"0.0-8.0-2.8","subject":"t6whu9c3anq2hpo","sona":"8698"},{"rt":380.45499997679144,"stimulus":"<p>Welche Sequenz haben Sie als natürlicher empfunden?</p>","key_press":74,"test_part":"response","test_stimulus":{"position":1,"left":"bvh/vr_prediction_models/model(tmp)-dataset(pass-bottle)-numprim(10)-hold(2)/final-lines.txt","right":"bvh/pass-bottle-training2-lines.txt","att_check":false},"trial_type":"html-keyboard-response","trial_index":42,"time_elapsed":113168,"internal_node_id":"0.0-8.0-3.8","subject":"t6whu9c3anq2hpo","sona":"8698"},{"rt":339.89499998278916,"stimulus":"<p>Bereit?</p>","key_press":32,"trial_type":"html-keyboard-response","trial_index":43,"time_elapsed":113512,"internal_node_id":"0.0-8.0-0.9","subject":"t6whu9c3anq2hpo","sona":"8698"},{"rt":null,"stimulus":"<div style=\"font-size:60px;\">+</div>","key_press":null,"trial_type":"html-keyboard-response","trial_index":44,"time_elapsed":115533,"internal_node_id":"0.0-8.0-1.9","subject":"t6whu9c3anq2hpo","sona":"8698"},{"trial_type":"turing-test","trial_index":45,"time_elapsed":122378,"internal_node_id":"0.0-8.0-2.9","subject":"t6whu9c3anq2hpo","sona":"8698"},{"rt":339.3049999140203,"stimulus":"<p>Welche Sequenz haben Sie als natürlicher empfunden?</p>","key_press":74,"test_part":"response","test_stimulus":{"position":1,"left":"bvh/vr_prediction_models/model(vcgpdm)-dataset(pass-bottle)-mode(ELBO)-parts(1)-dyn(20)-lvm(5)-hold(0)/final-lines.txt","right":"bvh/pass-bottle-training0-lines.txt","att_check":false},"trial_type":"html-keyboard-response","trial_index":46,"time_elapsed":122725,"internal_node_id":"0.0-8.0-3.9","subject":"t6whu9c3anq2hpo","sona":"8698"},{"rt":340.4100000625476,"stimulus":"<p>Bereit?</p>","key_press":32,"trial_type":"html-keyboard-response","trial_index":47,"time_elapsed":123070,"internal_node_id":"0.0-8.0-0.10","subject":"t6whu9c3anq2hpo","sona":"8698"},{"rt":null,"stimulus":"<div style=\"font-size:60px;\">+</div>","key_press":null,"trial_type":"html-keyboard-response","trial_index":48,"time_elapsed":125090,"internal_node_id":"0.0-8.0-1.10","subject":"t6whu9c3anq2hpo","sona":"8698"},{"trial_type":"turing-test","trial_index":49,"time_elapsed":130736,"internal_node_id":"0.0-8.0-2.10","subject":"t6whu9c3anq2hpo","sona":"8698"},{"rt":517.9299999726936,"stimulus":"<p>Welche Sequenz haben Sie als natürlicher empfunden?</p>","key_press":74,"test_part":"response","test_stimulus":{"position":1,"left":"bvh/vr_prediction_models/model(vcgpdm)-dataset(return-bottle)-mode(ELBO)-parts(3)-dyn(25)-lvm(25)-hold(0)/final-lines.txt","right":"bvh/return-bottle-training0-lines.txt","att_check":false},"trial_type":"html-keyboard-response","trial_index":50,"time_elapsed":131261,"internal_node_id":"0.0-8.0-3.10","subject":"t6whu9c3anq2hpo","sona":"8698"},{"rt":355.95500003546476,"stimulus":"<p>Bereit?</p>","key_press":32,"trial_type":"html-keyboard-response","trial_index":51,"time_elapsed":131621,"internal_node_id":"0.0-8.0-0.11","subject":"t6whu9c3anq2hpo","sona":"8698"},{"rt":null,"stimulus":"<div style=\"font-size:60px;\">+</div>","key_press":null,"trial_type":"html-keyboard-response","trial_index":52,"time_elapsed":133639,"internal_node_id":"0.0-8.0-1.11","subject":"t6whu9c3anq2hpo","sona":"8698"},{"trial_type":"turing-test","trial_index":53,"time_elapsed":137020,"internal_node_id":"0.0-8.0-2.11","subject":"t6whu9c3anq2hpo","sona":"8698"},{"rt":434.20499993953854,"stimulus":"<p>Welche Sequenz haben Sie als natürlicher empfunden?</p>","key_press":74,"test_part":"response","test_stimulus":{"position":1,"left":"bvh/vr_prediction_models/model(dmp)-dataset(return-bottle-hold)-npsi(90)-hold(1)/final-lines.txt","right":"bvh/return-bottle-hold-training1-lines.txt","att_check":false},"trial_type":"html-keyboard-response","trial_index":54,"time_elapsed":137462,"internal_node_id":"0.0-8.0-3.11","subject":"t6whu9c3anq2hpo","sona":"8698"},{"rt":325.30000002589077,"stimulus":"<p>Bereit?</p>","key_press":32,"trial_type":"html-keyboard-response","trial_index":55,"time_elapsed":137789,"internal_node_id":"0.0-8.0-0.12","subject":"t6whu9c3anq2hpo","sona":"8698"},{"rt":null,"stimulus":"<div style=\"font-size:60px;\">+</div>","key_press":null,"trial_type":"html-keyboard-response","trial_index":56,"time_elapsed":139810,"internal_node_id":"0.0-8.0-1.12","subject":"t6whu9c3anq2hpo","sona":"8698"},{"trial_type":"turing-test","trial_index":57,"time_elapsed":145774,"internal_node_id":"0.0-8.0-2.12","subject":"t6whu9c3anq2hpo","sona":"8698"},{"rt":444.86499996855855,"stimulus":"<p>Welche Sequenz haben Sie als natürlicher empfunden?</p>","key_press":70,"test_part":"response","test_stimulus":{"position":0,"left":"bvh/pass-bottle-training3-lines.txt","right":"bvh/vr_prediction_models/model(vcgpdm)-dataset(pass-bottle)-mode(ELBO)-parts(3)-dyn(10)-lvm(25)-hold(3)/final-lines.txt","att_check":false},"trial_type":"html-keyboard-response","trial_index":58,"time_elapsed":146226,"internal_node_id":"0.0-8.0-3.12","subject":"t6whu9c3anq2hpo","sona":"8698"},{"rt":370.714999968186,"stimulus":"<p>Bereit?</p>","key_press":32,"trial_type":"html-keyboard-response","trial_index":59,"time_elapsed":146601,"internal_node_id":"0.0-8.0-0.13","subject":"t6whu9c3anq2hpo","sona":"8698"},{"rt":null,"stimulus":"<div style=\"font-size:60px;\">+</div>","key_press":null,"trial_type":"html-keyboard-response","trial_index":60,"time_elapsed":148624,"internal_node_id":"0.0-8.0-1.13","subject":"t6whu9c3anq2hpo","sona":"8698"},{"trial_type":"turing-test","trial_index":61,"time_elapsed":152485,"internal_node_id":"0.0-8.0-2.13","subject":"t6whu9c3anq2hpo","sona":"8698"},{"rt":267.6750000100583,"stimulus":"<p>Welche Sequenz haben Sie als natürlicher empfunden?</p>","key_press":70,"test_part":"response","test_stimulus":{"position":0,"left":"bvh/return-bottle-hold-training3-lines.txt","right":"bvh/vr_prediction_models/model(vcgpdm)-dataset(return-bottle-hold)-mode(ELBO)-parts(1)-dyn(10)-lvm(5)-hold(3)/final-lines.txt","att_check":false},"trial_type":"html-keyboard-response","trial_index":62,"time_elapsed":152757,"internal_node_id":"0.0-8.0-3.13","subject":"t6whu9c3anq2hpo","sona":"8698"},{"rt":235.8650000533089,"stimulus":"<p>Bereit?</p>","key_press":32,"trial_type":"html-keyboard-response","trial_index":63,"time_elapsed":152998,"internal_node_id":"0.0-8.0-0.14","subject":"t6whu9c3anq2hpo","sona":"8698"},{"rt":null,"stimulus":"<div style=\"font-size:60px;\">+</div>","key_press":null,"trial_type":"html-keyboard-response","trial_index":64,"time_elapsed":155011,"internal_node_id":"0.0-8.0-1.14","subject":"t6whu9c3anq2hpo","sona":"8698"},{"trial_type":"turing-test","trial_index":65,"time_elapsed":158520,"internal_node_id":"0.0-8.0-2.14","subject":"t6whu9c3anq2hpo","sona":"8698"},{"rt":385.98000002093613,"stimulus":"<p>Welche Sequenz haben Sie als natürlicher empfunden?</p>","key_press":74,"test_part":"response","test_stimulus":{"position":1,"left":"bvh/vr_prediction_models/model(vcgpdm)-dataset(return-bottle-hold)-mode(ELBO)-parts(1)-dyn(20)-lvm(5)-hold(2)/final-lines.txt","right":"bvh/return-bottle-hold-training2-lines.txt","att_check":false},"trial_type":"html-keyboard-response","trial_index":66,"time_elapsed":158913,"internal_node_id":"0.0-8.0-3.14","subject":"t6whu9c3anq2hpo","sona":"8698"},{"rt":259.74999996833503,"stimulus":"<p>Bereit?</p>","key_press":32,"trial_type":"html-keyboard-response","trial_index":67,"time_elapsed":159178,"internal_node_id":"0.0-8.0-0.15","subject":"t6whu9c3anq2hpo","sona":"8698"},{"rt":null,"stimulus":"<div style=\"font-size:60px;\">+</div>","key_press":null,"trial_type":"html-keyboard-response","trial_index":68,"time_elapsed":161194,"internal_node_id":"0.0-8.0-1.15","subject":"t6whu9c3anq2hpo","sona":"8698"},{"trial_type":"turing-test","trial_index":69,"time_elapsed":166670,"internal_node_id":"0.0-8.0-2.15","subject":"t6whu9c3anq2hpo","sona":"8698"},{"rt":305.15999998897314,"stimulus":"<p>Welche Sequenz haben Sie als natürlicher empfunden?</p>","key_press":70,"test_part":"response","test_stimulus":{"position":0,"left":"bvh/return-bottle-training0-lines.txt","right":"bvh/vr_prediction_models/model(vcgpdm)-dataset(return-bottle)-mode(ELBO)-parts(1)-dyn(30)-lvm(20)-hold(0)/final-lines.txt","att_check":false},"trial_type":"html-keyboard-response","trial_index":70,"time_elapsed":166986,"internal_node_id":"0.0-8.0-3.15","subject":"t6whu9c3anq2hpo","sona":"8698"},{"rt":357.0149999577552,"stimulus":"<p>Bereit?</p>","key_press":32,"trial_type":"html-keyboard-response","trial_index":71,"time_elapsed":167357,"internal_node_id":"0.0-8.0-0.16","subject":"t6whu9c3anq2hpo","sona":"8698"},{"rt":null,"stimulus":"<div style=\"font-size:60px;\">+</div>","key_press":null,"trial_type":"html-keyboard-response","trial_index":72,"time_elapsed":169381,"internal_node_id":"0.0-8.0-1.16","subject":"t6whu9c3anq2hpo","sona":"8698"},{"trial_type":"turing-test","trial_index":73,"time_elapsed":172749,"internal_node_id":"0.0-8.0-2.16","subject":"t6whu9c3anq2hpo","sona":"8698"},{"rt":319.675000035204,"stimulus":"<p>Welche Sequenz haben Sie als natürlicher empfunden?</p>","key_press":74,"test_part":"response","test_stimulus":{"position":1,"left":"bvh/vr_prediction_models/model(vcgpdm)-dataset(pass-bottle-hold)-mode(ELBO)-parts(1)-dyn(30)-lvm(35)-hold(1)/final-lines.txt","right":"bvh/pass-bottle-hold-training1-lines.txt","att_check":false},"trial_type":"html-keyboard-response","trial_index":74,"time_elapsed":173075,"internal_node_id":"0.0-8.0-3.16","subject":"t6whu9c3anq2hpo","sona":"8698"},{"rt":265.70500002708286,"stimulus":"<p>Bereit?</p>","key_press":32,"trial_type":"html-keyboard-response","trial_index":75,"time_elapsed":173343,"internal_node_id":"0.0-8.0-0.17","subject":"t6whu9c3anq2hpo","sona":"8698"},{"rt":null,"stimulus":"<div style=\"font-size:60px;\">+</div>","key_press":null,"trial_type":"html-keyboard-response","trial_index":76,"time_elapsed":175352,"internal_node_id":"0.0-8.0-1.17","subject":"t6whu9c3anq2hpo","sona":"8698"},{"trial_type":"turing-test","trial_index":77,"time_elapsed":180711,"internal_node_id":"0.0-8.0-2.17","subject":"t6whu9c3anq2hpo","sona":"8698"},{"rt":448.42999998945743,"stimulus":"<p>Welche Sequenz haben Sie als natürlicher empfunden?</p>","key_press":70,"test_part":"response","test_stimulus":{"position":0,"left":"bvh/return-bottle-training0-lines.txt","right":"bvh/vr_prediction_models/model(dmp)-dataset(return-bottle)-npsi(80)-hold(0)/final-lines.txt","att_check":false},"trial_type":"html-keyboard-response","trial_index":78,"time_elapsed":181167,"internal_node_id":"0.0-8.0-3.17","subject":"t6whu9c3anq2hpo","sona":"8698"},{"rt":323.0350000085309,"stimulus":"<p>Bereit?</p>","key_press":32,"trial_type":"html-keyboard-response","trial_index":79,"time_elapsed":181495,"internal_node_id":"0.0-8.0-0.18","subject":"t6whu9c3anq2hpo","sona":"8698"},{"rt":null,"stimulus":"<div style=\"font-size:60px;\">+</div>","key_press":null,"trial_type":"html-keyboard-response","trial_index":80,"time_elapsed":183514,"internal_node_id":"0.0-8.0-1.18","subject":"t6whu9c3anq2hpo","sona":"8698"},{"trial_type":"turing-test","trial_index":81,"time_elapsed":188731,"internal_node_id":"0.0-8.0-2.18","subject":"t6whu9c3anq2hpo","sona":"8698"},{"rt":278.5600000061095,"stimulus":"<p>Welche Sequenz haben Sie als natürlicher empfunden?</p>","key_press":74,"test_part":"response","test_stimulus":{"position":1,"left":"bvh/vr_prediction_models/model(vcgpdm)-dataset(return-bottle-hold)-mode(ELBO)-parts(3)-dyn(10)-lvm(10)-hold(0)/final-lines.txt","right":"bvh/return-bottle-hold-training0-lines.txt","att_check":false},"trial_type":"html-keyboard-response","trial_index":82,"time_elapsed":189018,"internal_node_id":"0.0-8.0-3.18","subject":"t6whu9c3anq2hpo","sona":"8698"},{"rt":320.01499994657934,"stimulus":"<p>Bereit?</p>","key_press":32,"trial_type":"html-keyboard-response","trial_index":83,"time_elapsed":189343,"internal_node_id":"0.0-8.0-0.19","subject":"t6whu9c3anq2hpo","sona":"8698"},{"rt":null,"stimulus":"<div style=\"font-size:60px;\">+</div>","key_press":null,"trial_type":"html-keyboard-response","trial_index":84,"time_elapsed":191359,"internal_node_id":"0.0-8.0-1.19","subject":"t6whu9c3anq2hpo","sona":"8698"},{"trial_type":"turing-test","trial_index":85,"time_elapsed":197449,"internal_node_id":"0.0-8.0-2.19","subject":"t6whu9c3anq2hpo","sona":"8698"},{"rt":373.64000000525266,"stimulus":"<p>Welche Sequenz haben Sie als natürlicher empfunden?</p>","key_press":74,"test_part":"response","test_stimulus":{"position":1,"left":"bvh/vr_prediction_models/model(tmp)-dataset(pass-bottle)-numprim(6)-hold(2)/final-lines.txt","right":"bvh/pass-bottle-training2-lines.txt","att_check":false},"trial_type":"html-keyboard-response","trial_index":86,"time_elapsed":197835,"internal_node_id":"0.0-8.0-3.19","subject":"t6whu9c3anq2hpo","sona":"8698"},{"rt":268.6299999477342,"stimulus":"<p>Bereit?</p>","key_press":32,"trial_type":"html-keyboard-response","trial_index":87,"time_elapsed":198108,"internal_node_id":"0.0-8.0-0.20","subject":"t6whu9c3anq2hpo","sona":"8698"},{"rt":null,"stimulus":"<div style=\"font-size:60px;\">+</div>","key_press":null,"trial_type":"html-keyboard-response","trial_index":88,"time_elapsed":200125,"internal_node_id":"0.0-8.0-1.20","subject":"t6whu9c3anq2hpo","sona":"8698"},{"trial_type":"turing-test","trial_index":89,"time_elapsed":205610,"internal_node_id":"0.0-8.0-2.20","subject":"t6whu9c3anq2hpo","sona":"8698"},{"rt":364.9000000441447,"stimulus":"<p>Welche Sequenz haben Sie als natürlicher empfunden?</p>","key_press":74,"test_part":"response","test_stimulus":{"position":1,"left":"bvh/vr_prediction_models/model(vcgpdm)-dataset(pass-bottle)-mode(ELBO)-parts(3)-dyn(10)-lvm(30)-hold(1)/final-lines.txt","right":"bvh/pass-bottle-training1-lines.txt","att_check":false},"trial_type":"html-keyboard-response","trial_index":90,"time_elapsed":205983,"internal_node_id":"0.0-8.0-3.20","subject":"t6whu9c3anq2hpo","sona":"8698"},{"rt":277.97000005375594,"stimulus":"<p>Bereit?</p>","key_press":32,"trial_type":"html-keyboard-response","trial_index":91,"time_elapsed":206271,"internal_node_id":"0.0-8.0-0.21","subject":"t6whu9c3anq2hpo","sona":"8698"},{"rt":null,"stimulus":"<div style=\"font-size:60px;\">+</div>","key_press":null,"trial_type":"html-keyboard-response","trial_index":92,"time_elapsed":208281,"internal_node_id":"0.0-8.0-1.21","subject":"t6whu9c3anq2hpo","sona":"8698"},{"trial_type":"turing-test","trial_index":93,"time_elapsed":214196,"internal_node_id":"0.0-8.0-2.21","subject":"t6whu9c3anq2hpo","sona":"8698"},{"rt":464.9549999739975,"stimulus":"<p>Welche Sequenz haben Sie als natürlicher empfunden?</p>","key_press":70,"test_part":"response","test_stimulus":{"position":0,"left":"bvh/pass-bottle-training4-lines.txt","right":"bvh/vr_prediction_models/model(vcgpdm)-dataset(pass-bottle)-mode(ELBO)-parts(3)-dyn(20)-lvm(15)-hold(4)/final-lines.txt","att_check":false},"trial_type":"html-keyboard-response","trial_index":94,"time_elapsed":214669,"internal_node_id":"0.0-8.0-3.21","subject":"t6whu9c3anq2hpo","sona":"8698"},{"rt":265.8900000387803,"stimulus":"<p>Bereit?</p>","key_press":32,"trial_type":"html-keyboard-response","trial_index":95,"time_elapsed":214940,"internal_node_id":"0.0-8.0-0.22","subject":"t6whu9c3anq2hpo","sona":"8698"},{"rt":null,"stimulus":"<div style=\"font-size:60px;\">+</div>","key_press":null,"trial_type":"html-keyboard-response","trial_index":96,"time_elapsed":216958,"internal_node_id":"0.0-8.0-1.22","subject":"t6whu9c3anq2hpo","sona":"8698"},{"trial_type":"turing-test","trial_index":97,"time_elapsed":222816,"internal_node_id":"0.0-8.0-2.22","subject":"t6whu9c3anq2hpo","sona":"8698"},{"rt":285.5449999915436,"stimulus":"<p>Welche Sequenz haben Sie als natürlicher empfunden?</p>","key_press":74,"test_part":"response","test_stimulus":{"position":1,"left":"bvh/vr_prediction_models/model(vcgpdm)-dataset(return-bottle)-mode(MAP)-parts(3)-hold(4)/final-lines.txt","right":"bvh/return-bottle-training4-lines.txt","att_check":false},"trial_type":"html-keyboard-response","trial_index":98,"time_elapsed":223109,"internal_node_id":"0.0-8.0-3.22","subject":"t6whu9c3anq2hpo","sona":"8698"},{"rt":213.04000006057322,"stimulus":"<p>Bereit?</p>","key_press":32,"trial_type":"html-keyboard-response","trial_index":99,"time_elapsed":223328,"internal_node_id":"0.0-8.0-0.23","subject":"t6whu9c3anq2hpo","sona":"8698"},{"rt":null,"stimulus":"<div style=\"font-size:60px;\">+</div>","key_press":null,"trial_type":"html-keyboard-response","trial_index":100,"time_elapsed":225339,"internal_node_id":"0.0-8.0-1.23","subject":"t6whu9c3anq2hpo","sona":"8698"},{"trial_type":"turing-test","trial_index":101,"time_elapsed":228871,"internal_node_id":"0.0-8.0-2.23","subject":"t6whu9c3anq2hpo","sona":"8698"},{"rt":712.4750000657514,"stimulus":"<p>Welche Sequenz haben Sie als natürlicher empfunden?</p>","key_press":70,"test_part":"response","test_stimulus":{"position":0,"left":"bvh/return-bottle-hold-training2-lines.txt","right":"bvh/vr_prediction_models/model(vcgpdm)-dataset(return-bottle-hold)-mode(ELBO)-parts(3)-dyn(20)-lvm(15)-hold(2)/final-lines.txt","att_check":false},"trial_type":"html-keyboard-response","trial_index":102,"time_elapsed":229590,"internal_node_id":"0.0-8.0-3.23","subject":"t6whu9c3anq2hpo","sona":"8698"},{"rt":224.93999998550862,"stimulus":"<p>Bereit?</p>","key_press":32,"trial_type":"html-keyboard-response","trial_index":103,"time_elapsed":229821,"internal_node_id":"0.0-8.0-0.24","subject":"t6whu9c3anq2hpo","sona":"8698"},{"rt":null,"stimulus":"<div style=\"font-size:60px;\">+</div>","key_press":null,"trial_type":"html-keyboard-response","trial_index":104,"time_elapsed":231834,"internal_node_id":"0.0-8.0-1.24","subject":"t6whu9c3anq2hpo","sona":"8698"},{"trial_type":"turing-test","trial_index":105,"time_elapsed":237002,"internal_node_id":"0.0-8.0-2.24","subject":"t6whu9c3anq2hpo","sona":"8698"},{"rt":432.7099999645725,"stimulus":"<p>Welche Sequenz haben Sie als natürlicher empfunden?</p>","key_press":74,"test_part":"response","test_stimulus":{"position":0,"left":"bvh/return-bottle-hold-training0-lines.txt","right":"bvh/vr_prediction_models/model(vcgpdm)-dataset(return-bottle-hold)-mode(ELBO)-parts(3)-dyn(25)-lvm(15)-hold(0)/final-lines.txt","att_check":false},"trial_type":"html-keyboard-response","trial_index":106,"time_elapsed":237442,"internal_node_id":"0.0-8.0-3.24","subject":"t6whu9c3anq2hpo","sona":"8698"},{"rt":215.11999994982034,"stimulus":"<p>Bereit?</p>","key_press":32,"trial_type":"html-keyboard-response","trial_index":107,"time_elapsed":237665,"internal_node_id":"0.0-8.0-0.25","subject":"t6whu9c3anq2hpo","sona":"8698"},{"rt":null,"stimulus":"<div style=\"font-size:60px;\">+</div>","key_press":null,"trial_type":"html-keyboard-response","trial_index":108,"time_elapsed":239681,"internal_node_id":"0.0-8.0-1.25","subject":"t6whu9c3anq2hpo","sona":"8698"},{"trial_type":"turing-test","trial_index":109,"time_elapsed":244854,"internal_node_id":"0.0-8.0-2.25","subject":"t6whu9c3anq2hpo","sona":"8698"},{"rt":339.6149999462068,"stimulus":"<p>Welche Sequenz haben Sie als natürlicher empfunden?</p>","key_press":74,"test_part":"response","test_stimulus":{"position":1,"left":"bvh/vr_prediction_models/model(vcgpdm)-dataset(return-bottle-hold)-mode(ELBO)-parts(3)-dyn(35)-lvm(20)-hold(0)/final-lines.txt","right":"bvh/return-bottle-hold-training0-lines.txt","att_check":false},"trial_type":"html-keyboard-response","trial_index":110,"time_elapsed":245202,"internal_node_id":"0.0-8.0-3.25","subject":"t6whu9c3anq2hpo","sona":"8698"},{"rt":1303.5049999598414,"stimulus":"<p>Bereit?</p>","key_press":32,"trial_type":"html-keyboard-response","trial_index":111,"time_elapsed":246510,"internal_node_id":"0.0-8.0-0.26","subject":"t6whu9c3anq2hpo","sona":"8698"},{"rt":null,"stimulus":"<div style=\"font-size:60px;\">+</div>","key_press":null,"trial_type":"html-keyboard-response","trial_index":112,"time_elapsed":248525,"internal_node_id":"0.0-8.0-1.26","subject":"t6whu9c3anq2hpo","sona":"8698"},{"trial_type":"turing-test","trial_index":113,"time_elapsed":254541,"internal_node_id":"0.0-8.0-2.26","subject":"t6whu9c3anq2hpo","sona":"8698"},{"rt":326.1400000192225,"stimulus":"<p>Welche Sequenz haben Sie als natürlicher empfunden?</p>","key_press":70,"test_part":"response","test_stimulus":{"position":1,"left":"bvh/vr_prediction_models/model(vcgpdm)-dataset(pass-bottle)-mode(ELBO)-parts(1)-dyn(35)-lvm(30)-hold(3)/final-lines.txt","right":"bvh/pass-bottle-training3-lines.txt","att_check":false},"trial_type":"html-keyboard-response","trial_index":114,"time_elapsed":254875,"internal_node_id":"0.0-8.0-3.26","subject":"t6whu9c3anq2hpo","sona":"8698"},{"rt":258.42000008560717,"stimulus":"<p>Bereit?</p>","key_press":32,"trial_type":"html-keyboard-response","trial_index":115,"time_elapsed":255142,"internal_node_id":"0.0-8.0-0.27","subject":"t6whu9c3anq2hpo","sona":"8698"},{"rt":null,"stimulus":"<div style=\"font-size:60px;\">+</div>","key_press":null,"trial_type":"html-keyboard-response","trial_index":116,"time_elapsed":257158,"internal_node_id":"0.0-8.0-1.27","subject":"t6whu9c3anq2hpo","sona":"8698"},{"trial_type":"turing-test","trial_index":117,"time_elapsed":262599,"internal_node_id":"0.0-8.0-2.27","subject":"t6whu9c3anq2hpo","sona":"8698"},{"rt":432.0750000188127,"stimulus":"<p>Welche Sequenz haben Sie als natürlicher empfunden?</p>","key_press":70,"test_part":"response","test_stimulus":{"position":0,"left":"bvh/return-bottle-training0-lines.txt","right":"bvh/vr_prediction_models/model(vcgpdm)-dataset(return-bottle)-mode(ELBO)-parts(3)-dyn(10)-lvm(30)-hold(0)/final-lines.txt","att_check":false},"trial_type":"html-keyboard-response","trial_index":118,"time_elapsed":263040,"internal_node_id":"0.0-8.0-3.27","subject":"t6whu9c3anq2hpo","sona":"8698"},{"rt":235.40999996475875,"stimulus":"<p>Bereit?</p>","key_press":32,"trial_type":"html-keyboard-response","trial_index":119,"time_elapsed":263282,"internal_node_id":"0.0-8.0-0.28","subject":"t6whu9c3anq2hpo","sona":"8698"},{"rt":null,"stimulus":"<div style=\"font-size:60px;\">+</div>","key_press":null,"trial_type":"html-keyboard-response","trial_index":120,"time_elapsed":265297,"internal_node_id":"0.0-8.0-1.28","subject":"t6whu9c3anq2hpo","sona":"8698"},{"trial_type":"turing-test","trial_index":121,"time_elapsed":268904,"internal_node_id":"0.0-8.0-2.28","subject":"t6whu9c3anq2hpo","sona":"8698"},{"rt":299.4699999690056,"stimulus":"<p>Welche Sequenz haben Sie als natürlicher empfunden?</p>","key_press":70,"test_part":"response","test_stimulus":{"position":0,"left":"bvh/return-bottle-hold-training3-lines.txt","right":"bvh/vr_prediction_models/model(tmp)-dataset(return-bottle-hold)-numprim(8)-hold(3)/final-lines.txt","att_check":false},"trial_type":"html-keyboard-response","trial_index":122,"time_elapsed":269211,"internal_node_id":"0.0-8.0-3.28","subject":"t6whu9c3anq2hpo","sona":"8698"},{"rt":224.0999999921769,"stimulus":"<p>Bereit?</p>","key_press":32,"trial_type":"html-keyboard-response","trial_index":123,"time_elapsed":269440,"internal_node_id":"0.0-8.0-0.29","subject":"t6whu9c3anq2hpo","sona":"8698"},{"rt":null,"stimulus":"<div style=\"font-size:60px;\">+</div>","key_press":null,"trial_type":"html-keyboard-response","trial_index":124,"time_elapsed":271458,"internal_node_id":"0.0-8.0-1.29","subject":"t6whu9c3anq2hpo","sona":"8698"},{"trial_type":"turing-test","trial_index":125,"time_elapsed":277033,"internal_node_id":"0.0-8.0-2.29","subject":"t6whu9c3anq2hpo","sona":"8698"},{"rt":283.6050000041723,"stimulus":"<p>Welche Sequenz haben Sie als natürlicher empfunden?</p>","key_press":70,"test_part":"response","test_stimulus":{"position":0,"left":"bvh/return-bottle-training0-lines.txt","right":"bvh/vr_prediction_models/model(vcgpdm)-dataset(return-bottle)-mode(ELBO)-parts(3)-dyn(20)-lvm(20)-hold(0)/final-lines.txt","att_check":false},"trial_type":"html-keyboard-response","trial_index":126,"time_elapsed":277325,"internal_node_id":"0.0-8.0-3.29","subject":"t6whu9c3anq2hpo","sona":"8698"},{"rt":191.68499996885657,"stimulus":"<p>Bereit?</p>","key_press":32,"trial_type":"html-keyboard-response","trial_index":127,"time_elapsed":277522,"internal_node_id":"0.0-8.0-0.30","subject":"t6whu9c3anq2hpo","sona":"8698"},{"rt":null,"stimulus":"<div style=\"font-size:60px;\">+</div>","key_press":null,"trial_type":"html-keyboard-response","trial_index":128,"time_elapsed":279542,"internal_node_id":"0.0-8.0-1.30","subject":"t6whu9c3anq2hpo","sona":"8698"},{"trial_type":"turing-test","trial_index":129,"time_elapsed":286351,"internal_node_id":"0.0-8.0-2.30","subject":"t6whu9c3anq2hpo","sona":"8698"},{"rt":262.18999992124736,"stimulus":"<p>Welche Sequenz haben Sie als natürlicher empfunden?</p>","key_press":74,"test_part":"response","test_stimulus":{"position":1,"left":"bvh/vr_prediction_models/model(tmp)-dataset(pass-bottle)-numprim(15)-hold(0)/final-lines.txt","right":"bvh/pass-bottle-training0-lines.txt","att_check":false},"trial_type":"html-keyboard-response","trial_index":130,"time_elapsed":286621,"internal_node_id":"0.0-8.0-3.30","subject":"t6whu9c3anq2hpo","sona":"8698"},{"rt":272.8699999861419,"stimulus":"<p>Bereit?</p>","key_press":32,"trial_type":"html-keyboard-response","trial_index":131,"time_elapsed":286904,"internal_node_id":"0.0-8.0-0.31","subject":"t6whu9c3anq2hpo","sona":"8698"},{"rt":null,"stimulus":"<div style=\"font-size:60px;\">+</div>","key_press":null,"trial_type":"html-keyboard-response","trial_index":132,"time_elapsed":288925,"internal_node_id":"0.0-8.0-1.31","subject":"t6whu9c3anq2hpo","sona":"8698"},{"trial_type":"turing-test","trial_index":133,"time_elapsed":294980,"internal_node_id":"0.0-8.0-2.31","subject":"t6whu9c3anq2hpo","sona":"8698"},{"rt":319.38000000081956,"stimulus":"<p>Welche Sequenz haben Sie als natürlicher empfunden?</p>","key_press":74,"test_part":"response","test_stimulus":{"position":1,"left":"bvh/vr_prediction_models/model(tmp)-dataset(return-bottle)-numprim(14)-hold(1)/final-lines.txt","right":"bvh/return-bottle-training1-lines.txt","att_check":false},"trial_type":"html-keyboard-response","trial_index":134,"time_elapsed":295310,"internal_node_id":"0.0-8.0-3.31","subject":"t6whu9c3anq2hpo","sona":"8698"},{"rt":308.75000008381903,"stimulus":"<p>Bereit?</p>","key_press":32,"trial_type":"html-keyboard-response","trial_index":135,"time_elapsed":295625,"internal_node_id":"0.0-8.0-0.32","subject":"t6whu9c3anq2hpo","sona":"8698"},{"rt":null,"stimulus":"<div style=\"font-size:60px;\">+</div>","key_press":null,"trial_type":"html-keyboard-response","trial_index":136,"time_elapsed":297640,"internal_node_id":"0.0-8.0-1.32","subject":"t6whu9c3anq2hpo","sona":"8698"},{"trial_type":"turing-test","trial_index":137,"time_elapsed":301272,"internal_node_id":"0.0-8.0-2.32","subject":"t6whu9c3anq2hpo","sona":"8698"},{"rt":403.82500004488975,"stimulus":"<p>Welche Sequenz haben Sie als natürlicher empfunden?</p>","key_press":74,"test_part":"response","test_stimulus":{"position":1,"left":"bvh/vr_prediction_models/model(tmp)-dataset(return-bottle-hold)-numprim(11)-hold(3)/final-lines.txt","right":"bvh/return-bottle-hold-training3-lines.txt","att_check":false},"trial_type":"html-keyboard-response","trial_index":138,"time_elapsed":301683,"internal_node_id":"0.0-8.0-3.32","subject":"t6whu9c3anq2hpo","sona":"8698"},{"rt":230.96999991685152,"stimulus":"<p>Bereit?</p>","key_press":32,"trial_type":"html-keyboard-response","trial_index":139,"time_elapsed":301925,"internal_node_id":"0.0-8.0-0.33","subject":"t6whu9c3anq2hpo","sona":"8698"},{"rt":null,"stimulus":"<div style=\"font-size:60px;\">+</div>","key_press":null,"trial_type":"html-keyboard-response","trial_index":140,"time_elapsed":303941,"internal_node_id":"0.0-8.0-1.33","subject":"t6whu9c3anq2hpo","sona":"8698"},{"trial_type":"turing-test","trial_index":141,"time_elapsed":309780,"internal_node_id":"0.0-8.0-2.33","subject":"t6whu9c3anq2hpo","sona":"8698"},{"rt":284.78999994695187,"stimulus":"<p>Welche Sequenz haben Sie als natürlicher empfunden?</p>","key_press":70,"test_part":"response","test_stimulus":{"position":0,"left":"bvh/pass-bottle-training4-lines.txt","right":"bvh/vr_prediction_models/model(vcgpdm)-dataset(pass-bottle)-mode(MAP)-parts(3)-hold(4)/final-lines.txt","att_check":false},"trial_type":"html-keyboard-response","trial_index":142,"time_elapsed":310073,"internal_node_id":"0.0-8.0-3.33","subject":"t6whu9c3anq2hpo","sona":"8698"},{"rt":276.4449999667704,"stimulus":"<p>Bereit?</p>","key_press":32,"trial_type":"html-keyboard-response","trial_index":143,"time_elapsed":310357,"internal_node_id":"0.0-8.0-0.34","subject":"t6whu9c3anq2hpo","sona":"8698"},{"rt":null,"stimulus":"<div style=\"font-size:60px;\">+</div>","key_press":null,"trial_type":"html-keyboard-response","trial_index":144,"time_elapsed":312367,"internal_node_id":"0.0-8.0-1.34","subject":"t6whu9c3anq2hpo","sona":"8698"},{"trial_type":"turing-test","trial_index":145,"time_elapsed":315675,"internal_node_id":"0.0-8.0-2.34","subject":"t6whu9c3anq2hpo","sona":"8698"},{"rt":276.1949999257922,"stimulus":"<p>Welche Sequenz haben Sie als natürlicher empfunden?</p>","key_press":70,"test_part":"response","test_stimulus":{"position":0,"left":"bvh/return-bottle-hold-training1-lines.txt","right":"bvh/vr_prediction_models/model(dmp)-dataset(return-bottle-hold)-npsi(10)-hold(1)/final-lines.txt","att_check":false},"trial_type":"html-keyboard-response","trial_index":146,"time_elapsed":315960,"internal_node_id":"0.0-8.0-3.34","subject":"t6whu9c3anq2hpo","sona":"8698"},{"rt":239.50500006321818,"stimulus":"<p>Bereit?</p>","key_press":32,"trial_type":"html-keyboard-response","trial_index":147,"time_elapsed":316207,"internal_node_id":"0.0-8.0-0.35","subject":"t6whu9c3anq2hpo","sona":"8698"},{"rt":null,"stimulus":"<div style=\"font-size:60px;\">+</div>","key_press":null,"trial_type":"html-keyboard-response","trial_index":148,"time_elapsed":318227,"internal_node_id":"0.0-8.0-1.35","subject":"t6whu9c3anq2hpo","sona":"8698"},{"trial_type":"turing-test","trial_index":149,"time_elapsed":323689,"internal_node_id":"0.0-8.0-2.35","subject":"t6whu9c3anq2hpo","sona":"8698"},{"rt":417.1949999872595,"stimulus":"<p>Welche Sequenz haben Sie als natürlicher empfunden?</p>","key_press":74,"test_part":"response","test_stimulus":{"position":1,"left":"bvh/vr_prediction_models/model(dmp)-dataset(pass-bottle)-npsi(50)-hold(1)/final-lines.txt","right":"bvh/pass-bottle-training1-lines.txt","att_check":false},"trial_type":"html-keyboard-response","trial_index":150,"time_elapsed":324115,"internal_node_id":"0.0-8.0-3.35","subject":"t6whu9c3anq2hpo","sona":"8698"},{"rt":257.22000002861023,"stimulus":"<p>Bereit?</p>","key_press":32,"trial_type":"html-keyboard-response","trial_index":151,"time_elapsed":324378,"internal_node_id":"0.0-8.0-0.36","subject":"t6whu9c3anq2hpo","sona":"8698"},{"rt":null,"stimulus":"<div style=\"font-size:60px;\">+</div>","key_press":null,"trial_type":"html-keyboard-response","trial_index":152,"time_elapsed":326394,"internal_node_id":"0.0-8.0-1.36","subject":"t6whu9c3anq2hpo","sona":"8698"},{"trial_type":"turing-test","trial_index":153,"time_elapsed":332439,"internal_node_id":"0.0-8.0-2.36","subject":"t6whu9c3anq2hpo","sona":"8698"},{"rt":317.13500001933426,"stimulus":"<p>Welche Sequenz haben Sie als natürlicher empfunden?</p>","key_press":70,"test_part":"response","test_stimulus":{"position":0,"left":"bvh/return-bottle-training1-lines.txt","right":"bvh/vr_prediction_models/model(tmp)-dataset(return-bottle)-numprim(7)-hold(1)/final-lines.txt","att_check":false},"trial_type":"html-keyboard-response","trial_index":154,"time_elapsed":332769,"internal_node_id":"0.0-8.0-3.36","subject":"t6whu9c3anq2hpo","sona":"8698"},{"rt":163.73999998904765,"stimulus":"<p>Bereit?</p>","key_press":32,"trial_type":"html-keyboard-response","trial_index":155,"time_elapsed":332938,"internal_node_id":"0.0-8.0-0.37","subject":"t6whu9c3anq2hpo","sona":"8698"},{"rt":null,"stimulus":"<div style=\"font-size:60px;\">+</div>","key_press":null,"trial_type":"html-keyboard-response","trial_index":156,"time_elapsed":334956,"internal_node_id":"0.0-8.0-1.37","subject":"t6whu9c3anq2hpo","sona":"8698"},{"trial_type":"turing-test","trial_index":157,"time_elapsed":338769,"internal_node_id":"0.0-8.0-2.37","subject":"t6whu9c3anq2hpo","sona":"8698"},{"rt":286.12000006251037,"stimulus":"<p>Welche Sequenz haben Sie als natürlicher empfunden?</p>","key_press":74,"test_part":"response","test_stimulus":{"position":1,"left":"bvh/vr_prediction_models/model(vcgpdm)-dataset(return-bottle-hold)-mode(ELBO)-parts(1)-dyn(30)-lvm(20)-hold(4)/final-lines.txt","right":"bvh/return-bottle-hold-training4-lines.txt","att_check":false},"trial_type":"html-keyboard-response","trial_index":158,"time_elapsed":339063,"internal_node_id":"0.0-8.0-3.37","subject":"t6whu9c3anq2hpo","sona":"8698"},{"rt":227.96500008553267,"stimulus":"<p>Bereit?</p>","key_press":32,"trial_type":"html-keyboard-response","trial_index":159,"time_elapsed":339297,"internal_node_id":"0.0-8.0-0.38","subject":"t6whu9c3anq2hpo","sona":"8698"},{"rt":null,"stimulus":"<div style=\"font-size:60px;\">+</div>","key_press":null,"trial_type":"html-keyboard-response","trial_index":160,"time_elapsed":341312,"internal_node_id":"0.0-8.0-1.38","subject":"t6whu9c3anq2hpo","sona":"8698"},{"trial_type":"turing-test","trial_index":161,"time_elapsed":345151,"internal_node_id":"0.0-8.0-2.38","subject":"t6whu9c3anq2hpo","sona":"8698"},{"rt":288.42999995686114,"stimulus":"<p>Welche Sequenz haben Sie als natürlicher empfunden?</p>","key_press":74,"test_part":"response","test_stimulus":{"position":1,"left":"bvh/vr_prediction_models/model(vcgpdm)-dataset(pass-bottle-hold)-mode(ELBO)-parts(3)-dyn(10)-lvm(10)-hold(3)/final-lines.txt","right":"bvh/pass-bottle-hold-training3-lines.txt","att_check":false},"trial_type":"html-keyboard-response","trial_index":162,"time_elapsed":345448,"internal_node_id":"0.0-8.0-3.38","subject":"t6whu9c3anq2hpo","sona":"8698"},{"rt":16427.52999998629,"stimulus":"<p>Bereit?</p>","key_press":32,"trial_type":"html-keyboard-response","trial_index":163,"time_elapsed":361884,"internal_node_id":"0.0-8.0-0.39","subject":"t6whu9c3anq2hpo","sona":"8698"},{"rt":null,"stimulus":"<div style=\"font-size:60px;\">+</div>","key_press":null,"trial_type":"html-keyboard-response","trial_index":164,"time_elapsed":363900,"internal_node_id":"0.0-8.0-1.39","subject":"t6whu9c3anq2hpo","sona":"8698"},{"trial_type":"turing-test","trial_index":165,"time_elapsed":369475,"internal_node_id":"0.0-8.0-2.39","subject":"t6whu9c3anq2hpo","sona":"8698"},{"rt":311.66500004474074,"stimulus":"<p>Welche Sequenz haben Sie als natürlicher empfunden?</p>","key_press":70,"test_part":"response","test_stimulus":{"position":0,"left":"bvh/return-bottle-training0-lines.txt","right":"bvh/vr_prediction_models/model(vcgpdm)-dataset(return-bottle)-mode(MAP)-parts(3)-hold(0)/final-lines.txt","att_check":false},"trial_type":"html-keyboard-response","trial_index":166,"time_elapsed":369792,"internal_node_id":"0.0-8.0-3.39","subject":"t6whu9c3anq2hpo","sona":"8698"},{"rt":570.134999928996,"stimulus":"<p>Bereit?</p>","key_press":32,"trial_type":"html-keyboard-response","trial_index":167,"time_elapsed":370369,"internal_node_id":"0.0-8.0-0.40","subject":"t6whu9c3anq2hpo","sona":"8698"},{"rt":null,"stimulus":"<div style=\"font-size:60px;\">+</div>","key_press":null,"trial_type":"html-keyboard-response","trial_index":168,"time_elapsed":372381,"internal_node_id":"0.0-8.0-1.40","subject":"t6whu9c3anq2hpo","sona":"8698"},{"trial_type":"turing-test","trial_index":169,"time_elapsed":379183,"internal_node_id":"0.0-8.0-2.40","subject":"t6whu9c3anq2hpo","sona":"8698"},{"rt":396.66500000748783,"stimulus":"<p>Welche Sequenz haben Sie als natürlicher empfunden?</p>","key_press":70,"test_part":"response","test_stimulus":{"position":0,"left":"bvh/pass-bottle-training0-lines.txt","right":"bvh/vr_prediction_models/model(vcgpdm)-dataset(pass-bottle)-mode(ELBO)-parts(3)-dyn(20)-lvm(35)-hold(0)/final-lines.txt","att_check":false},"trial_type":"html-keyboard-response","trial_index":170,"time_elapsed":379588,"internal_node_id":"0.0-8.0-3.40","subject":"t6whu9c3anq2hpo","sona":"8698"},{"rt":304.21500001102686,"stimulus":"<p>Bereit?</p>","key_press":32,"trial_type":"html-keyboard-response","trial_index":171,"time_elapsed":379900,"internal_node_id":"0.0-8.0-0.41","subject":"t6whu9c3anq2hpo","sona":"8698"},{"rt":null,"stimulus":"<div style=\"font-size:60px;\">+</div>","key_press":null,"trial_type":"html-keyboard-response","trial_index":172,"time_elapsed":381921,"internal_node_id":"0.0-8.0-1.41","subject":"t6whu9c3anq2hpo","sona":"8698"},{"trial_type":"turing-test","trial_index":173,"time_elapsed":387102,"internal_node_id":"0.0-8.0-2.41","subject":"t6whu9c3anq2hpo","sona":"8698"},{"rt":303.7650000769645,"stimulus":"<p>Welche Sequenz haben Sie als natürlicher empfunden?</p>","key_press":70,"test_part":"response","test_stimulus":{"position":0,"left":"bvh/return-bottle-hold-training0-lines.txt","right":"bvh/vr_prediction_models/model(vcgpdm)-dataset(return-bottle-hold)-mode(ELBO)-parts(3)-dyn(10)-lvm(30)-hold(0)/final-lines.txt","att_check":false},"trial_type":"html-keyboard-response","trial_index":174,"time_elapsed":387415,"internal_node_id":"0.0-8.0-3.41","subject":"t6whu9c3anq2hpo","sona":"8698"},{"rt":276.4200000092387,"stimulus":"<p>Bereit?</p>","key_press":32,"trial_type":"html-keyboard-response","trial_index":175,"time_elapsed":387701,"internal_node_id":"0.0-8.0-0.42","subject":"t6whu9c3anq2hpo","sona":"8698"},{"rt":null,"stimulus":"<div style=\"font-size:60px;\">+</div>","key_press":null,"trial_type":"html-keyboard-response","trial_index":176,"time_elapsed":389717,"internal_node_id":"0.0-8.0-1.42","subject":"t6whu9c3anq2hpo","sona":"8698"},{"trial_type":"turing-test","trial_index":177,"time_elapsed":395520,"internal_node_id":"0.0-8.0-2.42","subject":"t6whu9c3anq2hpo","sona":"8698"},{"rt":437.1749999700114,"stimulus":"<p>Welche Sequenz haben Sie als natürlicher empfunden?</p>","key_press":74,"test_part":"response","test_stimulus":{"position":1,"left":"bvh/vr_prediction_models/model(tmp)-dataset(pass-bottle)-numprim(14)-hold(3)/final-lines.txt","right":"bvh/pass-bottle-training3-lines.txt","att_check":false},"trial_type":"html-keyboard-response","trial_index":178,"time_elapsed":395966,"internal_node_id":"0.0-8.0-3.42","subject":"t6whu9c3anq2hpo","sona":"8698"},{"rt":629.1150000179186,"stimulus":"<p>Bereit?</p>","key_press":32,"trial_type":"html-keyboard-response","trial_index":179,"time_elapsed":396606,"internal_node_id":"0.0-8.0-0.43","subject":"t6whu9c3anq2hpo","sona":"8698"},{"rt":null,"stimulus":"<div style=\"font-size:60px;\">+</div>","key_press":null,"trial_type":"html-keyboard-response","trial_index":180,"time_elapsed":398625,"internal_node_id":"0.0-8.0-1.43","subject":"t6whu9c3anq2hpo","sona":"8698"},{"trial_type":"turing-test","trial_index":181,"time_elapsed":405221,"internal_node_id":"0.0-8.0-2.43","subject":"t6whu9c3anq2hpo","sona":"8698"},{"rt":365.1799999643117,"stimulus":"<p>Welche Sequenz haben Sie als natürlicher empfunden?</p>","key_press":74,"test_part":"response","test_stimulus":{"position":1,"left":"bvh/vr_prediction_models/model(dmp)-dataset(return-bottle)-npsi(100)-hold(2)/final-lines.txt","right":"bvh/return-bottle-training2-lines.txt","att_check":false},"trial_type":"html-keyboard-response","trial_index":182,"time_elapsed":405594,"internal_node_id":"0.0-8.0-3.43","subject":"t6whu9c3anq2hpo","sona":"8698"},{"rt":207.74500002153218,"stimulus":"<p>Bereit?</p>","key_press":32,"trial_type":"html-keyboard-response","trial_index":183,"time_elapsed":405813,"internal_node_id":"0.0-8.0-0.44","subject":"t6whu9c3anq2hpo","sona":"8698"},{"rt":null,"stimulus":"<div style=\"font-size:60px;\">+</div>","key_press":null,"trial_type":"html-keyboard-response","trial_index":184,"time_elapsed":407837,"internal_node_id":"0.0-8.0-1.44","subject":"t6whu9c3anq2hpo","sona":"8698"},{"trial_type":"turing-test","trial_index":185,"time_elapsed":413604,"internal_node_id":"0.0-8.0-2.44","subject":"t6whu9c3anq2hpo","sona":"8698"},{"rt":435.0900000426918,"stimulus":"<p>Welche Sequenz haben Sie als natürlicher empfunden?</p>","key_press":74,"test_part":"response","test_stimulus":{"position":1,"left":"bvh/vr_prediction_models/model(tmp)-dataset(return-bottle)-numprim(11)-hold(3)/final-lines.txt","right":"bvh/return-bottle-training3-lines.txt","att_check":false},"trial_type":"html-keyboard-response","trial_index":186,"time_elapsed":414047,"internal_node_id":"0.0-8.0-3.44","subject":"t6whu9c3anq2hpo","sona":"8698"},{"rt":194.77499998174608,"stimulus":"<p>Bereit?</p>","key_press":32,"trial_type":"html-keyboard-response","trial_index":187,"time_elapsed":414252,"internal_node_id":"0.0-8.0-0.45","subject":"t6whu9c3anq2hpo","sona":"8698"},{"rt":null,"stimulus":"<div style=\"font-size:60px;\">+</div>","key_press":null,"trial_type":"html-keyboard-response","trial_index":188,"time_elapsed":416273,"internal_node_id":"0.0-8.0-1.45","subject":"t6whu9c3anq2hpo","sona":"8698"},{"trial_type":"turing-test","trial_index":189,"time_elapsed":419636,"internal_node_id":"0.0-8.0-2.45","subject":"t6whu9c3anq2hpo","sona":"8698"},{"rt":333.8049999438226,"stimulus":"<p>Welche Sequenz haben Sie als natürlicher empfunden?</p>","key_press":70,"test_part":"response","test_stimulus":{"position":0,"left":"bvh/pass-bottle-hold-training2-lines.txt","right":"bvh/vr_prediction_models/model(dmp)-dataset(pass-bottle-hold)-npsi(50)-hold(2)/final-lines.txt","att_check":false},"trial_type":"html-keyboard-response","trial_index":190,"time_elapsed":419978,"internal_node_id":"0.0-8.0-3.45","subject":"t6whu9c3anq2hpo","sona":"8698"},{"rt":178.89999994076788,"stimulus":"<p>Bereit?</p>","key_press":32,"trial_type":"html-keyboard-response","trial_index":191,"time_elapsed":420164,"internal_node_id":"0.0-8.0-0.46","subject":"t6whu9c3anq2hpo","sona":"8698"},{"rt":null,"stimulus":"<div style=\"font-size:60px;\">+</div>","key_press":null,"trial_type":"html-keyboard-response","trial_index":192,"time_elapsed":422184,"internal_node_id":"0.0-8.0-1.46","subject":"t6whu9c3anq2hpo","sona":"8698"},{"trial_type":"turing-test","trial_index":193,"time_elapsed":425585,"internal_node_id":"0.0-8.0-2.46","subject":"t6whu9c3anq2hpo","sona":"8698"},{"rt":299.280000035651,"stimulus":"<p>Welche Sequenz haben Sie als natürlicher empfunden?</p>","key_press":70,"test_part":"response","test_stimulus":{"position":0,"left":"bvh/pass-bottle-hold-training0-lines.txt","right":"bvh/vr_prediction_models/model(vcgpdm)-dataset(pass-bottle-hold)-mode(ELBO)-parts(3)-dyn(35)-lvm(20)-hold(0)/final-lines.txt","att_check":false},"trial_type":"html-keyboard-response","trial_index":194,"time_elapsed":425893,"internal_node_id":"0.0-8.0-3.46","subject":"t6whu9c3anq2hpo","sona":"8698"},{"rt":169.27499999292195,"stimulus":"<p>Bereit?</p>","key_press":32,"trial_type":"html-keyboard-response","trial_index":195,"time_elapsed":426069,"internal_node_id":"0.0-8.0-0.47","subject":"t6whu9c3anq2hpo","sona":"8698"},{"rt":null,"stimulus":"<div style=\"font-size:60px;\">+</div>","key_press":null,"trial_type":"html-keyboard-response","trial_index":196,"time_elapsed":428082,"internal_node_id":"0.0-8.0-1.47","subject":"t6whu9c3anq2hpo","sona":"8698"},{"trial_type":"turing-test","trial_index":197,"time_elapsed":434961,"internal_node_id":"0.0-8.0-2.47","subject":"t6whu9c3anq2hpo","sona":"8698"},{"rt":321.7200000071898,"stimulus":"<p>Welche Sequenz haben Sie als natürlicher empfunden?</p>","key_press":70,"test_part":"response","test_stimulus":{"position":1,"left":"bvh/vr_prediction_models/model(vcgpdm)-dataset(pass-bottle)-mode(ELBO)-parts(1)-dyn(25)-lvm(35)-hold(0)/final-lines.txt","right":"bvh/pass-bottle-training0-lines.txt","att_check":false},"trial_type":"html-keyboard-response","trial_index":198,"time_elapsed":435297,"internal_node_id":"0.0-8.0-3.47","subject":"t6whu9c3anq2hpo","sona":"8698"},{"rt":172.65500000212342,"stimulus":"<p>Bereit?</p>","key_press":32,"trial_type":"html-keyboard-response","trial_index":199,"time_elapsed":435476,"internal_node_id":"0.0-8.0-0.48","subject":"t6whu9c3anq2hpo","sona":"8698"},{"rt":null,"stimulus":"<div style=\"font-size:60px;\">+</div>","key_press":null,"trial_type":"html-keyboard-response","trial_index":200,"time_elapsed":437488,"internal_node_id":"0.0-8.0-1.48","subject":"t6whu9c3anq2hpo","sona":"8698"},{"trial_type":"turing-test","trial_index":201,"time_elapsed":441064,"internal_node_id":"0.0-8.0-2.48","subject":"t6whu9c3anq2hpo","sona":"8698"},{"rt":235.9849999193102,"stimulus":"<p>Welche Sequenz haben Sie als natürlicher empfunden?</p>","key_press":70,"test_part":"response","test_stimulus":{"position":0,"left":"bvh/return-bottle-hold-training2-lines.txt","right":"bvh/vr_prediction_models/model(vcgpdm)-dataset(return-bottle-hold)-mode(ELBO)-parts(1)-dyn(20)-lvm(30)-hold(2)/final-lines.txt","att_check":false},"trial_type":"html-keyboard-response","trial_index":202,"time_elapsed":441312,"internal_node_id":"0.0-8.0-3.48","subject":"t6whu9c3anq2hpo","sona":"8698"},{"rt":169.65499997604638,"stimulus":"<p>Bereit?</p>","key_press":32,"trial_type":"html-keyboard-response","trial_index":203,"time_elapsed":441490,"internal_node_id":"0.0-8.0-0.49","subject":"t6whu9c3anq2hpo","sona":"8698"},{"rt":null,"stimulus":"<div style=\"font-size:60px;\">+</div>","key_press":null,"trial_type":"html-keyboard-response","trial_index":204,"time_elapsed":443499,"internal_node_id":"0.0-8.0-1.49","subject":"t6whu9c3anq2hpo","sona":"8698"},{"trial_type":"turing-test","trial_index":205,"time_elapsed":449696,"internal_node_id":"0.0-8.0-2.49","subject":"t6whu9c3anq2hpo","sona":"8698"},{"rt":250.68000005558133,"stimulus":"<p>Welche Sequenz haben Sie als natürlicher empfunden?</p>","key_press":74,"test_part":"response","test_stimulus":{"position":1,"left":"bvh/vr_prediction_models/model(dmp)-dataset(return-bottle)-npsi(20)-hold(1)/final-lines.txt","right":"bvh/return-bottle-training1-lines.txt","att_check":false},"trial_type":"html-keyboard-response","trial_index":206,"time_elapsed":449955,"internal_node_id":"0.0-8.0-3.49","subject":"t6whu9c3anq2hpo","sona":"8698"},{"rt":197.29499996174127,"stimulus":"<p>Bereit?</p>","key_press":32,"trial_type":"html-keyboard-response","trial_index":207,"time_elapsed":450159,"internal_node_id":"0.0-8.0-0.50","subject":"t6whu9c3anq2hpo","sona":"8698"},{"rt":null,"stimulus":"<div style=\"font-size:60px;\">+</div>","key_press":null,"trial_type":"html-keyboard-response","trial_index":208,"time_elapsed":452180,"internal_node_id":"0.0-8.0-1.50","subject":"t6whu9c3anq2hpo","sona":"8698"},{"trial_type":"turing-test","trial_index":209,"time_elapsed":455670,"internal_node_id":"0.0-8.0-2.50","subject":"t6whu9c3anq2hpo","sona":"8698"},{"rt":283.72499998658895,"stimulus":"<p>Welche Sequenz haben Sie als natürlicher empfunden?</p>","key_press":74,"test_part":"response","test_stimulus":{"position":1,"left":"bvh/vr_prediction_models/model(tmp)-dataset(return-bottle-hold)-numprim(3)-hold(2)/final-lines.txt","right":"bvh/return-bottle-hold-training2-lines.txt","att_check":false},"trial_type":"html-keyboard-response","trial_index":210,"time_elapsed":455965,"internal_node_id":"0.0-8.0-3.50","subject":"t6whu9c3anq2hpo","sona":"8698"},{"rt":170.64000002574176,"stimulus":"<p>Bereit?</p>","key_press":32,"trial_type":"html-keyboard-response","trial_index":211,"time_elapsed":456144,"internal_node_id":"0.0-8.0-0.51","subject":"t6whu9c3anq2hpo","sona":"8698"},{"rt":null,"stimulus":"<div style=\"font-size:60px;\">+</div>","key_press":null,"trial_type":"html-keyboard-response","trial_index":212,"time_elapsed":458163,"internal_node_id":"0.0-8.0-1.51","subject":"t6whu9c3anq2hpo","sona":"8698"},{"trial_type":"turing-test","trial_index":213,"time_elapsed":463879,"internal_node_id":"0.0-8.0-2.51","subject":"t6whu9c3anq2hpo","sona":"8698"},{"rt":382.76499998755753,"stimulus":"<p>Welche Sequenz haben Sie als natürlicher empfunden?</p>","key_press":74,"test_part":"response","test_stimulus":{"position":1,"left":"bvh/vr_prediction_models/model(dmp)-dataset(return-bottle)-npsi(100)-hold(3)/final-lines.txt","right":"bvh/return-bottle-training3-lines.txt","att_check":false},"trial_type":"html-keyboard-response","trial_index":214,"time_elapsed":464275,"internal_node_id":"0.0-8.0-3.51","subject":"t6whu9c3anq2hpo","sona":"8698"},{"rt":186.69000000227243,"stimulus":"<p>Bereit?</p>","key_press":32,"trial_type":"html-keyboard-response","trial_index":215,"time_elapsed":464468,"internal_node_id":"0.0-8.0-0.52","subject":"t6whu9c3anq2hpo","sona":"8698"},{"rt":null,"stimulus":"<div style=\"font-size:60px;\">+</div>","key_press":null,"trial_type":"html-keyboard-response","trial_index":216,"time_elapsed":466479,"internal_node_id":"0.0-8.0-1.52","subject":"t6whu9c3anq2hpo","sona":"8698"},{"trial_type":"turing-test","trial_index":217,"time_elapsed":469797,"internal_node_id":"0.0-8.0-2.52","subject":"t6whu9c3anq2hpo","sona":"8698"},{"rt":316.8549999827519,"stimulus":"<p>Welche Sequenz haben Sie als natürlicher empfunden?</p>","key_press":74,"test_part":"response","test_stimulus":{"position":1,"left":"bvh/vr_prediction_models/model(dmp)-dataset(pass-bottle-hold)-npsi(40)-hold(0)/final-lines.txt","right":"bvh/pass-bottle-hold-training0-lines.txt","att_check":false},"trial_type":"html-keyboard-response","trial_index":218,"time_elapsed":470122,"internal_node_id":"0.0-8.0-3.52","subject":"t6whu9c3anq2hpo","sona":"8698"},{"rt":166.19500005617738,"stimulus":"<p>Bereit?</p>","key_press":32,"trial_type":"html-keyboard-response","trial_index":219,"time_elapsed":470295,"internal_node_id":"0.0-8.0-0.53","subject":"t6whu9c3anq2hpo","sona":"8698"},{"rt":null,"stimulus":"<div style=\"font-size:60px;\">+</div>","key_press":null,"trial_type":"html-keyboard-response","trial_index":220,"time_elapsed":472313,"internal_node_id":"0.0-8.0-1.53","subject":"t6whu9c3anq2hpo","sona":"8698"},{"trial_type":"turing-test","trial_index":221,"time_elapsed":475933,"internal_node_id":"0.0-8.0-2.53","subject":"t6whu9c3anq2hpo","sona":"8698"},{"rt":304.80000004172325,"stimulus":"<p>Welche Sequenz haben Sie als natürlicher empfunden?</p>","key_press":70,"test_part":"response","test_stimulus":{"position":0,"left":"bvh/return-bottle-hold-training3-lines.txt","right":"bvh/vr_prediction_models/model(dmp)-dataset(return-bottle-hold)-npsi(60)-hold(3)/final-lines.txt","att_check":false},"trial_type":"html-keyboard-response","trial_index":222,"time_elapsed":476252,"internal_node_id":"0.0-8.0-3.53","subject":"t6whu9c3anq2hpo","sona":"8698"},{"rt":143.42499990016222,"stimulus":"<p>Bereit?</p>","key_press":32,"trial_type":"html-keyboard-response","trial_index":223,"time_elapsed":476403,"internal_node_id":"0.0-8.0-0.54","subject":"t6whu9c3anq2hpo","sona":"8698"},{"rt":null,"stimulus":"<div style=\"font-size:60px;\">+</div>","key_press":null,"trial_type":"html-keyboard-response","trial_index":224,"time_elapsed":478417,"internal_node_id":"0.0-8.0-1.54","subject":"t6whu9c3anq2hpo","sona":"8698"},{"trial_type":"turing-test","trial_index":225,"time_elapsed":481713,"internal_node_id":"0.0-8.0-2.54","subject":"t6whu9c3anq2hpo","sona":"8698"},{"rt":2294.2999999504536,"stimulus":"<p>Welche Sequenz haben Sie als natürlicher empfunden?</p>","key_press":74,"test_part":"response","test_stimulus":{"position":1,"left":"bvh/vr_prediction_models/model(tmp)-dataset(return-bottle-hold)-numprim(11)-hold(1)/final-lines.txt","right":"bvh/return-bottle-hold-training1-lines.txt","att_check":false},"trial_type":"html-keyboard-response","trial_index":226,"time_elapsed":484017,"internal_node_id":"0.0-8.0-3.54","subject":"t6whu9c3anq2hpo","sona":"8698"},{"rt":50761.464999988675,"stimulus":"<p>Bereit?</p>","key_press":32,"trial_type":"html-keyboard-response","trial_index":227,"time_elapsed":534786,"internal_node_id":"0.0-8.0-0.55","subject":"t6whu9c3anq2hpo","sona":"8698"},{"rt":null,"stimulus":"<div style=\"font-size:60px;\">+</div>","key_press":null,"trial_type":"html-keyboard-response","trial_index":228,"time_elapsed":536800,"internal_node_id":"0.0-8.0-1.55","subject":"t6whu9c3anq2hpo","sona":"8698"},{"trial_type":"turing-test","trial_index":229,"time_elapsed":542602,"internal_node_id":"0.0-8.0-2.55","subject":"t6whu9c3anq2hpo","sona":"8698"},{"rt":309.4699999783188,"stimulus":"<p>Welche Sequenz haben Sie als natürlicher empfunden?</p>","key_press":70,"test_part":"response","test_stimulus":{"position":0,"left":"bvh/pass-bottle-training4-lines.txt","right":"bvh/vr_prediction_models/model(vcgpdm)-dataset(pass-bottle)-mode(ELBO)-parts(1)-dyn(20)-lvm(30)-hold(4)/final-lines.txt","att_check":false},"trial_type":"html-keyboard-response","trial_index":230,"time_elapsed":542925,"internal_node_id":"0.0-8.0-3.55","subject":"t6whu9c3anq2hpo","sona":"8698"},{"rt":268.9099999843165,"stimulus":"<p>Bereit?</p>","key_press":32,"trial_type":"html-keyboard-response","trial_index":231,"time_elapsed":543202,"internal_node_id":"0.0-8.0-0.56","subject":"t6whu9c3anq2hpo","sona":"8698"},{"rt":null,"stimulus":"<div style=\"font-size:60px;\">+</div>","key_press":null,"trial_type":"html-keyboard-response","trial_index":232,"time_elapsed":545228,"internal_node_id":"0.0-8.0-1.56","subject":"t6whu9c3anq2hpo","sona":"8698"},{"trial_type":"turing-test","trial_index":233,"time_elapsed":550608,"internal_node_id":"0.0-8.0-2.56","subject":"t6whu9c3anq2hpo","sona":"8698"},{"rt":431.34999996982515,"stimulus":"<p>Welche Sequenz haben Sie als natürlicher empfunden?</p>","key_press":74,"test_part":"response","test_stimulus":{"position":1,"left":"bvh/vr_prediction_models/model(tmp)-dataset(return-bottle)-numprim(4)-hold(0)/final-lines.txt","right":"bvh/return-bottle-training0-lines.txt","att_check":false},"trial_type":"html-keyboard-response","trial_index":234,"time_elapsed":551050,"internal_node_id":"0.0-8.0-3.56","subject":"t6whu9c3anq2hpo","sona":"8698"},{"rt":319.2349999444559,"stimulus":"<p>Bereit?</p>","key_press":32,"trial_type":"html-keyboard-response","trial_index":235,"time_elapsed":551379,"internal_node_id":"0.0-8.0-0.57","subject":"t6whu9c3anq2hpo","sona":"8698"},{"rt":null,"stimulus":"<div style=\"font-size:60px;\">+</div>","key_press":null,"trial_type":"html-keyboard-response","trial_index":236,"time_elapsed":553400,"internal_node_id":"0.0-8.0-1.57","subject":"t6whu9c3anq2hpo","sona":"8698"},{"trial_type":"turing-test","trial_index":237,"time_elapsed":556925,"internal_node_id":"0.0-8.0-2.57","subject":"t6whu9c3anq2hpo","sona":"8698"},{"rt":498.64999996498227,"stimulus":"<p>Welche Sequenz haben Sie als natürlicher empfunden?</p>","key_press":74,"test_part":"response","test_stimulus":{"position":1,"left":"bvh/vr_prediction_models/model(dmp)-dataset(pass-bottle-hold)-npsi(10)-hold(3)/final-lines.txt","right":"bvh/pass-bottle-hold-training3-lines.txt","att_check":false},"trial_type":"html-keyboard-response","trial_index":238,"time_elapsed":557432,"internal_node_id":"0.0-8.0-3.57","subject":"t6whu9c3anq2hpo","sona":"8698"},{"rt":185.5050000594929,"stimulus":"<p>Bereit?</p>","key_press":32,"trial_type":"html-keyboard-response","trial_index":239,"time_elapsed":557627,"internal_node_id":"0.0-8.0-0.58","subject":"t6whu9c3anq2hpo","sona":"8698"},{"rt":null,"stimulus":"<div style=\"font-size:60px;\">+</div>","key_press":null,"trial_type":"html-keyboard-response","trial_index":240,"time_elapsed":559638,"internal_node_id":"0.0-8.0-1.58","subject":"t6whu9c3anq2hpo","sona":"8698"},{"trial_type":"turing-test","trial_index":241,"time_elapsed":565714,"internal_node_id":"0.0-8.0-2.58","subject":"t6whu9c3anq2hpo","sona":"8698"},{"rt":208.32000009249896,"stimulus":"<p>Welche Sequenz haben Sie als natürlicher empfunden?</p>","key_press":74,"test_part":"response","test_stimulus":{"position":1,"left":"bvh/vr_prediction_models/model(dmp)-dataset(return-bottle)-npsi(10)-hold(1)/final-lines.txt","right":"bvh/return-bottle-training1-lines.txt","att_check":false},"trial_type":"html-keyboard-response","trial_index":242,"time_elapsed":565936,"internal_node_id":"0.0-8.0-3.58","subject":"t6whu9c3anq2hpo","sona":"8698"},{"rt":212.17499999329448,"stimulus":"<p>Bereit?</p>","key_press":32,"trial_type":"html-keyboard-response","trial_index":243,"time_elapsed":566155,"internal_node_id":"0.0-8.0-0.59","subject":"t6whu9c3anq2hpo","sona":"8698"},{"rt":null,"stimulus":"<div style=\"font-size:60px;\">+</div>","key_press":null,"trial_type":"html-keyboard-response","trial_index":244,"time_elapsed":568169,"internal_node_id":"0.0-8.0-1.59","subject":"t6whu9c3anq2hpo","sona":"8698"},{"trial_type":"turing-test","trial_index":245,"time_elapsed":571648,"internal_node_id":"0.0-8.0-2.59","subject":"t6whu9c3anq2hpo","sona":"8698"},{"rt":250.76500000432134,"stimulus":"<p>Welche Sequenz haben Sie als natürlicher empfunden?</p>","key_press":74,"test_part":"response","test_stimulus":{"position":1,"left":"bvh/vr_prediction_models/model(dmp)-dataset(pass-bottle-hold)-npsi(10)-hold(3)/final-lines.txt","right":"bvh/pass-bottle-hold-training3-lines.txt","att_check":false},"trial_type":"html-keyboard-response","trial_index":246,"time_elapsed":571908,"internal_node_id":"0.0-8.0-3.59","subject":"t6whu9c3anq2hpo","sona":"8698"},{"rt":198.39999999385327,"stimulus":"<p>Bereit?</p>","key_press":32,"trial_type":"html-keyboard-response","trial_index":247,"time_elapsed":572115,"internal_node_id":"0.0-8.0-0.60","subject":"t6whu9c3anq2hpo","sona":"8698"},{"rt":null,"stimulus":"<div style=\"font-size:60px;\">+</div>","key_press":null,"trial_type":"html-keyboard-response","trial_index":248,"time_elapsed":574123,"internal_node_id":"0.0-8.0-1.60","subject":"t6whu9c3anq2hpo","sona":"8698"},{"trial_type":"turing-test","trial_index":249,"time_elapsed":577739,"internal_node_id":"0.0-8.0-2.60","subject":"t6whu9c3anq2hpo","sona":"8698"},{"rt":467.79000002425164,"stimulus":"<p>Welche Sequenz haben Sie als natürlicher empfunden?</p>","key_press":74,"test_part":"response","test_stimulus":{"position":0,"left":"bvh/pass-bottle-hold-training4-lines.txt","right":"bvh/vr_prediction_models/model(tmp)-dataset(pass-bottle-hold)-numprim(12)-hold(4)/final-lines.txt","att_check":false},"trial_type":"html-keyboard-response","trial_index":250,"time_elapsed":578216,"internal_node_id":"0.0-8.0-3.60","subject":"t6whu9c3anq2hpo","sona":"8698"},{"rt":222.18499996233732,"stimulus":"<p>Bereit?</p>","key_press":32,"trial_type":"html-keyboard-response","trial_index":251,"time_elapsed":578448,"internal_node_id":"0.0-8.0-0.61","subject":"t6whu9c3anq2hpo","sona":"8698"},{"rt":null,"stimulus":"<div style=\"font-size:60px;\">+</div>","key_press":null,"trial_type":"html-keyboard-response","trial_index":252,"time_elapsed":580463,"internal_node_id":"0.0-8.0-1.61","subject":"t6whu9c3anq2hpo","sona":"8698"},{"trial_type":"turing-test","trial_index":253,"time_elapsed":586171,"internal_node_id":"0.0-8.0-2.61","subject":"t6whu9c3anq2hpo","sona":"8698"},{"rt":313.14000010024756,"stimulus":"<p>Welche Sequenz haben Sie als natürlicher empfunden?</p>","key_press":70,"test_part":"response","test_stimulus":{"position":0,"left":"bvh/pass-bottle-training4-lines.txt","right":"bvh/vr_prediction_models/model(tmp)-dataset(pass-bottle)-numprim(8)-hold(4)/final-lines.txt","att_check":false},"trial_type":"html-keyboard-response","trial_index":254,"time_elapsed":586493,"internal_node_id":"0.0-8.0-3.61","subject":"t6whu9c3anq2hpo","sona":"8698"},{"rt":292.21500002313405,"stimulus":"<p>Bereit?</p>","key_press":32,"trial_type":"html-keyboard-response","trial_index":255,"time_elapsed":586796,"internal_node_id":"0.0-8.0-0.62","subject":"t6whu9c3anq2hpo","sona":"8698"},{"rt":null,"stimulus":"<div style=\"font-size:60px;\">+</div>","key_press":null,"trial_type":"html-keyboard-response","trial_index":256,"time_elapsed":588806,"internal_node_id":"0.0-8.0-1.62","subject":"t6whu9c3anq2hpo","sona":"8698"},{"trial_type":"turing-test","trial_index":257,"time_elapsed":593913,"internal_node_id":"0.0-8.0-2.62","subject":"t6whu9c3anq2hpo","sona":"8698"},{"rt":272.42000005207956,"stimulus":"<p>Welche Sequenz haben Sie als natürlicher empfunden?</p>","key_press":74,"test_part":"response","test_stimulus":{"position":1,"left":"bvh/vr_prediction_models/model(dmp)-dataset(return-bottle-hold)-npsi(10)-hold(0)/final-lines.txt","right":"bvh/return-bottle-hold-training0-lines.txt","att_check":false},"trial_type":"html-keyboard-response","trial_index":258,"time_elapsed":594195,"internal_node_id":"0.0-8.0-3.62","subject":"t6whu9c3anq2hpo","sona":"8698"},{"rt":180.9099999954924,"stimulus":"<p>Bereit?</p>","key_press":32,"trial_type":"html-keyboard-response","trial_index":259,"time_elapsed":594385,"internal_node_id":"0.0-8.0-0.63","subject":"t6whu9c3anq2hpo","sona":"8698"},{"rt":null,"stimulus":"<div style=\"font-size:60px;\">+</div>","key_press":null,"trial_type":"html-keyboard-response","trial_index":260,"time_elapsed":596409,"internal_node_id":"0.0-8.0-1.63","subject":"t6whu9c3anq2hpo","sona":"8698"},{"trial_type":"turing-test","trial_index":261,"time_elapsed":599717,"internal_node_id":"0.0-8.0-2.63","subject":"t6whu9c3anq2hpo","sona":"8698"},{"rt":301.0699999285862,"stimulus":"<p>Welche Sequenz haben Sie als natürlicher empfunden?</p>","key_press":74,"test_part":"response","test_stimulus":{"position":1,"left":"bvh/vr_prediction_models/model(vcgpdm)-dataset(pass-bottle-hold)-mode(ELBO)-parts(1)-dyn(35)-lvm(30)-hold(1)/final-lines.txt","right":"bvh/pass-bottle-hold-training1-lines.txt","att_check":false},"trial_type":"html-keyboard-response","trial_index":262,"time_elapsed":600027,"internal_node_id":"0.0-8.0-3.63","subject":"t6whu9c3anq2hpo","sona":"8698"},{"rt":184.71499998122454,"stimulus":"<p>Bereit?</p>","key_press":32,"trial_type":"html-keyboard-response","trial_index":263,"time_elapsed":600217,"internal_node_id":"0.0-8.0-0.64","subject":"t6whu9c3anq2hpo","sona":"8698"},{"rt":null,"stimulus":"<div style=\"font-size:60px;\">+</div>","key_press":null,"trial_type":"html-keyboard-response","trial_index":264,"time_elapsed":602238,"internal_node_id":"0.0-8.0-1.64","subject":"t6whu9c3anq2hpo","sona":"8698"},{"trial_type":"turing-test","trial_index":265,"time_elapsed":608138,"internal_node_id":"0.0-8.0-2.64","subject":"t6whu9c3anq2hpo","sona":"8698"},{"rt":204.88500001374632,"stimulus":"<p>Welche Sequenz haben Sie als natürlicher empfunden?</p>","key_press":74,"test_part":"response","test_stimulus":{"position":1,"left":"bvh/vr_prediction_models/model(vcgpdm)-dataset(return-bottle)-mode(ELBO)-parts(3)-dyn(10)-lvm(25)-hold(4)/final-lines.txt","right":"bvh/return-bottle-training4-lines.txt","att_check":false},"trial_type":"html-keyboard-response","trial_index":266,"time_elapsed":608353,"internal_node_id":"0.0-8.0-3.64","subject":"t6whu9c3anq2hpo","sona":"8698"},{"rt":173.3999999705702,"stimulus":"<p>Bereit?</p>","key_press":32,"trial_type":"html-keyboard-response","trial_index":267,"time_elapsed":608534,"internal_node_id":"0.0-8.0-0.65","subject":"t6whu9c3anq2hpo","sona":"8698"},{"rt":null,"stimulus":"<div style=\"font-size:60px;\">+</div>","key_press":null,"trial_type":"html-keyboard-response","trial_index":268,"time_elapsed":610552,"internal_node_id":"0.0-8.0-1.65","subject":"t6whu9c3anq2hpo","sona":"8698"},{"trial_type":"turing-test","trial_index":269,"time_elapsed":616369,"internal_node_id":"0.0-8.0-2.65","subject":"t6whu9c3anq2hpo","sona":"8698"},{"rt":288.315000012517,"stimulus":"<p>Welche Sequenz haben Sie als natürlicher empfunden?</p>","key_press":70,"test_part":"response","test_stimulus":{"position":0,"left":"bvh/pass-bottle-training3-lines.txt","right":"bvh/vr_prediction_models/model(dmp)-dataset(pass-bottle)-npsi(70)-hold(3)/final-lines.txt","att_check":true},"trial_type":"html-keyboard-response","trial_index":270,"time_elapsed":616664,"internal_node_id":"0.0-8.0-3.65","subject":"t6whu9c3anq2hpo","sona":"8698"},{"rt":168.669999926351,"stimulus":"<p>Bereit?</p>","key_press":32,"trial_type":"html-keyboard-response","trial_index":271,"time_elapsed":616837,"internal_node_id":"0.0-8.0-0.66","subject":"t6whu9c3anq2hpo","sona":"8698"},{"rt":null,"stimulus":"<div style=\"font-size:60px;\">+</div>","key_press":null,"trial_type":"html-keyboard-response","trial_index":272,"time_elapsed":618851,"internal_node_id":"0.0-8.0-1.66","subject":"t6whu9c3anq2hpo","sona":"8698"},{"trial_type":"turing-test","trial_index":273,"time_elapsed":624801,"internal_node_id":"0.0-8.0-2.66","subject":"t6whu9c3anq2hpo","sona":"8698"},{"rt":201.04499999433756,"stimulus":"<p>Welche Sequenz haben Sie als natürlicher empfunden?</p>","key_press":74,"test_part":"response","test_stimulus":{"position":1,"left":"bvh/vr_prediction_models/model(vcgpdm)-dataset(pass-bottle)-mode(ELBO)-parts(1)-dyn(20)-lvm(20)-hold(3)/final-lines.txt","right":"bvh/pass-bottle-training3-lines.txt","att_check":false},"trial_type":"html-keyboard-response","trial_index":274,"time_elapsed":625014,"internal_node_id":"0.0-8.0-3.66","subject":"t6whu9c3anq2hpo","sona":"8698"},{"rt":205.7799999602139,"stimulus":"<p>Bereit?</p>","key_press":32,"trial_type":"html-keyboard-response","trial_index":275,"time_elapsed":625228,"internal_node_id":"0.0-8.0-0.67","subject":"t6whu9c3anq2hpo","sona":"8698"},{"rt":null,"stimulus":"<div style=\"font-size:60px;\">+</div>","key_press":null,"trial_type":"html-keyboard-response","trial_index":276,"time_elapsed":627237,"internal_node_id":"0.0-8.0-1.67","subject":"t6whu9c3anq2hpo","sona":"8698"},{"trial_type":"turing-test","trial_index":277,"time_elapsed":631041,"internal_node_id":"0.0-8.0-2.67","subject":"t6whu9c3anq2hpo","sona":"8698"},{"rt":262.42000004276633,"stimulus":"<p>Welche Sequenz haben Sie als natürlicher empfunden?</p>","key_press":70,"test_part":"response","test_stimulus":{"position":0,"left":"bvh/pass-bottle-hold-training4-lines.txt","right":"bvh/vr_prediction_models/model(vcgpdm)-dataset(pass-bottle-hold)-mode(ELBO)-parts(3)-dyn(35)-lvm(20)-hold(4)/final-lines.txt","att_check":false},"trial_type":"html-keyboard-response","trial_index":278,"time_elapsed":631314,"internal_node_id":"0.0-8.0-3.67","subject":"t6whu9c3anq2hpo","sona":"8698"},{"rt":178.27500007115304,"stimulus":"<p>Bereit?</p>","key_press":32,"trial_type":"html-keyboard-response","trial_index":279,"time_elapsed":631500,"internal_node_id":"0.0-8.0-0.68","subject":"t6whu9c3anq2hpo","sona":"8698"},{"rt":null,"stimulus":"<div style=\"font-size:60px;\">+</div>","key_press":null,"trial_type":"html-keyboard-response","trial_index":280,"time_elapsed":633515,"internal_node_id":"0.0-8.0-1.68","subject":"t6whu9c3anq2hpo","sona":"8698"},{"trial_type":"turing-test","trial_index":281,"time_elapsed":637383,"internal_node_id":"0.0-8.0-2.68","subject":"t6whu9c3anq2hpo","sona":"8698"},{"rt":196.82499999180436,"stimulus":"<p>Welche Sequenz haben Sie als natürlicher empfunden?</p>","key_press":74,"test_part":"response","test_stimulus":{"position":0,"left":"bvh/return-bottle-hold-training3-lines.txt","right":"bvh/vr_prediction_models/model(vcgpdm)-dataset(return-bottle-hold)-mode(MAP)-parts(3)-hold(3)/final-lines.txt","att_check":false},"trial_type":"html-keyboard-response","trial_index":282,"time_elapsed":637591,"internal_node_id":"0.0-8.0-3.68","subject":"t6whu9c3anq2hpo","sona":"8698"},{"rt":227.71500004455447,"stimulus":"<p>Bereit?</p>","key_press":32,"trial_type":"html-keyboard-response","trial_index":283,"time_elapsed":637826,"internal_node_id":"0.0-8.0-0.69","subject":"t6whu9c3anq2hpo","sona":"8698"},{"rt":null,"stimulus":"<div style=\"font-size:60px;\">+</div>","key_press":null,"trial_type":"html-keyboard-response","trial_index":284,"time_elapsed":639846,"internal_node_id":"0.0-8.0-1.69","subject":"t6whu9c3anq2hpo","sona":"8698"},{"trial_type":"turing-test","trial_index":285,"time_elapsed":645605,"internal_node_id":"0.0-8.0-2.69","subject":"t6whu9c3anq2hpo","sona":"8698"},{"rt":9.230000083334744,"stimulus":"<p>Welche Sequenz haben Sie als natürlicher empfunden?</p>","key_press":74,"test_part":"response","test_stimulus":{"position":1,"left":"bvh/vr_prediction_models/model(tmp)-dataset(pass-bottle)-numprim(11)-hold(4)/final-lines.txt","right":"bvh/pass-bottle-training4-lines.txt","att_check":false},"trial_type":"html-keyboard-response","trial_index":286,"time_elapsed":645627,"internal_node_id":"0.0-8.0-3.69","subject":"t6whu9c3anq2hpo","sona":"8698"},{"rt":848.1700000120327,"stimulus":"<p>Bereit?</p>","key_press":32,"trial_type":"html-keyboard-response","trial_index":287,"time_elapsed":646480,"internal_node_id":"0.0-8.0-0.70","subject":"t6whu9c3anq2hpo","sona":"8698"},{"rt":null,"stimulus":"<div style=\"font-size:60px;\">+</div>","key_press":null,"trial_type":"html-keyboard-response","trial_index":288,"time_elapsed":648490,"internal_node_id":"0.0-8.0-1.70","subject":"t6whu9c3anq2hpo","sona":"8698"},{"trial_type":"turing-test","trial_index":289,"time_elapsed":653919,"internal_node_id":"0.0-8.0-2.70","subject":"t6whu9c3anq2hpo","sona":"8698"},{"rt":298.75499999616295,"stimulus":"<p>Welche Sequenz haben Sie als natürlicher empfunden?</p>","key_press":74,"test_part":"response","test_stimulus":{"position":1,"left":"bvh/vr_prediction_models/model(vcgpdm)-dataset(return-bottle)-mode(ELBO)-parts(1)-dyn(10)-lvm(25)-hold(0)/final-lines.txt","right":"bvh/return-bottle-training0-lines.txt","att_check":false},"trial_type":"html-keyboard-response","trial_index":290,"time_elapsed":654227,"internal_node_id":"0.0-8.0-3.70","subject":"t6whu9c3anq2hpo","sona":"8698"},{"rt":203.52499990258366,"stimulus":"<p>Bereit?</p>","key_press":32,"trial_type":"html-keyboard-response","trial_index":291,"time_elapsed":654437,"internal_node_id":"0.0-8.0-0.71","subject":"t6whu9c3anq2hpo","sona":"8698"},{"rt":null,"stimulus":"<div style=\"font-size:60px;\">+</div>","key_press":null,"trial_type":"html-keyboard-response","trial_index":292,"time_elapsed":656450,"internal_node_id":"0.0-8.0-1.71","subject":"t6whu9c3anq2hpo","sona":"8698"},{"trial_type":"turing-test","trial_index":293,"time_elapsed":659769,"internal_node_id":"0.0-8.0-2.71","subject":"t6whu9c3anq2hpo","sona":"8698"},{"rt":699.9000000068918,"stimulus":"<p>Welche Sequenz haben Sie als natürlicher empfunden?</p>","key_press":74,"test_part":"response","test_stimulus":{"position":0,"left":"bvh/return-bottle-hold-training1-lines.txt","right":"bvh/vr_prediction_models/model(dmp)-dataset(return-bottle-hold)-npsi(80)-hold(1)/final-lines.txt","att_check":false},"trial_type":"html-keyboard-response","trial_index":294,"time_elapsed":660477,"internal_node_id":"0.0-8.0-3.71","subject":"t6whu9c3anq2hpo","sona":"8698"},{"rt":175.38500006776303,"stimulus":"<p>Bereit?</p>","key_press":32,"trial_type":"html-keyboard-response","trial_index":295,"time_elapsed":660661,"internal_node_id":"0.0-8.0-0.72","subject":"t6whu9c3anq2hpo","sona":"8698"},{"rt":null,"stimulus":"<div style=\"font-size:60px;\">+</div>","key_press":null,"trial_type":"html-keyboard-response","trial_index":296,"time_elapsed":662668,"internal_node_id":"0.0-8.0-1.72","subject":"t6whu9c3anq2hpo","sona":"8698"},{"trial_type":"turing-test","trial_index":297,"time_elapsed":666274,"internal_node_id":"0.0-8.0-2.72","subject":"t6whu9c3anq2hpo","sona":"8698"},{"rt":257.12999992538244,"stimulus":"<p>Welche Sequenz haben Sie als natürlicher empfunden?</p>","key_press":74,"test_part":"response","test_stimulus":{"position":1,"left":"bvh/vr_prediction_models/model(tmp)-dataset(pass-bottle-hold)-numprim(5)-hold(4)/final-lines.txt","right":"bvh/pass-bottle-hold-training4-lines.txt","att_check":false},"trial_type":"html-keyboard-response","trial_index":298,"time_elapsed":666543,"internal_node_id":"0.0-8.0-3.72","subject":"t6whu9c3anq2hpo","sona":"8698"},{"rt":199.6999999973923,"stimulus":"<p>Bereit?</p>","key_press":32,"trial_type":"html-keyboard-response","trial_index":299,"time_elapsed":666752,"internal_node_id":"0.0-8.0-0.73","subject":"t6whu9c3anq2hpo","sona":"8698"},{"rt":null,"stimulus":"<div style=\"font-size:60px;\">+</div>","key_press":null,"trial_type":"html-keyboard-response","trial_index":300,"time_elapsed":668771,"internal_node_id":"0.0-8.0-1.73","subject":"t6whu9c3anq2hpo","sona":"8698"},{"trial_type":"turing-test","trial_index":301,"time_elapsed":672140,"internal_node_id":"0.0-8.0-2.73","subject":"t6whu9c3anq2hpo","sona":"8698"},{"rt":256.4049999928102,"stimulus":"<p>Welche Sequenz haben Sie als natürlicher empfunden?</p>","key_press":70,"test_part":"response","test_stimulus":{"position":0,"left":"bvh/pass-bottle-hold-training0-lines.txt","right":"bvh/vr_prediction_models/model(tmp)-dataset(pass-bottle-hold)-numprim(9)-hold(0)/final-lines.txt","att_check":false},"trial_type":"html-keyboard-response","trial_index":302,"time_elapsed":672407,"internal_node_id":"0.0-8.0-3.73","subject":"t6whu9c3anq2hpo","sona":"8698"},{"rt":190.87500008754432,"stimulus":"<p>Bereit?</p>","key_press":32,"trial_type":"html-keyboard-response","trial_index":303,"time_elapsed":672605,"internal_node_id":"0.0-8.0-0.74","subject":"t6whu9c3anq2hpo","sona":"8698"},{"rt":null,"stimulus":"<div style=\"font-size:60px;\">+</div>","key_press":null,"trial_type":"html-keyboard-response","trial_index":304,"time_elapsed":674613,"internal_node_id":"0.0-8.0-1.74","subject":"t6whu9c3anq2hpo","sona":"8698"},{"trial_type":"turing-test","trial_index":305,"time_elapsed":678311,"internal_node_id":"0.0-8.0-2.74","subject":"t6whu9c3anq2hpo","sona":"8698"},{"rt":172.10500000510365,"stimulus":"<p>Welche Sequenz haben Sie als natürlicher empfunden?</p>","key_press":70,"test_part":"response","test_stimulus":{"position":0,"left":"bvh/pass-bottle-hold-training3-lines.txt","right":"bvh/vr_prediction_models/model(vcgpdm)-dataset(pass-bottle-hold)-mode(ELBO)-parts(1)-dyn(10)-lvm(30)-hold(3)/final-lines.txt","att_check":false},"trial_type":"html-keyboard-response","trial_index":306,"time_elapsed":678493,"internal_node_id":"0.0-8.0-3.74","subject":"t6whu9c3anq2hpo","sona":"8698"},{"rt":161.57499991822988,"stimulus":"<p>Bereit?</p>","key_press":32,"trial_type":"html-keyboard-response","trial_index":307,"time_elapsed":678662,"internal_node_id":"0.0-8.0-0.75","subject":"t6whu9c3anq2hpo","sona":"8698"},{"rt":null,"stimulus":"<div style=\"font-size:60px;\">+</div>","key_press":null,"trial_type":"html-keyboard-response","trial_index":308,"time_elapsed":680679,"internal_node_id":"0.0-8.0-1.75","subject":"t6whu9c3anq2hpo","sona":"8698"},{"trial_type":"turing-test","trial_index":309,"time_elapsed":686498,"internal_node_id":"0.0-8.0-2.75","subject":"t6whu9c3anq2hpo","sona":"8698"},{"rt":214.864999987185,"stimulus":"<p>Welche Sequenz haben Sie als natürlicher empfunden?</p>","key_press":70,"test_part":"response","test_stimulus":{"position":0,"left":"bvh/return-bottle-training3-lines.txt","right":"bvh/vr_prediction_models/model(dmp)-dataset(return-bottle)-npsi(60)-hold(3)/final-lines.txt","att_check":false},"trial_type":"html-keyboard-response","trial_index":310,"time_elapsed":686727,"internal_node_id":"0.0-8.0-3.75","subject":"t6whu9c3anq2hpo","sona":"8698"},{"rt":216.06500004418194,"stimulus":"<p>Bereit?</p>","key_press":32,"trial_type":"html-keyboard-response","trial_index":311,"time_elapsed":686951,"internal_node_id":"0.0-8.0-0.76","subject":"t6whu9c3anq2hpo","sona":"8698"},{"rt":null,"stimulus":"<div style=\"font-size:60px;\">+</div>","key_press":null,"trial_type":"html-keyboard-response","trial_index":312,"time_elapsed":688975,"internal_node_id":"0.0-8.0-1.76","subject":"t6whu9c3anq2hpo","sona":"8698"},{"trial_type":"turing-test","trial_index":313,"time_elapsed":695612,"internal_node_id":"0.0-8.0-2.76","subject":"t6whu9c3anq2hpo","sona":"8698"},{"rt":271.85999997891486,"stimulus":"<p>Welche Sequenz haben Sie als natürlicher empfunden?</p>","key_press":74,"test_part":"response","test_stimulus":{"position":1,"left":"bvh/vr_prediction_models/model(vcgpdm)-dataset(return-bottle)-mode(ELBO)-parts(3)-dyn(10)-lvm(10)-hold(2)/final-lines.txt","right":"bvh/return-bottle-training2-lines.txt","att_check":false},"trial_type":"html-keyboard-response","trial_index":314,"time_elapsed":695894,"internal_node_id":"0.0-8.0-3.76","subject":"t6whu9c3anq2hpo","sona":"8698"},{"rt":245.21500000264496,"stimulus":"<p>Bereit?</p>","key_press":32,"trial_type":"html-keyboard-response","trial_index":315,"time_elapsed":696148,"internal_node_id":"0.0-8.0-0.77","subject":"t6whu9c3anq2hpo","sona":"8698"},{"rt":null,"stimulus":"<div style=\"font-size:60px;\">+</div>","key_press":null,"trial_type":"html-keyboard-response","trial_index":316,"time_elapsed":698177,"internal_node_id":"0.0-8.0-1.77","subject":"t6whu9c3anq2hpo","sona":"8698"},{"trial_type":"turing-test","trial_index":317,"time_elapsed":705038,"internal_node_id":"0.0-8.0-2.77","subject":"t6whu9c3anq2hpo","sona":"8698"},{"rt":282.0200000423938,"stimulus":"<p>Welche Sequenz haben Sie als natürlicher empfunden?</p>","key_press":70,"test_part":"response","test_stimulus":{"position":0,"left":"bvh/return-bottle-training2-lines.txt","right":"bvh/vr_prediction_models/model(vcgpdm)-dataset(return-bottle)-mode(ELBO)-parts(3)-dyn(20)-lvm(15)-hold(2)/final-lines.txt","att_check":false},"trial_type":"html-keyboard-response","trial_index":318,"time_elapsed":705331,"internal_node_id":"0.0-8.0-3.77","subject":"t6whu9c3anq2hpo","sona":"8698"},{"rt":198.8049999345094,"stimulus":"<p>Bereit?</p>","key_press":32,"trial_type":"html-keyboard-response","trial_index":319,"time_elapsed":705541,"internal_node_id":"0.0-8.0-0.78","subject":"t6whu9c3anq2hpo","sona":"8698"},{"rt":null,"stimulus":"<div style=\"font-size:60px;\">+</div>","key_press":null,"trial_type":"html-keyboard-response","trial_index":320,"time_elapsed":707561,"internal_node_id":"0.0-8.0-1.78","subject":"t6whu9c3anq2hpo","sona":"8698"},{"trial_type":"turing-test","trial_index":321,"time_elapsed":711027,"internal_node_id":"0.0-8.0-2.78","subject":"t6whu9c3anq2hpo","sona":"8698"},{"rt":281.9700000109151,"stimulus":"<p>Welche Sequenz haben Sie als natürlicher empfunden?</p>","key_press":74,"test_part":"response","test_stimulus":{"position":1,"left":"bvh/vr_prediction_models/model(vcgpdm)-dataset(pass-bottle-hold)-mode(ELBO)-parts(3)-dyn(20)-lvm(15)-hold(0)/final-lines.txt","right":"bvh/pass-bottle-hold-training0-lines.txt","att_check":false},"trial_type":"html-keyboard-response","trial_index":322,"time_elapsed":711319,"internal_node_id":"0.0-8.0-3.78","subject":"t6whu9c3anq2hpo","sona":"8698"},{"rt":190.1800000341609,"stimulus":"<p>Bereit?</p>","key_press":32,"trial_type":"html-keyboard-response","trial_index":323,"time_elapsed":711516,"internal_node_id":"0.0-8.0-0.79","subject":"t6whu9c3anq2hpo","sona":"8698"},{"rt":null,"stimulus":"<div style=\"font-size:60px;\">+</div>","key_press":null,"trial_type":"html-keyboard-response","trial_index":324,"time_elapsed":713537,"internal_node_id":"0.0-8.0-1.79","subject":"t6whu9c3anq2hpo","sona":"8698"},{"trial_type":"turing-test","trial_index":325,"time_elapsed":716986,"internal_node_id":"0.0-8.0-2.79","subject":"t6whu9c3anq2hpo","sona":"8698"},{"rt":316.3949999725446,"stimulus":"<p>Welche Sequenz haben Sie als natürlicher empfunden?</p>","key_press":70,"test_part":"response","test_stimulus":{"position":0,"left":"bvh/return-bottle-hold-training2-lines.txt","right":"bvh/vr_prediction_models/model(tmp)-dataset(return-bottle-hold)-numprim(11)-hold(2)/final-lines.txt","att_check":false},"trial_type":"html-keyboard-response","trial_index":326,"time_elapsed":717312,"internal_node_id":"0.0-8.0-3.79","subject":"t6whu9c3anq2hpo","sona":"8698"},{"rt":6730.115000042133,"responses":"{\"age\":\" 26\",\"gender\":\"weiblich\"}","trial_type":"survey-text","trial_index":327,"time_elapsed":724066,"internal_node_id":"0.0-10.0-0.0","subject":"t6whu9c3anq2hpo","sona":"8698"},{"rt":101515.76999993995,"responses":"{\"area\":\"Hals, Rumpf, Beine \",\"Q1\":\"Künstlich sah es aus, wenn die Figur gedreht wurde, ohne, dass sich ein Körperteil mitbewegte, die Bewegungen nicht flüssig waren, Sich andere Körperteile der Bewegung nicht angepasst haben.\",\"Q2\":\"Die Drehung. Erstarrte Figuren oder nicht flüssige Bewegungen.\"}","trial_type":"survey-text","trial_index":328,"time_elapsed":825603,"internal_node_id":"0.0-10.0-1.0","subject":"t6whu9c3anq2hpo","sona":"8698"}]