[{"rt":2789.0299999999115,"stimulus":"<p>Welcome!<br> Please choose your language to start the experiment in the chosen language.</p><p>Willkommen!<br> Bitte wählen Sie eine Sprache, um das Experiment in der ausgewählten Sprache zu starten</p>","button_pressed":"1","trial_type":"html-button-response","trial_index":0,"time_elapsed":2825,"internal_node_id":"0.0-0.0","subject":"nsm7k5jh0a386nb","sona":"8890"},{"view_history":"[{\"page_index\":0,\"viewing_time\":7786.250000004657},{\"page_index\":1,\"viewing_time\":5029.159999998228},{\"page_index\":2,\"viewing_time\":7995.394999998098},{\"page_index\":3,\"viewing_time\":6349.739999997837},{\"page_index\":4,\"viewing_time\":2032.0500000016182}]","rt":29193.774999999732,"trial_type":"instructions","trial_index":1,"time_elapsed":32020,"internal_node_id":"0.0-1.0-0.0","subject":"nsm7k5jh0a386nb","sona":"8890"},{"rt":2316.050000001269,"stimulus":"<p>Bereit?</p>","key_press":32,"trial_type":"html-keyboard-response","trial_index":2,"time_elapsed":34339,"internal_node_id":"0.0-3.0","subject":"nsm7k5jh0a386nb","sona":"8890"},{"rt":null,"stimulus":"<div style=\"font-size:60px;\">+</div>","key_press":null,"trial_type":"html-keyboard-response","trial_index":3,"time_elapsed":36341,"internal_node_id":"0.0-4.0","subject":"nsm7k5jh0a386nb","sona":"8890"},{"trial_type":"training","trial_index":4,"time_elapsed":40229,"internal_node_id":"0.0-5.0","subject":"nsm7k5jh0a386nb","sona":"8890"},{"rt":2480.295000001206,"stimulus":"<p>Welche Sequenz haben Sie als natürlicher empfunden?</p>","key_press":70,"trial_type":"html-keyboard-response","trial_index":5,"time_elapsed":42712,"internal_node_id":"0.0-6.0","subject":"nsm7k5jh0a386nb","sona":"8890"},{"rt":8186.825000004319,"stimulus":"<p>Das Experiment startet nun.</p><p><small>Bitte drücken Sie den Knopf, wenn Sie bereit sind.</small></p>","button_pressed":"0","trial_type":"html-button-response","trial_index":6,"time_elapsed":50900,"internal_node_id":"0.0-7.0","subject":"nsm7k5jh0a386nb","sona":"8890"},{"rt":2753.1650000019,"stimulus":"<p>Bereit?</p>","key_press":32,"trial_type":"html-keyboard-response","trial_index":7,"time_elapsed":53655,"internal_node_id":"0.0-8.0-0.0","subject":"nsm7k5jh0a386nb","sona":"8890"},{"rt":null,"stimulus":"<div style=\"font-size:60px;\">+</div>","key_press":null,"trial_type":"html-keyboard-response","trial_index":8,"time_elapsed":55661,"internal_node_id":"0.0-8.0-1.0","subject":"nsm7k5jh0a386nb","sona":"8890"},{"trial_type":"turing-test","trial_index":9,"time_elapsed":59157,"internal_node_id":"0.0-8.0-2.0","subject":"nsm7k5jh0a386nb","sona":"8890"},{"rt":709.7549999962212,"stimulus":"<p>Welche Sequenz haben Sie als natürlicher empfunden?</p>","key_press":74,"test_part":"response","test_stimulus":{"position":0,"left":"bvh/pass-bottle-hold-training0-lines.txt","right":"bvh/vr_prediction_models/model(dmp)-dataset(pass-bottle-hold)-npsi(90)-hold(0)/final-lines.txt","att_check":false},"trial_type":"html-keyboard-response","trial_index":10,"time_elapsed":59872,"internal_node_id":"0.0-8.0-3.0","subject":"nsm7k5jh0a386nb","sona":"8890"},{"rt":1256.0349999985192,"stimulus":"<p>Bereit?</p>","key_press":32,"trial_type":"html-keyboard-response","trial_index":11,"time_elapsed":61130,"internal_node_id":"0.0-8.0-0.1","subject":"nsm7k5jh0a386nb","sona":"8890"},{"rt":null,"stimulus":"<div style=\"font-size:60px;\">+</div>","key_press":null,"trial_type":"html-keyboard-response","trial_index":12,"time_elapsed":63133,"internal_node_id":"0.0-8.0-1.1","subject":"nsm7k5jh0a386nb","sona":"8890"},{"trial_type":"turing-test","trial_index":13,"time_elapsed":71205,"internal_node_id":"0.0-8.0-2.1","subject":"nsm7k5jh0a386nb","sona":"8890"},{"rt":813.4649999992689,"stimulus":"<p>Welche Sequenz haben Sie als natürlicher empfunden?</p>","key_press":74,"test_part":"response","test_stimulus":{"position":1,"left":"bvh/vr_prediction_models/model(vcgpdm)-dataset(pass-bottle)-mode(ELBO)-parts(3)-dyn(25)-lvm(15)-hold(1)/final-lines.txt","right":"bvh/pass-bottle-training1-lines.txt","att_check":false},"trial_type":"html-keyboard-response","trial_index":14,"time_elapsed":72028,"internal_node_id":"0.0-8.0-3.1","subject":"nsm7k5jh0a386nb","sona":"8890"},{"rt":1620.0000000026193,"stimulus":"<p>Bereit?</p>","key_press":32,"trial_type":"html-keyboard-response","trial_index":15,"time_elapsed":73652,"internal_node_id":"0.0-8.0-0.2","subject":"nsm7k5jh0a386nb","sona":"8890"},{"rt":null,"stimulus":"<div style=\"font-size:60px;\">+</div>","key_press":null,"trial_type":"html-keyboard-response","trial_index":16,"time_elapsed":75655,"internal_node_id":"0.0-8.0-1.2","subject":"nsm7k5jh0a386nb","sona":"8890"},{"trial_type":"turing-test","trial_index":17,"time_elapsed":81420,"internal_node_id":"0.0-8.0-2.2","subject":"nsm7k5jh0a386nb","sona":"8890"},{"rt":907.0750000028056,"stimulus":"<p>Welche Sequenz haben Sie als natürlicher empfunden?</p>","key_press":74,"test_part":"response","test_stimulus":{"position":1,"left":"bvh/vr_prediction_models/model(vcgpdm)-dataset(pass-bottle-hold)-mode(ELBO)-parts(3)-dyn(30)-lvm(15)-hold(1)/final-lines.txt","right":"bvh/pass-bottle-hold-training1-lines.txt","att_check":false},"trial_type":"html-keyboard-response","trial_index":18,"time_elapsed":82338,"internal_node_id":"0.0-8.0-3.2","subject":"nsm7k5jh0a386nb","sona":"8890"},{"rt":1397.0699999990757,"stimulus":"<p>Bereit?</p>","key_press":32,"trial_type":"html-keyboard-response","trial_index":19,"time_elapsed":83739,"internal_node_id":"0.0-8.0-0.3","subject":"nsm7k5jh0a386nb","sona":"8890"},{"rt":null,"stimulus":"<div style=\"font-size:60px;\">+</div>","key_press":null,"trial_type":"html-keyboard-response","trial_index":20,"time_elapsed":85744,"internal_node_id":"0.0-8.0-1.3","subject":"nsm7k5jh0a386nb","sona":"8890"},{"trial_type":"turing-test","trial_index":21,"time_elapsed":91916,"internal_node_id":"0.0-8.0-2.3","subject":"nsm7k5jh0a386nb","sona":"8890"},{"rt":526.4249999963795,"stimulus":"<p>Welche Sequenz haben Sie als natürlicher empfunden?</p>","key_press":70,"test_part":"response","test_stimulus":{"position":0,"left":"bvh/pass-bottle-hold-training4-lines.txt","right":"bvh/vr_prediction_models/model(vcgpdm)-dataset(pass-bottle-hold)-mode(ELBO)-parts(1)-dyn(20)-lvm(5)-hold(4)/final-lines.txt","att_check":false},"trial_type":"html-keyboard-response","trial_index":22,"time_elapsed":92449,"internal_node_id":"0.0-8.0-3.3","subject":"nsm7k5jh0a386nb","sona":"8890"},{"rt":1010.3850000014063,"stimulus":"<p>Bereit?</p>","key_press":32,"trial_type":"html-keyboard-response","trial_index":23,"time_elapsed":93464,"internal_node_id":"0.0-8.0-0.4","subject":"nsm7k5jh0a386nb","sona":"8890"},{"rt":null,"stimulus":"<div style=\"font-size:60px;\">+</div>","key_press":null,"trial_type":"html-keyboard-response","trial_index":24,"time_elapsed":95466,"internal_node_id":"0.0-8.0-1.4","subject":"nsm7k5jh0a386nb","sona":"8890"},{"trial_type":"turing-test","trial_index":25,"time_elapsed":103469,"internal_node_id":"0.0-8.0-2.4","subject":"nsm7k5jh0a386nb","sona":"8890"},{"rt":1258.045000002312,"stimulus":"<p>Welche Sequenz haben Sie als natürlicher empfunden?</p>","key_press":74,"test_part":"response","test_stimulus":{"position":1,"left":"bvh/vr_prediction_models/model(vcgpdm)-dataset(return-bottle)-mode(MAP)-parts(1)-hold(0)/final-lines.txt","right":"bvh/return-bottle-training0-lines.txt","att_check":false},"trial_type":"html-keyboard-response","trial_index":26,"time_elapsed":104735,"internal_node_id":"0.0-8.0-3.4","subject":"nsm7k5jh0a386nb","sona":"8890"},{"rt":744.8250000015832,"stimulus":"<p>Bereit?</p>","key_press":32,"trial_type":"html-keyboard-response","trial_index":27,"time_elapsed":105491,"internal_node_id":"0.0-8.0-0.5","subject":"nsm7k5jh0a386nb","sona":"8890"},{"rt":null,"stimulus":"<div style=\"font-size:60px;\">+</div>","key_press":null,"trial_type":"html-keyboard-response","trial_index":28,"time_elapsed":107494,"internal_node_id":"0.0-8.0-1.5","subject":"nsm7k5jh0a386nb","sona":"8890"},{"trial_type":"turing-test","trial_index":29,"time_elapsed":114266,"internal_node_id":"0.0-8.0-2.5","subject":"nsm7k5jh0a386nb","sona":"8890"},{"rt":1176.0299999950803,"stimulus":"<p>Welche Sequenz haben Sie als natürlicher empfunden?</p>","key_press":74,"test_part":"response","test_stimulus":{"position":1,"left":"bvh/vr_prediction_models/model(tmp)-dataset(return-bottle)-numprim(3)-hold(1)/final-lines.txt","right":"bvh/return-bottle-training1-lines.txt","att_check":false},"trial_type":"html-keyboard-response","trial_index":30,"time_elapsed":115451,"internal_node_id":"0.0-8.0-3.5","subject":"nsm7k5jh0a386nb","sona":"8890"},{"rt":587.7249999975902,"stimulus":"<p>Bereit?</p>","key_press":32,"trial_type":"html-keyboard-response","trial_index":31,"time_elapsed":116050,"internal_node_id":"0.0-8.0-0.6","subject":"nsm7k5jh0a386nb","sona":"8890"},{"rt":null,"stimulus":"<div style=\"font-size:60px;\">+</div>","key_press":null,"trial_type":"html-keyboard-response","trial_index":32,"time_elapsed":118055,"internal_node_id":"0.0-8.0-1.6","subject":"nsm7k5jh0a386nb","sona":"8890"},{"trial_type":"turing-test","trial_index":33,"time_elapsed":123858,"internal_node_id":"0.0-8.0-2.6","subject":"nsm7k5jh0a386nb","sona":"8890"},{"rt":634.5100000035018,"stimulus":"<p>Welche Sequenz haben Sie als natürlicher empfunden?</p>","key_press":74,"test_part":"response","test_stimulus":{"position":1,"left":"bvh/vr_prediction_models/model(vcgpdm)-dataset(pass-bottle-hold)-mode(ELBO)-parts(1)-dyn(30)-lvm(35)-hold(2)/final-lines.txt","right":"bvh/pass-bottle-hold-training2-lines.txt","att_check":false},"trial_type":"html-keyboard-response","trial_index":34,"time_elapsed":124501,"internal_node_id":"0.0-8.0-3.6","subject":"nsm7k5jh0a386nb","sona":"8890"},{"rt":612.6250000015716,"stimulus":"<p>Bereit?</p>","key_press":32,"trial_type":"html-keyboard-response","trial_index":35,"time_elapsed":125122,"internal_node_id":"0.0-8.0-0.7","subject":"nsm7k5jh0a386nb","sona":"8890"},{"rt":null,"stimulus":"<div style=\"font-size:60px;\">+</div>","key_press":null,"trial_type":"html-keyboard-response","trial_index":36,"time_elapsed":127125,"internal_node_id":"0.0-8.0-1.7","subject":"nsm7k5jh0a386nb","sona":"8890"},{"trial_type":"turing-test","trial_index":37,"time_elapsed":130921,"internal_node_id":"0.0-8.0-2.7","subject":"nsm7k5jh0a386nb","sona":"8890"},{"rt":700.0150000021677,"stimulus":"<p>Welche Sequenz haben Sie als natürlicher empfunden?</p>","key_press":74,"test_part":"response","test_stimulus":{"position":0,"left":"bvh/pass-bottle-hold-training4-lines.txt","right":"bvh/vr_prediction_models/model(dmp)-dataset(pass-bottle-hold)-npsi(80)-hold(4)/final-lines.txt","att_check":false},"trial_type":"html-keyboard-response","trial_index":38,"time_elapsed":131632,"internal_node_id":"0.0-8.0-3.7","subject":"nsm7k5jh0a386nb","sona":"8890"},{"rt":450.539999998,"stimulus":"<p>Bereit?</p>","key_press":32,"trial_type":"html-keyboard-response","trial_index":39,"time_elapsed":132093,"internal_node_id":"0.0-8.0-0.8","subject":"nsm7k5jh0a386nb","sona":"8890"},{"rt":null,"stimulus":"<div style=\"font-size:60px;\">+</div>","key_press":null,"trial_type":"html-keyboard-response","trial_index":40,"time_elapsed":134096,"internal_node_id":"0.0-8.0-1.8","subject":"nsm7k5jh0a386nb","sona":"8890"},{"trial_type":"turing-test","trial_index":41,"time_elapsed":143499,"internal_node_id":"0.0-8.0-2.8","subject":"nsm7k5jh0a386nb","sona":"8890"},{"rt":636.7250000039348,"stimulus":"<p>Welche Sequenz haben Sie als natürlicher empfunden?</p>","key_press":70,"test_part":"response","test_stimulus":{"position":0,"left":"bvh/pass-bottle-training0-lines.txt","right":"bvh/vr_prediction_models/model(vcgpdm)-dataset(pass-bottle)-mode(ELBO)-parts(1)-dyn(10)-lvm(30)-hold(0)/final-lines.txt","att_check":false},"trial_type":"html-keyboard-response","trial_index":42,"time_elapsed":144145,"internal_node_id":"0.0-8.0-3.8","subject":"nsm7k5jh0a386nb","sona":"8890"},{"rt":589.1149999952177,"stimulus":"<p>Bereit?</p>","key_press":32,"trial_type":"html-keyboard-response","trial_index":43,"time_elapsed":144739,"internal_node_id":"0.0-8.0-0.9","subject":"nsm7k5jh0a386nb","sona":"8890"},{"rt":null,"stimulus":"<div style=\"font-size:60px;\">+</div>","key_press":null,"trial_type":"html-keyboard-response","trial_index":44,"time_elapsed":146743,"internal_node_id":"0.0-8.0-1.9","subject":"nsm7k5jh0a386nb","sona":"8890"},{"trial_type":"turing-test","trial_index":45,"time_elapsed":152902,"internal_node_id":"0.0-8.0-2.9","subject":"nsm7k5jh0a386nb","sona":"8890"},{"rt":350.20999999687774,"stimulus":"<p>Welche Sequenz haben Sie als natürlicher empfunden?</p>","key_press":74,"test_part":"response","test_stimulus":{"position":1,"left":"bvh/vr_prediction_models/model(vcgpdm)-dataset(return-bottle-hold)-mode(ELBO)-parts(1)-dyn(20)-lvm(5)-hold(3)/final-lines.txt","right":"bvh/return-bottle-hold-training3-lines.txt","att_check":false},"trial_type":"html-keyboard-response","trial_index":46,"time_elapsed":153261,"internal_node_id":"0.0-8.0-3.9","subject":"nsm7k5jh0a386nb","sona":"8890"},{"rt":697.6050000012037,"stimulus":"<p>Bereit?</p>","key_press":32,"trial_type":"html-keyboard-response","trial_index":47,"time_elapsed":153964,"internal_node_id":"0.0-8.0-0.10","subject":"nsm7k5jh0a386nb","sona":"8890"},{"rt":null,"stimulus":"<div style=\"font-size:60px;\">+</div>","key_press":null,"trial_type":"html-keyboard-response","trial_index":48,"time_elapsed":155967,"internal_node_id":"0.0-8.0-1.10","subject":"nsm7k5jh0a386nb","sona":"8890"},{"trial_type":"turing-test","trial_index":49,"time_elapsed":164308,"internal_node_id":"0.0-8.0-2.10","subject":"nsm7k5jh0a386nb","sona":"8890"},{"rt":321.5399999971851,"stimulus":"<p>Welche Sequenz haben Sie als natürlicher empfunden?</p>","key_press":74,"test_part":"response","test_stimulus":{"position":1,"left":"bvh/vr_prediction_models/model(vcgpdm)-dataset(return-bottle)-mode(ELBO)-parts(3)-dyn(15)-lvm(30)-hold(3)/final-lines.txt","right":"bvh/return-bottle-training3-lines.txt","att_check":false},"trial_type":"html-keyboard-response","trial_index":50,"time_elapsed":164640,"internal_node_id":"0.0-8.0-3.10","subject":"nsm7k5jh0a386nb","sona":"8890"},{"rt":584.4450000004144,"stimulus":"<p>Bereit?</p>","key_press":32,"trial_type":"html-keyboard-response","trial_index":51,"time_elapsed":165232,"internal_node_id":"0.0-8.0-0.11","subject":"nsm7k5jh0a386nb","sona":"8890"},{"rt":null,"stimulus":"<div style=\"font-size:60px;\">+</div>","key_press":null,"trial_type":"html-keyboard-response","trial_index":52,"time_elapsed":167234,"internal_node_id":"0.0-8.0-1.11","subject":"nsm7k5jh0a386nb","sona":"8890"}]