[{"rt":3420.8350000008068,"stimulus":"<p>Welcome!<br> Please choose your language to start the experiment in the chosen language.</p><p>Willkommen!<br> Bitte wählen Sie eine Sprache, um das Experiment in der ausgewählten Sprache zu starten</p>","button_pressed":"1","trial_type":"html-button-response","trial_index":0,"time_elapsed":3442,"internal_node_id":"0.0-0.0","subject":"3ny96h3u3k8lyx1","sona":"7306"},{"view_history":"[{\"page_index\":0,\"viewing_time\":27960.135000001173},{\"page_index\":1,\"viewing_time\":2684.8599999993894},{\"page_index\":2,\"viewing_time\":11540.424999999232},{\"page_index\":3,\"viewing_time\":4969.74500000033},{\"page_index\":4,\"viewing_time\":2268.8749999997526}]","rt":49425.875000000815,"trial_type":"instructions","trial_index":1,"time_elapsed":52870,"internal_node_id":"0.0-1.0-0.0","subject":"3ny96h3u3k8lyx1","sona":"7306"},{"rt":1960.6149999999616,"stimulus":"<p>Bereit?</p>","key_press":32,"trial_type":"html-keyboard-response","trial_index":2,"time_elapsed":54834,"internal_node_id":"0.0-3.0","subject":"3ny96h3u3k8lyx1","sona":"7306"},{"rt":null,"stimulus":"<div style=\"font-size:60px;\">+</div>","key_press":null,"trial_type":"html-keyboard-response","trial_index":3,"time_elapsed":56852,"internal_node_id":"0.0-4.0","subject":"3ny96h3u3k8lyx1","sona":"7306"},{"trial_type":"training","trial_index":4,"time_elapsed":60287,"internal_node_id":"0.0-5.0","subject":"3ny96h3u3k8lyx1","sona":"7306"},{"rt":713.6499999996886,"stimulus":"<p>Welche Sequenz haben Sie als natürlicher empfunden?</p>","key_press":70,"trial_type":"html-keyboard-response","trial_index":5,"time_elapsed":61003,"internal_node_id":"0.0-6.0","subject":"3ny96h3u3k8lyx1","sona":"7306"},{"rt":1650.0550000000658,"stimulus":"<p>Das Experiment startet nun.</p><p><small>Bitte drücken Sie den Knopf, wenn Sie bereit sind.</small></p>","button_pressed":"0","trial_type":"html-button-response","trial_index":6,"time_elapsed":62656,"internal_node_id":"0.0-7.0","subject":"3ny96h3u3k8lyx1","sona":"7306"},{"rt":1333.7249999985943,"stimulus":"<p>Bereit?</p>","key_press":32,"trial_type":"html-keyboard-response","trial_index":7,"time_elapsed":63993,"internal_node_id":"0.0-8.0-0.0","subject":"3ny96h3u3k8lyx1","sona":"7306"},{"rt":null,"stimulus":"<div style=\"font-size:60px;\">+</div>","key_press":null,"trial_type":"html-keyboard-response","trial_index":8,"time_elapsed":66007,"internal_node_id":"0.0-8.0-1.0","subject":"3ny96h3u3k8lyx1","sona":"7306"},{"trial_type":"turing-test","trial_index":9,"time_elapsed":71852,"internal_node_id":"0.0-8.0-2.0","subject":"3ny96h3u3k8lyx1","sona":"7306"},{"rt":594.3650000008347,"stimulus":"<p>Welche Sequenz haben Sie als natürlicher empfunden?</p>","key_press":74,"test_part":"response","test_stimulus":{"position":0,"left":"bvh/return-bottle-training3-lines.txt","right":"bvh/vr_prediction_models/model(tmp)-dataset(return-bottle)-numprim(10)-hold(3)/final-lines.txt","att_check":false},"trial_type":"html-keyboard-response","trial_index":10,"time_elapsed":72452,"internal_node_id":"0.0-8.0-3.0","subject":"3ny96h3u3k8lyx1","sona":"7306"},{"rt":844.5799999990413,"stimulus":"<p>Bereit?</p>","key_press":32,"trial_type":"html-keyboard-response","trial_index":11,"time_elapsed":73301,"internal_node_id":"0.0-8.0-0.1","subject":"3ny96h3u3k8lyx1","sona":"7306"},{"rt":null,"stimulus":"<div style=\"font-size:60px;\">+</div>","key_press":null,"trial_type":"html-keyboard-response","trial_index":12,"time_elapsed":75312,"internal_node_id":"0.0-8.0-1.1","subject":"3ny96h3u3k8lyx1","sona":"7306"},{"trial_type":"turing-test","trial_index":13,"time_elapsed":81497,"internal_node_id":"0.0-8.0-2.1","subject":"3ny96h3u3k8lyx1","sona":"7306"},{"rt":379.7199999989971,"stimulus":"<p>Welche Sequenz haben Sie als natürlicher empfunden?</p>","key_press":70,"test_part":"response","test_stimulus":{"position":1,"left":"bvh/vr_prediction_models/model(dmp)-dataset(pass-bottle)-npsi(100)-hold(2)/final-lines.txt","right":"bvh/pass-bottle-training2-lines.txt","att_check":false},"trial_type":"html-keyboard-response","trial_index":14,"time_elapsed":81882,"internal_node_id":"0.0-8.0-3.1","subject":"3ny96h3u3k8lyx1","sona":"7306"},{"rt":803.3099999993283,"stimulus":"<p>Bereit?</p>","key_press":32,"trial_type":"html-keyboard-response","trial_index":15,"time_elapsed":82690,"internal_node_id":"0.0-8.0-0.2","subject":"3ny96h3u3k8lyx1","sona":"7306"},{"rt":null,"stimulus":"<div style=\"font-size:60px;\">+</div>","key_press":null,"trial_type":"html-keyboard-response","trial_index":16,"time_elapsed":84717,"internal_node_id":"0.0-8.0-1.2","subject":"3ny96h3u3k8lyx1","sona":"7306"},{"trial_type":"turing-test","trial_index":17,"time_elapsed":88167,"internal_node_id":"0.0-8.0-2.2","subject":"3ny96h3u3k8lyx1","sona":"7306"},{"rt":483.7950000001001,"stimulus":"<p>Welche Sequenz haben Sie als natürlicher empfunden?</p>","key_press":70,"test_part":"response","test_stimulus":{"position":0,"left":"bvh/pass-bottle-hold-training0-lines.txt","right":"bvh/vr_prediction_models/model(vcgpdm)-dataset(pass-bottle-hold)-mode(ELBO)-parts(3)-dyn(10)-lvm(30)-hold(0)/final-lines.txt","att_check":false},"trial_type":"html-keyboard-response","trial_index":18,"time_elapsed":88656,"internal_node_id":"0.0-8.0-3.2","subject":"3ny96h3u3k8lyx1","sona":"7306"},{"rt":891.379999999117,"stimulus":"<p>Bereit?</p>","key_press":32,"trial_type":"html-keyboard-response","trial_index":19,"time_elapsed":89552,"internal_node_id":"0.0-8.0-0.3","subject":"3ny96h3u3k8lyx1","sona":"7306"},{"rt":null,"stimulus":"<div style=\"font-size:60px;\">+</div>","key_press":null,"trial_type":"html-keyboard-response","trial_index":20,"time_elapsed":91578,"internal_node_id":"0.0-8.0-1.3","subject":"3ny96h3u3k8lyx1","sona":"7306"},{"trial_type":"turing-test","trial_index":21,"time_elapsed":97111,"internal_node_id":"0.0-8.0-2.3","subject":"3ny96h3u3k8lyx1","sona":"7306"},{"rt":425.9750000001077,"stimulus":"<p>Welche Sequenz haben Sie als natürlicher empfunden?</p>","key_press":70,"test_part":"response","test_stimulus":{"position":1,"left":"bvh/vr_prediction_models/model(vcgpdm)-dataset(pass-bottle)-mode(ELBO)-parts(3)-dyn(25)-lvm(25)-hold(1)/final-lines.txt","right":"bvh/pass-bottle-training1-lines.txt","att_check":false},"trial_type":"html-keyboard-response","trial_index":22,"time_elapsed":97544,"internal_node_id":"0.0-8.0-3.3","subject":"3ny96h3u3k8lyx1","sona":"7306"},{"rt":460.1649999985966,"stimulus":"<p>Bereit?</p>","key_press":32,"trial_type":"html-keyboard-response","trial_index":23,"time_elapsed":98009,"internal_node_id":"0.0-8.0-0.4","subject":"3ny96h3u3k8lyx1","sona":"7306"},{"rt":null,"stimulus":"<div style=\"font-size:60px;\">+</div>","key_press":null,"trial_type":"html-keyboard-response","trial_index":24,"time_elapsed":100047,"internal_node_id":"0.0-8.0-1.4","subject":"3ny96h3u3k8lyx1","sona":"7306"},{"trial_type":"turing-test","trial_index":25,"time_elapsed":103616,"internal_node_id":"0.0-8.0-2.4","subject":"3ny96h3u3k8lyx1","sona":"7306"},{"rt":381.1100000002625,"stimulus":"<p>Welche Sequenz haben Sie als natürlicher empfunden?</p>","key_press":70,"test_part":"response","test_stimulus":{"position":0,"left":"bvh/pass-bottle-hold-training3-lines.txt","right":"bvh/vr_prediction_models/model(dmp)-dataset(pass-bottle-hold)-npsi(20)-hold(3)/final-lines.txt","att_check":false},"trial_type":"html-keyboard-response","trial_index":26,"time_elapsed":104003,"internal_node_id":"0.0-8.0-3.4","subject":"3ny96h3u3k8lyx1","sona":"7306"},{"rt":403.40999999898486,"stimulus":"<p>Bereit?</p>","key_press":32,"trial_type":"html-keyboard-response","trial_index":27,"time_elapsed":104411,"internal_node_id":"0.0-8.0-0.5","subject":"3ny96h3u3k8lyx1","sona":"7306"},{"rt":null,"stimulus":"<div style=\"font-size:60px;\">+</div>","key_press":null,"trial_type":"html-keyboard-response","trial_index":28,"time_elapsed":106427,"internal_node_id":"0.0-8.0-1.5","subject":"3ny96h3u3k8lyx1","sona":"7306"},{"trial_type":"turing-test","trial_index":29,"time_elapsed":111856,"internal_node_id":"0.0-8.0-2.5","subject":"3ny96h3u3k8lyx1","sona":"7306"},{"rt":523.1199999998353,"stimulus":"<p>Welche Sequenz haben Sie als natürlicher empfunden?</p>","key_press":70,"test_part":"response","test_stimulus":{"position":1,"left":"bvh/vr_prediction_models/model(dmp)-dataset(pass-bottle)-npsi(90)-hold(1)/final-lines.txt","right":"bvh/pass-bottle-training1-lines.txt","att_check":false},"trial_type":"html-keyboard-response","trial_index":30,"time_elapsed":112386,"internal_node_id":"0.0-8.0-3.5","subject":"3ny96h3u3k8lyx1","sona":"7306"},{"rt":583.2900000004884,"stimulus":"<p>Bereit?</p>","key_press":32,"trial_type":"html-keyboard-response","trial_index":31,"time_elapsed":112973,"internal_node_id":"0.0-8.0-0.6","subject":"3ny96h3u3k8lyx1","sona":"7306"},{"rt":null,"stimulus":"<div style=\"font-size:60px;\">+</div>","key_press":null,"trial_type":"html-keyboard-response","trial_index":32,"time_elapsed":114996,"internal_node_id":"0.0-8.0-1.6","subject":"3ny96h3u3k8lyx1","sona":"7306"},{"trial_type":"turing-test","trial_index":33,"time_elapsed":118517,"internal_node_id":"0.0-8.0-2.6","subject":"3ny96h3u3k8lyx1","sona":"7306"},{"rt":472.1499999996013,"stimulus":"<p>Welche Sequenz haben Sie als natürlicher empfunden?</p>","key_press":74,"test_part":"response","test_stimulus":{"position":1,"left":"bvh/vr_prediction_models/model(dmp)-dataset(return-bottle-hold)-npsi(80)-hold(2)/final-lines.txt","right":"bvh/return-bottle-hold-training2-lines.txt","att_check":false},"trial_type":"html-keyboard-response","trial_index":34,"time_elapsed":118995,"internal_node_id":"0.0-8.0-3.6","subject":"3ny96h3u3k8lyx1","sona":"7306"},{"rt":696.6499999998632,"stimulus":"<p>Bereit?</p>","key_press":32,"trial_type":"html-keyboard-response","trial_index":35,"time_elapsed":119699,"internal_node_id":"0.0-8.0-0.7","subject":"3ny96h3u3k8lyx1","sona":"7306"},{"rt":null,"stimulus":"<div style=\"font-size:60px;\">+</div>","key_press":null,"trial_type":"html-keyboard-response","trial_index":36,"time_elapsed":121722,"internal_node_id":"0.0-8.0-1.7","subject":"3ny96h3u3k8lyx1","sona":"7306"},{"trial_type":"turing-test","trial_index":37,"time_elapsed":125186,"internal_node_id":"0.0-8.0-2.7","subject":"3ny96h3u3k8lyx1","sona":"7306"},{"rt":143.50000000013097,"stimulus":"<p>Welche Sequenz haben Sie als natürlicher empfunden?</p>","key_press":70,"test_part":"response","test_stimulus":{"position":0,"left":"bvh/return-bottle-hold-training1-lines.txt","right":"bvh/vr_prediction_models/model(vcgpdm)-dataset(return-bottle-hold)-mode(ELBO)-parts(3)-dyn(20)-lvm(35)-hold(1)/final-lines.txt","att_check":false},"trial_type":"html-keyboard-response","trial_index":38,"time_elapsed":125335,"internal_node_id":"0.0-8.0-3.7","subject":"3ny96h3u3k8lyx1","sona":"7306"},{"rt":659.0700000015204,"stimulus":"<p>Bereit?</p>","key_press":32,"trial_type":"html-keyboard-response","trial_index":39,"time_elapsed":125998,"internal_node_id":"0.0-8.0-0.8","subject":"3ny96h3u3k8lyx1","sona":"7306"},{"rt":null,"stimulus":"<div style=\"font-size:60px;\">+</div>","key_press":null,"trial_type":"html-keyboard-response","trial_index":40,"time_elapsed":128008,"internal_node_id":"0.0-8.0-1.8","subject":"3ny96h3u3k8lyx1","sona":"7306"},{"trial_type":"turing-test","trial_index":41,"time_elapsed":131567,"internal_node_id":"0.0-8.0-2.8","subject":"3ny96h3u3k8lyx1","sona":"7306"},{"rt":341.80999999991036,"stimulus":"<p>Welche Sequenz haben Sie als natürlicher empfunden?</p>","key_press":70,"test_part":"response","test_stimulus":{"position":1,"left":"bvh/vr_prediction_models/model(tmp)-dataset(pass-bottle-hold)-numprim(11)-hold(3)/final-lines.txt","right":"bvh/pass-bottle-hold-training3-lines.txt","att_check":false},"trial_type":"html-keyboard-response","trial_index":42,"time_elapsed":131916,"internal_node_id":"0.0-8.0-3.8","subject":"3ny96h3u3k8lyx1","sona":"7306"},{"rt":410.81000000122003,"stimulus":"<p>Bereit?</p>","key_press":32,"trial_type":"html-keyboard-response","trial_index":43,"time_elapsed":132332,"internal_node_id":"0.0-8.0-0.9","subject":"3ny96h3u3k8lyx1","sona":"7306"},{"rt":null,"stimulus":"<div style=\"font-size:60px;\">+</div>","key_press":null,"trial_type":"html-keyboard-response","trial_index":44,"time_elapsed":134347,"internal_node_id":"0.0-8.0-1.9","subject":"3ny96h3u3k8lyx1","sona":"7306"},{"trial_type":"turing-test","trial_index":45,"time_elapsed":140196,"internal_node_id":"0.0-8.0-2.9","subject":"3ny96h3u3k8lyx1","sona":"7306"},{"rt":611.5800000007148,"stimulus":"<p>Welche Sequenz haben Sie als natürlicher empfunden?</p>","key_press":74,"test_part":"response","test_stimulus":{"position":0,"left":"bvh/return-bottle-training4-lines.txt","right":"bvh/vr_prediction_models/model(vcgpdm)-dataset(return-bottle)-mode(ELBO)-parts(1)-dyn(10)-lvm(30)-hold(4)/final-lines.txt","att_check":false},"trial_type":"html-keyboard-response","trial_index":46,"time_elapsed":140814,"internal_node_id":"0.0-8.0-3.9","subject":"3ny96h3u3k8lyx1","sona":"7306"},{"rt":702.2500000002619,"stimulus":"<p>Bereit?</p>","key_press":32,"trial_type":"html-keyboard-response","trial_index":47,"time_elapsed":141521,"internal_node_id":"0.0-8.0-0.10","subject":"3ny96h3u3k8lyx1","sona":"7306"},{"rt":null,"stimulus":"<div style=\"font-size:60px;\">+</div>","key_press":null,"trial_type":"html-keyboard-response","trial_index":48,"time_elapsed":143536,"internal_node_id":"0.0-8.0-1.10","subject":"3ny96h3u3k8lyx1","sona":"7306"},{"trial_type":"turing-test","trial_index":49,"time_elapsed":150341,"internal_node_id":"0.0-8.0-2.10","subject":"3ny96h3u3k8lyx1","sona":"7306"},{"rt":621.6050000002724,"stimulus":"<p>Welche Sequenz haben Sie als natürlicher empfunden?</p>","key_press":74,"test_part":"response","test_stimulus":{"position":0,"left":"bvh/pass-bottle-training0-lines.txt","right":"bvh/vr_prediction_models/model(dmp)-dataset(pass-bottle)-npsi(80)-hold(0)/final-lines.txt","att_check":false},"trial_type":"html-keyboard-response","trial_index":50,"time_elapsed":150971,"internal_node_id":"0.0-8.0-3.10","subject":"3ny96h3u3k8lyx1","sona":"7306"},{"rt":500.41499999861117,"stimulus":"<p>Bereit?</p>","key_press":32,"trial_type":"html-keyboard-response","trial_index":51,"time_elapsed":151477,"internal_node_id":"0.0-8.0-0.11","subject":"3ny96h3u3k8lyx1","sona":"7306"},{"rt":null,"stimulus":"<div style=\"font-size:60px;\">+</div>","key_press":null,"trial_type":"html-keyboard-response","trial_index":52,"time_elapsed":153503,"internal_node_id":"0.0-8.0-1.11","subject":"3ny96h3u3k8lyx1","sona":"7306"}]