[{"rt":1743.1799999903888,"stimulus":"<p>Welcome!<br> Please choose your language to start the experiment in the chosen language.</p><p>Willkommen!<br> Bitte wählen Sie eine Sprache, um das Experiment in der ausgewählten Sprache zu starten</p>","button_pressed":"1","trial_type":"html-button-response","trial_index":0,"time_elapsed":1776,"internal_node_id":"0.0-0.0","subject":"lq6qkj7nl8qd4b7","sona":"8698"},{"view_history":"[{\"page_index\":0,\"viewing_time\":1339.085000101477},{\"page_index\":1,\"viewing_time\":1426.5749999321997},{\"page_index\":2,\"viewing_time\":1309.8100000061095},{\"page_index\":3,\"viewing_time\":2031.5700001083314},{\"page_index\":4,\"viewing_time\":1775.46999999322}]","rt":7883.390000090003,"trial_type":"instructions","trial_index":1,"time_elapsed":9661,"internal_node_id":"0.0-1.0-0.0","subject":"lq6qkj7nl8qd4b7","sona":"8698"},{"rt":714.4150000531226,"stimulus":"<p>Bereit?</p>","key_press":32,"trial_type":"html-keyboard-response","trial_index":2,"time_elapsed":10377,"internal_node_id":"0.0-3.0","subject":"lq6qkj7nl8qd4b7","sona":"8698"},{"rt":null,"stimulus":"<div style=\"font-size:60px;\">+</div>","key_press":null,"trial_type":"html-keyboard-response","trial_index":3,"time_elapsed":12396,"internal_node_id":"0.0-4.0","subject":"lq6qkj7nl8qd4b7","sona":"8698"},{"trial_type":"training","trial_index":4,"time_elapsed":15752,"internal_node_id":"0.0-5.0","subject":"lq6qkj7nl8qd4b7","sona":"8698"},{"rt":253.03500005975366,"stimulus":"<p>Welche Sequenz haben Sie als natürlicher empfunden?</p>","key_press":70,"trial_type":"html-keyboard-response","trial_index":5,"time_elapsed":16007,"internal_node_id":"0.0-6.0","subject":"lq6qkj7nl8qd4b7","sona":"8698"},{"rt":2033.500000135973,"stimulus":"<p>Das Experiment startet nun.</p><p><small>Bitte drücken Sie den Knopf, wenn Sie bereit sind.</small></p>","button_pressed":"0","trial_type":"html-button-response","trial_index":6,"time_elapsed":18042,"internal_node_id":"0.0-7.0","subject":"lq6qkj7nl8qd4b7","sona":"8698"},{"rt":576.6350000631064,"stimulus":"<p>Bereit?</p>","key_press":32,"trial_type":"html-keyboard-response","trial_index":7,"time_elapsed":18621,"internal_node_id":"0.0-8.0-0.0","subject":"lq6qkj7nl8qd4b7","sona":"8698"},{"rt":null,"stimulus":"<div style=\"font-size:60px;\">+</div>","key_press":null,"trial_type":"html-keyboard-response","trial_index":8,"time_elapsed":20652,"internal_node_id":"0.0-8.0-1.0","subject":"lq6qkj7nl8qd4b7","sona":"8698"},{"trial_type":"turing-test","trial_index":9,"time_elapsed":24096,"internal_node_id":"0.0-8.0-2.0","subject":"lq6qkj7nl8qd4b7","sona":"8698"},{"rt":237.84999991767108,"stimulus":"<p>Welche Sequenz haben Sie als natürlicher empfunden?</p>","key_press":74,"test_part":"response","test_stimulus":{"position":0,"left":"bvh/pass-bottle-hold-training1-lines.txt","right":"bvh/vr_prediction_models/model(tmp)-dataset(pass-bottle-hold)-numprim(6)-hold(1)/final-lines.txt","att_check":false},"trial_type":"html-keyboard-response","trial_index":10,"time_elapsed":24340,"internal_node_id":"0.0-8.0-3.0","subject":"lq6qkj7nl8qd4b7","sona":"8698"},{"rt":142.5099999178201,"stimulus":"<p>Bereit?</p>","key_press":32,"trial_type":"html-keyboard-response","trial_index":11,"time_elapsed":24488,"internal_node_id":"0.0-8.0-0.1","subject":"lq6qkj7nl8qd4b7","sona":"8698"},{"rt":null,"stimulus":"<div style=\"font-size:60px;\">+</div>","key_press":null,"trial_type":"html-keyboard-response","trial_index":12,"time_elapsed":26515,"internal_node_id":"0.0-8.0-1.1","subject":"lq6qkj7nl8qd4b7","sona":"8698"},{"trial_type":"turing-test","trial_index":13,"time_elapsed":33220,"internal_node_id":"0.0-8.0-2.1","subject":"lq6qkj7nl8qd4b7","sona":"8698"},{"rt":280.6400000117719,"stimulus":"<p>Welche Sequenz haben Sie als natürlicher empfunden?</p>","key_press":70,"test_part":"response","test_stimulus":{"position":0,"left":"bvh/pass-bottle-training0-lines.txt","right":"bvh/vr_prediction_models/model(tmp)-dataset(pass-bottle)-numprim(7)-hold(0)/final-lines.txt","att_check":false},"trial_type":"html-keyboard-response","trial_index":14,"time_elapsed":33506,"internal_node_id":"0.0-8.0-3.1","subject":"lq6qkj7nl8qd4b7","sona":"8698"},{"rt":109.10000000149012,"stimulus":"<p>Bereit?</p>","key_press":32,"trial_type":"html-keyboard-response","trial_index":15,"time_elapsed":33620,"internal_node_id":"0.0-8.0-0.2","subject":"lq6qkj7nl8qd4b7","sona":"8698"},{"rt":null,"stimulus":"<div style=\"font-size:60px;\">+</div>","key_press":null,"trial_type":"html-keyboard-response","trial_index":16,"time_elapsed":35652,"internal_node_id":"0.0-8.0-1.2","subject":"lq6qkj7nl8qd4b7","sona":"8698"},{"trial_type":"turing-test","trial_index":17,"time_elapsed":41923,"internal_node_id":"0.0-8.0-2.2","subject":"lq6qkj7nl8qd4b7","sona":"8698"},{"rt":203.37499980814755,"stimulus":"<p>Welche Sequenz haben Sie als natürlicher empfunden?</p>","key_press":74,"test_part":"response","test_stimulus":{"position":1,"left":"bvh/vr_prediction_models/model(vcgpdm)-dataset(pass-bottle)-mode(ELBO)-parts(1)-dyn(10)-lvm(30)-hold(2)/final-lines.txt","right":"bvh/pass-bottle-training2-lines.txt","att_check":false},"trial_type":"html-keyboard-response","trial_index":18,"time_elapsed":42133,"internal_node_id":"0.0-8.0-3.2","subject":"lq6qkj7nl8qd4b7","sona":"8698"},{"rt":177.46000015176833,"stimulus":"<p>Bereit?</p>","key_press":32,"trial_type":"html-keyboard-response","trial_index":19,"time_elapsed":42315,"internal_node_id":"0.0-8.0-0.3","subject":"lq6qkj7nl8qd4b7","sona":"8698"},{"rt":null,"stimulus":"<div style=\"font-size:60px;\">+</div>","key_press":null,"trial_type":"html-keyboard-response","trial_index":20,"time_elapsed":44337,"internal_node_id":"0.0-8.0-1.3","subject":"lq6qkj7nl8qd4b7","sona":"8698"},{"trial_type":"turing-test","trial_index":21,"time_elapsed":51300,"internal_node_id":"0.0-8.0-2.3","subject":"lq6qkj7nl8qd4b7","sona":"8698"},{"rt":316.6149999015033,"stimulus":"<p>Welche Sequenz haben Sie als natürlicher empfunden?</p>","key_press":70,"test_part":"response","test_stimulus":{"position":0,"left":"bvh/pass-bottle-training0-lines.txt","right":"bvh/vr_prediction_models/model(dmp)-dataset(pass-bottle)-npsi(70)-hold(0)/final-lines.txt","att_check":false},"trial_type":"html-keyboard-response","trial_index":22,"time_elapsed":51623,"internal_node_id":"0.0-8.0-3.3","subject":"lq6qkj7nl8qd4b7","sona":"8698"},{"rt":246.5849998407066,"stimulus":"<p>Bereit?</p>","key_press":32,"trial_type":"html-keyboard-response","trial_index":23,"time_elapsed":51874,"internal_node_id":"0.0-8.0-0.4","subject":"lq6qkj7nl8qd4b7","sona":"8698"},{"rt":null,"stimulus":"<div style=\"font-size:60px;\">+</div>","key_press":null,"trial_type":"html-keyboard-response","trial_index":24,"time_elapsed":53900,"internal_node_id":"0.0-8.0-1.4","subject":"lq6qkj7nl8qd4b7","sona":"8698"},{"trial_type":"turing-test","trial_index":25,"time_elapsed":59369,"internal_node_id":"0.0-8.0-2.4","subject":"lq6qkj7nl8qd4b7","sona":"8698"},{"rt":229.59999996237457,"stimulus":"<p>Welche Sequenz haben Sie als natürlicher empfunden?</p>","key_press":70,"test_part":"response","test_stimulus":{"position":1,"left":"bvh/vr_prediction_models/model(vcgpdm)-dataset(return-bottle-hold)-mode(ELBO)-parts(3)-dyn(20)-lvm(15)-hold(0)/final-lines.txt","right":"bvh/return-bottle-hold-training0-lines.txt","att_check":false},"trial_type":"html-keyboard-response","trial_index":26,"time_elapsed":59605,"internal_node_id":"0.0-8.0-3.4","subject":"lq6qkj7nl8qd4b7","sona":"8698"},{"rt":150.84500005468726,"stimulus":"<p>Bereit?</p>","key_press":32,"trial_type":"html-keyboard-response","trial_index":27,"time_elapsed":59760,"internal_node_id":"0.0-8.0-0.5","subject":"lq6qkj7nl8qd4b7","sona":"8698"},{"rt":null,"stimulus":"<div style=\"font-size:60px;\">+</div>","key_press":null,"trial_type":"html-keyboard-response","trial_index":28,"time_elapsed":61787,"internal_node_id":"0.0-8.0-1.5","subject":"lq6qkj7nl8qd4b7","sona":"8698"},{"trial_type":"turing-test","trial_index":29,"time_elapsed":68224,"internal_node_id":"0.0-8.0-2.5","subject":"lq6qkj7nl8qd4b7","sona":"8698"},{"rt":308.0349999945611,"stimulus":"<p>Welche Sequenz haben Sie als natürlicher empfunden?</p>","key_press":74,"test_part":"response","test_stimulus":{"position":1,"left":"bvh/vr_prediction_models/model(vcgpdm)-dataset(pass-bottle)-mode(ELBO)-parts(1)-dyn(25)-lvm(35)-hold(4)/final-lines.txt","right":"bvh/pass-bottle-training4-lines.txt","att_check":false},"trial_type":"html-keyboard-response","trial_index":30,"time_elapsed":68540,"internal_node_id":"0.0-8.0-3.5","subject":"lq6qkj7nl8qd4b7","sona":"8698"},{"rt":219.92999990470707,"stimulus":"<p>Bereit?</p>","key_press":32,"trial_type":"html-keyboard-response","trial_index":31,"time_elapsed":68764,"internal_node_id":"0.0-8.0-0.6","subject":"lq6qkj7nl8qd4b7","sona":"8698"},{"rt":null,"stimulus":"<div style=\"font-size:60px;\">+</div>","key_press":null,"trial_type":"html-keyboard-response","trial_index":32,"time_elapsed":70770,"internal_node_id":"0.0-8.0-1.6","subject":"lq6qkj7nl8qd4b7","sona":"8698"},{"trial_type":"turing-test","trial_index":33,"time_elapsed":77401,"internal_node_id":"0.0-8.0-2.6","subject":"lq6qkj7nl8qd4b7","sona":"8698"},{"rt":279.80499994009733,"stimulus":"<p>Welche Sequenz haben Sie als natürlicher empfunden?</p>","key_press":70,"test_part":"response","test_stimulus":{"position":0,"left":"bvh/pass-bottle-training3-lines.txt","right":"bvh/vr_prediction_models/model(tmp)-dataset(pass-bottle)-numprim(9)-hold(3)/final-lines.txt","att_check":false},"trial_type":"html-keyboard-response","trial_index":34,"time_elapsed":77688,"internal_node_id":"0.0-8.0-3.6","subject":"lq6qkj7nl8qd4b7","sona":"8698"},{"rt":202.61000003665686,"stimulus":"<p>Bereit?</p>","key_press":32,"trial_type":"html-keyboard-response","trial_index":35,"time_elapsed":77895,"internal_node_id":"0.0-8.0-0.7","subject":"lq6qkj7nl8qd4b7","sona":"8698"},{"rt":null,"stimulus":"<div style=\"font-size:60px;\">+</div>","key_press":null,"trial_type":"html-keyboard-response","trial_index":36,"time_elapsed":79925,"internal_node_id":"0.0-8.0-1.7","subject":"lq6qkj7nl8qd4b7","sona":"8698"},{"trial_type":"turing-test","trial_index":37,"time_elapsed":83922,"internal_node_id":"0.0-8.0-2.7","subject":"lq6qkj7nl8qd4b7","sona":"8698"},{"rt":415.44500016607344,"stimulus":"<p>Welche Sequenz haben Sie als natürlicher empfunden?</p>","key_press":74,"test_part":"response","test_stimulus":{"position":0,"left":"bvh/pass-bottle-hold-training3-lines.txt","right":"bvh/vr_prediction_models/model(vcgpdm)-dataset(pass-bottle-hold)-mode(ELBO)-parts(3)-dyn(30)-lvm(15)-hold(3)/final-lines.txt","att_check":false},"trial_type":"html-keyboard-response","trial_index":38,"time_elapsed":84345,"internal_node_id":"0.0-8.0-3.7","subject":"lq6qkj7nl8qd4b7","sona":"8698"},{"rt":186.47500011138618,"stimulus":"<p>Bereit?</p>","key_press":32,"trial_type":"html-keyboard-response","trial_index":39,"time_elapsed":84537,"internal_node_id":"0.0-8.0-0.8","subject":"lq6qkj7nl8qd4b7","sona":"8698"},{"rt":null,"stimulus":"<div style=\"font-size:60px;\">+</div>","key_press":null,"trial_type":"html-keyboard-response","trial_index":40,"time_elapsed":86553,"internal_node_id":"0.0-8.0-1.8","subject":"lq6qkj7nl8qd4b7","sona":"8698"},{"trial_type":"turing-test","trial_index":41,"time_elapsed":89713,"internal_node_id":"0.0-8.0-2.8","subject":"lq6qkj7nl8qd4b7","sona":"8698"},{"rt":267.1550000086427,"stimulus":"<p>Welche Sequenz haben Sie als natürlicher empfunden?</p>","key_press":70,"test_part":"response","test_stimulus":{"position":0,"left":"bvh/pass-bottle-hold-training1-lines.txt","right":"bvh/vr_prediction_models/model(tmp)-dataset(pass-bottle-hold)-numprim(11)-hold(1)/final-lines.txt","att_check":false},"trial_type":"html-keyboard-response","trial_index":42,"time_elapsed":89988,"internal_node_id":"0.0-8.0-3.8","subject":"lq6qkj7nl8qd4b7","sona":"8698"},{"rt":198.134999955073,"stimulus":"<p>Bereit?</p>","key_press":32,"trial_type":"html-keyboard-response","trial_index":43,"time_elapsed":90190,"internal_node_id":"0.0-8.0-0.9","subject":"lq6qkj7nl8qd4b7","sona":"8698"},{"rt":null,"stimulus":"<div style=\"font-size:60px;\">+</div>","key_press":null,"trial_type":"html-keyboard-response","trial_index":44,"time_elapsed":92197,"internal_node_id":"0.0-8.0-1.9","subject":"lq6qkj7nl8qd4b7","sona":"8698"},{"trial_type":"turing-test","trial_index":45,"time_elapsed":95538,"internal_node_id":"0.0-8.0-2.9","subject":"lq6qkj7nl8qd4b7","sona":"8698"},{"rt":90.71000013500452,"stimulus":"<p>Welche Sequenz haben Sie als natürlicher empfunden?</p>","key_press":70,"test_part":"response","test_stimulus":{"position":0,"left":"bvh/pass-bottle-hold-training2-lines.txt","right":"bvh/vr_prediction_models/model(vcgpdm)-dataset(pass-bottle-hold)-mode(ELBO)-parts(1)-dyn(10)-lvm(5)-hold(2)/final-lines.txt","att_check":false},"trial_type":"html-keyboard-response","trial_index":46,"time_elapsed":95635,"internal_node_id":"0.0-8.0-3.9","subject":"lq6qkj7nl8qd4b7","sona":"8698"},{"rt":225.96499999053776,"stimulus":"<p>Bereit?</p>","key_press":32,"trial_type":"html-keyboard-response","trial_index":47,"time_elapsed":95865,"internal_node_id":"0.0-8.0-0.10","subject":"lq6qkj7nl8qd4b7","sona":"8698"},{"rt":null,"stimulus":"<div style=\"font-size:60px;\">+</div>","key_press":null,"trial_type":"html-keyboard-response","trial_index":48,"time_elapsed":97889,"internal_node_id":"0.0-8.0-1.10","subject":"lq6qkj7nl8qd4b7","sona":"8698"},{"trial_type":"turing-test","trial_index":49,"time_elapsed":101597,"internal_node_id":"0.0-8.0-2.10","subject":"lq6qkj7nl8qd4b7","sona":"8698"},{"rt":314.4350000657141,"stimulus":"<p>Welche Sequenz haben Sie als natürlicher empfunden?</p>","key_press":74,"test_part":"response","test_stimulus":{"position":1,"left":"bvh/vr_prediction_models/model(vcgpdm)-dataset(pass-bottle-hold)-mode(ELBO)-parts(1)-dyn(10)-lvm(25)-hold(3)/final-lines.txt","right":"bvh/pass-bottle-hold-training3-lines.txt","att_check":false},"trial_type":"html-keyboard-response","trial_index":50,"time_elapsed":101917,"internal_node_id":"0.0-8.0-3.10","subject":"lq6qkj7nl8qd4b7","sona":"8698"},{"rt":225.59499996714294,"stimulus":"<p>Bereit?</p>","key_press":32,"trial_type":"html-keyboard-response","trial_index":51,"time_elapsed":102147,"internal_node_id":"0.0-8.0-0.11","subject":"lq6qkj7nl8qd4b7","sona":"8698"},{"rt":null,"stimulus":"<div style=\"font-size:60px;\">+</div>","key_press":null,"trial_type":"html-keyboard-response","trial_index":52,"time_elapsed":104169,"internal_node_id":"0.0-8.0-1.11","subject":"lq6qkj7nl8qd4b7","sona":"8698"},{"trial_type":"turing-test","trial_index":53,"time_elapsed":107751,"internal_node_id":"0.0-8.0-2.11","subject":"lq6qkj7nl8qd4b7","sona":"8698"},{"rt":272.1299999393523,"stimulus":"<p>Welche Sequenz haben Sie als natürlicher empfunden?</p>","key_press":74,"test_part":"response","test_stimulus":{"position":1,"left":"bvh/vr_prediction_models/model(dmp)-dataset(pass-bottle-hold)-npsi(20)-hold(3)/final-lines.txt","right":"bvh/pass-bottle-hold-training3-lines.txt","att_check":false},"trial_type":"html-keyboard-response","trial_index":54,"time_elapsed":108030,"internal_node_id":"0.0-8.0-3.11","subject":"lq6qkj7nl8qd4b7","sona":"8698"},{"rt":243.37499984540045,"stimulus":"<p>Bereit?</p>","key_press":32,"trial_type":"html-keyboard-response","trial_index":55,"time_elapsed":108276,"internal_node_id":"0.0-8.0-0.12","subject":"lq6qkj7nl8qd4b7","sona":"8698"},{"rt":null,"stimulus":"<div style=\"font-size:60px;\">+</div>","key_press":null,"trial_type":"html-keyboard-response","trial_index":56,"time_elapsed":110301,"internal_node_id":"0.0-8.0-1.12","subject":"lq6qkj7nl8qd4b7","sona":"8698"},{"trial_type":"turing-test","trial_index":57,"time_elapsed":116029,"internal_node_id":"0.0-8.0-2.12","subject":"lq6qkj7nl8qd4b7","sona":"8698"},{"rt":286.6650000214577,"stimulus":"<p>Welche Sequenz haben Sie als natürlicher empfunden?</p>","key_press":74,"test_part":"response","test_stimulus":{"position":1,"left":"bvh/vr_prediction_models/model(dmp)-dataset(return-bottle)-npsi(70)-hold(0)/final-lines.txt","right":"bvh/return-bottle-training0-lines.txt","att_check":false},"trial_type":"html-keyboard-response","trial_index":58,"time_elapsed":116321,"internal_node_id":"0.0-8.0-3.12","subject":"lq6qkj7nl8qd4b7","sona":"8698"},{"rt":197.91499990969896,"stimulus":"<p>Bereit?</p>","key_press":32,"trial_type":"html-keyboard-response","trial_index":59,"time_elapsed":116525,"internal_node_id":"0.0-8.0-0.13","subject":"lq6qkj7nl8qd4b7","sona":"8698"},{"rt":null,"stimulus":"<div style=\"font-size:60px;\">+</div>","key_press":null,"trial_type":"html-keyboard-response","trial_index":60,"time_elapsed":118555,"internal_node_id":"0.0-8.0-1.13","subject":"lq6qkj7nl8qd4b7","sona":"8698"},{"trial_type":"turing-test","trial_index":61,"time_elapsed":125285,"internal_node_id":"0.0-8.0-2.13","subject":"lq6qkj7nl8qd4b7","sona":"8698"},{"rt":271.6550000477582,"stimulus":"<p>Welche Sequenz haben Sie als natürlicher empfunden?</p>","key_press":74,"test_part":"response","test_stimulus":{"position":1,"left":"bvh/vr_prediction_models/model(vcgpdm)-dataset(return-bottle)-mode(ELBO)-parts(1)-dyn(35)-lvm(10)-hold(2)/final-lines.txt","right":"bvh/return-bottle-training2-lines.txt","att_check":false},"trial_type":"html-keyboard-response","trial_index":62,"time_elapsed":125563,"internal_node_id":"0.0-8.0-3.13","subject":"lq6qkj7nl8qd4b7","sona":"8698"},{"rt":170.56500003673136,"stimulus":"<p>Bereit?</p>","key_press":32,"trial_type":"html-keyboard-response","trial_index":63,"time_elapsed":125740,"internal_node_id":"0.0-8.0-0.14","subject":"lq6qkj7nl8qd4b7","sona":"8698"},{"rt":null,"stimulus":"<div style=\"font-size:60px;\">+</div>","key_press":null,"trial_type":"html-keyboard-response","trial_index":64,"time_elapsed":127760,"internal_node_id":"0.0-8.0-1.14","subject":"lq6qkj7nl8qd4b7","sona":"8698"},{"trial_type":"turing-test","trial_index":65,"time_elapsed":133552,"internal_node_id":"0.0-8.0-2.14","subject":"lq6qkj7nl8qd4b7","sona":"8698"},{"rt":377.00500013306737,"stimulus":"<p>Welche Sequenz haben Sie als natürlicher empfunden?</p>","key_press":74,"test_part":"response","test_stimulus":{"position":1,"left":"bvh/vr_prediction_models/model(tmp)-dataset(pass-bottle)-numprim(15)-hold(4)/final-lines.txt","right":"bvh/pass-bottle-training4-lines.txt","att_check":false},"trial_type":"html-keyboard-response","trial_index":66,"time_elapsed":133935,"internal_node_id":"0.0-8.0-3.14","subject":"lq6qkj7nl8qd4b7","sona":"8698"},{"rt":185.5750000104308,"stimulus":"<p>Bereit?</p>","key_press":32,"trial_type":"html-keyboard-response","trial_index":67,"time_elapsed":134126,"internal_node_id":"0.0-8.0-0.15","subject":"lq6qkj7nl8qd4b7","sona":"8698"},{"rt":null,"stimulus":"<div style=\"font-size:60px;\">+</div>","key_press":null,"trial_type":"html-keyboard-response","trial_index":68,"time_elapsed":136142,"internal_node_id":"0.0-8.0-1.15","subject":"lq6qkj7nl8qd4b7","sona":"8698"},{"trial_type":"turing-test","trial_index":69,"time_elapsed":139593,"internal_node_id":"0.0-8.0-2.15","subject":"lq6qkj7nl8qd4b7","sona":"8698"},{"rt":434.83499996364117,"stimulus":"<p>Welche Sequenz haben Sie als natürlicher empfunden?</p>","key_press":74,"test_part":"response","test_stimulus":{"position":1,"left":"bvh/vr_prediction_models/model(dmp)-dataset(pass-bottle-hold)-npsi(10)-hold(0)/final-lines.txt","right":"bvh/pass-bottle-hold-training0-lines.txt","att_check":false},"trial_type":"html-keyboard-response","trial_index":70,"time_elapsed":140034,"internal_node_id":"0.0-8.0-3.15","subject":"lq6qkj7nl8qd4b7","sona":"8698"},{"rt":134.9649999756366,"stimulus":"<p>Bereit?</p>","key_press":32,"trial_type":"html-keyboard-response","trial_index":71,"time_elapsed":140174,"internal_node_id":"0.0-8.0-0.16","subject":"lq6qkj7nl8qd4b7","sona":"8698"},{"rt":null,"stimulus":"<div style=\"font-size:60px;\">+</div>","key_press":null,"trial_type":"html-keyboard-response","trial_index":72,"time_elapsed":142199,"internal_node_id":"0.0-8.0-1.16","subject":"lq6qkj7nl8qd4b7","sona":"8698"},{"trial_type":"turing-test","trial_index":73,"time_elapsed":148771,"internal_node_id":"0.0-8.0-2.16","subject":"lq6qkj7nl8qd4b7","sona":"8698"},{"rt":279.52999994158745,"stimulus":"<p>Welche Sequenz haben Sie als natürlicher empfunden?</p>","key_press":70,"test_part":"response","test_stimulus":{"position":0,"left":"bvh/return-bottle-training2-lines.txt","right":"bvh/vr_prediction_models/model(vcgpdm)-dataset(return-bottle)-mode(ELBO)-parts(3)-dyn(20)-lvm(15)-hold(2)/final-lines.txt","att_check":false},"trial_type":"html-keyboard-response","trial_index":74,"time_elapsed":149058,"internal_node_id":"0.0-8.0-3.16","subject":"lq6qkj7nl8qd4b7","sona":"8698"},{"rt":131.26499997451901,"stimulus":"<p>Bereit?</p>","key_press":32,"trial_type":"html-keyboard-response","trial_index":75,"time_elapsed":149193,"internal_node_id":"0.0-8.0-0.17","subject":"lq6qkj7nl8qd4b7","sona":"8698"},{"rt":null,"stimulus":"<div style=\"font-size:60px;\">+</div>","key_press":null,"trial_type":"html-keyboard-response","trial_index":76,"time_elapsed":151222,"internal_node_id":"0.0-8.0-1.17","subject":"lq6qkj7nl8qd4b7","sona":"8698"},{"trial_type":"turing-test","trial_index":77,"time_elapsed":154936,"internal_node_id":"0.0-8.0-2.17","subject":"lq6qkj7nl8qd4b7","sona":"8698"},{"rt":306.089999852702,"stimulus":"<p>Welche Sequenz haben Sie als natürlicher empfunden?</p>","key_press":70,"test_part":"response","test_stimulus":{"position":0,"left":"bvh/pass-bottle-hold-training4-lines.txt","right":"bvh/vr_prediction_models/model(vcgpdm)-dataset(pass-bottle-hold)-mode(MAP)-parts(1)-hold(4)/final-lines.txt","att_check":false},"trial_type":"html-keyboard-response","trial_index":78,"time_elapsed":155250,"internal_node_id":"0.0-8.0-3.17","subject":"lq6qkj7nl8qd4b7","sona":"8698"},{"rt":59.4949999358505,"stimulus":"<p>Bereit?</p>","key_press":32,"trial_type":"html-keyboard-response","trial_index":79,"time_elapsed":155314,"internal_node_id":"0.0-8.0-0.18","subject":"lq6qkj7nl8qd4b7","sona":"8698"},{"rt":null,"stimulus":"<div style=\"font-size:60px;\">+</div>","key_press":null,"trial_type":"html-keyboard-response","trial_index":80,"time_elapsed":157341,"internal_node_id":"0.0-8.0-1.18","subject":"lq6qkj7nl8qd4b7","sona":"8698"},{"trial_type":"turing-test","trial_index":81,"time_elapsed":163101,"internal_node_id":"0.0-8.0-2.18","subject":"lq6qkj7nl8qd4b7","sona":"8698"},{"rt":258.40499997138977,"stimulus":"<p>Welche Sequenz haben Sie als natürlicher empfunden?</p>","key_press":74,"test_part":"response","test_stimulus":{"position":1,"left":"bvh/vr_prediction_models/model(dmp)-dataset(return-bottle)-npsi(60)-hold(4)/final-lines.txt","right":"bvh/return-bottle-training4-lines.txt","att_check":false},"trial_type":"html-keyboard-response","trial_index":82,"time_elapsed":163369,"internal_node_id":"0.0-8.0-3.18","subject":"lq6qkj7nl8qd4b7","sona":"8698"},{"rt":138.45499977469444,"stimulus":"<p>Bereit?</p>","key_press":32,"trial_type":"html-keyboard-response","trial_index":83,"time_elapsed":163513,"internal_node_id":"0.0-8.0-0.19","subject":"lq6qkj7nl8qd4b7","sona":"8698"},{"rt":null,"stimulus":"<div style=\"font-size:60px;\">+</div>","key_press":null,"trial_type":"html-keyboard-response","trial_index":84,"time_elapsed":165522,"internal_node_id":"0.0-8.0-1.19","subject":"lq6qkj7nl8qd4b7","sona":"8698"},{"trial_type":"turing-test","trial_index":85,"time_elapsed":168848,"internal_node_id":"0.0-8.0-2.19","subject":"lq6qkj7nl8qd4b7","sona":"8698"},{"rt":413.48999994806945,"stimulus":"<p>Welche Sequenz haben Sie als natürlicher empfunden?</p>","key_press":74,"test_part":"response","test_stimulus":{"position":1,"left":"bvh/vr_prediction_models/model(dmp)-dataset(return-bottle-hold)-npsi(40)-hold(1)/final-lines.txt","right":"bvh/return-bottle-hold-training1-lines.txt","att_check":false},"trial_type":"html-keyboard-response","trial_index":86,"time_elapsed":169269,"internal_node_id":"0.0-8.0-3.19","subject":"lq6qkj7nl8qd4b7","sona":"8698"},{"rt":219.46500008925796,"stimulus":"<p>Bereit?</p>","key_press":32,"trial_type":"html-keyboard-response","trial_index":87,"time_elapsed":169493,"internal_node_id":"0.0-8.0-0.20","subject":"lq6qkj7nl8qd4b7","sona":"8698"},{"rt":null,"stimulus":"<div style=\"font-size:60px;\">+</div>","key_press":null,"trial_type":"html-keyboard-response","trial_index":88,"time_elapsed":171522,"internal_node_id":"0.0-8.0-1.20","subject":"lq6qkj7nl8qd4b7","sona":"8698"},{"trial_type":"turing-test","trial_index":89,"time_elapsed":174845,"internal_node_id":"0.0-8.0-2.20","subject":"lq6qkj7nl8qd4b7","sona":"8698"},{"rt":664.759999839589,"stimulus":"<p>Welche Sequenz haben Sie als natürlicher empfunden?</p>","key_press":74,"test_part":"response","test_stimulus":{"position":0,"left":"bvh/pass-bottle-hold-training2-lines.txt","right":"bvh/vr_prediction_models/model(dmp)-dataset(pass-bottle-hold)-npsi(80)-hold(2)/final-lines.txt","att_check":false},"trial_type":"html-keyboard-response","trial_index":90,"time_elapsed":175516,"internal_node_id":"0.0-8.0-3.20","subject":"lq6qkj7nl8qd4b7","sona":"8698"},{"rt":229.54500000923872,"stimulus":"<p>Bereit?</p>","key_press":32,"trial_type":"html-keyboard-response","trial_index":91,"time_elapsed":175750,"internal_node_id":"0.0-8.0-0.21","subject":"lq6qkj7nl8qd4b7","sona":"8698"},{"rt":null,"stimulus":"<div style=\"font-size:60px;\">+</div>","key_press":null,"trial_type":"html-keyboard-response","trial_index":92,"time_elapsed":177774,"internal_node_id":"0.0-8.0-1.21","subject":"lq6qkj7nl8qd4b7","sona":"8698"},{"trial_type":"turing-test","trial_index":93,"time_elapsed":181657,"internal_node_id":"0.0-8.0-2.21","subject":"lq6qkj7nl8qd4b7","sona":"8698"},{"rt":226.46999987773597,"stimulus":"<p>Welche Sequenz haben Sie als natürlicher empfunden?</p>","key_press":70,"test_part":"response","test_stimulus":{"position":1,"left":"bvh/vr_prediction_models/model(vcgpdm)-dataset(pass-bottle-hold)-mode(ELBO)-parts(3)-dyn(25)-lvm(25)-hold(3)/final-lines.txt","right":"bvh/pass-bottle-hold-training3-lines.txt","att_check":false},"trial_type":"html-keyboard-response","trial_index":94,"time_elapsed":181891,"internal_node_id":"0.0-8.0-3.21","subject":"lq6qkj7nl8qd4b7","sona":"8698"},{"rt":154.20500002801418,"stimulus":"<p>Bereit?</p>","key_press":32,"trial_type":"html-keyboard-response","trial_index":95,"time_elapsed":182050,"internal_node_id":"0.0-8.0-0.22","subject":"lq6qkj7nl8qd4b7","sona":"8698"},{"rt":null,"stimulus":"<div style=\"font-size:60px;\">+</div>","key_press":null,"trial_type":"html-keyboard-response","trial_index":96,"time_elapsed":184076,"internal_node_id":"0.0-8.0-1.22","subject":"lq6qkj7nl8qd4b7","sona":"8698"},{"trial_type":"turing-test","trial_index":97,"time_elapsed":190158,"internal_node_id":"0.0-8.0-2.22","subject":"lq6qkj7nl8qd4b7","sona":"8698"},{"rt":279.55499989911914,"stimulus":"<p>Welche Sequenz haben Sie als natürlicher empfunden?</p>","key_press":70,"test_part":"response","test_stimulus":{"position":0,"left":"bvh/pass-bottle-training1-lines.txt","right":"bvh/vr_prediction_models/model(vcgpdm)-dataset(pass-bottle)-mode(ELBO)-parts(3)-dyn(20)-lvm(15)-hold(1)/final-lines.txt","att_check":false},"trial_type":"html-keyboard-response","trial_index":98,"time_elapsed":190447,"internal_node_id":"0.0-8.0-3.22","subject":"lq6qkj7nl8qd4b7","sona":"8698"},{"rt":109.61499996483326,"stimulus":"<p>Bereit?</p>","key_press":32,"trial_type":"html-keyboard-response","trial_index":99,"time_elapsed":190562,"internal_node_id":"0.0-8.0-0.23","subject":"lq6qkj7nl8qd4b7","sona":"8698"},{"rt":null,"stimulus":"<div style=\"font-size:60px;\">+</div>","key_press":null,"trial_type":"html-keyboard-response","trial_index":100,"time_elapsed":192574,"internal_node_id":"0.0-8.0-1.23","subject":"lq6qkj7nl8qd4b7","sona":"8698"},{"trial_type":"turing-test","trial_index":101,"time_elapsed":196306,"internal_node_id":"0.0-8.0-2.23","subject":"lq6qkj7nl8qd4b7","sona":"8698"},{"rt":345.6099999602884,"stimulus":"<p>Welche Sequenz haben Sie als natürlicher empfunden?</p>","key_press":70,"test_part":"response","test_stimulus":{"position":0,"left":"bvh/return-bottle-hold-training4-lines.txt","right":"bvh/vr_prediction_models/model(tmp)-dataset(return-bottle-hold)-numprim(12)-hold(4)/final-lines.txt","att_check":false},"trial_type":"html-keyboard-response","trial_index":102,"time_elapsed":196659,"internal_node_id":"0.0-8.0-3.23","subject":"lq6qkj7nl8qd4b7","sona":"8698"},{"rt":110.15999992378056,"stimulus":"<p>Bereit?</p>","key_press":32,"trial_type":"html-keyboard-response","trial_index":103,"time_elapsed":196776,"internal_node_id":"0.0-8.0-0.24","subject":"lq6qkj7nl8qd4b7","sona":"8698"},{"rt":null,"stimulus":"<div style=\"font-size:60px;\">+</div>","key_press":null,"trial_type":"html-keyboard-response","trial_index":104,"time_elapsed":198799,"internal_node_id":"0.0-8.0-1.24","subject":"lq6qkj7nl8qd4b7","sona":"8698"},{"trial_type":"turing-test","trial_index":105,"time_elapsed":203868,"internal_node_id":"0.0-8.0-2.24","subject":"lq6qkj7nl8qd4b7","sona":"8698"},{"rt":395.52000002004206,"stimulus":"<p>Welche Sequenz haben Sie als natürlicher empfunden?</p>","key_press":70,"test_part":"response","test_stimulus":{"position":0,"left":"bvh/return-bottle-hold-training0-lines.txt","right":"bvh/vr_prediction_models/model(dmp)-dataset(return-bottle-hold)-npsi(70)-hold(0)/final-lines.txt","att_check":true},"trial_type":"html-keyboard-response","trial_index":106,"time_elapsed":204273,"internal_node_id":"0.0-8.0-3.24","subject":"lq6qkj7nl8qd4b7","sona":"8698"},{"rt":209.21000000089407,"stimulus":"<p>Bereit?</p>","key_press":32,"trial_type":"html-keyboard-response","trial_index":107,"time_elapsed":204487,"internal_node_id":"0.0-8.0-0.25","subject":"lq6qkj7nl8qd4b7","sona":"8698"},{"rt":null,"stimulus":"<div style=\"font-size:60px;\">+</div>","key_press":null,"trial_type":"html-keyboard-response","trial_index":108,"time_elapsed":206510,"internal_node_id":"0.0-8.0-1.25","subject":"lq6qkj7nl8qd4b7","sona":"8698"},{"trial_type":"turing-test","trial_index":109,"time_elapsed":212265,"internal_node_id":"0.0-8.0-2.25","subject":"lq6qkj7nl8qd4b7","sona":"8698"},{"rt":296.3799999561161,"stimulus":"<p>Welche Sequenz haben Sie als natürlicher empfunden?</p>","key_press":70,"test_part":"response","test_stimulus":{"position":1,"left":"bvh/vr_prediction_models/model(tmp)-dataset(pass-bottle)-numprim(14)-hold(3)/final-lines.txt","right":"bvh/pass-bottle-training3-lines.txt","att_check":false},"trial_type":"html-keyboard-response","trial_index":110,"time_elapsed":212573,"internal_node_id":"0.0-8.0-3.25","subject":"lq6qkj7nl8qd4b7","sona":"8698"},{"rt":188.25999996624887,"stimulus":"<p>Bereit?</p>","key_press":32,"trial_type":"html-keyboard-response","trial_index":111,"time_elapsed":212768,"internal_node_id":"0.0-8.0-0.26","subject":"lq6qkj7nl8qd4b7","sona":"8698"},{"rt":null,"stimulus":"<div style=\"font-size:60px;\">+</div>","key_press":null,"trial_type":"html-keyboard-response","trial_index":112,"time_elapsed":214779,"internal_node_id":"0.0-8.0-1.26","subject":"lq6qkj7nl8qd4b7","sona":"8698"},{"trial_type":"turing-test","trial_index":113,"time_elapsed":218141,"internal_node_id":"0.0-8.0-2.26","subject":"lq6qkj7nl8qd4b7","sona":"8698"},{"rt":427.08999989554286,"stimulus":"<p>Welche Sequenz haben Sie als natürlicher empfunden?</p>","key_press":70,"test_part":"response","test_stimulus":{"position":0,"left":"bvh/return-bottle-hold-training1-lines.txt","right":"bvh/vr_prediction_models/model(dmp)-dataset(return-bottle-hold)-npsi(60)-hold(1)/final-lines.txt","att_check":false},"trial_type":"html-keyboard-response","trial_index":114,"time_elapsed":218575,"internal_node_id":"0.0-8.0-3.26","subject":"lq6qkj7nl8qd4b7","sona":"8698"},{"rt":665.2450000401586,"stimulus":"<p>Bereit?</p>","key_press":32,"trial_type":"html-keyboard-response","trial_index":115,"time_elapsed":219245,"internal_node_id":"0.0-8.0-0.27","subject":"lq6qkj7nl8qd4b7","sona":"8698"},{"rt":null,"stimulus":"<div style=\"font-size:60px;\">+</div>","key_press":null,"trial_type":"html-keyboard-response","trial_index":116,"time_elapsed":221276,"internal_node_id":"0.0-8.0-1.27","subject":"lq6qkj7nl8qd4b7","sona":"8698"},{"trial_type":"turing-test","trial_index":117,"time_elapsed":225016,"internal_node_id":"0.0-8.0-2.27","subject":"lq6qkj7nl8qd4b7","sona":"8698"},{"rt":329.45499988272786,"stimulus":"<p>Welche Sequenz haben Sie als natürlicher empfunden?</p>","key_press":70,"test_part":"response","test_stimulus":{"position":1,"left":"bvh/vr_prediction_models/model(vcgpdm)-dataset(pass-bottle-hold)-mode(ELBO)-parts(1)-dyn(30)-lvm(30)-hold(3)/final-lines.txt","right":"bvh/pass-bottle-hold-training3-lines.txt","att_check":false},"trial_type":"html-keyboard-response","trial_index":118,"time_elapsed":225352,"internal_node_id":"0.0-8.0-3.27","subject":"lq6qkj7nl8qd4b7","sona":"8698"},{"rt":185.8099999371916,"stimulus":"<p>Bereit?</p>","key_press":32,"trial_type":"html-keyboard-response","trial_index":119,"time_elapsed":225544,"internal_node_id":"0.0-8.0-0.28","subject":"lq6qkj7nl8qd4b7","sona":"8698"},{"rt":null,"stimulus":"<div style=\"font-size:60px;\">+</div>","key_press":null,"trial_type":"html-keyboard-response","trial_index":120,"time_elapsed":227561,"internal_node_id":"0.0-8.0-1.28","subject":"lq6qkj7nl8qd4b7","sona":"8698"},{"trial_type":"turing-test","trial_index":121,"time_elapsed":233222,"internal_node_id":"0.0-8.0-2.28","subject":"lq6qkj7nl8qd4b7","sona":"8698"},{"rt":264.98500001616776,"stimulus":"<p>Welche Sequenz haben Sie als natürlicher empfunden?</p>","key_press":70,"test_part":"response","test_stimulus":{"position":0,"left":"bvh/pass-bottle-training4-lines.txt","right":"bvh/vr_prediction_models/model(dmp)-dataset(pass-bottle)-npsi(40)-hold(4)/final-lines.txt","att_check":false},"trial_type":"html-keyboard-response","trial_index":122,"time_elapsed":233495,"internal_node_id":"0.0-8.0-3.28","subject":"lq6qkj7nl8qd4b7","sona":"8698"},{"rt":205.64000005833805,"stimulus":"<p>Bereit?</p>","key_press":32,"trial_type":"html-keyboard-response","trial_index":123,"time_elapsed":233706,"internal_node_id":"0.0-8.0-0.29","subject":"lq6qkj7nl8qd4b7","sona":"8698"},{"rt":null,"stimulus":"<div style=\"font-size:60px;\">+</div>","key_press":null,"trial_type":"html-keyboard-response","trial_index":124,"time_elapsed":235721,"internal_node_id":"0.0-8.0-1.29","subject":"lq6qkj7nl8qd4b7","sona":"8698"},{"trial_type":"turing-test","trial_index":125,"time_elapsed":239115,"internal_node_id":"0.0-8.0-2.29","subject":"lq6qkj7nl8qd4b7","sona":"8698"},{"rt":544.2900001071393,"stimulus":"<p>Welche Sequenz haben Sie als natürlicher empfunden?</p>","key_press":70,"test_part":"response","test_stimulus":{"position":0,"left":"bvh/pass-bottle-hold-training1-lines.txt","right":"bvh/vr_prediction_models/model(vcgpdm)-dataset(pass-bottle-hold)-mode(ELBO)-parts(3)-dyn(25)-lvm(30)-hold(1)/final-lines.txt","att_check":false},"trial_type":"html-keyboard-response","trial_index":126,"time_elapsed":239666,"internal_node_id":"0.0-8.0-3.29","subject":"lq6qkj7nl8qd4b7","sona":"8698"},{"rt":167.21500013954937,"stimulus":"<p>Bereit?</p>","key_press":32,"trial_type":"html-keyboard-response","trial_index":127,"time_elapsed":239838,"internal_node_id":"0.0-8.0-0.30","subject":"lq6qkj7nl8qd4b7","sona":"8698"},{"rt":null,"stimulus":"<div style=\"font-size:60px;\">+</div>","key_press":null,"trial_type":"html-keyboard-response","trial_index":128,"time_elapsed":241848,"internal_node_id":"0.0-8.0-1.30","subject":"lq6qkj7nl8qd4b7","sona":"8698"},{"trial_type":"turing-test","trial_index":129,"time_elapsed":247718,"internal_node_id":"0.0-8.0-2.30","subject":"lq6qkj7nl8qd4b7","sona":"8698"},{"rt":230.00500001944602,"stimulus":"<p>Welche Sequenz haben Sie als natürlicher empfunden?</p>","key_press":70,"test_part":"response","test_stimulus":{"position":0,"left":"bvh/return-bottle-training3-lines.txt","right":"bvh/vr_prediction_models/model(vcgpdm)-dataset(return-bottle)-mode(ELBO)-parts(3)-dyn(25)-lvm(25)-hold(3)/final-lines.txt","att_check":false},"trial_type":"html-keyboard-response","trial_index":130,"time_elapsed":247956,"internal_node_id":"0.0-8.0-3.30","subject":"lq6qkj7nl8qd4b7","sona":"8698"},{"rt":171.63999984040856,"stimulus":"<p>Bereit?</p>","key_press":32,"trial_type":"html-keyboard-response","trial_index":131,"time_elapsed":248133,"internal_node_id":"0.0-8.0-0.31","subject":"lq6qkj7nl8qd4b7","sona":"8698"},{"rt":null,"stimulus":"<div style=\"font-size:60px;\">+</div>","key_press":null,"trial_type":"html-keyboard-response","trial_index":132,"time_elapsed":250140,"internal_node_id":"0.0-8.0-1.31","subject":"lq6qkj7nl8qd4b7","sona":"8698"},{"trial_type":"turing-test","trial_index":133,"time_elapsed":256713,"internal_node_id":"0.0-8.0-2.31","subject":"lq6qkj7nl8qd4b7","sona":"8698"},{"rt":239.37000008299947,"stimulus":"<p>Welche Sequenz haben Sie als natürlicher empfunden?</p>","key_press":70,"test_part":"response","test_stimulus":{"position":0,"left":"bvh/return-bottle-training2-lines.txt","right":"bvh/vr_prediction_models/model(dmp)-dataset(return-bottle)-npsi(90)-hold(2)/final-lines.txt","att_check":true},"trial_type":"html-keyboard-response","trial_index":134,"time_elapsed":256961,"internal_node_id":"0.0-8.0-3.31","subject":"lq6qkj7nl8qd4b7","sona":"8698"},{"rt":226.78499994799495,"stimulus":"<p>Bereit?</p>","key_press":32,"trial_type":"html-keyboard-response","trial_index":135,"time_elapsed":257194,"internal_node_id":"0.0-8.0-0.32","subject":"lq6qkj7nl8qd4b7","sona":"8698"},{"rt":null,"stimulus":"<div style=\"font-size:60px;\">+</div>","key_press":null,"trial_type":"html-keyboard-response","trial_index":136,"time_elapsed":259214,"internal_node_id":"0.0-8.0-1.32","subject":"lq6qkj7nl8qd4b7","sona":"8698"},{"trial_type":"turing-test","trial_index":137,"time_elapsed":265034,"internal_node_id":"0.0-8.0-2.32","subject":"lq6qkj7nl8qd4b7","sona":"8698"},{"rt":249.28499991074204,"stimulus":"<p>Welche Sequenz haben Sie als natürlicher empfunden?</p>","key_press":70,"test_part":"response","test_stimulus":{"position":0,"left":"bvh/pass-bottle-training3-lines.txt","right":"bvh/vr_prediction_models/model(dmp)-dataset(pass-bottle)-npsi(100)-hold(3)/final-lines.txt","att_check":false},"trial_type":"html-keyboard-response","trial_index":138,"time_elapsed":265292,"internal_node_id":"0.0-8.0-3.32","subject":"lq6qkj7nl8qd4b7","sona":"8698"},{"rt":221.24000010080636,"stimulus":"<p>Bereit?</p>","key_press":32,"trial_type":"html-keyboard-response","trial_index":139,"time_elapsed":265522,"internal_node_id":"0.0-8.0-0.33","subject":"lq6qkj7nl8qd4b7","sona":"8698"},{"rt":null,"stimulus":"<div style=\"font-size:60px;\">+</div>","key_press":null,"trial_type":"html-keyboard-response","trial_index":140,"time_elapsed":267532,"internal_node_id":"0.0-8.0-1.33","subject":"lq6qkj7nl8qd4b7","sona":"8698"},{"trial_type":"turing-test","trial_index":141,"time_elapsed":273275,"internal_node_id":"0.0-8.0-2.33","subject":"lq6qkj7nl8qd4b7","sona":"8698"},{"rt":253.98000003769994,"stimulus":"<p>Welche Sequenz haben Sie als natürlicher empfunden?</p>","key_press":74,"test_part":"response","test_stimulus":{"position":1,"left":"bvh/vr_prediction_models/model(dmp)-dataset(pass-bottle)-npsi(90)-hold(4)/final-lines.txt","right":"bvh/pass-bottle-training4-lines.txt","att_check":false},"trial_type":"html-keyboard-response","trial_index":142,"time_elapsed":273537,"internal_node_id":"0.0-8.0-3.33","subject":"lq6qkj7nl8qd4b7","sona":"8698"},{"rt":194.88500012084842,"stimulus":"<p>Bereit?</p>","key_press":32,"trial_type":"html-keyboard-response","trial_index":143,"time_elapsed":273739,"internal_node_id":"0.0-8.0-0.34","subject":"lq6qkj7nl8qd4b7","sona":"8698"},{"rt":null,"stimulus":"<div style=\"font-size:60px;\">+</div>","key_press":null,"trial_type":"html-keyboard-response","trial_index":144,"time_elapsed":275753,"internal_node_id":"0.0-8.0-1.34","subject":"lq6qkj7nl8qd4b7","sona":"8698"},{"trial_type":"turing-test","trial_index":145,"time_elapsed":282693,"internal_node_id":"0.0-8.0-2.34","subject":"lq6qkj7nl8qd4b7","sona":"8698"},{"rt":299.5000001974404,"stimulus":"<p>Welche Sequenz haben Sie als natürlicher empfunden?</p>","key_press":74,"test_part":"response","test_stimulus":{"position":1,"left":"bvh/vr_prediction_models/model(vcgpdm)-dataset(pass-bottle)-mode(ELBO)-parts(1)-dyn(30)-lvm(20)-hold(0)/final-lines.txt","right":"bvh/pass-bottle-training0-lines.txt","att_check":false},"trial_type":"html-keyboard-response","trial_index":146,"time_elapsed":283001,"internal_node_id":"0.0-8.0-3.34","subject":"lq6qkj7nl8qd4b7","sona":"8698"},{"rt":216.52999985963106,"stimulus":"<p>Bereit?</p>","key_press":32,"trial_type":"html-keyboard-response","trial_index":147,"time_elapsed":283222,"internal_node_id":"0.0-8.0-0.35","subject":"lq6qkj7nl8qd4b7","sona":"8698"},{"rt":null,"stimulus":"<div style=\"font-size:60px;\">+</div>","key_press":null,"trial_type":"html-keyboard-response","trial_index":148,"time_elapsed":285228,"internal_node_id":"0.0-8.0-1.35","subject":"lq6qkj7nl8qd4b7","sona":"8698"},{"trial_type":"turing-test","trial_index":149,"time_elapsed":291014,"internal_node_id":"0.0-8.0-2.35","subject":"lq6qkj7nl8qd4b7","sona":"8698"},{"rt":306.06499989517033,"stimulus":"<p>Welche Sequenz haben Sie als natürlicher empfunden?</p>","key_press":74,"test_part":"response","test_stimulus":{"position":1,"left":"bvh/vr_prediction_models/model(vcgpdm)-dataset(return-bottle)-mode(ELBO)-parts(3)-dyn(25)-lvm(25)-hold(4)/final-lines.txt","right":"bvh/return-bottle-training4-lines.txt","att_check":false},"trial_type":"html-keyboard-response","trial_index":150,"time_elapsed":291328,"internal_node_id":"0.0-8.0-3.35","subject":"lq6qkj7nl8qd4b7","sona":"8698"},{"rt":238.33999992348254,"stimulus":"<p>Bereit?</p>","key_press":32,"trial_type":"html-keyboard-response","trial_index":151,"time_elapsed":291572,"internal_node_id":"0.0-8.0-0.36","subject":"lq6qkj7nl8qd4b7","sona":"8698"},{"rt":null,"stimulus":"<div style=\"font-size:60px;\">+</div>","key_press":null,"trial_type":"html-keyboard-response","trial_index":152,"time_elapsed":293590,"internal_node_id":"0.0-8.0-1.36","subject":"lq6qkj7nl8qd4b7","sona":"8698"},{"trial_type":"turing-test","trial_index":153,"time_elapsed":299358,"internal_node_id":"0.0-8.0-2.36","subject":"lq6qkj7nl8qd4b7","sona":"8698"},{"rt":311.8399998638779,"stimulus":"<p>Welche Sequenz haben Sie als natürlicher empfunden?</p>","key_press":70,"test_part":"response","test_stimulus":{"position":0,"left":"bvh/return-bottle-training4-lines.txt","right":"bvh/vr_prediction_models/model(tmp)-dataset(return-bottle)-numprim(6)-hold(4)/final-lines.txt","att_check":false},"trial_type":"html-keyboard-response","trial_index":154,"time_elapsed":299678,"internal_node_id":"0.0-8.0-3.36","subject":"lq6qkj7nl8qd4b7","sona":"8698"},{"rt":299.28999999538064,"stimulus":"<p>Bereit?</p>","key_press":32,"trial_type":"html-keyboard-response","trial_index":155,"time_elapsed":299984,"internal_node_id":"0.0-8.0-0.37","subject":"lq6qkj7nl8qd4b7","sona":"8698"},{"rt":null,"stimulus":"<div style=\"font-size:60px;\">+</div>","key_press":null,"trial_type":"html-keyboard-response","trial_index":156,"time_elapsed":302000,"internal_node_id":"0.0-8.0-1.37","subject":"lq6qkj7nl8qd4b7","sona":"8698"},{"trial_type":"turing-test","trial_index":157,"time_elapsed":305731,"internal_node_id":"0.0-8.0-2.37","subject":"lq6qkj7nl8qd4b7","sona":"8698"},{"rt":270.14999999664724,"stimulus":"<p>Welche Sequenz haben Sie als natürlicher empfunden?</p>","key_press":74,"test_part":"response","test_stimulus":{"position":1,"left":"bvh/vr_prediction_models/model(vcgpdm)-dataset(pass-bottle-hold)-mode(ELBO)-parts(3)-dyn(30)-lvm(15)-hold(4)/final-lines.txt","right":"bvh/pass-bottle-hold-training4-lines.txt","att_check":false},"trial_type":"html-keyboard-response","trial_index":158,"time_elapsed":306011,"internal_node_id":"0.0-8.0-3.37","subject":"lq6qkj7nl8qd4b7","sona":"8698"},{"rt":165.97999981604517,"stimulus":"<p>Bereit?</p>","key_press":32,"trial_type":"html-keyboard-response","trial_index":159,"time_elapsed":306183,"internal_node_id":"0.0-8.0-0.38","subject":"lq6qkj7nl8qd4b7","sona":"8698"},{"rt":null,"stimulus":"<div style=\"font-size:60px;\">+</div>","key_press":null,"trial_type":"html-keyboard-response","trial_index":160,"time_elapsed":308204,"internal_node_id":"0.0-8.0-1.38","subject":"lq6qkj7nl8qd4b7","sona":"8698"},{"trial_type":"turing-test","trial_index":161,"time_elapsed":314783,"internal_node_id":"0.0-8.0-2.38","subject":"lq6qkj7nl8qd4b7","sona":"8698"},{"rt":378.1700001563877,"stimulus":"<p>Welche Sequenz haben Sie als natürlicher empfunden?</p>","key_press":70,"test_part":"response","test_stimulus":{"position":1,"left":"bvh/vr_prediction_models/model(tmp)-dataset(return-bottle)-numprim(8)-hold(2)/final-lines.txt","right":"bvh/return-bottle-training2-lines.txt","att_check":false},"trial_type":"html-keyboard-response","trial_index":162,"time_elapsed":315169,"internal_node_id":"0.0-8.0-3.38","subject":"lq6qkj7nl8qd4b7","sona":"8698"},{"rt":3892.8849999792874,"stimulus":"<p>Bereit?</p>","key_press":32,"trial_type":"html-keyboard-response","trial_index":163,"time_elapsed":319069,"internal_node_id":"0.0-8.0-0.39","subject":"lq6qkj7nl8qd4b7","sona":"8698"},{"rt":null,"stimulus":"<div style=\"font-size:60px;\">+</div>","key_press":null,"trial_type":"html-keyboard-response","trial_index":164,"time_elapsed":321094,"internal_node_id":"0.0-8.0-1.39","subject":"lq6qkj7nl8qd4b7","sona":"8698"},{"trial_type":"turing-test","trial_index":165,"time_elapsed":327236,"internal_node_id":"0.0-8.0-2.39","subject":"lq6qkj7nl8qd4b7","sona":"8698"},{"rt":502.2700000554323,"stimulus":"<p>Welche Sequenz haben Sie als natürlicher empfunden?</p>","key_press":74,"test_part":"response","test_stimulus":{"position":1,"left":"bvh/vr_prediction_models/model(vcgpdm)-dataset(pass-bottle)-mode(ELBO)-parts(3)-dyn(10)-lvm(25)-hold(2)/final-lines.txt","right":"bvh/pass-bottle-training2-lines.txt","att_check":false},"trial_type":"html-keyboard-response","trial_index":166,"time_elapsed":327747,"internal_node_id":"0.0-8.0-3.39","subject":"lq6qkj7nl8qd4b7","sona":"8698"},{"rt":244.7999999858439,"stimulus":"<p>Bereit?</p>","key_press":32,"trial_type":"html-keyboard-response","trial_index":167,"time_elapsed":327996,"internal_node_id":"0.0-8.0-0.40","subject":"lq6qkj7nl8qd4b7","sona":"8698"},{"rt":null,"stimulus":"<div style=\"font-size:60px;\">+</div>","key_press":null,"trial_type":"html-keyboard-response","trial_index":168,"time_elapsed":330025,"internal_node_id":"0.0-8.0-1.40","subject":"lq6qkj7nl8qd4b7","sona":"8698"},{"trial_type":"turing-test","trial_index":169,"time_elapsed":333344,"internal_node_id":"0.0-8.0-2.40","subject":"lq6qkj7nl8qd4b7","sona":"8698"},{"rt":472.91500004939735,"stimulus":"<p>Welche Sequenz haben Sie als natürlicher empfunden?</p>","key_press":74,"test_part":"response","test_stimulus":{"position":0,"left":"bvh/pass-bottle-hold-training2-lines.txt","right":"bvh/vr_prediction_models/model(tmp)-dataset(pass-bottle-hold)-numprim(15)-hold(2)/final-lines.txt","att_check":false},"trial_type":"html-keyboard-response","trial_index":170,"time_elapsed":333824,"internal_node_id":"0.0-8.0-3.40","subject":"lq6qkj7nl8qd4b7","sona":"8698"},{"rt":171.44499998539686,"stimulus":"<p>Bereit?</p>","key_press":32,"trial_type":"html-keyboard-response","trial_index":171,"time_elapsed":334003,"internal_node_id":"0.0-8.0-0.41","subject":"lq6qkj7nl8qd4b7","sona":"8698"},{"rt":null,"stimulus":"<div style=\"font-size:60px;\">+</div>","key_press":null,"trial_type":"html-keyboard-response","trial_index":172,"time_elapsed":336021,"internal_node_id":"0.0-8.0-1.41","subject":"lq6qkj7nl8qd4b7","sona":"8698"},{"trial_type":"turing-test","trial_index":173,"time_elapsed":342102,"internal_node_id":"0.0-8.0-2.41","subject":"lq6qkj7nl8qd4b7","sona":"8698"},{"rt":268.51000008173287,"stimulus":"<p>Welche Sequenz haben Sie als natürlicher empfunden?</p>","key_press":70,"test_part":"response","test_stimulus":{"position":0,"left":"bvh/pass-bottle-training2-lines.txt","right":"bvh/vr_prediction_models/model(tmp)-dataset(pass-bottle)-numprim(7)-hold(2)/final-lines.txt","att_check":false},"trial_type":"html-keyboard-response","trial_index":174,"time_elapsed":342382,"internal_node_id":"0.0-8.0-3.41","subject":"lq6qkj7nl8qd4b7","sona":"8698"},{"rt":168.94499980844557,"stimulus":"<p>Bereit?</p>","key_press":32,"trial_type":"html-keyboard-response","trial_index":175,"time_elapsed":342558,"internal_node_id":"0.0-8.0-0.42","subject":"lq6qkj7nl8qd4b7","sona":"8698"},{"rt":null,"stimulus":"<div style=\"font-size:60px;\">+</div>","key_press":null,"trial_type":"html-keyboard-response","trial_index":176,"time_elapsed":344581,"internal_node_id":"0.0-8.0-1.42","subject":"lq6qkj7nl8qd4b7","sona":"8698"},{"trial_type":"turing-test","trial_index":177,"time_elapsed":347931,"internal_node_id":"0.0-8.0-2.42","subject":"lq6qkj7nl8qd4b7","sona":"8698"},{"rt":246.00000004284084,"stimulus":"<p>Welche Sequenz haben Sie als natürlicher empfunden?</p>","key_press":70,"test_part":"response","test_stimulus":{"position":0,"left":"bvh/pass-bottle-hold-training0-lines.txt","right":"bvh/vr_prediction_models/model(tmp)-dataset(pass-bottle-hold)-numprim(12)-hold(0)/final-lines.txt","att_check":false},"trial_type":"html-keyboard-response","trial_index":178,"time_elapsed":348185,"internal_node_id":"0.0-8.0-3.42","subject":"lq6qkj7nl8qd4b7","sona":"8698"},{"rt":180.3050001617521,"stimulus":"<p>Bereit?</p>","key_press":32,"trial_type":"html-keyboard-response","trial_index":179,"time_elapsed":348375,"internal_node_id":"0.0-8.0-0.43","subject":"lq6qkj7nl8qd4b7","sona":"8698"},{"rt":null,"stimulus":"<div style=\"font-size:60px;\">+</div>","key_press":null,"trial_type":"html-keyboard-response","trial_index":180,"time_elapsed":350396,"internal_node_id":"0.0-8.0-1.43","subject":"lq6qkj7nl8qd4b7","sona":"8698"},{"trial_type":"turing-test","trial_index":181,"time_elapsed":354088,"internal_node_id":"0.0-8.0-2.43","subject":"lq6qkj7nl8qd4b7","sona":"8698"},{"rt":239.83500013127923,"stimulus":"<p>Welche Sequenz haben Sie als natürlicher empfunden?</p>","key_press":70,"test_part":"response","test_stimulus":{"position":1,"left":"bvh/vr_prediction_models/model(tmp)-dataset(return-bottle-hold)-numprim(11)-hold(4)/final-lines.txt","right":"bvh/return-bottle-hold-training4-lines.txt","att_check":false},"trial_type":"html-keyboard-response","trial_index":182,"time_elapsed":354337,"internal_node_id":"0.0-8.0-3.43","subject":"lq6qkj7nl8qd4b7","sona":"8698"},{"rt":182.2999999858439,"stimulus":"<p>Bereit?</p>","key_press":32,"trial_type":"html-keyboard-response","trial_index":183,"time_elapsed":354526,"internal_node_id":"0.0-8.0-0.44","subject":"lq6qkj7nl8qd4b7","sona":"8698"},{"rt":null,"stimulus":"<div style=\"font-size:60px;\">+</div>","key_press":null,"trial_type":"html-keyboard-response","trial_index":184,"time_elapsed":356547,"internal_node_id":"0.0-8.0-1.44","subject":"lq6qkj7nl8qd4b7","sona":"8698"},{"trial_type":"turing-test","trial_index":185,"time_elapsed":359871,"internal_node_id":"0.0-8.0-2.44","subject":"lq6qkj7nl8qd4b7","sona":"8698"},{"rt":211.82999992743134,"stimulus":"<p>Welche Sequenz haben Sie als natürlicher empfunden?</p>","key_press":70,"test_part":"response","test_stimulus":{"position":0,"left":"bvh/pass-bottle-hold-training2-lines.txt","right":"bvh/vr_prediction_models/model(tmp)-dataset(pass-bottle-hold)-numprim(8)-hold(2)/final-lines.txt","att_check":false},"trial_type":"html-keyboard-response","trial_index":186,"time_elapsed":360091,"internal_node_id":"0.0-8.0-3.44","subject":"lq6qkj7nl8qd4b7","sona":"8698"},{"rt":201.3749999459833,"stimulus":"<p>Bereit?</p>","key_press":32,"trial_type":"html-keyboard-response","trial_index":187,"time_elapsed":360300,"internal_node_id":"0.0-8.0-0.45","subject":"lq6qkj7nl8qd4b7","sona":"8698"},{"rt":null,"stimulus":"<div style=\"font-size:60px;\">+</div>","key_press":null,"trial_type":"html-keyboard-response","trial_index":188,"time_elapsed":362305,"internal_node_id":"0.0-8.0-1.45","subject":"lq6qkj7nl8qd4b7","sona":"8698"},{"trial_type":"turing-test","trial_index":189,"time_elapsed":365881,"internal_node_id":"0.0-8.0-2.45","subject":"lq6qkj7nl8qd4b7","sona":"8698"},{"rt":297.74000006727874,"stimulus":"<p>Welche Sequenz haben Sie als natürlicher empfunden?</p>","key_press":74,"test_part":"response","test_stimulus":{"position":1,"left":"bvh/vr_prediction_models/model(tmp)-dataset(pass-bottle-hold)-numprim(5)-hold(4)/final-lines.txt","right":"bvh/pass-bottle-hold-training4-lines.txt","att_check":false},"trial_type":"html-keyboard-response","trial_index":190,"time_elapsed":366187,"internal_node_id":"0.0-8.0-3.45","subject":"lq6qkj7nl8qd4b7","sona":"8698"},{"rt":205.2799998782575,"stimulus":"<p>Bereit?</p>","key_press":32,"trial_type":"html-keyboard-response","trial_index":191,"time_elapsed":366401,"internal_node_id":"0.0-8.0-0.46","subject":"lq6qkj7nl8qd4b7","sona":"8698"},{"rt":null,"stimulus":"<div style=\"font-size:60px;\">+</div>","key_press":null,"trial_type":"html-keyboard-response","trial_index":192,"time_elapsed":368426,"internal_node_id":"0.0-8.0-1.46","subject":"lq6qkj7nl8qd4b7","sona":"8698"},{"trial_type":"turing-test","trial_index":193,"time_elapsed":374969,"internal_node_id":"0.0-8.0-2.46","subject":"lq6qkj7nl8qd4b7","sona":"8698"},{"rt":254.52499999664724,"stimulus":"<p>Welche Sequenz haben Sie als natürlicher empfunden?</p>","key_press":74,"test_part":"response","test_stimulus":{"position":1,"left":"bvh/vr_prediction_models/model(tmp)-dataset(return-bottle)-numprim(5)-hold(2)/final-lines.txt","right":"bvh/return-bottle-training2-lines.txt","att_check":false},"trial_type":"html-keyboard-response","trial_index":194,"time_elapsed":375233,"internal_node_id":"0.0-8.0-3.46","subject":"lq6qkj7nl8qd4b7","sona":"8698"},{"rt":181.8399999756366,"stimulus":"<p>Bereit?</p>","key_press":32,"trial_type":"html-keyboard-response","trial_index":195,"time_elapsed":375427,"internal_node_id":"0.0-8.0-0.47","subject":"lq6qkj7nl8qd4b7","sona":"8698"},{"rt":null,"stimulus":"<div style=\"font-size:60px;\">+</div>","key_press":null,"trial_type":"html-keyboard-response","trial_index":196,"time_elapsed":377444,"internal_node_id":"0.0-8.0-1.47","subject":"lq6qkj7nl8qd4b7","sona":"8698"},{"trial_type":"turing-test","trial_index":197,"time_elapsed":383831,"internal_node_id":"0.0-8.0-2.47","subject":"lq6qkj7nl8qd4b7","sona":"8698"},{"rt":328.04000005126,"stimulus":"<p>Welche Sequenz haben Sie als natürlicher empfunden?</p>","key_press":70,"test_part":"response","test_stimulus":{"position":0,"left":"bvh/return-bottle-training1-lines.txt","right":"bvh/vr_prediction_models/model(vcgpdm)-dataset(return-bottle)-mode(ELBO)-parts(1)-dyn(25)-lvm(35)-hold(1)/final-lines.txt","att_check":false},"trial_type":"html-keyboard-response","trial_index":198,"time_elapsed":384168,"internal_node_id":"0.0-8.0-3.47","subject":"lq6qkj7nl8qd4b7","sona":"8698"},{"rt":185.33500004559755,"stimulus":"<p>Bereit?</p>","key_press":32,"trial_type":"html-keyboard-response","trial_index":199,"time_elapsed":384360,"internal_node_id":"0.0-8.0-0.48","subject":"lq6qkj7nl8qd4b7","sona":"8698"},{"rt":null,"stimulus":"<div style=\"font-size:60px;\">+</div>","key_press":null,"trial_type":"html-keyboard-response","trial_index":200,"time_elapsed":386388,"internal_node_id":"0.0-8.0-1.48","subject":"lq6qkj7nl8qd4b7","sona":"8698"},{"trial_type":"turing-test","trial_index":201,"time_elapsed":392226,"internal_node_id":"0.0-8.0-2.48","subject":"lq6qkj7nl8qd4b7","sona":"8698"},{"rt":403.4049999900162,"stimulus":"<p>Welche Sequenz haben Sie als natürlicher empfunden?</p>","key_press":74,"test_part":"response","test_stimulus":{"position":1,"left":"bvh/vr_prediction_models/model(dmp)-dataset(pass-bottle)-npsi(10)-hold(3)/final-lines.txt","right":"bvh/pass-bottle-training3-lines.txt","att_check":true},"trial_type":"html-keyboard-response","trial_index":202,"time_elapsed":392639,"internal_node_id":"0.0-8.0-3.48","subject":"lq6qkj7nl8qd4b7","sona":"8698"},{"rt":274.4949997868389,"stimulus":"<p>Bereit?</p>","key_press":32,"trial_type":"html-keyboard-response","trial_index":203,"time_elapsed":392919,"internal_node_id":"0.0-8.0-0.49","subject":"lq6qkj7nl8qd4b7","sona":"8698"},{"rt":null,"stimulus":"<div style=\"font-size:60px;\">+</div>","key_press":null,"trial_type":"html-keyboard-response","trial_index":204,"time_elapsed":394938,"internal_node_id":"0.0-8.0-1.49","subject":"lq6qkj7nl8qd4b7","sona":"8698"},{"trial_type":"turing-test","trial_index":205,"time_elapsed":401691,"internal_node_id":"0.0-8.0-2.49","subject":"lq6qkj7nl8qd4b7","sona":"8698"},{"rt":298.8449998665601,"stimulus":"<p>Welche Sequenz haben Sie als natürlicher empfunden?</p>","key_press":74,"test_part":"response","test_stimulus":{"position":1,"left":"bvh/vr_prediction_models/model(tmp)-dataset(pass-bottle)-numprim(3)-hold(0)/final-lines.txt","right":"bvh/pass-bottle-training0-lines.txt","att_check":false},"trial_type":"html-keyboard-response","trial_index":206,"time_elapsed":401999,"internal_node_id":"0.0-8.0-3.49","subject":"lq6qkj7nl8qd4b7","sona":"8698"},{"rt":198.46500013954937,"stimulus":"<p>Bereit?</p>","key_press":32,"trial_type":"html-keyboard-response","trial_index":207,"time_elapsed":402208,"internal_node_id":"0.0-8.0-0.50","subject":"lq6qkj7nl8qd4b7","sona":"8698"},{"rt":null,"stimulus":"<div style=\"font-size:60px;\">+</div>","key_press":null,"trial_type":"html-keyboard-response","trial_index":208,"time_elapsed":404228,"internal_node_id":"0.0-8.0-1.50","subject":"lq6qkj7nl8qd4b7","sona":"8698"},{"trial_type":"turing-test","trial_index":209,"time_elapsed":407901,"internal_node_id":"0.0-8.0-2.50","subject":"lq6qkj7nl8qd4b7","sona":"8698"},{"rt":257.87500012665987,"stimulus":"<p>Welche Sequenz haben Sie als natürlicher empfunden?</p>","key_press":70,"test_part":"response","test_stimulus":{"position":0,"left":"bvh/return-bottle-hold-training2-lines.txt","right":"bvh/vr_prediction_models/model(vcgpdm)-dataset(return-bottle-hold)-mode(ELBO)-parts(3)-dyn(20)-lvm(20)-hold(2)/final-lines.txt","att_check":false},"trial_type":"html-keyboard-response","trial_index":210,"time_elapsed":408166,"internal_node_id":"0.0-8.0-3.50","subject":"lq6qkj7nl8qd4b7","sona":"8698"},{"rt":165.9649999346584,"stimulus":"<p>Bereit?</p>","key_press":32,"trial_type":"html-keyboard-response","trial_index":211,"time_elapsed":408340,"internal_node_id":"0.0-8.0-0.51","subject":"lq6qkj7nl8qd4b7","sona":"8698"},{"rt":null,"stimulus":"<div style=\"font-size:60px;\">+</div>","key_press":null,"trial_type":"html-keyboard-response","trial_index":212,"time_elapsed":410350,"internal_node_id":"0.0-8.0-1.51","subject":"lq6qkj7nl8qd4b7","sona":"8698"},{"trial_type":"turing-test","trial_index":213,"time_elapsed":416256,"internal_node_id":"0.0-8.0-2.51","subject":"lq6qkj7nl8qd4b7","sona":"8698"},{"rt":256.86499988660216,"stimulus":"<p>Welche Sequenz haben Sie als natürlicher empfunden?</p>","key_press":70,"test_part":"response","test_stimulus":{"position":0,"left":"bvh/pass-bottle-training4-lines.txt","right":"bvh/vr_prediction_models/model(vcgpdm)-dataset(pass-bottle)-mode(ELBO)-parts(1)-dyn(30)-lvm(30)-hold(4)/final-lines.txt","att_check":false},"trial_type":"html-keyboard-response","trial_index":214,"time_elapsed":416522,"internal_node_id":"0.0-8.0-3.51","subject":"lq6qkj7nl8qd4b7","sona":"8698"},{"rt":188.67500009946525,"stimulus":"<p>Bereit?</p>","key_press":32,"trial_type":"html-keyboard-response","trial_index":215,"time_elapsed":416722,"internal_node_id":"0.0-8.0-0.52","subject":"lq6qkj7nl8qd4b7","sona":"8698"},{"rt":null,"stimulus":"<div style=\"font-size:60px;\">+</div>","key_press":null,"trial_type":"html-keyboard-response","trial_index":216,"time_elapsed":418737,"internal_node_id":"0.0-8.0-1.52","subject":"lq6qkj7nl8qd4b7","sona":"8698"},{"trial_type":"turing-test","trial_index":217,"time_elapsed":422343,"internal_node_id":"0.0-8.0-2.52","subject":"lq6qkj7nl8qd4b7","sona":"8698"},{"rt":274.70499998889863,"stimulus":"<p>Welche Sequenz haben Sie als natürlicher empfunden?</p>","key_press":74,"test_part":"response","test_stimulus":{"position":1,"left":"bvh/vr_prediction_models/model(vcgpdm)-dataset(pass-bottle-hold)-mode(ELBO)-parts(1)-dyn(30)-lvm(30)-hold(3)/final-lines.txt","right":"bvh/pass-bottle-hold-training3-lines.txt","att_check":false},"trial_type":"html-keyboard-response","trial_index":218,"time_elapsed":422627,"internal_node_id":"0.0-8.0-3.52","subject":"lq6qkj7nl8qd4b7","sona":"8698"},{"rt":181.7799999844283,"stimulus":"<p>Bereit?</p>","key_press":32,"trial_type":"html-keyboard-response","trial_index":219,"time_elapsed":422817,"internal_node_id":"0.0-8.0-0.53","subject":"lq6qkj7nl8qd4b7","sona":"8698"},{"rt":null,"stimulus":"<div style=\"font-size:60px;\">+</div>","key_press":null,"trial_type":"html-keyboard-response","trial_index":220,"time_elapsed":424841,"internal_node_id":"0.0-8.0-1.53","subject":"lq6qkj7nl8qd4b7","sona":"8698"},{"trial_type":"turing-test","trial_index":221,"time_elapsed":428552,"internal_node_id":"0.0-8.0-2.53","subject":"lq6qkj7nl8qd4b7","sona":"8698"},{"rt":265.1099998038262,"stimulus":"<p>Welche Sequenz haben Sie als natürlicher empfunden?</p>","key_press":70,"test_part":"response","test_stimulus":{"position":0,"left":"bvh/pass-bottle-hold-training3-lines.txt","right":"bvh/vr_prediction_models/model(vcgpdm)-dataset(pass-bottle-hold)-mode(ELBO)-parts(3)-dyn(20)-lvm(20)-hold(3)/final-lines.txt","att_check":false},"trial_type":"html-keyboard-response","trial_index":222,"time_elapsed":428829,"internal_node_id":"0.0-8.0-3.53","subject":"lq6qkj7nl8qd4b7","sona":"8698"},{"rt":192.77999992482364,"stimulus":"<p>Bereit?</p>","key_press":32,"trial_type":"html-keyboard-response","trial_index":223,"time_elapsed":429031,"internal_node_id":"0.0-8.0-0.54","subject":"lq6qkj7nl8qd4b7","sona":"8698"},{"rt":null,"stimulus":"<div style=\"font-size:60px;\">+</div>","key_press":null,"trial_type":"html-keyboard-response","trial_index":224,"time_elapsed":431062,"internal_node_id":"0.0-8.0-1.54","subject":"lq6qkj7nl8qd4b7","sona":"8698"},{"trial_type":"turing-test","trial_index":225,"time_elapsed":437625,"internal_node_id":"0.0-8.0-2.54","subject":"lq6qkj7nl8qd4b7","sona":"8698"},{"rt":237.90499987080693,"stimulus":"<p>Welche Sequenz haben Sie als natürlicher empfunden?</p>","key_press":70,"test_part":"response","test_stimulus":{"position":0,"left":"bvh/return-bottle-training2-lines.txt","right":"bvh/vr_prediction_models/model(tmp)-dataset(return-bottle)-numprim(6)-hold(2)/final-lines.txt","att_check":false},"trial_type":"html-keyboard-response","trial_index":226,"time_elapsed":437873,"internal_node_id":"0.0-8.0-3.54","subject":"lq6qkj7nl8qd4b7","sona":"8698"},{"rt":182.4849999975413,"stimulus":"<p>Bereit?</p>","key_press":32,"trial_type":"html-keyboard-response","trial_index":227,"time_elapsed":438063,"internal_node_id":"0.0-8.0-0.55","subject":"lq6qkj7nl8qd4b7","sona":"8698"},{"rt":null,"stimulus":"<div style=\"font-size:60px;\">+</div>","key_press":null,"trial_type":"html-keyboard-response","trial_index":228,"time_elapsed":440094,"internal_node_id":"0.0-8.0-1.55","subject":"lq6qkj7nl8qd4b7","sona":"8698"},{"trial_type":"turing-test","trial_index":229,"time_elapsed":445834,"internal_node_id":"0.0-8.0-2.55","subject":"lq6qkj7nl8qd4b7","sona":"8698"},{"rt":257.3299999348819,"stimulus":"<p>Welche Sequenz haben Sie als natürlicher empfunden?</p>","key_press":70,"test_part":"response","test_stimulus":{"position":0,"left":"bvh/pass-bottle-training4-lines.txt","right":"bvh/vr_prediction_models/model(vcgpdm)-dataset(pass-bottle)-mode(ELBO)-parts(1)-dyn(25)-lvm(35)-hold(4)/final-lines.txt","att_check":false},"trial_type":"html-keyboard-response","trial_index":230,"time_elapsed":446103,"internal_node_id":"0.0-8.0-3.55","subject":"lq6qkj7nl8qd4b7","sona":"8698"},{"rt":200.98500000312924,"stimulus":"<p>Bereit?</p>","key_press":32,"trial_type":"html-keyboard-response","trial_index":231,"time_elapsed":446314,"internal_node_id":"0.0-8.0-0.56","subject":"lq6qkj7nl8qd4b7","sona":"8698"},{"rt":null,"stimulus":"<div style=\"font-size:60px;\">+</div>","key_press":null,"trial_type":"html-keyboard-response","trial_index":232,"time_elapsed":448341,"internal_node_id":"0.0-8.0-1.56","subject":"lq6qkj7nl8qd4b7","sona":"8698"},{"trial_type":"turing-test","trial_index":233,"time_elapsed":454294,"internal_node_id":"0.0-8.0-2.56","subject":"lq6qkj7nl8qd4b7","sona":"8698"},{"rt":148.47500016912818,"stimulus":"<p>Welche Sequenz haben Sie als natürlicher empfunden?</p>","key_press":70,"test_part":"response","test_stimulus":{"position":0,"left":"bvh/pass-bottle-training3-lines.txt","right":"bvh/vr_prediction_models/model(vcgpdm)-dataset(pass-bottle)-mode(ELBO)-parts(1)-dyn(20)-lvm(5)-hold(3)/final-lines.txt","att_check":false},"trial_type":"html-keyboard-response","trial_index":234,"time_elapsed":454452,"internal_node_id":"0.0-8.0-3.56","subject":"lq6qkj7nl8qd4b7","sona":"8698"},{"rt":233.65500010550022,"stimulus":"<p>Bereit?</p>","key_press":32,"trial_type":"html-keyboard-response","trial_index":235,"time_elapsed":454693,"internal_node_id":"0.0-8.0-0.57","subject":"lq6qkj7nl8qd4b7","sona":"8698"},{"rt":null,"stimulus":"<div style=\"font-size:60px;\">+</div>","key_press":null,"trial_type":"html-keyboard-response","trial_index":236,"time_elapsed":456711,"internal_node_id":"0.0-8.0-1.57","subject":"lq6qkj7nl8qd4b7","sona":"8698"},{"trial_type":"turing-test","trial_index":237,"time_elapsed":462792,"internal_node_id":"0.0-8.0-2.57","subject":"lq6qkj7nl8qd4b7","sona":"8698"},{"rt":334.8499999847263,"stimulus":"<p>Welche Sequenz haben Sie als natürlicher empfunden?</p>","key_press":74,"test_part":"response","test_stimulus":{"position":1,"left":"bvh/vr_prediction_models/model(vcgpdm)-dataset(return-bottle)-mode(ELBO)-parts(3)-dyn(10)-lvm(25)-hold(1)/final-lines.txt","right":"bvh/return-bottle-training1-lines.txt","att_check":false},"trial_type":"html-keyboard-response","trial_index":238,"time_elapsed":463138,"internal_node_id":"0.0-8.0-3.57","subject":"lq6qkj7nl8qd4b7","sona":"8698"},{"rt":249.57500002346933,"stimulus":"<p>Bereit?</p>","key_press":32,"trial_type":"html-keyboard-response","trial_index":239,"time_elapsed":463395,"internal_node_id":"0.0-8.0-0.58","subject":"lq6qkj7nl8qd4b7","sona":"8698"},{"rt":null,"stimulus":"<div style=\"font-size:60px;\">+</div>","key_press":null,"trial_type":"html-keyboard-response","trial_index":240,"time_elapsed":465420,"internal_node_id":"0.0-8.0-1.58","subject":"lq6qkj7nl8qd4b7","sona":"8698"},{"trial_type":"turing-test","trial_index":241,"time_elapsed":469031,"internal_node_id":"0.0-8.0-2.58","subject":"lq6qkj7nl8qd4b7","sona":"8698"},{"rt":410.4899999219924,"stimulus":"<p>Welche Sequenz haben Sie als natürlicher empfunden?</p>","key_press":74,"test_part":"response","test_stimulus":{"position":1,"left":"bvh/vr_prediction_models/model(dmp)-dataset(return-bottle-hold)-npsi(60)-hold(3)/final-lines.txt","right":"bvh/return-bottle-hold-training3-lines.txt","att_check":false},"trial_type":"html-keyboard-response","trial_index":242,"time_elapsed":469450,"internal_node_id":"0.0-8.0-3.58","subject":"lq6qkj7nl8qd4b7","sona":"8698"},{"rt":127.79000005684793,"stimulus":"<p>Bereit?</p>","key_press":32,"trial_type":"html-keyboard-response","trial_index":243,"time_elapsed":469586,"internal_node_id":"0.0-8.0-0.59","subject":"lq6qkj7nl8qd4b7","sona":"8698"},{"rt":null,"stimulus":"<div style=\"font-size:60px;\">+</div>","key_press":null,"trial_type":"html-keyboard-response","trial_index":244,"time_elapsed":471615,"internal_node_id":"0.0-8.0-1.59","subject":"lq6qkj7nl8qd4b7","sona":"8698"},{"trial_type":"turing-test","trial_index":245,"time_elapsed":475215,"internal_node_id":"0.0-8.0-2.59","subject":"lq6qkj7nl8qd4b7","sona":"8698"},{"rt":138.01499991677701,"stimulus":"<p>Welche Sequenz haben Sie als natürlicher empfunden?</p>","key_press":70,"test_part":"response","test_stimulus":{"position":0,"left":"bvh/pass-bottle-hold-training3-lines.txt","right":"bvh/vr_prediction_models/model(tmp)-dataset(pass-bottle-hold)-numprim(5)-hold(3)/final-lines.txt","att_check":false},"trial_type":"html-keyboard-response","trial_index":246,"time_elapsed":475363,"internal_node_id":"0.0-8.0-3.59","subject":"lq6qkj7nl8qd4b7","sona":"8698"},{"rt":165.88500002399087,"stimulus":"<p>Bereit?</p>","key_press":32,"trial_type":"html-keyboard-response","trial_index":247,"time_elapsed":475538,"internal_node_id":"0.0-8.0-0.60","subject":"lq6qkj7nl8qd4b7","sona":"8698"},{"rt":null,"stimulus":"<div style=\"font-size:60px;\">+</div>","key_press":null,"trial_type":"html-keyboard-response","trial_index":248,"time_elapsed":477561,"internal_node_id":"0.0-8.0-1.60","subject":"lq6qkj7nl8qd4b7","sona":"8698"},{"trial_type":"turing-test","trial_index":249,"time_elapsed":481412,"internal_node_id":"0.0-8.0-2.60","subject":"lq6qkj7nl8qd4b7","sona":"8698"},{"rt":238.62499999813735,"stimulus":"<p>Welche Sequenz haben Sie als natürlicher empfunden?</p>","key_press":74,"test_part":"response","test_stimulus":{"position":1,"left":"bvh/vr_prediction_models/model(vcgpdm)-dataset(return-bottle-hold)-mode(ELBO)-parts(1)-dyn(30)-lvm(35)-hold(3)/final-lines.txt","right":"bvh/return-bottle-hold-training3-lines.txt","att_check":false},"trial_type":"html-keyboard-response","trial_index":250,"time_elapsed":481660,"internal_node_id":"0.0-8.0-3.60","subject":"lq6qkj7nl8qd4b7","sona":"8698"},{"rt":171.2749998550862,"stimulus":"<p>Bereit?</p>","key_press":32,"trial_type":"html-keyboard-response","trial_index":251,"time_elapsed":481838,"internal_node_id":"0.0-8.0-0.61","subject":"lq6qkj7nl8qd4b7","sona":"8698"},{"rt":null,"stimulus":"<div style=\"font-size:60px;\">+</div>","key_press":null,"trial_type":"html-keyboard-response","trial_index":252,"time_elapsed":483862,"internal_node_id":"0.0-8.0-1.61","subject":"lq6qkj7nl8qd4b7","sona":"8698"},{"trial_type":"turing-test","trial_index":253,"time_elapsed":487181,"internal_node_id":"0.0-8.0-2.61","subject":"lq6qkj7nl8qd4b7","sona":"8698"},{"rt":347.8200000245124,"stimulus":"<p>Welche Sequenz haben Sie als natürlicher empfunden?</p>","key_press":74,"test_part":"response","test_stimulus":{"position":1,"left":"bvh/vr_prediction_models/model(dmp)-dataset(return-bottle-hold)-npsi(10)-hold(1)/final-lines.txt","right":"bvh/return-bottle-hold-training1-lines.txt","att_check":false},"trial_type":"html-keyboard-response","trial_index":254,"time_elapsed":487544,"internal_node_id":"0.0-8.0-3.61","subject":"lq6qkj7nl8qd4b7","sona":"8698"},{"rt":128.0599997844547,"stimulus":"<p>Bereit?</p>","key_press":32,"trial_type":"html-keyboard-response","trial_index":255,"time_elapsed":487684,"internal_node_id":"0.0-8.0-0.62","subject":"lq6qkj7nl8qd4b7","sona":"8698"},{"rt":null,"stimulus":"<div style=\"font-size:60px;\">+</div>","key_press":null,"trial_type":"html-keyboard-response","trial_index":256,"time_elapsed":489698,"internal_node_id":"0.0-8.0-1.62","subject":"lq6qkj7nl8qd4b7","sona":"8698"},{"trial_type":"turing-test","trial_index":257,"time_elapsed":493461,"internal_node_id":"0.0-8.0-2.62","subject":"lq6qkj7nl8qd4b7","sona":"8698"},{"rt":247.60999996215105,"stimulus":"<p>Welche Sequenz haben Sie als natürlicher empfunden?</p>","key_press":74,"test_part":"response","test_stimulus":{"position":1,"left":"bvh/vr_prediction_models/model(vcgpdm)-dataset(return-bottle-hold)-mode(ELBO)-parts(3)-dyn(10)-lvm(10)-hold(2)/final-lines.txt","right":"bvh/return-bottle-hold-training2-lines.txt","att_check":false},"trial_type":"html-keyboard-response","trial_index":258,"time_elapsed":493718,"internal_node_id":"0.0-8.0-3.62","subject":"lq6qkj7nl8qd4b7","sona":"8698"},{"rt":361.94000020623207,"stimulus":"<p>Bereit?</p>","key_press":32,"trial_type":"html-keyboard-response","trial_index":259,"time_elapsed":494087,"internal_node_id":"0.0-8.0-0.63","subject":"lq6qkj7nl8qd4b7","sona":"8698"},{"rt":null,"stimulus":"<div style=\"font-size:60px;\">+</div>","key_press":null,"trial_type":"html-keyboard-response","trial_index":260,"time_elapsed":496111,"internal_node_id":"0.0-8.0-1.63","subject":"lq6qkj7nl8qd4b7","sona":"8698"},{"trial_type":"turing-test","trial_index":261,"time_elapsed":502330,"internal_node_id":"0.0-8.0-2.63","subject":"lq6qkj7nl8qd4b7","sona":"8698"},{"rt":246.58000003546476,"stimulus":"<p>Welche Sequenz haben Sie als natürlicher empfunden?</p>","key_press":70,"test_part":"response","test_stimulus":{"position":0,"left":"bvh/return-bottle-training1-lines.txt","right":"bvh/vr_prediction_models/model(tmp)-dataset(return-bottle)-numprim(4)-hold(1)/final-lines.txt","att_check":false},"trial_type":"html-keyboard-response","trial_index":262,"time_elapsed":502587,"internal_node_id":"0.0-8.0-3.63","subject":"lq6qkj7nl8qd4b7","sona":"8698"},{"rt":234.8350000102073,"stimulus":"<p>Bereit?</p>","key_press":32,"trial_type":"html-keyboard-response","trial_index":263,"time_elapsed":502829,"internal_node_id":"0.0-8.0-0.64","subject":"lq6qkj7nl8qd4b7","sona":"8698"},{"rt":null,"stimulus":"<div style=\"font-size:60px;\">+</div>","key_press":null,"trial_type":"html-keyboard-response","trial_index":264,"time_elapsed":504857,"internal_node_id":"0.0-8.0-1.64","subject":"lq6qkj7nl8qd4b7","sona":"8698"},{"trial_type":"turing-test","trial_index":265,"time_elapsed":510920,"internal_node_id":"0.0-8.0-2.64","subject":"lq6qkj7nl8qd4b7","sona":"8698"},{"rt":229.52499985694885,"stimulus":"<p>Welche Sequenz haben Sie als natürlicher empfunden?</p>","key_press":70,"test_part":"response","test_stimulus":{"position":0,"left":"bvh/pass-bottle-training2-lines.txt","right":"bvh/vr_prediction_models/model(dmp)-dataset(pass-bottle)-npsi(40)-hold(2)/final-lines.txt","att_check":false},"trial_type":"html-keyboard-response","trial_index":266,"time_elapsed":511168,"internal_node_id":"0.0-8.0-3.64","subject":"lq6qkj7nl8qd4b7","sona":"8698"},{"rt":191.88499986194074,"stimulus":"<p>Bereit?</p>","key_press":32,"trial_type":"html-keyboard-response","trial_index":267,"time_elapsed":511371,"internal_node_id":"0.0-8.0-0.65","subject":"lq6qkj7nl8qd4b7","sona":"8698"},{"rt":null,"stimulus":"<div style=\"font-size:60px;\">+</div>","key_press":null,"trial_type":"html-keyboard-response","trial_index":268,"time_elapsed":513391,"internal_node_id":"0.0-8.0-1.65","subject":"lq6qkj7nl8qd4b7","sona":"8698"},{"trial_type":"turing-test","trial_index":269,"time_elapsed":519972,"internal_node_id":"0.0-8.0-2.65","subject":"lq6qkj7nl8qd4b7","sona":"8698"},{"rt":268.2300000451505,"stimulus":"<p>Welche Sequenz haben Sie als natürlicher empfunden?</p>","key_press":70,"test_part":"response","test_stimulus":{"position":0,"left":"bvh/return-bottle-training2-lines.txt","right":"bvh/vr_prediction_models/model(dmp)-dataset(return-bottle)-npsi(60)-hold(2)/final-lines.txt","att_check":false},"trial_type":"html-keyboard-response","trial_index":270,"time_elapsed":520250,"internal_node_id":"0.0-8.0-3.65","subject":"lq6qkj7nl8qd4b7","sona":"8698"},{"rt":405.46500007621944,"stimulus":"<p>Bereit?</p>","key_press":32,"trial_type":"html-keyboard-response","trial_index":271,"time_elapsed":520669,"internal_node_id":"0.0-8.0-0.66","subject":"lq6qkj7nl8qd4b7","sona":"8698"},{"rt":null,"stimulus":"<div style=\"font-size:60px;\">+</div>","key_press":null,"trial_type":"html-keyboard-response","trial_index":272,"time_elapsed":522687,"internal_node_id":"0.0-8.0-1.66","subject":"lq6qkj7nl8qd4b7","sona":"8698"},{"trial_type":"turing-test","trial_index":273,"time_elapsed":526074,"internal_node_id":"0.0-8.0-2.66","subject":"lq6qkj7nl8qd4b7","sona":"8698"},{"rt":447.3999999463558,"stimulus":"<p>Welche Sequenz haben Sie als natürlicher empfunden?</p>","key_press":74,"test_part":"response","test_stimulus":{"position":0,"left":"bvh/pass-bottle-hold-training0-lines.txt","right":"bvh/vr_prediction_models/model(vcgpdm)-dataset(pass-bottle-hold)-mode(ELBO)-parts(3)-dyn(30)-lvm(15)-hold(0)/final-lines.txt","att_check":false},"trial_type":"html-keyboard-response","trial_index":274,"time_elapsed":526531,"internal_node_id":"0.0-8.0-3.66","subject":"lq6qkj7nl8qd4b7","sona":"8698"},{"rt":234.0249998960644,"stimulus":"<p>Bereit?</p>","key_press":32,"trial_type":"html-keyboard-response","trial_index":275,"time_elapsed":526774,"internal_node_id":"0.0-8.0-0.67","subject":"lq6qkj7nl8qd4b7","sona":"8698"},{"rt":null,"stimulus":"<div style=\"font-size:60px;\">+</div>","key_press":null,"trial_type":"html-keyboard-response","trial_index":276,"time_elapsed":528793,"internal_node_id":"0.0-8.0-1.67","subject":"lq6qkj7nl8qd4b7","sona":"8698"},{"trial_type":"turing-test","trial_index":277,"time_elapsed":532471,"internal_node_id":"0.0-8.0-2.67","subject":"lq6qkj7nl8qd4b7","sona":"8698"},{"rt":288.79999998025596,"stimulus":"<p>Welche Sequenz haben Sie als natürlicher empfunden?</p>","key_press":74,"test_part":"response","test_stimulus":{"position":1,"left":"bvh/vr_prediction_models/model(vcgpdm)-dataset(return-bottle-hold)-mode(MAP)-parts(1)-hold(2)/final-lines.txt","right":"bvh/return-bottle-hold-training2-lines.txt","att_check":false},"trial_type":"html-keyboard-response","trial_index":278,"time_elapsed":532769,"internal_node_id":"0.0-8.0-3.67","subject":"lq6qkj7nl8qd4b7","sona":"8698"},{"rt":256.86499988660216,"stimulus":"<p>Bereit?</p>","key_press":32,"trial_type":"html-keyboard-response","trial_index":279,"time_elapsed":533033,"internal_node_id":"0.0-8.0-0.68","subject":"lq6qkj7nl8qd4b7","sona":"8698"},{"rt":null,"stimulus":"<div style=\"font-size:60px;\">+</div>","key_press":null,"trial_type":"html-keyboard-response","trial_index":280,"time_elapsed":535060,"internal_node_id":"0.0-8.0-1.68","subject":"lq6qkj7nl8qd4b7","sona":"8698"},{"trial_type":"turing-test","trial_index":281,"time_elapsed":538693,"internal_node_id":"0.0-8.0-2.68","subject":"lq6qkj7nl8qd4b7","sona":"8698"},{"rt":356.12000012770295,"stimulus":"<p>Welche Sequenz haben Sie als natürlicher empfunden?</p>","key_press":74,"test_part":"response","test_stimulus":{"position":1,"left":"bvh/vr_prediction_models/model(vcgpdm)-dataset(pass-bottle-hold)-mode(ELBO)-parts(1)-dyn(30)-lvm(20)-hold(4)/final-lines.txt","right":"bvh/pass-bottle-hold-training4-lines.txt","att_check":false},"trial_type":"html-keyboard-response","trial_index":282,"time_elapsed":539059,"internal_node_id":"0.0-8.0-3.68","subject":"lq6qkj7nl8qd4b7","sona":"8698"},{"rt":206.0149998869747,"stimulus":"<p>Bereit?</p>","key_press":32,"trial_type":"html-keyboard-response","trial_index":283,"time_elapsed":539273,"internal_node_id":"0.0-8.0-0.69","subject":"lq6qkj7nl8qd4b7","sona":"8698"},{"rt":null,"stimulus":"<div style=\"font-size:60px;\">+</div>","key_press":null,"trial_type":"html-keyboard-response","trial_index":284,"time_elapsed":541291,"internal_node_id":"0.0-8.0-1.69","subject":"lq6qkj7nl8qd4b7","sona":"8698"},{"trial_type":"turing-test","trial_index":285,"time_elapsed":547429,"internal_node_id":"0.0-8.0-2.69","subject":"lq6qkj7nl8qd4b7","sona":"8698"},{"rt":224.7450000140816,"stimulus":"<p>Welche Sequenz haben Sie als natürlicher empfunden?</p>","key_press":74,"test_part":"response","test_stimulus":{"position":1,"left":"bvh/vr_prediction_models/model(dmp)-dataset(pass-bottle)-npsi(90)-hold(2)/final-lines.txt","right":"bvh/pass-bottle-training2-lines.txt","att_check":false},"trial_type":"html-keyboard-response","trial_index":286,"time_elapsed":547667,"internal_node_id":"0.0-8.0-3.69","subject":"lq6qkj7nl8qd4b7","sona":"8698"},{"rt":236.96499993093312,"stimulus":"<p>Bereit?</p>","key_press":32,"trial_type":"html-keyboard-response","trial_index":287,"time_elapsed":547916,"internal_node_id":"0.0-8.0-0.70","subject":"lq6qkj7nl8qd4b7","sona":"8698"},{"rt":null,"stimulus":"<div style=\"font-size:60px;\">+</div>","key_press":null,"trial_type":"html-keyboard-response","trial_index":288,"time_elapsed":549939,"internal_node_id":"0.0-8.0-1.70","subject":"lq6qkj7nl8qd4b7","sona":"8698"},{"trial_type":"turing-test","trial_index":289,"time_elapsed":553269,"internal_node_id":"0.0-8.0-2.70","subject":"lq6qkj7nl8qd4b7","sona":"8698"},{"rt":267.01000006869435,"stimulus":"<p>Welche Sequenz haben Sie als natürlicher empfunden?</p>","key_press":70,"test_part":"response","test_stimulus":{"position":0,"left":"bvh/return-bottle-hold-training1-lines.txt","right":"bvh/vr_prediction_models/model(tmp)-dataset(return-bottle-hold)-numprim(4)-hold(1)/final-lines.txt","att_check":false},"trial_type":"html-keyboard-response","trial_index":290,"time_elapsed":553546,"internal_node_id":"0.0-8.0-3.70","subject":"lq6qkj7nl8qd4b7","sona":"8698"},{"rt":169.47999992407858,"stimulus":"<p>Bereit?</p>","key_press":32,"trial_type":"html-keyboard-response","trial_index":291,"time_elapsed":553726,"internal_node_id":"0.0-8.0-0.71","subject":"lq6qkj7nl8qd4b7","sona":"8698"},{"rt":null,"stimulus":"<div style=\"font-size:60px;\">+</div>","key_press":null,"trial_type":"html-keyboard-response","trial_index":292,"time_elapsed":555751,"internal_node_id":"0.0-8.0-1.71","subject":"lq6qkj7nl8qd4b7","sona":"8698"},{"trial_type":"turing-test","trial_index":293,"time_elapsed":559250,"internal_node_id":"0.0-8.0-2.71","subject":"lq6qkj7nl8qd4b7","sona":"8698"},{"rt":292.8850001189858,"stimulus":"<p>Welche Sequenz haben Sie als natürlicher empfunden?</p>","key_press":70,"test_part":"response","test_stimulus":{"position":0,"left":"bvh/pass-bottle-hold-training3-lines.txt","right":"bvh/vr_prediction_models/model(tmp)-dataset(pass-bottle-hold)-numprim(4)-hold(3)/final-lines.txt","att_check":false},"trial_type":"html-keyboard-response","trial_index":294,"time_elapsed":559553,"internal_node_id":"0.0-8.0-3.71","subject":"lq6qkj7nl8qd4b7","sona":"8698"},{"rt":182.2150000371039,"stimulus":"<p>Bereit?</p>","key_press":32,"trial_type":"html-keyboard-response","trial_index":295,"time_elapsed":559746,"internal_node_id":"0.0-8.0-0.72","subject":"lq6qkj7nl8qd4b7","sona":"8698"},{"rt":null,"stimulus":"<div style=\"font-size:60px;\">+</div>","key_press":null,"trial_type":"html-keyboard-response","trial_index":296,"time_elapsed":561769,"internal_node_id":"0.0-8.0-1.72","subject":"lq6qkj7nl8qd4b7","sona":"8698"},{"trial_type":"turing-test","trial_index":297,"time_elapsed":568002,"internal_node_id":"0.0-8.0-2.72","subject":"lq6qkj7nl8qd4b7","sona":"8698"},{"rt":277.56000007502735,"stimulus":"<p>Welche Sequenz haben Sie als natürlicher empfunden?</p>","key_press":74,"test_part":"response","test_stimulus":{"position":0,"left":"bvh/return-bottle-training1-lines.txt","right":"bvh/vr_prediction_models/model(vcgpdm)-dataset(return-bottle)-mode(ELBO)-parts(1)-dyn(30)-lvm(35)-hold(1)/final-lines.txt","att_check":false},"trial_type":"html-keyboard-response","trial_index":298,"time_elapsed":568290,"internal_node_id":"0.0-8.0-3.72","subject":"lq6qkj7nl8qd4b7","sona":"8698"},{"rt":155.35000013187528,"stimulus":"<p>Bereit?</p>","key_press":32,"trial_type":"html-keyboard-response","trial_index":299,"time_elapsed":568453,"internal_node_id":"0.0-8.0-0.73","subject":"lq6qkj7nl8qd4b7","sona":"8698"},{"rt":null,"stimulus":"<div style=\"font-size:60px;\">+</div>","key_press":null,"trial_type":"html-keyboard-response","trial_index":300,"time_elapsed":570462,"internal_node_id":"0.0-8.0-1.73","subject":"lq6qkj7nl8qd4b7","sona":"8698"},{"trial_type":"turing-test","trial_index":301,"time_elapsed":574301,"internal_node_id":"0.0-8.0-2.73","subject":"lq6qkj7nl8qd4b7","sona":"8698"},{"rt":37.82500000670552,"stimulus":"<p>Welche Sequenz haben Sie als natürlicher empfunden?</p>","key_press":70,"test_part":"response","test_stimulus":{"position":0,"left":"bvh/return-bottle-hold-training3-lines.txt","right":"bvh/vr_prediction_models/model(vcgpdm)-dataset(return-bottle-hold)-mode(MAP)-parts(1)-hold(3)/final-lines.txt","att_check":false},"trial_type":"html-keyboard-response","trial_index":302,"time_elapsed":574350,"internal_node_id":"0.0-8.0-3.73","subject":"lq6qkj7nl8qd4b7","sona":"8698"},{"rt":259.6000002231449,"stimulus":"<p>Bereit?</p>","key_press":32,"trial_type":"html-keyboard-response","trial_index":303,"time_elapsed":574619,"internal_node_id":"0.0-8.0-0.74","subject":"lq6qkj7nl8qd4b7","sona":"8698"},{"rt":null,"stimulus":"<div style=\"font-size:60px;\">+</div>","key_press":null,"trial_type":"html-keyboard-response","trial_index":304,"time_elapsed":576634,"internal_node_id":"0.0-8.0-1.74","subject":"lq6qkj7nl8qd4b7","sona":"8698"},{"trial_type":"turing-test","trial_index":305,"time_elapsed":580425,"internal_node_id":"0.0-8.0-2.74","subject":"lq6qkj7nl8qd4b7","sona":"8698"},{"rt":286.070000147447,"stimulus":"<p>Welche Sequenz haben Sie als natürlicher empfunden?</p>","key_press":70,"test_part":"response","test_stimulus":{"position":0,"left":"bvh/return-bottle-hold-training4-lines.txt","right":"bvh/vr_prediction_models/model(vcgpdm)-dataset(return-bottle-hold)-mode(ELBO)-parts(3)-dyn(20)-lvm(20)-hold(4)/final-lines.txt","att_check":false},"trial_type":"html-keyboard-response","trial_index":306,"time_elapsed":580722,"internal_node_id":"0.0-8.0-3.74","subject":"lq6qkj7nl8qd4b7","sona":"8698"},{"rt":180.1499999128282,"stimulus":"<p>Bereit?</p>","key_press":32,"trial_type":"html-keyboard-response","trial_index":307,"time_elapsed":580909,"internal_node_id":"0.0-8.0-0.75","subject":"lq6qkj7nl8qd4b7","sona":"8698"},{"rt":null,"stimulus":"<div style=\"font-size:60px;\">+</div>","key_press":null,"trial_type":"html-keyboard-response","trial_index":308,"time_elapsed":582934,"internal_node_id":"0.0-8.0-1.75","subject":"lq6qkj7nl8qd4b7","sona":"8698"},{"trial_type":"turing-test","trial_index":309,"time_elapsed":586138,"internal_node_id":"0.0-8.0-2.75","subject":"lq6qkj7nl8qd4b7","sona":"8698"},{"rt":316.07500021345913,"stimulus":"<p>Welche Sequenz haben Sie als natürlicher empfunden?</p>","key_press":74,"test_part":"response","test_stimulus":{"position":1,"left":"bvh/vr_prediction_models/model(tmp)-dataset(pass-bottle-hold)-numprim(13)-hold(1)/final-lines.txt","right":"bvh/pass-bottle-hold-training1-lines.txt","att_check":false},"trial_type":"html-keyboard-response","trial_index":310,"time_elapsed":586464,"internal_node_id":"0.0-8.0-3.75","subject":"lq6qkj7nl8qd4b7","sona":"8698"},{"rt":161.46999993361533,"stimulus":"<p>Bereit?</p>","key_press":32,"trial_type":"html-keyboard-response","trial_index":311,"time_elapsed":586636,"internal_node_id":"0.0-8.0-0.76","subject":"lq6qkj7nl8qd4b7","sona":"8698"},{"rt":null,"stimulus":"<div style=\"font-size:60px;\">+</div>","key_press":null,"trial_type":"html-keyboard-response","trial_index":312,"time_elapsed":588650,"internal_node_id":"0.0-8.0-1.76","subject":"lq6qkj7nl8qd4b7","sona":"8698"},{"trial_type":"turing-test","trial_index":313,"time_elapsed":594504,"internal_node_id":"0.0-8.0-2.76","subject":"lq6qkj7nl8qd4b7","sona":"8698"},{"rt":238.81999985314906,"stimulus":"<p>Welche Sequenz haben Sie als natürlicher empfunden?</p>","key_press":74,"test_part":"response","test_stimulus":{"position":0,"left":"bvh/pass-bottle-training3-lines.txt","right":"bvh/vr_prediction_models/model(tmp)-dataset(pass-bottle)-numprim(12)-hold(3)/final-lines.txt","att_check":false},"trial_type":"html-keyboard-response","trial_index":314,"time_elapsed":594754,"internal_node_id":"0.0-8.0-3.76","subject":"lq6qkj7nl8qd4b7","sona":"8698"},{"rt":131.71999994665384,"stimulus":"<p>Bereit?</p>","key_press":32,"trial_type":"html-keyboard-response","trial_index":315,"time_elapsed":594898,"internal_node_id":"0.0-8.0-0.77","subject":"lq6qkj7nl8qd4b7","sona":"8698"},{"rt":null,"stimulus":"<div style=\"font-size:60px;\">+</div>","key_press":null,"trial_type":"html-keyboard-response","trial_index":316,"time_elapsed":596922,"internal_node_id":"0.0-8.0-1.77","subject":"lq6qkj7nl8qd4b7","sona":"8698"},{"trial_type":"turing-test","trial_index":317,"time_elapsed":603195,"internal_node_id":"0.0-8.0-2.77","subject":"lq6qkj7nl8qd4b7","sona":"8698"},{"rt":260.33999980427325,"stimulus":"<p>Welche Sequenz haben Sie als natürlicher empfunden?</p>","key_press":70,"test_part":"response","test_stimulus":{"position":0,"left":"bvh/return-bottle-training1-lines.txt","right":"bvh/vr_prediction_models/model(vcgpdm)-dataset(return-bottle)-mode(ELBO)-parts(3)-dyn(25)-lvm(15)-hold(1)/final-lines.txt","att_check":false},"trial_type":"html-keyboard-response","trial_index":318,"time_elapsed":603466,"internal_node_id":"0.0-8.0-3.77","subject":"lq6qkj7nl8qd4b7","sona":"8698"},{"rt":275.51000006496906,"stimulus":"<p>Bereit?</p>","key_press":32,"trial_type":"html-keyboard-response","trial_index":319,"time_elapsed":603750,"internal_node_id":"0.0-8.0-0.78","subject":"lq6qkj7nl8qd4b7","sona":"8698"},{"rt":null,"stimulus":"<div style=\"font-size:60px;\">+</div>","key_press":null,"trial_type":"html-keyboard-response","trial_index":320,"time_elapsed":605773,"internal_node_id":"0.0-8.0-1.78","subject":"lq6qkj7nl8qd4b7","sona":"8698"},{"trial_type":"turing-test","trial_index":321,"time_elapsed":611388,"internal_node_id":"0.0-8.0-2.78","subject":"lq6qkj7nl8qd4b7","sona":"8698"},{"rt":280.60000017285347,"stimulus":"<p>Welche Sequenz haben Sie als natürlicher empfunden?</p>","key_press":70,"test_part":"response","test_stimulus":{"position":0,"left":"bvh/pass-bottle-training1-lines.txt","right":"bvh/vr_prediction_models/model(vcgpdm)-dataset(pass-bottle)-mode(ELBO)-parts(3)-dyn(35)-lvm(20)-hold(1)/final-lines.txt","att_check":false},"trial_type":"html-keyboard-response","trial_index":322,"time_elapsed":611682,"internal_node_id":"0.0-8.0-3.78","subject":"lq6qkj7nl8qd4b7","sona":"8698"},{"rt":160.09999997913837,"stimulus":"<p>Bereit?</p>","key_press":32,"trial_type":"html-keyboard-response","trial_index":323,"time_elapsed":611850,"internal_node_id":"0.0-8.0-0.79","subject":"lq6qkj7nl8qd4b7","sona":"8698"},{"rt":null,"stimulus":"<div style=\"font-size:60px;\">+</div>","key_press":null,"trial_type":"html-keyboard-response","trial_index":324,"time_elapsed":613857,"internal_node_id":"0.0-8.0-1.79","subject":"lq6qkj7nl8qd4b7","sona":"8698"},{"trial_type":"turing-test","trial_index":325,"time_elapsed":620595,"internal_node_id":"0.0-8.0-2.79","subject":"lq6qkj7nl8qd4b7","sona":"8698"},{"rt":354.60500000044703,"stimulus":"<p>Welche Sequenz haben Sie als natürlicher empfunden?</p>","key_press":70,"test_part":"response","test_stimulus":{"position":0,"left":"bvh/pass-bottle-training0-lines.txt","right":"bvh/vr_prediction_models/model(vcgpdm)-dataset(pass-bottle)-mode(ELBO)-parts(1)-dyn(30)-lvm(20)-hold(0)/final-lines.txt","att_check":false},"trial_type":"html-keyboard-response","trial_index":326,"time_elapsed":620962,"internal_node_id":"0.0-8.0-3.79","subject":"lq6qkj7nl8qd4b7","sona":"8698"},{"rt":7184.200000017881,"responses":"{\"age\":\"26\",\"gender\":\"weiblich\"}","trial_type":"survey-text","trial_index":327,"time_elapsed":628173,"internal_node_id":"0.0-10.0-0.0","subject":"lq6qkj7nl8qd4b7","sona":"8698"},{"rt":142873.5400000587,"responses":"{\"area\":\"1) Unterarme 2) Hals 3) Oberschenkel 4) Rumpf\",\"Q1\":\"Zu schnelle oder langsame Bewegungen, unnatürlich verdrehte Gliedmaßen, erstarrte Figuren, Figuren, die gedreht wurden, aber die Körperteile sich nicht mitbewegten, nicht flüssige Bewegungen.\",\"Q2\":\"Figuren, die gedreht oder erstarrt waren, Figuren, die unnatürlich verdrehte Bewegungen taten.\"}","trial_type":"survey-text","trial_index":328,"time_elapsed":771079,"internal_node_id":"0.0-10.0-1.0","subject":"lq6qkj7nl8qd4b7","sona":"8698"}]