[{"rt":1381.9999999832362,"stimulus":"<p>Welcome!<br> Please choose your language to start the experiment in the chosen language.</p><p>Willkommen!<br> Bitte wählen Sie eine Sprache, um das Experiment in der ausgewählten Sprache zu starten</p>","button_pressed":"1","trial_type":"html-button-response","trial_index":0,"time_elapsed":1419,"internal_node_id":"0.0-0.0","subject":"ufbselwrboesk8z","sona":"8698"},{"view_history":"[{\"page_index\":0,\"viewing_time\":1014.4750000908971},{\"page_index\":1,\"viewing_time\":2926.589999930002},{\"page_index\":2,\"viewing_time\":1641.4750000694767},{\"page_index\":3,\"viewing_time\":1193.9499999862164},{\"page_index\":4,\"viewing_time\":1448.0699999257922}]","rt":8225.575000047684,"trial_type":"instructions","trial_index":1,"time_elapsed":9645,"internal_node_id":"0.0-1.0-0.0","subject":"ufbselwrboesk8z","sona":"8698"},{"rt":832.0049999747425,"stimulus":"<p>Bereit?</p>","key_press":32,"trial_type":"html-keyboard-response","trial_index":2,"time_elapsed":10479,"internal_node_id":"0.0-3.0","subject":"ufbselwrboesk8z","sona":"8698"},{"rt":null,"stimulus":"<div style=\"font-size:60px;\">+</div>","key_press":null,"trial_type":"html-keyboard-response","trial_index":3,"time_elapsed":12493,"internal_node_id":"0.0-4.0","subject":"ufbselwrboesk8z","sona":"8698"},{"trial_type":"training","trial_index":4,"time_elapsed":15863,"internal_node_id":"0.0-5.0","subject":"ufbselwrboesk8z","sona":"8698"},{"rt":361.83000006712973,"stimulus":"<p>Welche Sequenz haben Sie als natürlicher empfunden?</p>","key_press":70,"trial_type":"html-keyboard-response","trial_index":5,"time_elapsed":16228,"internal_node_id":"0.0-6.0","subject":"ufbselwrboesk8z","sona":"8698"},{"rt":3705.8800000231713,"stimulus":"<p>Das Experiment startet nun.</p><p><small>Bitte drücken Sie den Knopf, wenn Sie bereit sind.</small></p>","button_pressed":"0","trial_type":"html-button-response","trial_index":6,"time_elapsed":19936,"internal_node_id":"0.0-7.0","subject":"ufbselwrboesk8z","sona":"8698"},{"rt":659.929999965243,"stimulus":"<p>Bereit?</p>","key_press":32,"trial_type":"html-keyboard-response","trial_index":7,"time_elapsed":20597,"internal_node_id":"0.0-8.0-0.0","subject":"ufbselwrboesk8z","sona":"8698"},{"rt":null,"stimulus":"<div style=\"font-size:60px;\">+</div>","key_press":null,"trial_type":"html-keyboard-response","trial_index":8,"time_elapsed":22628,"internal_node_id":"0.0-8.0-1.0","subject":"ufbselwrboesk8z","sona":"8698"},{"trial_type":"turing-test","trial_index":9,"time_elapsed":27749,"internal_node_id":"0.0-8.0-2.0","subject":"ufbselwrboesk8z","sona":"8698"},{"rt":482.2550000390038,"stimulus":"<p>Welche Sequenz haben Sie als natürlicher empfunden?</p>","key_press":74,"test_part":"response","test_stimulus":{"position":0,"left":"bvh/return-bottle-hold-training0-lines.txt","right":"bvh/vr_prediction_models/model(vcgpdm)-dataset(return-bottle-hold)-mode(ELBO)-parts(3)-dyn(25)-lvm(25)-hold(0)/final-lines.txt","att_check":false},"trial_type":"html-keyboard-response","trial_index":10,"time_elapsed":28238,"internal_node_id":"0.0-8.0-3.0","subject":"ufbselwrboesk8z","sona":"8698"},{"rt":279.18499999213964,"stimulus":"<p>Bereit?</p>","key_press":32,"trial_type":"html-keyboard-response","trial_index":11,"time_elapsed":28522,"internal_node_id":"0.0-8.0-0.1","subject":"ufbselwrboesk8z","sona":"8698"},{"rt":null,"stimulus":"<div style=\"font-size:60px;\">+</div>","key_press":null,"trial_type":"html-keyboard-response","trial_index":12,"time_elapsed":30541,"internal_node_id":"0.0-8.0-1.1","subject":"ufbselwrboesk8z","sona":"8698"},{"trial_type":"turing-test","trial_index":13,"time_elapsed":36728,"internal_node_id":"0.0-8.0-2.1","subject":"ufbselwrboesk8z","sona":"8698"},{"rt":269.49999993667006,"stimulus":"<p>Welche Sequenz haben Sie als natürlicher empfunden?</p>","key_press":70,"test_part":"response","test_stimulus":{"position":0,"left":"bvh/return-bottle-training4-lines.txt","right":"bvh/vr_prediction_models/model(tmp)-dataset(return-bottle)-numprim(9)-hold(4)/final-lines.txt","att_check":false},"trial_type":"html-keyboard-response","trial_index":14,"time_elapsed":37004,"internal_node_id":"0.0-8.0-3.1","subject":"ufbselwrboesk8z","sona":"8698"},{"rt":186.09500001184642,"stimulus":"<p>Bereit?</p>","key_press":32,"trial_type":"html-keyboard-response","trial_index":15,"time_elapsed":37194,"internal_node_id":"0.0-8.0-0.2","subject":"ufbselwrboesk8z","sona":"8698"},{"rt":null,"stimulus":"<div style=\"font-size:60px;\">+</div>","key_press":null,"trial_type":"html-keyboard-response","trial_index":16,"time_elapsed":39206,"internal_node_id":"0.0-8.0-1.2","subject":"ufbselwrboesk8z","sona":"8698"},{"trial_type":"turing-test","trial_index":17,"time_elapsed":45236,"internal_node_id":"0.0-8.0-2.2","subject":"ufbselwrboesk8z","sona":"8698"},{"rt":591.6699999943376,"stimulus":"<p>Welche Sequenz haben Sie als natürlicher empfunden?</p>","key_press":74,"test_part":"response","test_stimulus":{"position":1,"left":"bvh/vr_prediction_models/model(tmp)-dataset(return-bottle)-numprim(14)-hold(1)/final-lines.txt","right":"bvh/return-bottle-training1-lines.txt","att_check":false},"trial_type":"html-keyboard-response","trial_index":18,"time_elapsed":45837,"internal_node_id":"0.0-8.0-3.2","subject":"ufbselwrboesk8z","sona":"8698"},{"rt":230.3550000069663,"stimulus":"<p>Bereit?</p>","key_press":32,"trial_type":"html-keyboard-response","trial_index":19,"time_elapsed":46072,"internal_node_id":"0.0-8.0-0.3","subject":"ufbselwrboesk8z","sona":"8698"},{"rt":null,"stimulus":"<div style=\"font-size:60px;\">+</div>","key_press":null,"trial_type":"html-keyboard-response","trial_index":20,"time_elapsed":48079,"internal_node_id":"0.0-8.0-1.3","subject":"ufbselwrboesk8z","sona":"8698"},{"trial_type":"turing-test","trial_index":21,"time_elapsed":51613,"internal_node_id":"0.0-8.0-2.3","subject":"ufbselwrboesk8z","sona":"8698"},{"rt":534.7399999154732,"stimulus":"<p>Welche Sequenz haben Sie als natürlicher empfunden?</p>","key_press":74,"test_part":"response","test_stimulus":{"position":0,"left":"bvh/pass-bottle-hold-training0-lines.txt","right":"bvh/vr_prediction_models/model(tmp)-dataset(pass-bottle-hold)-numprim(4)-hold(0)/final-lines.txt","att_check":false},"trial_type":"html-keyboard-response","trial_index":22,"time_elapsed":52153,"internal_node_id":"0.0-8.0-3.3","subject":"ufbselwrboesk8z","sona":"8698"},{"rt":205.97500004805624,"stimulus":"<p>Bereit?</p>","key_press":32,"trial_type":"html-keyboard-response","trial_index":23,"time_elapsed":52363,"internal_node_id":"0.0-8.0-0.4","subject":"ufbselwrboesk8z","sona":"8698"},{"rt":null,"stimulus":"<div style=\"font-size:60px;\">+</div>","key_press":null,"trial_type":"html-keyboard-response","trial_index":24,"time_elapsed":54388,"internal_node_id":"0.0-8.0-1.4","subject":"ufbselwrboesk8z","sona":"8698"},{"trial_type":"turing-test","trial_index":25,"time_elapsed":57857,"internal_node_id":"0.0-8.0-2.4","subject":"ufbselwrboesk8z","sona":"8698"},{"rt":434.0749999973923,"stimulus":"<p>Welche Sequenz haben Sie als natürlicher empfunden?</p>","key_press":74,"test_part":"response","test_stimulus":{"position":0,"left":"bvh/return-bottle-hold-training1-lines.txt","right":"bvh/vr_prediction_models/model(tmp)-dataset(return-bottle-hold)-numprim(6)-hold(1)/final-lines.txt","att_check":false},"trial_type":"html-keyboard-response","trial_index":26,"time_elapsed":58297,"internal_node_id":"0.0-8.0-3.4","subject":"ufbselwrboesk8z","sona":"8698"},{"rt":179.42499998025596,"stimulus":"<p>Bereit?</p>","key_press":32,"trial_type":"html-keyboard-response","trial_index":27,"time_elapsed":58482,"internal_node_id":"0.0-8.0-0.5","subject":"ufbselwrboesk8z","sona":"8698"},{"rt":null,"stimulus":"<div style=\"font-size:60px;\">+</div>","key_press":null,"trial_type":"html-keyboard-response","trial_index":28,"time_elapsed":60508,"internal_node_id":"0.0-8.0-1.5","subject":"ufbselwrboesk8z","sona":"8698"},{"trial_type":"turing-test","trial_index":29,"time_elapsed":66630,"internal_node_id":"0.0-8.0-2.5","subject":"ufbselwrboesk8z","sona":"8698"},{"rt":315.7999999821186,"stimulus":"<p>Welche Sequenz haben Sie als natürlicher empfunden?</p>","key_press":70,"test_part":"response","test_stimulus":{"position":0,"left":"bvh/pass-bottle-training3-lines.txt","right":"bvh/vr_prediction_models/model(vcgpdm)-dataset(pass-bottle)-mode(ELBO)-parts(3)-dyn(25)-lvm(25)-hold(3)/final-lines.txt","att_check":false},"trial_type":"html-keyboard-response","trial_index":30,"time_elapsed":66953,"internal_node_id":"0.0-8.0-3.5","subject":"ufbselwrboesk8z","sona":"8698"},{"rt":174.25499996170402,"stimulus":"<p>Bereit?</p>","key_press":32,"trial_type":"html-keyboard-response","trial_index":31,"time_elapsed":67132,"internal_node_id":"0.0-8.0-0.6","subject":"ufbselwrboesk8z","sona":"8698"},{"rt":null,"stimulus":"<div style=\"font-size:60px;\">+</div>","key_press":null,"trial_type":"html-keyboard-response","trial_index":32,"time_elapsed":69154,"internal_node_id":"0.0-8.0-1.6","subject":"ufbselwrboesk8z","sona":"8698"},{"trial_type":"turing-test","trial_index":33,"time_elapsed":76154,"internal_node_id":"0.0-8.0-2.6","subject":"ufbselwrboesk8z","sona":"8698"},{"rt":464.48500000406057,"stimulus":"<p>Welche Sequenz haben Sie als natürlicher empfunden?</p>","key_press":70,"test_part":"response","test_stimulus":{"position":0,"left":"bvh/pass-bottle-training0-lines.txt","right":"bvh/vr_prediction_models/model(tmp)-dataset(pass-bottle)-numprim(10)-hold(0)/final-lines.txt","att_check":false},"trial_type":"html-keyboard-response","trial_index":34,"time_elapsed":76625,"internal_node_id":"0.0-8.0-3.6","subject":"ufbselwrboesk8z","sona":"8698"},{"rt":204.98999999836087,"stimulus":"<p>Bereit?</p>","key_press":32,"trial_type":"html-keyboard-response","trial_index":35,"time_elapsed":76834,"internal_node_id":"0.0-8.0-0.7","subject":"ufbselwrboesk8z","sona":"8698"},{"rt":null,"stimulus":"<div style=\"font-size:60px;\">+</div>","key_press":null,"trial_type":"html-keyboard-response","trial_index":36,"time_elapsed":78840,"internal_node_id":"0.0-8.0-1.7","subject":"ufbselwrboesk8z","sona":"8698"},{"trial_type":"turing-test","trial_index":37,"time_elapsed":84543,"internal_node_id":"0.0-8.0-2.7","subject":"ufbselwrboesk8z","sona":"8698"},{"rt":317.7750000031665,"stimulus":"<p>Welche Sequenz haben Sie als natürlicher empfunden?</p>","key_press":70,"test_part":"response","test_stimulus":{"position":0,"left":"bvh/pass-bottle-training4-lines.txt","right":"bvh/vr_prediction_models/model(dmp)-dataset(pass-bottle)-npsi(40)-hold(4)/final-lines.txt","att_check":false},"trial_type":"html-keyboard-response","trial_index":38,"time_elapsed":84867,"internal_node_id":"0.0-8.0-3.7","subject":"ufbselwrboesk8z","sona":"8698"},{"rt":206.70500001870096,"stimulus":"<p>Bereit?</p>","key_press":32,"trial_type":"html-keyboard-response","trial_index":39,"time_elapsed":85082,"internal_node_id":"0.0-8.0-0.8","subject":"ufbselwrboesk8z","sona":"8698"},{"rt":null,"stimulus":"<div style=\"font-size:60px;\">+</div>","key_press":null,"trial_type":"html-keyboard-response","trial_index":40,"time_elapsed":87089,"internal_node_id":"0.0-8.0-1.8","subject":"ufbselwrboesk8z","sona":"8698"},{"trial_type":"turing-test","trial_index":41,"time_elapsed":92221,"internal_node_id":"0.0-8.0-2.8","subject":"ufbselwrboesk8z","sona":"8698"},{"rt":383.95499996840954,"stimulus":"<p>Welche Sequenz haben Sie als natürlicher empfunden?</p>","key_press":70,"test_part":"response","test_stimulus":{"position":1,"left":"bvh/vr_prediction_models/model(vcgpdm)-dataset(return-bottle-hold)-mode(ELBO)-parts(3)-dyn(25)-lvm(15)-hold(0)/final-lines.txt","right":"bvh/return-bottle-hold-training0-lines.txt","att_check":false},"trial_type":"html-keyboard-response","trial_index":42,"time_elapsed":92612,"internal_node_id":"0.0-8.0-3.8","subject":"ufbselwrboesk8z","sona":"8698"},{"rt":161.65499994531274,"stimulus":"<p>Bereit?</p>","key_press":32,"trial_type":"html-keyboard-response","trial_index":43,"time_elapsed":92778,"internal_node_id":"0.0-8.0-0.9","subject":"ufbselwrboesk8z","sona":"8698"},{"rt":null,"stimulus":"<div style=\"font-size:60px;\">+</div>","key_press":null,"trial_type":"html-keyboard-response","trial_index":44,"time_elapsed":94794,"internal_node_id":"0.0-8.0-1.9","subject":"ufbselwrboesk8z","sona":"8698"},{"trial_type":"turing-test","trial_index":45,"time_elapsed":98678,"internal_node_id":"0.0-8.0-2.9","subject":"ufbselwrboesk8z","sona":"8698"},{"rt":351.9300000043586,"stimulus":"<p>Welche Sequenz haben Sie als natürlicher empfunden?</p>","key_press":74,"test_part":"response","test_stimulus":{"position":1,"left":"bvh/vr_prediction_models/model(vcgpdm)-dataset(pass-bottle-hold)-mode(ELBO)-parts(1)-dyn(20)-lvm(30)-hold(0)/final-lines.txt","right":"bvh/pass-bottle-hold-training0-lines.txt","att_check":false},"trial_type":"html-keyboard-response","trial_index":46,"time_elapsed":99035,"internal_node_id":"0.0-8.0-3.9","subject":"ufbselwrboesk8z","sona":"8698"},{"rt":172.79999994207174,"stimulus":"<p>Bereit?</p>","key_press":32,"trial_type":"html-keyboard-response","trial_index":47,"time_elapsed":99213,"internal_node_id":"0.0-8.0-0.10","subject":"ufbselwrboesk8z","sona":"8698"},{"rt":null,"stimulus":"<div style=\"font-size:60px;\">+</div>","key_press":null,"trial_type":"html-keyboard-response","trial_index":48,"time_elapsed":101233,"internal_node_id":"0.0-8.0-1.10","subject":"ufbselwrboesk8z","sona":"8698"},{"trial_type":"turing-test","trial_index":49,"time_elapsed":108124,"internal_node_id":"0.0-8.0-2.10","subject":"ufbselwrboesk8z","sona":"8698"},{"rt":311.8100001011044,"stimulus":"<p>Welche Sequenz haben Sie als natürlicher empfunden?</p>","key_press":74,"test_part":"response","test_stimulus":{"position":1,"left":"bvh/vr_prediction_models/model(dmp)-dataset(return-bottle)-npsi(70)-hold(1)/final-lines.txt","right":"bvh/return-bottle-training1-lines.txt","att_check":false},"trial_type":"html-keyboard-response","trial_index":50,"time_elapsed":108444,"internal_node_id":"0.0-8.0-3.10","subject":"ufbselwrboesk8z","sona":"8698"},{"rt":234.8350000102073,"stimulus":"<p>Bereit?</p>","key_press":32,"trial_type":"html-keyboard-response","trial_index":51,"time_elapsed":108683,"internal_node_id":"0.0-8.0-0.11","subject":"ufbselwrboesk8z","sona":"8698"},{"rt":null,"stimulus":"<div style=\"font-size:60px;\">+</div>","key_press":null,"trial_type":"html-keyboard-response","trial_index":52,"time_elapsed":110696,"internal_node_id":"0.0-8.0-1.11","subject":"ufbselwrboesk8z","sona":"8698"},{"trial_type":"turing-test","trial_index":53,"time_elapsed":116511,"internal_node_id":"0.0-8.0-2.11","subject":"ufbselwrboesk8z","sona":"8698"},{"rt":264.350000070408,"stimulus":"<p>Welche Sequenz haben Sie als natürlicher empfunden?</p>","key_press":74,"test_part":"response","test_stimulus":{"position":0,"left":"bvh/return-bottle-hold-training0-lines.txt","right":"bvh/vr_prediction_models/model(tmp)-dataset(return-bottle-hold)-numprim(12)-hold(0)/final-lines.txt","att_check":false},"trial_type":"html-keyboard-response","trial_index":54,"time_elapsed":116782,"internal_node_id":"0.0-8.0-3.11","subject":"ufbselwrboesk8z","sona":"8698"},{"rt":214.15999997407198,"stimulus":"<p>Bereit?</p>","key_press":32,"trial_type":"html-keyboard-response","trial_index":55,"time_elapsed":117001,"internal_node_id":"0.0-8.0-0.12","subject":"ufbselwrboesk8z","sona":"8698"},{"rt":null,"stimulus":"<div style=\"font-size:60px;\">+</div>","key_press":null,"trial_type":"html-keyboard-response","trial_index":56,"time_elapsed":119022,"internal_node_id":"0.0-8.0-1.12","subject":"ufbselwrboesk8z","sona":"8698"},{"trial_type":"turing-test","trial_index":57,"time_elapsed":122624,"internal_node_id":"0.0-8.0-2.12","subject":"ufbselwrboesk8z","sona":"8698"},{"rt":299.790000077337,"stimulus":"<p>Welche Sequenz haben Sie als natürlicher empfunden?</p>","key_press":74,"test_part":"response","test_stimulus":{"position":0,"left":"bvh/pass-bottle-hold-training4-lines.txt","right":"bvh/vr_prediction_models/model(tmp)-dataset(pass-bottle-hold)-numprim(8)-hold(4)/final-lines.txt","att_check":false},"trial_type":"html-keyboard-response","trial_index":58,"time_elapsed":122931,"internal_node_id":"0.0-8.0-3.12","subject":"ufbselwrboesk8z","sona":"8698"},{"rt":161.34500002954155,"stimulus":"<p>Bereit?</p>","key_press":32,"trial_type":"html-keyboard-response","trial_index":59,"time_elapsed":123096,"internal_node_id":"0.0-8.0-0.13","subject":"ufbselwrboesk8z","sona":"8698"},{"rt":null,"stimulus":"<div style=\"font-size:60px;\">+</div>","key_press":null,"trial_type":"html-keyboard-response","trial_index":60,"time_elapsed":125125,"internal_node_id":"0.0-8.0-1.13","subject":"ufbselwrboesk8z","sona":"8698"},{"trial_type":"turing-test","trial_index":61,"time_elapsed":128917,"internal_node_id":"0.0-8.0-2.13","subject":"ufbselwrboesk8z","sona":"8698"},{"rt":274.35500000137836,"stimulus":"<p>Welche Sequenz haben Sie als natürlicher empfunden?</p>","key_press":74,"test_part":"response","test_stimulus":{"position":0,"left":"bvh/pass-bottle-hold-training3-lines.txt","right":"bvh/vr_prediction_models/model(dmp)-dataset(pass-bottle-hold)-npsi(70)-hold(3)/final-lines.txt","att_check":true},"trial_type":"html-keyboard-response","trial_index":62,"time_elapsed":129198,"internal_node_id":"0.0-8.0-3.13","subject":"ufbselwrboesk8z","sona":"8698"},{"rt":186.38999992981553,"stimulus":"<p>Bereit?</p>","key_press":32,"trial_type":"html-keyboard-response","trial_index":63,"time_elapsed":129391,"internal_node_id":"0.0-8.0-0.14","subject":"ufbselwrboesk8z","sona":"8698"},{"rt":null,"stimulus":"<div style=\"font-size:60px;\">+</div>","key_press":null,"trial_type":"html-keyboard-response","trial_index":64,"time_elapsed":131411,"internal_node_id":"0.0-8.0-1.14","subject":"ufbselwrboesk8z","sona":"8698"},{"trial_type":"turing-test","trial_index":65,"time_elapsed":134592,"internal_node_id":"0.0-8.0-2.14","subject":"ufbselwrboesk8z","sona":"8698"},{"rt":403.6850000265986,"stimulus":"<p>Welche Sequenz haben Sie als natürlicher empfunden?</p>","key_press":74,"test_part":"response","test_stimulus":{"position":1,"left":"bvh/vr_prediction_models/model(dmp)-dataset(pass-bottle-hold)-npsi(10)-hold(1)/final-lines.txt","right":"bvh/pass-bottle-hold-training1-lines.txt","att_check":true},"trial_type":"html-keyboard-response","trial_index":66,"time_elapsed":135002,"internal_node_id":"0.0-8.0-3.14","subject":"ufbselwrboesk8z","sona":"8698"},{"rt":214.890000061132,"stimulus":"<p>Bereit?</p>","key_press":32,"trial_type":"html-keyboard-response","trial_index":67,"time_elapsed":135221,"internal_node_id":"0.0-8.0-0.15","subject":"ufbselwrboesk8z","sona":"8698"},{"rt":null,"stimulus":"<div style=\"font-size:60px;\">+</div>","key_press":null,"trial_type":"html-keyboard-response","trial_index":68,"time_elapsed":137232,"internal_node_id":"0.0-8.0-1.15","subject":"ufbselwrboesk8z","sona":"8698"},{"trial_type":"turing-test","trial_index":69,"time_elapsed":143211,"internal_node_id":"0.0-8.0-2.15","subject":"ufbselwrboesk8z","sona":"8698"},{"rt":244.09499997273088,"stimulus":"<p>Welche Sequenz haben Sie als natürlicher empfunden?</p>","key_press":74,"test_part":"response","test_stimulus":{"position":1,"left":"bvh/vr_prediction_models/model(vcgpdm)-dataset(pass-bottle)-mode(MAP)-parts(3)-hold(3)/final-lines.txt","right":"bvh/pass-bottle-training3-lines.txt","att_check":false},"trial_type":"html-keyboard-response","trial_index":70,"time_elapsed":143461,"internal_node_id":"0.0-8.0-3.15","subject":"ufbselwrboesk8z","sona":"8698"},{"rt":119.70000003930181,"stimulus":"<p>Bereit?</p>","key_press":32,"trial_type":"html-keyboard-response","trial_index":71,"time_elapsed":143587,"internal_node_id":"0.0-8.0-0.16","subject":"ufbselwrboesk8z","sona":"8698"},{"rt":null,"stimulus":"<div style=\"font-size:60px;\">+</div>","key_press":null,"trial_type":"html-keyboard-response","trial_index":72,"time_elapsed":145617,"internal_node_id":"0.0-8.0-1.16","subject":"ufbselwrboesk8z","sona":"8698"},{"trial_type":"turing-test","trial_index":73,"time_elapsed":149418,"internal_node_id":"0.0-8.0-2.16","subject":"ufbselwrboesk8z","sona":"8698"},{"rt":459.95499996934086,"stimulus":"<p>Welche Sequenz haben Sie als natürlicher empfunden?</p>","key_press":70,"test_part":"response","test_stimulus":{"position":0,"left":"bvh/pass-bottle-hold-training3-lines.txt","right":"bvh/vr_prediction_models/model(vcgpdm)-dataset(pass-bottle-hold)-mode(ELBO)-parts(3)-dyn(35)-lvm(20)-hold(3)/final-lines.txt","att_check":false},"trial_type":"html-keyboard-response","trial_index":74,"time_elapsed":149885,"internal_node_id":"0.0-8.0-3.16","subject":"ufbselwrboesk8z","sona":"8698"},{"rt":132.60000001173466,"stimulus":"<p>Bereit?</p>","key_press":32,"trial_type":"html-keyboard-response","trial_index":75,"time_elapsed":150024,"internal_node_id":"0.0-8.0-0.17","subject":"ufbselwrboesk8z","sona":"8698"},{"rt":null,"stimulus":"<div style=\"font-size:60px;\">+</div>","key_press":null,"trial_type":"html-keyboard-response","trial_index":76,"time_elapsed":152047,"internal_node_id":"0.0-8.0-1.17","subject":"ufbselwrboesk8z","sona":"8698"},{"trial_type":"turing-test","trial_index":77,"time_elapsed":157833,"internal_node_id":"0.0-8.0-2.17","subject":"ufbselwrboesk8z","sona":"8698"},{"rt":623.2099999906495,"stimulus":"<p>Welche Sequenz haben Sie als natürlicher empfunden?</p>","key_press":70,"test_part":"response","test_stimulus":{"position":1,"left":"bvh/vr_prediction_models/model(tmp)-dataset(pass-bottle)-numprim(7)-hold(3)/final-lines.txt","right":"bvh/pass-bottle-training3-lines.txt","att_check":false},"trial_type":"html-keyboard-response","trial_index":78,"time_elapsed":158464,"internal_node_id":"0.0-8.0-3.17","subject":"ufbselwrboesk8z","sona":"8698"},{"rt":182.03500006347895,"stimulus":"<p>Bereit?</p>","key_press":32,"trial_type":"html-keyboard-response","trial_index":79,"time_elapsed":158651,"internal_node_id":"0.0-8.0-0.18","subject":"ufbselwrboesk8z","sona":"8698"},{"rt":null,"stimulus":"<div style=\"font-size:60px;\">+</div>","key_press":null,"trial_type":"html-keyboard-response","trial_index":80,"time_elapsed":160681,"internal_node_id":"0.0-8.0-1.18","subject":"ufbselwrboesk8z","sona":"8698"},{"trial_type":"turing-test","trial_index":81,"time_elapsed":166378,"internal_node_id":"0.0-8.0-2.18","subject":"ufbselwrboesk8z","sona":"8698"},{"rt":300.6250000325963,"stimulus":"<p>Welche Sequenz haben Sie als natürlicher empfunden?</p>","key_press":74,"test_part":"response","test_stimulus":{"position":1,"left":"bvh/vr_prediction_models/model(tmp)-dataset(return-bottle)-numprim(12)-hold(0)/final-lines.txt","right":"bvh/return-bottle-training0-lines.txt","att_check":false},"trial_type":"html-keyboard-response","trial_index":82,"time_elapsed":166686,"internal_node_id":"0.0-8.0-3.18","subject":"ufbselwrboesk8z","sona":"8698"},{"rt":168.49500010721385,"stimulus":"<p>Bereit?</p>","key_press":32,"trial_type":"html-keyboard-response","trial_index":83,"time_elapsed":166859,"internal_node_id":"0.0-8.0-0.19","subject":"ufbselwrboesk8z","sona":"8698"},{"rt":null,"stimulus":"<div style=\"font-size:60px;\">+</div>","key_press":null,"trial_type":"html-keyboard-response","trial_index":84,"time_elapsed":168879,"internal_node_id":"0.0-8.0-1.19","subject":"ufbselwrboesk8z","sona":"8698"},{"trial_type":"turing-test","trial_index":85,"time_elapsed":174615,"internal_node_id":"0.0-8.0-2.19","subject":"ufbselwrboesk8z","sona":"8698"},{"rt":651.1799999279901,"stimulus":"<p>Welche Sequenz haben Sie als natürlicher empfunden?</p>","key_press":70,"test_part":"response","test_stimulus":{"position":0,"left":"bvh/pass-bottle-training1-lines.txt","right":"bvh/vr_prediction_models/model(vcgpdm)-dataset(pass-bottle)-mode(ELBO)-parts(1)-dyn(10)-lvm(5)-hold(1)/final-lines.txt","att_check":false},"trial_type":"html-keyboard-response","trial_index":86,"time_elapsed":175273,"internal_node_id":"0.0-8.0-3.19","subject":"ufbselwrboesk8z","sona":"8698"},{"rt":22582.825000048615,"stimulus":"<p>Bereit?</p>","key_press":32,"trial_type":"html-keyboard-response","trial_index":87,"time_elapsed":197862,"internal_node_id":"0.0-8.0-0.20","subject":"ufbselwrboesk8z","sona":"8698"},{"rt":null,"stimulus":"<div style=\"font-size:60px;\">+</div>","key_press":null,"trial_type":"html-keyboard-response","trial_index":88,"time_elapsed":199886,"internal_node_id":"0.0-8.0-1.20","subject":"ufbselwrboesk8z","sona":"8698"},{"trial_type":"turing-test","trial_index":89,"time_elapsed":204201,"internal_node_id":"0.0-8.0-2.20","subject":"ufbselwrboesk8z","sona":"8698"},{"rt":260.57000004220754,"stimulus":"<p>Welche Sequenz haben Sie als natürlicher empfunden?</p>","key_press":74,"test_part":"response","test_stimulus":{"position":0,"left":"bvh/pass-bottle-hold-training0-lines.txt","right":"bvh/vr_prediction_models/model(vcgpdm)-dataset(pass-bottle-hold)-mode(ELBO)-parts(3)-dyn(15)-lvm(30)-hold(0)/final-lines.txt","att_check":false},"trial_type":"html-keyboard-response","trial_index":90,"time_elapsed":204470,"internal_node_id":"0.0-8.0-3.20","subject":"ufbselwrboesk8z","sona":"8698"},{"rt":205.38999990094453,"stimulus":"<p>Bereit?</p>","key_press":32,"trial_type":"html-keyboard-response","trial_index":91,"time_elapsed":204679,"internal_node_id":"0.0-8.0-0.21","subject":"ufbselwrboesk8z","sona":"8698"},{"rt":null,"stimulus":"<div style=\"font-size:60px;\">+</div>","key_press":null,"trial_type":"html-keyboard-response","trial_index":92,"time_elapsed":206709,"internal_node_id":"0.0-8.0-1.21","subject":"ufbselwrboesk8z","sona":"8698"},{"trial_type":"turing-test","trial_index":93,"time_elapsed":212248,"internal_node_id":"0.0-8.0-2.21","subject":"ufbselwrboesk8z","sona":"8698"},{"rt":301.9899999490008,"stimulus":"<p>Welche Sequenz haben Sie als natürlicher empfunden?</p>","key_press":70,"test_part":"response","test_stimulus":{"position":0,"left":"bvh/return-bottle-hold-training0-lines.txt","right":"bvh/vr_prediction_models/model(dmp)-dataset(return-bottle-hold)-npsi(90)-hold(0)/final-lines.txt","att_check":false},"trial_type":"html-keyboard-response","trial_index":94,"time_elapsed":212557,"internal_node_id":"0.0-8.0-3.21","subject":"ufbselwrboesk8z","sona":"8698"},{"rt":172.52499994356185,"stimulus":"<p>Bereit?</p>","key_press":32,"trial_type":"html-keyboard-response","trial_index":95,"time_elapsed":212735,"internal_node_id":"0.0-8.0-0.22","subject":"ufbselwrboesk8z","sona":"8698"},{"rt":null,"stimulus":"<div style=\"font-size:60px;\">+</div>","key_press":null,"trial_type":"html-keyboard-response","trial_index":96,"time_elapsed":214764,"internal_node_id":"0.0-8.0-1.22","subject":"ufbselwrboesk8z","sona":"8698"},{"trial_type":"turing-test","trial_index":97,"time_elapsed":220859,"internal_node_id":"0.0-8.0-2.22","subject":"ufbselwrboesk8z","sona":"8698"},{"rt":409.0200000209734,"stimulus":"<p>Welche Sequenz haben Sie als natürlicher empfunden?</p>","key_press":74,"test_part":"response","test_stimulus":{"position":1,"left":"bvh/vr_prediction_models/model(tmp)-dataset(return-bottle)-numprim(6)-hold(1)/final-lines.txt","right":"bvh/return-bottle-training1-lines.txt","att_check":false},"trial_type":"html-keyboard-response","trial_index":98,"time_elapsed":221274,"internal_node_id":"0.0-8.0-3.22","subject":"ufbselwrboesk8z","sona":"8698"},{"rt":188.16500005777925,"stimulus":"<p>Bereit?</p>","key_press":32,"trial_type":"html-keyboard-response","trial_index":99,"time_elapsed":221470,"internal_node_id":"0.0-8.0-0.23","subject":"ufbselwrboesk8z","sona":"8698"},{"rt":null,"stimulus":"<div style=\"font-size:60px;\">+</div>","key_press":null,"trial_type":"html-keyboard-response","trial_index":100,"time_elapsed":223496,"internal_node_id":"0.0-8.0-1.23","subject":"ufbselwrboesk8z","sona":"8698"},{"trial_type":"turing-test","trial_index":101,"time_elapsed":226943,"internal_node_id":"0.0-8.0-2.23","subject":"ufbselwrboesk8z","sona":"8698"},{"rt":907.4349999427795,"stimulus":"<p>Welche Sequenz haben Sie als natürlicher empfunden?</p>","key_press":70,"test_part":"response","test_stimulus":{"position":1,"left":"bvh/vr_prediction_models/model(tmp)-dataset(return-bottle-hold)-numprim(11)-hold(2)/final-lines.txt","right":"bvh/return-bottle-hold-training2-lines.txt","att_check":false},"trial_type":"html-keyboard-response","trial_index":102,"time_elapsed":227859,"internal_node_id":"0.0-8.0-3.23","subject":"ufbselwrboesk8z","sona":"8698"},{"rt":168.42499992344528,"stimulus":"<p>Bereit?</p>","key_press":32,"trial_type":"html-keyboard-response","trial_index":103,"time_elapsed":228032,"internal_node_id":"0.0-8.0-0.24","subject":"ufbselwrboesk8z","sona":"8698"},{"rt":null,"stimulus":"<div style=\"font-size:60px;\">+</div>","key_press":null,"trial_type":"html-keyboard-response","trial_index":104,"time_elapsed":230061,"internal_node_id":"0.0-8.0-1.24","subject":"ufbselwrboesk8z","sona":"8698"},{"trial_type":"turing-test","trial_index":105,"time_elapsed":234607,"internal_node_id":"0.0-8.0-2.24","subject":"ufbselwrboesk8z","sona":"8698"},{"rt":413.3750000037253,"stimulus":"<p>Welche Sequenz haben Sie als natürlicher empfunden?</p>","key_press":70,"test_part":"response","test_stimulus":{"position":1,"left":"bvh/vr_prediction_models/model(vcgpdm)-dataset(pass-bottle-hold)-mode(ELBO)-parts(1)-dyn(30)-lvm(30)-hold(4)/final-lines.txt","right":"bvh/pass-bottle-hold-training4-lines.txt","att_check":false},"trial_type":"html-keyboard-response","trial_index":106,"time_elapsed":235027,"internal_node_id":"0.0-8.0-3.24","subject":"ufbselwrboesk8z","sona":"8698"},{"rt":149.66500003356487,"stimulus":"<p>Bereit?</p>","key_press":32,"trial_type":"html-keyboard-response","trial_index":107,"time_elapsed":235181,"internal_node_id":"0.0-8.0-0.25","subject":"ufbselwrboesk8z","sona":"8698"},{"rt":null,"stimulus":"<div style=\"font-size:60px;\">+</div>","key_press":null,"trial_type":"html-keyboard-response","trial_index":108,"time_elapsed":237197,"internal_node_id":"0.0-8.0-1.25","subject":"ufbselwrboesk8z","sona":"8698"},{"trial_type":"turing-test","trial_index":109,"time_elapsed":241189,"internal_node_id":"0.0-8.0-2.25","subject":"ufbselwrboesk8z","sona":"8698"},{"rt":288.90000004321337,"stimulus":"<p>Welche Sequenz haben Sie als natürlicher empfunden?</p>","key_press":70,"test_part":"response","test_stimulus":{"position":0,"left":"bvh/return-bottle-hold-training4-lines.txt","right":"bvh/vr_prediction_models/model(vcgpdm)-dataset(return-bottle-hold)-mode(ELBO)-parts(3)-dyn(20)-lvm(35)-hold(4)/final-lines.txt","att_check":false},"trial_type":"html-keyboard-response","trial_index":110,"time_elapsed":241485,"internal_node_id":"0.0-8.0-3.25","subject":"ufbselwrboesk8z","sona":"8698"},{"rt":186.46499991882592,"stimulus":"<p>Bereit?</p>","key_press":32,"trial_type":"html-keyboard-response","trial_index":111,"time_elapsed":241677,"internal_node_id":"0.0-8.0-0.26","subject":"ufbselwrboesk8z","sona":"8698"},{"rt":null,"stimulus":"<div style=\"font-size:60px;\">+</div>","key_press":null,"trial_type":"html-keyboard-response","trial_index":112,"time_elapsed":243701,"internal_node_id":"0.0-8.0-1.26","subject":"ufbselwrboesk8z","sona":"8698"},{"trial_type":"turing-test","trial_index":113,"time_elapsed":247288,"internal_node_id":"0.0-8.0-2.26","subject":"ufbselwrboesk8z","sona":"8698"},{"rt":342.5699999788776,"stimulus":"<p>Welche Sequenz haben Sie als natürlicher empfunden?</p>","key_press":74,"test_part":"response","test_stimulus":{"position":1,"left":"bvh/vr_prediction_models/model(vcgpdm)-dataset(pass-bottle-hold)-mode(ELBO)-parts(1)-dyn(15)-lvm(35)-hold(4)/final-lines.txt","right":"bvh/pass-bottle-hold-training4-lines.txt","att_check":false},"trial_type":"html-keyboard-response","trial_index":114,"time_elapsed":247638,"internal_node_id":"0.0-8.0-3.26","subject":"ufbselwrboesk8z","sona":"8698"},{"rt":275.1149999676272,"stimulus":"<p>Bereit?</p>","key_press":32,"trial_type":"html-keyboard-response","trial_index":115,"time_elapsed":247919,"internal_node_id":"0.0-8.0-0.27","subject":"ufbselwrboesk8z","sona":"8698"},{"rt":null,"stimulus":"<div style=\"font-size:60px;\">+</div>","key_press":null,"trial_type":"html-keyboard-response","trial_index":116,"time_elapsed":249946,"internal_node_id":"0.0-8.0-1.27","subject":"ufbselwrboesk8z","sona":"8698"},{"trial_type":"turing-test","trial_index":117,"time_elapsed":253850,"internal_node_id":"0.0-8.0-2.27","subject":"ufbselwrboesk8z","sona":"8698"},{"rt":369.8500000173226,"stimulus":"<p>Welche Sequenz haben Sie als natürlicher empfunden?</p>","key_press":70,"test_part":"response","test_stimulus":{"position":0,"left":"bvh/return-bottle-hold-training3-lines.txt","right":"bvh/vr_prediction_models/model(vcgpdm)-dataset(return-bottle-hold)-mode(ELBO)-parts(1)-dyn(15)-lvm(35)-hold(3)/final-lines.txt","att_check":false},"trial_type":"html-keyboard-response","trial_index":118,"time_elapsed":254227,"internal_node_id":"0.0-8.0-3.27","subject":"ufbselwrboesk8z","sona":"8698"},{"rt":138.90999997965991,"stimulus":"<p>Bereit?</p>","key_press":32,"trial_type":"html-keyboard-response","trial_index":119,"time_elapsed":254371,"internal_node_id":"0.0-8.0-0.28","subject":"ufbselwrboesk8z","sona":"8698"},{"rt":null,"stimulus":"<div style=\"font-size:60px;\">+</div>","key_press":null,"trial_type":"html-keyboard-response","trial_index":120,"time_elapsed":256399,"internal_node_id":"0.0-8.0-1.28","subject":"ufbselwrboesk8z","sona":"8698"},{"trial_type":"turing-test","trial_index":121,"time_elapsed":260019,"internal_node_id":"0.0-8.0-2.28","subject":"ufbselwrboesk8z","sona":"8698"},{"rt":236.16500000935048,"stimulus":"<p>Welche Sequenz haben Sie als natürlicher empfunden?</p>","key_press":74,"test_part":"response","test_stimulus":{"position":1,"left":"bvh/vr_prediction_models/model(dmp)-dataset(return-bottle-hold)-npsi(60)-hold(3)/final-lines.txt","right":"bvh/return-bottle-hold-training3-lines.txt","att_check":false},"trial_type":"html-keyboard-response","trial_index":122,"time_elapsed":260263,"internal_node_id":"0.0-8.0-3.28","subject":"ufbselwrboesk8z","sona":"8698"},{"rt":215.970000019297,"stimulus":"<p>Bereit?</p>","key_press":32,"trial_type":"html-keyboard-response","trial_index":123,"time_elapsed":260486,"internal_node_id":"0.0-8.0-0.29","subject":"ufbselwrboesk8z","sona":"8698"},{"rt":null,"stimulus":"<div style=\"font-size:60px;\">+</div>","key_press":null,"trial_type":"html-keyboard-response","trial_index":124,"time_elapsed":262492,"internal_node_id":"0.0-8.0-1.29","subject":"ufbselwrboesk8z","sona":"8698"},{"trial_type":"turing-test","trial_index":125,"time_elapsed":267288,"internal_node_id":"0.0-8.0-2.29","subject":"ufbselwrboesk8z","sona":"8698"},{"rt":878.7700000684708,"stimulus":"<p>Welche Sequenz haben Sie als natürlicher empfunden?</p>","key_press":74,"test_part":"response","test_stimulus":{"position":1,"left":"bvh/vr_prediction_models/model(vcgpdm)-dataset(return-bottle-hold)-mode(ELBO)-parts(3)-dyn(25)-lvm(25)-hold(4)/final-lines.txt","right":"bvh/return-bottle-hold-training4-lines.txt","att_check":false},"trial_type":"html-keyboard-response","trial_index":126,"time_elapsed":268176,"internal_node_id":"0.0-8.0-3.29","subject":"ufbselwrboesk8z","sona":"8698"},{"rt":211.21999993920326,"stimulus":"<p>Bereit?</p>","key_press":32,"trial_type":"html-keyboard-response","trial_index":127,"time_elapsed":268393,"internal_node_id":"0.0-8.0-0.30","subject":"ufbselwrboesk8z","sona":"8698"},{"rt":null,"stimulus":"<div style=\"font-size:60px;\">+</div>","key_press":null,"trial_type":"html-keyboard-response","trial_index":128,"time_elapsed":270417,"internal_node_id":"0.0-8.0-1.30","subject":"ufbselwrboesk8z","sona":"8698"},{"trial_type":"turing-test","trial_index":129,"time_elapsed":274809,"internal_node_id":"0.0-8.0-2.30","subject":"ufbselwrboesk8z","sona":"8698"},{"rt":334.15000000968575,"stimulus":"<p>Welche Sequenz haben Sie als natürlicher empfunden?</p>","key_press":70,"test_part":"response","test_stimulus":{"position":1,"left":"bvh/vr_prediction_models/model(vcgpdm)-dataset(pass-bottle-hold)-mode(ELBO)-parts(1)-dyn(30)-lvm(30)-hold(2)/final-lines.txt","right":"bvh/pass-bottle-hold-training2-lines.txt","att_check":false},"trial_type":"html-keyboard-response","trial_index":130,"time_elapsed":275150,"internal_node_id":"0.0-8.0-3.30","subject":"ufbselwrboesk8z","sona":"8698"},{"rt":186.25500006601214,"stimulus":"<p>Bereit?</p>","key_press":32,"trial_type":"html-keyboard-response","trial_index":131,"time_elapsed":275341,"internal_node_id":"0.0-8.0-0.31","subject":"ufbselwrboesk8z","sona":"8698"},{"rt":null,"stimulus":"<div style=\"font-size:60px;\">+</div>","key_press":null,"trial_type":"html-keyboard-response","trial_index":132,"time_elapsed":277354,"internal_node_id":"0.0-8.0-1.31","subject":"ufbselwrboesk8z","sona":"8698"},{"trial_type":"turing-test","trial_index":133,"time_elapsed":284900,"internal_node_id":"0.0-8.0-2.31","subject":"ufbselwrboesk8z","sona":"8698"},{"rt":273.3399999560788,"stimulus":"<p>Welche Sequenz haben Sie als natürlicher empfunden?</p>","key_press":74,"test_part":"response","test_stimulus":{"position":1,"left":"bvh/vr_prediction_models/model(vcgpdm)-dataset(pass-bottle)-mode(ELBO)-parts(3)-dyn(10)-lvm(25)-hold(0)/final-lines.txt","right":"bvh/pass-bottle-training0-lines.txt","att_check":false},"trial_type":"html-keyboard-response","trial_index":134,"time_elapsed":285181,"internal_node_id":"0.0-8.0-3.31","subject":"ufbselwrboesk8z","sona":"8698"},{"rt":709.0799999423325,"stimulus":"<p>Bereit?</p>","key_press":32,"trial_type":"html-keyboard-response","trial_index":135,"time_elapsed":285895,"internal_node_id":"0.0-8.0-0.32","subject":"ufbselwrboesk8z","sona":"8698"},{"rt":null,"stimulus":"<div style=\"font-size:60px;\">+</div>","key_press":null,"trial_type":"html-keyboard-response","trial_index":136,"time_elapsed":287911,"internal_node_id":"0.0-8.0-1.32","subject":"ufbselwrboesk8z","sona":"8698"},{"trial_type":"turing-test","trial_index":137,"time_elapsed":293734,"internal_node_id":"0.0-8.0-2.32","subject":"ufbselwrboesk8z","sona":"8698"},{"rt":263.1950000068173,"stimulus":"<p>Welche Sequenz haben Sie als natürlicher empfunden?</p>","key_press":74,"test_part":"response","test_stimulus":{"position":1,"left":"bvh/vr_prediction_models/model(tmp)-dataset(pass-bottle)-numprim(13)-hold(4)/final-lines.txt","right":"bvh/pass-bottle-training4-lines.txt","att_check":false},"trial_type":"html-keyboard-response","trial_index":138,"time_elapsed":294005,"internal_node_id":"0.0-8.0-3.32","subject":"ufbselwrboesk8z","sona":"8698"},{"rt":248.0999999679625,"stimulus":"<p>Bereit?</p>","key_press":32,"trial_type":"html-keyboard-response","trial_index":139,"time_elapsed":294264,"internal_node_id":"0.0-8.0-0.33","subject":"ufbselwrboesk8z","sona":"8698"},{"rt":null,"stimulus":"<div style=\"font-size:60px;\">+</div>","key_press":null,"trial_type":"html-keyboard-response","trial_index":140,"time_elapsed":296291,"internal_node_id":"0.0-8.0-1.33","subject":"ufbselwrboesk8z","sona":"8698"},{"trial_type":"turing-test","trial_index":141,"time_elapsed":302559,"internal_node_id":"0.0-8.0-2.33","subject":"ufbselwrboesk8z","sona":"8698"},{"rt":273.1299999868497,"stimulus":"<p>Welche Sequenz haben Sie als natürlicher empfunden?</p>","key_press":70,"test_part":"response","test_stimulus":{"position":0,"left":"bvh/return-bottle-training1-lines.txt","right":"bvh/vr_prediction_models/model(vcgpdm)-dataset(return-bottle)-mode(ELBO)-parts(3)-dyn(15)-lvm(30)-hold(1)/final-lines.txt","att_check":false},"trial_type":"html-keyboard-response","trial_index":142,"time_elapsed":302843,"internal_node_id":"0.0-8.0-3.33","subject":"ufbselwrboesk8z","sona":"8698"},{"rt":178.95499989390373,"stimulus":"<p>Bereit?</p>","key_press":32,"trial_type":"html-keyboard-response","trial_index":143,"time_elapsed":303028,"internal_node_id":"0.0-8.0-0.34","subject":"ufbselwrboesk8z","sona":"8698"},{"rt":null,"stimulus":"<div style=\"font-size:60px;\">+</div>","key_press":null,"trial_type":"html-keyboard-response","trial_index":144,"time_elapsed":305050,"internal_node_id":"0.0-8.0-1.34","subject":"ufbselwrboesk8z","sona":"8698"},{"trial_type":"turing-test","trial_index":145,"time_elapsed":310740,"internal_node_id":"0.0-8.0-2.34","subject":"ufbselwrboesk8z","sona":"8698"},{"rt":296.0650000022724,"stimulus":"<p>Welche Sequenz haben Sie als natürlicher empfunden?</p>","key_press":74,"test_part":"response","test_stimulus":{"position":1,"left":"bvh/vr_prediction_models/model(dmp)-dataset(return-bottle)-npsi(70)-hold(3)/final-lines.txt","right":"bvh/return-bottle-training3-lines.txt","att_check":false},"trial_type":"html-keyboard-response","trial_index":146,"time_elapsed":311044,"internal_node_id":"0.0-8.0-3.34","subject":"ufbselwrboesk8z","sona":"8698"},{"rt":25339.949999935925,"stimulus":"<p>Bereit?</p>","key_press":32,"trial_type":"html-keyboard-response","trial_index":147,"time_elapsed":336394,"internal_node_id":"0.0-8.0-0.35","subject":"ufbselwrboesk8z","sona":"8698"},{"rt":null,"stimulus":"<div style=\"font-size:60px;\">+</div>","key_press":null,"trial_type":"html-keyboard-response","trial_index":148,"time_elapsed":338397,"internal_node_id":"0.0-8.0-1.35","subject":"ufbselwrboesk8z","sona":"8698"},{"trial_type":"turing-test","trial_index":149,"time_elapsed":346942,"internal_node_id":"0.0-8.0-2.35","subject":"ufbselwrboesk8z","sona":"8698"},{"rt":334.9999999627471,"stimulus":"<p>Welche Sequenz haben Sie als natürlicher empfunden?</p>","key_press":70,"test_part":"response","test_stimulus":{"position":0,"left":"bvh/pass-bottle-training2-lines.txt","right":"bvh/vr_prediction_models/model(vcgpdm)-dataset(pass-bottle)-mode(ELBO)-parts(3)-dyn(25)-lvm(15)-hold(2)/final-lines.txt","att_check":false},"trial_type":"html-keyboard-response","trial_index":150,"time_elapsed":347284,"internal_node_id":"0.0-8.0-3.35","subject":"ufbselwrboesk8z","sona":"8698"},{"rt":145.14000003691763,"stimulus":"<p>Bereit?</p>","key_press":32,"trial_type":"html-keyboard-response","trial_index":151,"time_elapsed":347436,"internal_node_id":"0.0-8.0-0.36","subject":"ufbselwrboesk8z","sona":"8698"},{"rt":null,"stimulus":"<div style=\"font-size:60px;\">+</div>","key_press":null,"trial_type":"html-keyboard-response","trial_index":152,"time_elapsed":349457,"internal_node_id":"0.0-8.0-1.36","subject":"ufbselwrboesk8z","sona":"8698"},{"trial_type":"turing-test","trial_index":153,"time_elapsed":355555,"internal_node_id":"0.0-8.0-2.36","subject":"ufbselwrboesk8z","sona":"8698"},{"rt":495.02999999094754,"stimulus":"<p>Welche Sequenz haben Sie als natürlicher empfunden?</p>","key_press":74,"test_part":"response","test_stimulus":{"position":1,"left":"bvh/vr_prediction_models/model(vcgpdm)-dataset(pass-bottle)-mode(ELBO)-parts(3)-dyn(10)-lvm(25)-hold(2)/final-lines.txt","right":"bvh/pass-bottle-training2-lines.txt","att_check":false},"trial_type":"html-keyboard-response","trial_index":154,"time_elapsed":356058,"internal_node_id":"0.0-8.0-3.36","subject":"ufbselwrboesk8z","sona":"8698"},{"rt":21185.30000001192,"stimulus":"<p>Bereit?</p>","key_press":32,"trial_type":"html-keyboard-response","trial_index":155,"time_elapsed":377249,"internal_node_id":"0.0-8.0-0.37","subject":"ufbselwrboesk8z","sona":"8698"},{"rt":null,"stimulus":"<div style=\"font-size:60px;\">+</div>","key_press":null,"trial_type":"html-keyboard-response","trial_index":156,"time_elapsed":379254,"internal_node_id":"0.0-8.0-1.37","subject":"ufbselwrboesk8z","sona":"8698"},{"trial_type":"turing-test","trial_index":157,"time_elapsed":386195,"internal_node_id":"0.0-8.0-2.37","subject":"ufbselwrboesk8z","sona":"8698"},{"rt":334.4649999635294,"stimulus":"<p>Welche Sequenz haben Sie als natürlicher empfunden?</p>","key_press":70,"test_part":"response","test_stimulus":{"position":0,"left":"bvh/pass-bottle-training0-lines.txt","right":"bvh/vr_prediction_models/model(dmp)-dataset(pass-bottle)-npsi(20)-hold(0)/final-lines.txt","att_check":false},"trial_type":"html-keyboard-response","trial_index":158,"time_elapsed":386539,"internal_node_id":"0.0-8.0-3.37","subject":"ufbselwrboesk8z","sona":"8698"},{"rt":182.12500005029142,"stimulus":"<p>Bereit?</p>","key_press":32,"trial_type":"html-keyboard-response","trial_index":159,"time_elapsed":386727,"internal_node_id":"0.0-8.0-0.38","subject":"ufbselwrboesk8z","sona":"8698"},{"rt":null,"stimulus":"<div style=\"font-size:60px;\">+</div>","key_press":null,"trial_type":"html-keyboard-response","trial_index":160,"time_elapsed":388752,"internal_node_id":"0.0-8.0-1.38","subject":"ufbselwrboesk8z","sona":"8698"},{"trial_type":"turing-test","trial_index":161,"time_elapsed":394720,"internal_node_id":"0.0-8.0-2.38","subject":"ufbselwrboesk8z","sona":"8698"},{"rt":290.34000006504357,"stimulus":"<p>Welche Sequenz haben Sie als natürlicher empfunden?</p>","key_press":74,"test_part":"response","test_stimulus":{"position":1,"left":"bvh/vr_prediction_models/model(vcgpdm)-dataset(pass-bottle)-mode(ELBO)-parts(1)-dyn(10)-lvm(30)-hold(3)/final-lines.txt","right":"bvh/pass-bottle-training3-lines.txt","att_check":false},"trial_type":"html-keyboard-response","trial_index":162,"time_elapsed":395019,"internal_node_id":"0.0-8.0-3.38","subject":"ufbselwrboesk8z","sona":"8698"},{"rt":118238.63000003621,"stimulus":"<p>Bereit?</p>","key_press":32,"trial_type":"html-keyboard-response","trial_index":163,"time_elapsed":513263,"internal_node_id":"0.0-8.0-0.39","subject":"ufbselwrboesk8z","sona":"8698"},{"rt":null,"stimulus":"<div style=\"font-size:60px;\">+</div>","key_press":null,"trial_type":"html-keyboard-response","trial_index":164,"time_elapsed":515270,"internal_node_id":"0.0-8.0-1.39","subject":"ufbselwrboesk8z","sona":"8698"},{"trial_type":"turing-test","trial_index":165,"time_elapsed":521215,"internal_node_id":"0.0-8.0-2.39","subject":"ufbselwrboesk8z","sona":"8698"},{"rt":321.24499999918044,"stimulus":"<p>Welche Sequenz haben Sie als natürlicher empfunden?</p>","key_press":70,"test_part":"response","test_stimulus":{"position":0,"left":"bvh/pass-bottle-training3-lines.txt","right":"bvh/vr_prediction_models/model(tmp)-dataset(pass-bottle)-numprim(11)-hold(3)/final-lines.txt","att_check":false},"trial_type":"html-keyboard-response","trial_index":166,"time_elapsed":521548,"internal_node_id":"0.0-8.0-3.39","subject":"ufbselwrboesk8z","sona":"8698"},{"rt":207.39999995566905,"stimulus":"<p>Bereit?</p>","key_press":32,"trial_type":"html-keyboard-response","trial_index":167,"time_elapsed":521762,"internal_node_id":"0.0-8.0-0.40","subject":"ufbselwrboesk8z","sona":"8698"},{"rt":null,"stimulus":"<div style=\"font-size:60px;\">+</div>","key_press":null,"trial_type":"html-keyboard-response","trial_index":168,"time_elapsed":523772,"internal_node_id":"0.0-8.0-1.40","subject":"ufbselwrboesk8z","sona":"8698"},{"trial_type":"turing-test","trial_index":169,"time_elapsed":527094,"internal_node_id":"0.0-8.0-2.40","subject":"ufbselwrboesk8z","sona":"8698"},{"rt":293.2400000281632,"stimulus":"<p>Welche Sequenz haben Sie als natürlicher empfunden?</p>","key_press":70,"test_part":"response","test_stimulus":{"position":0,"left":"bvh/pass-bottle-hold-training0-lines.txt","right":"bvh/vr_prediction_models/model(vcgpdm)-dataset(pass-bottle-hold)-mode(ELBO)-parts(1)-dyn(10)-lvm(30)-hold(0)/final-lines.txt","att_check":false},"trial_type":"html-keyboard-response","trial_index":170,"time_elapsed":527395,"internal_node_id":"0.0-8.0-3.40","subject":"ufbselwrboesk8z","sona":"8698"},{"rt":206.52000000700355,"stimulus":"<p>Bereit?</p>","key_press":32,"trial_type":"html-keyboard-response","trial_index":171,"time_elapsed":527607,"internal_node_id":"0.0-8.0-0.41","subject":"ufbselwrboesk8z","sona":"8698"},{"rt":null,"stimulus":"<div style=\"font-size:60px;\">+</div>","key_press":null,"trial_type":"html-keyboard-response","trial_index":172,"time_elapsed":529618,"internal_node_id":"0.0-8.0-1.41","subject":"ufbselwrboesk8z","sona":"8698"},{"trial_type":"turing-test","trial_index":173,"time_elapsed":535003,"internal_node_id":"0.0-8.0-2.41","subject":"ufbselwrboesk8z","sona":"8698"},{"rt":365.3200000990182,"stimulus":"<p>Welche Sequenz haben Sie als natürlicher empfunden?</p>","key_press":74,"test_part":"response","test_stimulus":{"position":1,"left":"bvh/vr_prediction_models/model(tmp)-dataset(return-bottle)-numprim(10)-hold(0)/final-lines.txt","right":"bvh/return-bottle-training0-lines.txt","att_check":false},"trial_type":"html-keyboard-response","trial_index":174,"time_elapsed":535380,"internal_node_id":"0.0-8.0-3.41","subject":"ufbselwrboesk8z","sona":"8698"},{"rt":4606.000000028871,"stimulus":"<p>Bereit?</p>","key_press":32,"trial_type":"html-keyboard-response","trial_index":175,"time_elapsed":539993,"internal_node_id":"0.0-8.0-0.42","subject":"ufbselwrboesk8z","sona":"8698"},{"rt":null,"stimulus":"<div style=\"font-size:60px;\">+</div>","key_press":null,"trial_type":"html-keyboard-response","trial_index":176,"time_elapsed":542011,"internal_node_id":"0.0-8.0-1.42","subject":"ufbselwrboesk8z","sona":"8698"},{"trial_type":"turing-test","trial_index":177,"time_elapsed":548460,"internal_node_id":"0.0-8.0-2.42","subject":"ufbselwrboesk8z","sona":"8698"},{"rt":518.4000000590459,"stimulus":"<p>Welche Sequenz haben Sie als natürlicher empfunden?</p>","key_press":70,"test_part":"response","test_stimulus":{"position":1,"left":"bvh/vr_prediction_models/model(vcgpdm)-dataset(return-bottle)-mode(MAP)-parts(3)-hold(1)/final-lines.txt","right":"bvh/return-bottle-training1-lines.txt","att_check":false},"trial_type":"html-keyboard-response","trial_index":178,"time_elapsed":548986,"internal_node_id":"0.0-8.0-3.42","subject":"ufbselwrboesk8z","sona":"8698"},{"rt":225.86500004399568,"stimulus":"<p>Bereit?</p>","key_press":32,"trial_type":"html-keyboard-response","trial_index":179,"time_elapsed":549220,"internal_node_id":"0.0-8.0-0.43","subject":"ufbselwrboesk8z","sona":"8698"},{"rt":null,"stimulus":"<div style=\"font-size:60px;\">+</div>","key_press":null,"trial_type":"html-keyboard-response","trial_index":180,"time_elapsed":551231,"internal_node_id":"0.0-8.0-1.43","subject":"ufbselwrboesk8z","sona":"8698"},{"trial_type":"turing-test","trial_index":181,"time_elapsed":557388,"internal_node_id":"0.0-8.0-2.43","subject":"ufbselwrboesk8z","sona":"8698"},{"rt":56.850000051781535,"stimulus":"<p>Welche Sequenz haben Sie als natürlicher empfunden?</p>","key_press":74,"test_part":"response","test_stimulus":{"position":1,"left":"bvh/vr_prediction_models/model(vcgpdm)-dataset(pass-bottle)-mode(ELBO)-parts(1)-dyn(10)-lvm(25)-hold(3)/final-lines.txt","right":"bvh/pass-bottle-training3-lines.txt","att_check":false},"trial_type":"html-keyboard-response","trial_index":182,"time_elapsed":557457,"internal_node_id":"0.0-8.0-3.43","subject":"ufbselwrboesk8z","sona":"8698"},{"rt":429.3250000337139,"stimulus":"<p>Bereit?</p>","key_press":32,"trial_type":"html-keyboard-response","trial_index":183,"time_elapsed":557894,"internal_node_id":"0.0-8.0-0.44","subject":"ufbselwrboesk8z","sona":"8698"},{"rt":null,"stimulus":"<div style=\"font-size:60px;\">+</div>","key_press":null,"trial_type":"html-keyboard-response","trial_index":184,"time_elapsed":559913,"internal_node_id":"0.0-8.0-1.44","subject":"ufbselwrboesk8z","sona":"8698"},{"trial_type":"turing-test","trial_index":185,"time_elapsed":565865,"internal_node_id":"0.0-8.0-2.44","subject":"ufbselwrboesk8z","sona":"8698"},{"rt":328.719999990426,"stimulus":"<p>Welche Sequenz haben Sie als natürlicher empfunden?</p>","key_press":70,"test_part":"response","test_stimulus":{"position":0,"left":"bvh/return-bottle-training4-lines.txt","right":"bvh/vr_prediction_models/model(vcgpdm)-dataset(return-bottle)-mode(ELBO)-parts(3)-dyn(25)-lvm(25)-hold(4)/final-lines.txt","att_check":false},"trial_type":"html-keyboard-response","trial_index":186,"time_elapsed":566202,"internal_node_id":"0.0-8.0-3.44","subject":"ufbselwrboesk8z","sona":"8698"},{"rt":260.68000006489456,"stimulus":"<p>Bereit?</p>","key_press":32,"trial_type":"html-keyboard-response","trial_index":187,"time_elapsed":566471,"internal_node_id":"0.0-8.0-0.45","subject":"ufbselwrboesk8z","sona":"8698"},{"rt":null,"stimulus":"<div style=\"font-size:60px;\">+</div>","key_press":null,"trial_type":"html-keyboard-response","trial_index":188,"time_elapsed":568481,"internal_node_id":"0.0-8.0-1.45","subject":"ufbselwrboesk8z","sona":"8698"},{"trial_type":"turing-test","trial_index":189,"time_elapsed":573522,"internal_node_id":"0.0-8.0-2.45","subject":"ufbselwrboesk8z","sona":"8698"},{"rt":300.9349999483675,"stimulus":"<p>Welche Sequenz haben Sie als natürlicher empfunden?</p>","key_press":70,"test_part":"response","test_stimulus":{"position":0,"left":"bvh/return-bottle-hold-training0-lines.txt","right":"bvh/vr_prediction_models/model(tmp)-dataset(return-bottle-hold)-numprim(15)-hold(0)/final-lines.txt","att_check":false},"trial_type":"html-keyboard-response","trial_index":190,"time_elapsed":573834,"internal_node_id":"0.0-8.0-3.45","subject":"ufbselwrboesk8z","sona":"8698"},{"rt":231.39000008814037,"stimulus":"<p>Bereit?</p>","key_press":32,"trial_type":"html-keyboard-response","trial_index":191,"time_elapsed":574074,"internal_node_id":"0.0-8.0-0.46","subject":"ufbselwrboesk8z","sona":"8698"},{"rt":null,"stimulus":"<div style=\"font-size:60px;\">+</div>","key_press":null,"trial_type":"html-keyboard-response","trial_index":192,"time_elapsed":576095,"internal_node_id":"0.0-8.0-1.46","subject":"ufbselwrboesk8z","sona":"8698"},{"trial_type":"turing-test","trial_index":193,"time_elapsed":581218,"internal_node_id":"0.0-8.0-2.46","subject":"ufbselwrboesk8z","sona":"8698"},{"rt":88.0899999756366,"stimulus":"<p>Welche Sequenz haben Sie als natürlicher empfunden?</p>","key_press":74,"test_part":"response","test_stimulus":{"position":1,"left":"bvh/vr_prediction_models/model(tmp)-dataset(return-bottle-hold)-numprim(6)-hold(0)/final-lines.txt","right":"bvh/return-bottle-hold-training0-lines.txt","att_check":false},"trial_type":"html-keyboard-response","trial_index":194,"time_elapsed":581314,"internal_node_id":"0.0-8.0-3.46","subject":"ufbselwrboesk8z","sona":"8698"},{"rt":623.1499999994412,"stimulus":"<p>Bereit?</p>","key_press":32,"trial_type":"html-keyboard-response","trial_index":195,"time_elapsed":581948,"internal_node_id":"0.0-8.0-0.47","subject":"ufbselwrboesk8z","sona":"8698"},{"rt":null,"stimulus":"<div style=\"font-size:60px;\">+</div>","key_press":null,"trial_type":"html-keyboard-response","trial_index":196,"time_elapsed":583967,"internal_node_id":"0.0-8.0-1.47","subject":"ufbselwrboesk8z","sona":"8698"},{"trial_type":"turing-test","trial_index":197,"time_elapsed":587541,"internal_node_id":"0.0-8.0-2.47","subject":"ufbselwrboesk8z","sona":"8698"},{"rt":431.54999997932464,"stimulus":"<p>Welche Sequenz haben Sie als natürlicher empfunden?</p>","key_press":74,"test_part":"response","test_stimulus":{"position":1,"left":"bvh/vr_prediction_models/model(vcgpdm)-dataset(pass-bottle-hold)-mode(ELBO)-parts(1)-dyn(30)-lvm(30)-hold(4)/final-lines.txt","right":"bvh/pass-bottle-hold-training4-lines.txt","att_check":false},"trial_type":"html-keyboard-response","trial_index":198,"time_elapsed":587981,"internal_node_id":"0.0-8.0-3.47","subject":"ufbselwrboesk8z","sona":"8698"},{"rt":414.72000000067055,"stimulus":"<p>Bereit?</p>","key_press":32,"trial_type":"html-keyboard-response","trial_index":199,"time_elapsed":588403,"internal_node_id":"0.0-8.0-0.48","subject":"ufbselwrboesk8z","sona":"8698"},{"rt":null,"stimulus":"<div style=\"font-size:60px;\">+</div>","key_press":null,"trial_type":"html-keyboard-response","trial_index":200,"time_elapsed":590414,"internal_node_id":"0.0-8.0-1.48","subject":"ufbselwrboesk8z","sona":"8698"},{"trial_type":"turing-test","trial_index":201,"time_elapsed":594205,"internal_node_id":"0.0-8.0-2.48","subject":"ufbselwrboesk8z","sona":"8698"},{"rt":322.7800000458956,"stimulus":"<p>Welche Sequenz haben Sie als natürlicher empfunden?</p>","key_press":74,"test_part":"response","test_stimulus":{"position":0,"left":"bvh/pass-bottle-hold-training4-lines.txt","right":"bvh/vr_prediction_models/model(vcgpdm)-dataset(pass-bottle-hold)-mode(ELBO)-parts(1)-dyn(20)-lvm(20)-hold(4)/final-lines.txt","att_check":false},"trial_type":"html-keyboard-response","trial_index":202,"time_elapsed":594538,"internal_node_id":"0.0-8.0-3.48","subject":"ufbselwrboesk8z","sona":"8698"},{"rt":291.05999995954335,"stimulus":"<p>Bereit?</p>","key_press":32,"trial_type":"html-keyboard-response","trial_index":203,"time_elapsed":594835,"internal_node_id":"0.0-8.0-0.49","subject":"ufbselwrboesk8z","sona":"8698"},{"rt":null,"stimulus":"<div style=\"font-size:60px;\">+</div>","key_press":null,"trial_type":"html-keyboard-response","trial_index":204,"time_elapsed":596852,"internal_node_id":"0.0-8.0-1.49","subject":"ufbselwrboesk8z","sona":"8698"},{"trial_type":"turing-test","trial_index":205,"time_elapsed":600237,"internal_node_id":"0.0-8.0-2.49","subject":"ufbselwrboesk8z","sona":"8698"},{"rt":324.5300000999123,"stimulus":"<p>Welche Sequenz haben Sie als natürlicher empfunden?</p>","key_press":70,"test_part":"response","test_stimulus":{"position":1,"left":"bvh/vr_prediction_models/model(vcgpdm)-dataset(pass-bottle-hold)-mode(ELBO)-parts(3)-dyn(15)-lvm(30)-hold(0)/final-lines.txt","right":"bvh/pass-bottle-hold-training0-lines.txt","att_check":false},"trial_type":"html-keyboard-response","trial_index":206,"time_elapsed":600578,"internal_node_id":"0.0-8.0-3.49","subject":"ufbselwrboesk8z","sona":"8698"},{"rt":375.1099999062717,"stimulus":"<p>Bereit?</p>","key_press":32,"trial_type":"html-keyboard-response","trial_index":207,"time_elapsed":600961,"internal_node_id":"0.0-8.0-0.50","subject":"ufbselwrboesk8z","sona":"8698"},{"rt":null,"stimulus":"<div style=\"font-size:60px;\">+</div>","key_press":null,"trial_type":"html-keyboard-response","trial_index":208,"time_elapsed":602984,"internal_node_id":"0.0-8.0-1.50","subject":"ufbselwrboesk8z","sona":"8698"},{"trial_type":"turing-test","trial_index":209,"time_elapsed":607402,"internal_node_id":"0.0-8.0-2.50","subject":"ufbselwrboesk8z","sona":"8698"},{"rt":329.3499998981133,"stimulus":"<p>Welche Sequenz haben Sie als natürlicher empfunden?</p>","key_press":70,"test_part":"response","test_stimulus":{"position":0,"left":"bvh/return-bottle-hold-training1-lines.txt","right":"bvh/vr_prediction_models/model(vcgpdm)-dataset(return-bottle-hold)-mode(ELBO)-parts(3)-dyn(10)-lvm(30)-hold(1)/final-lines.txt","att_check":false},"trial_type":"html-keyboard-response","trial_index":210,"time_elapsed":607739,"internal_node_id":"0.0-8.0-3.50","subject":"ufbselwrboesk8z","sona":"8698"},{"rt":218.47000007983297,"stimulus":"<p>Bereit?</p>","key_press":32,"trial_type":"html-keyboard-response","trial_index":211,"time_elapsed":607964,"internal_node_id":"0.0-8.0-0.51","subject":"ufbselwrboesk8z","sona":"8698"},{"rt":null,"stimulus":"<div style=\"font-size:60px;\">+</div>","key_press":null,"trial_type":"html-keyboard-response","trial_index":212,"time_elapsed":609978,"internal_node_id":"0.0-8.0-1.51","subject":"ufbselwrboesk8z","sona":"8698"},{"trial_type":"turing-test","trial_index":213,"time_elapsed":615089,"internal_node_id":"0.0-8.0-2.51","subject":"ufbselwrboesk8z","sona":"8698"},{"rt":250.7299999706447,"stimulus":"<p>Welche Sequenz haben Sie als natürlicher empfunden?</p>","key_press":70,"test_part":"response","test_stimulus":{"position":0,"left":"bvh/return-bottle-hold-training0-lines.txt","right":"bvh/vr_prediction_models/model(tmp)-dataset(return-bottle-hold)-numprim(10)-hold(0)/final-lines.txt","att_check":false},"trial_type":"html-keyboard-response","trial_index":214,"time_elapsed":615353,"internal_node_id":"0.0-8.0-3.51","subject":"ufbselwrboesk8z","sona":"8698"},{"rt":285.7450000010431,"stimulus":"<p>Bereit?</p>","key_press":32,"trial_type":"html-keyboard-response","trial_index":215,"time_elapsed":615647,"internal_node_id":"0.0-8.0-0.52","subject":"ufbselwrboesk8z","sona":"8698"},{"rt":null,"stimulus":"<div style=\"font-size:60px;\">+</div>","key_press":null,"trial_type":"html-keyboard-response","trial_index":216,"time_elapsed":617652,"internal_node_id":"0.0-8.0-1.52","subject":"ufbselwrboesk8z","sona":"8698"},{"trial_type":"turing-test","trial_index":217,"time_elapsed":621162,"internal_node_id":"0.0-8.0-2.52","subject":"ufbselwrboesk8z","sona":"8698"},{"rt":668.0799999739975,"stimulus":"<p>Welche Sequenz haben Sie als natürlicher empfunden?</p>","key_press":74,"test_part":"response","test_stimulus":{"position":0,"left":"bvh/pass-bottle-hold-training3-lines.txt","right":"bvh/vr_prediction_models/model(tmp)-dataset(pass-bottle-hold)-numprim(4)-hold(3)/final-lines.txt","att_check":false},"trial_type":"html-keyboard-response","trial_index":218,"time_elapsed":621843,"internal_node_id":"0.0-8.0-3.52","subject":"ufbselwrboesk8z","sona":"8698"},{"rt":592.2349999891594,"stimulus":"<p>Bereit?</p>","key_press":32,"trial_type":"html-keyboard-response","trial_index":219,"time_elapsed":622442,"internal_node_id":"0.0-8.0-0.53","subject":"ufbselwrboesk8z","sona":"8698"},{"rt":null,"stimulus":"<div style=\"font-size:60px;\">+</div>","key_press":null,"trial_type":"html-keyboard-response","trial_index":220,"time_elapsed":624473,"internal_node_id":"0.0-8.0-1.53","subject":"ufbselwrboesk8z","sona":"8698"},{"trial_type":"turing-test","trial_index":221,"time_elapsed":630586,"internal_node_id":"0.0-8.0-2.53","subject":"ufbselwrboesk8z","sona":"8698"},{"rt":320.16500004101545,"stimulus":"<p>Welche Sequenz haben Sie als natürlicher empfunden?</p>","key_press":74,"test_part":"response","test_stimulus":{"position":1,"left":"bvh/vr_prediction_models/model(tmp)-dataset(pass-bottle)-numprim(14)-hold(2)/final-lines.txt","right":"bvh/pass-bottle-training2-lines.txt","att_check":false},"trial_type":"html-keyboard-response","trial_index":222,"time_elapsed":630920,"internal_node_id":"0.0-8.0-3.53","subject":"ufbselwrboesk8z","sona":"8698"},{"rt":506.5650000469759,"stimulus":"<p>Bereit?</p>","key_press":32,"trial_type":"html-keyboard-response","trial_index":223,"time_elapsed":631435,"internal_node_id":"0.0-8.0-0.54","subject":"ufbselwrboesk8z","sona":"8698"},{"rt":null,"stimulus":"<div style=\"font-size:60px;\">+</div>","key_press":null,"trial_type":"html-keyboard-response","trial_index":224,"time_elapsed":633453,"internal_node_id":"0.0-8.0-1.54","subject":"ufbselwrboesk8z","sona":"8698"},{"trial_type":"turing-test","trial_index":225,"time_elapsed":638844,"internal_node_id":"0.0-8.0-2.54","subject":"ufbselwrboesk8z","sona":"8698"},{"rt":298.21999999694526,"stimulus":"<p>Welche Sequenz haben Sie als natürlicher empfunden?</p>","key_press":74,"test_part":"response","test_stimulus":{"position":1,"left":"bvh/vr_prediction_models/model(vcgpdm)-dataset(pass-bottle)-mode(ELBO)-parts(1)-dyn(10)-lvm(5)-hold(1)/final-lines.txt","right":"bvh/pass-bottle-training1-lines.txt","att_check":false},"trial_type":"html-keyboard-response","trial_index":226,"time_elapsed":639151,"internal_node_id":"0.0-8.0-3.54","subject":"ufbselwrboesk8z","sona":"8698"},{"rt":523.5399999655783,"stimulus":"<p>Bereit?</p>","key_press":32,"trial_type":"html-keyboard-response","trial_index":227,"time_elapsed":639683,"internal_node_id":"0.0-8.0-0.55","subject":"ufbselwrboesk8z","sona":"8698"},{"rt":null,"stimulus":"<div style=\"font-size:60px;\">+</div>","key_press":null,"trial_type":"html-keyboard-response","trial_index":228,"time_elapsed":641690,"internal_node_id":"0.0-8.0-1.55","subject":"ufbselwrboesk8z","sona":"8698"},{"trial_type":"turing-test","trial_index":229,"time_elapsed":645231,"internal_node_id":"0.0-8.0-2.55","subject":"ufbselwrboesk8z","sona":"8698"},{"rt":234.0400000102818,"stimulus":"<p>Welche Sequenz haben Sie als natürlicher empfunden?</p>","key_press":74,"test_part":"response","test_stimulus":{"position":0,"left":"bvh/pass-bottle-hold-training0-lines.txt","right":"bvh/vr_prediction_models/model(vcgpdm)-dataset(pass-bottle-hold)-mode(ELBO)-parts(3)-dyn(10)-lvm(25)-hold(0)/final-lines.txt","att_check":false},"trial_type":"html-keyboard-response","trial_index":230,"time_elapsed":645474,"internal_node_id":"0.0-8.0-3.55","subject":"ufbselwrboesk8z","sona":"8698"},{"rt":734.059999929741,"stimulus":"<p>Bereit?</p>","key_press":32,"trial_type":"html-keyboard-response","trial_index":231,"time_elapsed":646216,"internal_node_id":"0.0-8.0-0.56","subject":"ufbselwrboesk8z","sona":"8698"},{"rt":null,"stimulus":"<div style=\"font-size:60px;\">+</div>","key_press":null,"trial_type":"html-keyboard-response","trial_index":232,"time_elapsed":648235,"internal_node_id":"0.0-8.0-1.56","subject":"ufbselwrboesk8z","sona":"8698"},{"trial_type":"turing-test","trial_index":233,"time_elapsed":654230,"internal_node_id":"0.0-8.0-2.56","subject":"ufbselwrboesk8z","sona":"8698"},{"rt":322.5050000473857,"stimulus":"<p>Welche Sequenz haben Sie als natürlicher empfunden?</p>","key_press":70,"test_part":"response","test_stimulus":{"position":0,"left":"bvh/return-bottle-training4-lines.txt","right":"bvh/vr_prediction_models/model(vcgpdm)-dataset(return-bottle)-mode(MAP)-parts(1)-hold(4)/final-lines.txt","att_check":false},"trial_type":"html-keyboard-response","trial_index":234,"time_elapsed":654563,"internal_node_id":"0.0-8.0-3.56","subject":"ufbselwrboesk8z","sona":"8698"},{"rt":176.98500002734363,"stimulus":"<p>Bereit?</p>","key_press":32,"trial_type":"html-keyboard-response","trial_index":235,"time_elapsed":654747,"internal_node_id":"0.0-8.0-0.57","subject":"ufbselwrboesk8z","sona":"8698"},{"rt":null,"stimulus":"<div style=\"font-size:60px;\">+</div>","key_press":null,"trial_type":"html-keyboard-response","trial_index":236,"time_elapsed":656759,"internal_node_id":"0.0-8.0-1.57","subject":"ufbselwrboesk8z","sona":"8698"},{"trial_type":"turing-test","trial_index":237,"time_elapsed":662858,"internal_node_id":"0.0-8.0-2.57","subject":"ufbselwrboesk8z","sona":"8698"},{"rt":354.5000000158325,"stimulus":"<p>Welche Sequenz haben Sie als natürlicher empfunden?</p>","key_press":74,"test_part":"response","test_stimulus":{"position":1,"left":"bvh/vr_prediction_models/model(vcgpdm)-dataset(return-bottle)-mode(ELBO)-parts(1)-dyn(35)-lvm(30)-hold(3)/final-lines.txt","right":"bvh/return-bottle-training3-lines.txt","att_check":false},"trial_type":"html-keyboard-response","trial_index":238,"time_elapsed":663221,"internal_node_id":"0.0-8.0-3.57","subject":"ufbselwrboesk8z","sona":"8698"},{"rt":294.27499999292195,"stimulus":"<p>Bereit?</p>","key_press":32,"trial_type":"html-keyboard-response","trial_index":239,"time_elapsed":663526,"internal_node_id":"0.0-8.0-0.58","subject":"ufbselwrboesk8z","sona":"8698"},{"rt":null,"stimulus":"<div style=\"font-size:60px;\">+</div>","key_press":null,"trial_type":"html-keyboard-response","trial_index":240,"time_elapsed":665536,"internal_node_id":"0.0-8.0-1.58","subject":"ufbselwrboesk8z","sona":"8698"},{"trial_type":"turing-test","trial_index":241,"time_elapsed":671092,"internal_node_id":"0.0-8.0-2.58","subject":"ufbselwrboesk8z","sona":"8698"},{"rt":302.2000000346452,"stimulus":"<p>Welche Sequenz haben Sie als natürlicher empfunden?</p>","key_press":74,"test_part":"response","test_stimulus":{"position":1,"left":"bvh/vr_prediction_models/model(tmp)-dataset(pass-bottle)-numprim(15)-hold(1)/final-lines.txt","right":"bvh/pass-bottle-training1-lines.txt","att_check":false},"trial_type":"html-keyboard-response","trial_index":242,"time_elapsed":671404,"internal_node_id":"0.0-8.0-3.58","subject":"ufbselwrboesk8z","sona":"8698"},{"rt":270.40999999735504,"stimulus":"<p>Bereit?</p>","key_press":32,"trial_type":"html-keyboard-response","trial_index":243,"time_elapsed":671684,"internal_node_id":"0.0-8.0-0.59","subject":"ufbselwrboesk8z","sona":"8698"},{"rt":null,"stimulus":"<div style=\"font-size:60px;\">+</div>","key_press":null,"trial_type":"html-keyboard-response","trial_index":244,"time_elapsed":673696,"internal_node_id":"0.0-8.0-1.59","subject":"ufbselwrboesk8z","sona":"8698"},{"trial_type":"turing-test","trial_index":245,"time_elapsed":679896,"internal_node_id":"0.0-8.0-2.59","subject":"ufbselwrboesk8z","sona":"8698"},{"rt":447.7150000166148,"stimulus":"<p>Welche Sequenz haben Sie als natürlicher empfunden?</p>","key_press":74,"test_part":"response","test_stimulus":{"position":0,"left":"bvh/return-bottle-training1-lines.txt","right":"bvh/vr_prediction_models/model(vcgpdm)-dataset(return-bottle)-mode(ELBO)-parts(1)-dyn(20)-lvm(30)-hold(1)/final-lines.txt","att_check":false},"trial_type":"html-keyboard-response","trial_index":246,"time_elapsed":680354,"internal_node_id":"0.0-8.0-3.59","subject":"ufbselwrboesk8z","sona":"8698"},{"rt":230.18000007141382,"stimulus":"<p>Bereit?</p>","key_press":32,"trial_type":"html-keyboard-response","trial_index":247,"time_elapsed":680591,"internal_node_id":"0.0-8.0-0.60","subject":"ufbselwrboesk8z","sona":"8698"},{"rt":null,"stimulus":"<div style=\"font-size:60px;\">+</div>","key_press":null,"trial_type":"html-keyboard-response","trial_index":248,"time_elapsed":682605,"internal_node_id":"0.0-8.0-1.60","subject":"ufbselwrboesk8z","sona":"8698"},{"trial_type":"turing-test","trial_index":249,"time_elapsed":688642,"internal_node_id":"0.0-8.0-2.60","subject":"ufbselwrboesk8z","sona":"8698"},{"rt":288.83999993558973,"stimulus":"<p>Welche Sequenz haben Sie als natürlicher empfunden?</p>","key_press":74,"test_part":"response","test_stimulus":{"position":1,"left":"bvh/vr_prediction_models/model(tmp)-dataset(return-bottle)-numprim(6)-hold(1)/final-lines.txt","right":"bvh/return-bottle-training1-lines.txt","att_check":false},"trial_type":"html-keyboard-response","trial_index":250,"time_elapsed":688946,"internal_node_id":"0.0-8.0-3.60","subject":"ufbselwrboesk8z","sona":"8698"},{"rt":324.3550000479445,"stimulus":"<p>Bereit?</p>","key_press":32,"trial_type":"html-keyboard-response","trial_index":251,"time_elapsed":689278,"internal_node_id":"0.0-8.0-0.61","subject":"ufbselwrboesk8z","sona":"8698"},{"rt":null,"stimulus":"<div style=\"font-size:60px;\">+</div>","key_press":null,"trial_type":"html-keyboard-response","trial_index":252,"time_elapsed":691290,"internal_node_id":"0.0-8.0-1.61","subject":"ufbselwrboesk8z","sona":"8698"},{"trial_type":"turing-test","trial_index":253,"time_elapsed":697339,"internal_node_id":"0.0-8.0-2.61","subject":"ufbselwrboesk8z","sona":"8698"},{"rt":437.08499998319894,"stimulus":"<p>Welche Sequenz haben Sie als natürlicher empfunden?</p>","key_press":74,"test_part":"response","test_stimulus":{"position":1,"left":"bvh/vr_prediction_models/model(dmp)-dataset(pass-bottle)-npsi(40)-hold(2)/final-lines.txt","right":"bvh/pass-bottle-training2-lines.txt","att_check":false},"trial_type":"html-keyboard-response","trial_index":254,"time_elapsed":697789,"internal_node_id":"0.0-8.0-3.61","subject":"ufbselwrboesk8z","sona":"8698"},{"rt":459.49999999720603,"stimulus":"<p>Bereit?</p>","key_press":32,"trial_type":"html-keyboard-response","trial_index":255,"time_elapsed":698256,"internal_node_id":"0.0-8.0-0.62","subject":"ufbselwrboesk8z","sona":"8698"},{"rt":null,"stimulus":"<div style=\"font-size:60px;\">+</div>","key_press":null,"trial_type":"html-keyboard-response","trial_index":256,"time_elapsed":700277,"internal_node_id":"0.0-8.0-1.62","subject":"ufbselwrboesk8z","sona":"8698"},{"trial_type":"turing-test","trial_index":257,"time_elapsed":703830,"internal_node_id":"0.0-8.0-2.62","subject":"ufbselwrboesk8z","sona":"8698"},{"rt":494.34500001370907,"stimulus":"<p>Welche Sequenz haben Sie als natürlicher empfunden?</p>","key_press":70,"test_part":"response","test_stimulus":{"position":1,"left":"bvh/vr_prediction_models/model(dmp)-dataset(pass-bottle-hold)-npsi(30)-hold(3)/final-lines.txt","right":"bvh/pass-bottle-hold-training3-lines.txt","att_check":true},"trial_type":"html-keyboard-response","trial_index":258,"time_elapsed":704335,"internal_node_id":"0.0-8.0-3.62","subject":"ufbselwrboesk8z","sona":"8698"},{"rt":336.33499999996275,"stimulus":"<p>Bereit?</p>","key_press":32,"trial_type":"html-keyboard-response","trial_index":259,"time_elapsed":704678,"internal_node_id":"0.0-8.0-0.63","subject":"ufbselwrboesk8z","sona":"8698"},{"rt":null,"stimulus":"<div style=\"font-size:60px;\">+</div>","key_press":null,"trial_type":"html-keyboard-response","trial_index":260,"time_elapsed":706691,"internal_node_id":"0.0-8.0-1.63","subject":"ufbselwrboesk8z","sona":"8698"},{"trial_type":"turing-test","trial_index":261,"time_elapsed":710419,"internal_node_id":"0.0-8.0-2.63","subject":"ufbselwrboesk8z","sona":"8698"},{"rt":83.9949999935925,"stimulus":"<p>Welche Sequenz haben Sie als natürlicher empfunden?</p>","key_press":70,"test_part":"response","test_stimulus":{"position":1,"left":"bvh/vr_prediction_models/model(vcgpdm)-dataset(pass-bottle-hold)-mode(ELBO)-parts(1)-dyn(30)-lvm(20)-hold(4)/final-lines.txt","right":"bvh/pass-bottle-hold-training4-lines.txt","att_check":false},"trial_type":"html-keyboard-response","trial_index":262,"time_elapsed":710512,"internal_node_id":"0.0-8.0-3.63","subject":"ufbselwrboesk8z","sona":"8698"},{"rt":408.8200000114739,"stimulus":"<p>Bereit?</p>","key_press":32,"trial_type":"html-keyboard-response","trial_index":263,"time_elapsed":710928,"internal_node_id":"0.0-8.0-0.64","subject":"ufbselwrboesk8z","sona":"8698"},{"rt":null,"stimulus":"<div style=\"font-size:60px;\">+</div>","key_press":null,"trial_type":"html-keyboard-response","trial_index":264,"time_elapsed":712953,"internal_node_id":"0.0-8.0-1.64","subject":"ufbselwrboesk8z","sona":"8698"},{"trial_type":"turing-test","trial_index":265,"time_elapsed":718130,"internal_node_id":"0.0-8.0-2.64","subject":"ufbselwrboesk8z","sona":"8698"},{"rt":434.46499994024634,"stimulus":"<p>Welche Sequenz haben Sie als natürlicher empfunden?</p>","key_press":74,"test_part":"response","test_stimulus":{"position":0,"left":"bvh/return-bottle-hold-training0-lines.txt","right":"bvh/vr_prediction_models/model(vcgpdm)-dataset(return-bottle-hold)-mode(ELBO)-parts(3)-dyn(20)-lvm(20)-hold(0)/final-lines.txt","att_check":false},"trial_type":"html-keyboard-response","trial_index":266,"time_elapsed":718575,"internal_node_id":"0.0-8.0-3.64","subject":"ufbselwrboesk8z","sona":"8698"},{"rt":277.38500002305955,"stimulus":"<p>Bereit?</p>","key_press":32,"trial_type":"html-keyboard-response","trial_index":267,"time_elapsed":718860,"internal_node_id":"0.0-8.0-0.65","subject":"ufbselwrboesk8z","sona":"8698"},{"rt":null,"stimulus":"<div style=\"font-size:60px;\">+</div>","key_press":null,"trial_type":"html-keyboard-response","trial_index":268,"time_elapsed":720864,"internal_node_id":"0.0-8.0-1.65","subject":"ufbselwrboesk8z","sona":"8698"},{"trial_type":"turing-test","trial_index":269,"time_elapsed":726934,"internal_node_id":"0.0-8.0-2.65","subject":"ufbselwrboesk8z","sona":"8698"},{"rt":215.20000009331852,"stimulus":"<p>Welche Sequenz haben Sie als natürlicher empfunden?</p>","key_press":70,"test_part":"response","test_stimulus":{"position":0,"left":"bvh/return-bottle-training1-lines.txt","right":"bvh/vr_prediction_models/model(tmp)-dataset(return-bottle)-numprim(10)-hold(1)/final-lines.txt","att_check":false},"trial_type":"html-keyboard-response","trial_index":270,"time_elapsed":727165,"internal_node_id":"0.0-8.0-3.65","subject":"ufbselwrboesk8z","sona":"8698"},{"rt":421.875,"stimulus":"<p>Bereit?</p>","key_press":32,"trial_type":"html-keyboard-response","trial_index":271,"time_elapsed":727591,"internal_node_id":"0.0-8.0-0.66","subject":"ufbselwrboesk8z","sona":"8698"},{"rt":null,"stimulus":"<div style=\"font-size:60px;\">+</div>","key_press":null,"trial_type":"html-keyboard-response","trial_index":272,"time_elapsed":729607,"internal_node_id":"0.0-8.0-1.66","subject":"ufbselwrboesk8z","sona":"8698"},{"trial_type":"turing-test","trial_index":273,"time_elapsed":733263,"internal_node_id":"0.0-8.0-2.66","subject":"ufbselwrboesk8z","sona":"8698"},{"rt":264.9799999780953,"stimulus":"<p>Welche Sequenz haben Sie als natürlicher empfunden?</p>","key_press":74,"test_part":"response","test_stimulus":{"position":0,"left":"bvh/return-bottle-hold-training3-lines.txt","right":"bvh/vr_prediction_models/model(tmp)-dataset(return-bottle-hold)-numprim(15)-hold(3)/final-lines.txt","att_check":false},"trial_type":"html-keyboard-response","trial_index":274,"time_elapsed":733536,"internal_node_id":"0.0-8.0-3.66","subject":"ufbselwrboesk8z","sona":"8698"},{"rt":376.92999991122633,"stimulus":"<p>Bereit?</p>","key_press":32,"trial_type":"html-keyboard-response","trial_index":275,"time_elapsed":733923,"internal_node_id":"0.0-8.0-0.67","subject":"ufbselwrboesk8z","sona":"8698"},{"rt":null,"stimulus":"<div style=\"font-size:60px;\">+</div>","key_press":null,"trial_type":"html-keyboard-response","trial_index":276,"time_elapsed":735931,"internal_node_id":"0.0-8.0-1.67","subject":"ufbselwrboesk8z","sona":"8698"},{"trial_type":"turing-test","trial_index":277,"time_elapsed":739700,"internal_node_id":"0.0-8.0-2.67","subject":"ufbselwrboesk8z","sona":"8698"},{"rt":305.5600000079721,"stimulus":"<p>Welche Sequenz haben Sie als natürlicher empfunden?</p>","key_press":70,"test_part":"response","test_stimulus":{"position":1,"left":"bvh/vr_prediction_models/model(vcgpdm)-dataset(pass-bottle-hold)-mode(ELBO)-parts(1)-dyn(20)-lvm(5)-hold(2)/final-lines.txt","right":"bvh/pass-bottle-hold-training2-lines.txt","att_check":false},"trial_type":"html-keyboard-response","trial_index":278,"time_elapsed":740014,"internal_node_id":"0.0-8.0-3.67","subject":"ufbselwrboesk8z","sona":"8698"},{"rt":422.4700001068413,"stimulus":"<p>Bereit?</p>","key_press":32,"trial_type":"html-keyboard-response","trial_index":279,"time_elapsed":740442,"internal_node_id":"0.0-8.0-0.68","subject":"ufbselwrboesk8z","sona":"8698"},{"rt":null,"stimulus":"<div style=\"font-size:60px;\">+</div>","key_press":null,"trial_type":"html-keyboard-response","trial_index":280,"time_elapsed":742461,"internal_node_id":"0.0-8.0-1.68","subject":"ufbselwrboesk8z","sona":"8698"},{"trial_type":"turing-test","trial_index":281,"time_elapsed":748406,"internal_node_id":"0.0-8.0-2.68","subject":"ufbselwrboesk8z","sona":"8698"},{"rt":331.1300000641495,"stimulus":"<p>Welche Sequenz haben Sie als natürlicher empfunden?</p>","key_press":74,"test_part":"response","test_stimulus":{"position":1,"left":"bvh/vr_prediction_models/model(vcgpdm)-dataset(return-bottle)-mode(ELBO)-parts(3)-dyn(20)-lvm(20)-hold(4)/final-lines.txt","right":"bvh/return-bottle-training4-lines.txt","att_check":false},"trial_type":"html-keyboard-response","trial_index":282,"time_elapsed":748748,"internal_node_id":"0.0-8.0-3.68","subject":"ufbselwrboesk8z","sona":"8698"},{"rt":406.5249999985099,"stimulus":"<p>Bereit?</p>","key_press":32,"trial_type":"html-keyboard-response","trial_index":283,"time_elapsed":749162,"internal_node_id":"0.0-8.0-0.69","subject":"ufbselwrboesk8z","sona":"8698"},{"rt":null,"stimulus":"<div style=\"font-size:60px;\">+</div>","key_press":null,"trial_type":"html-keyboard-response","trial_index":284,"time_elapsed":751177,"internal_node_id":"0.0-8.0-1.69","subject":"ufbselwrboesk8z","sona":"8698"},{"trial_type":"turing-test","trial_index":285,"time_elapsed":757969,"internal_node_id":"0.0-8.0-2.69","subject":"ufbselwrboesk8z","sona":"8698"},{"rt":281.87499998603016,"stimulus":"<p>Welche Sequenz haben Sie als natürlicher empfunden?</p>","key_press":74,"test_part":"response","test_stimulus":{"position":1,"left":"bvh/vr_prediction_models/model(tmp)-dataset(pass-bottle)-numprim(13)-hold(0)/final-lines.txt","right":"bvh/pass-bottle-training0-lines.txt","att_check":false},"trial_type":"html-keyboard-response","trial_index":286,"time_elapsed":758260,"internal_node_id":"0.0-8.0-3.69","subject":"ufbselwrboesk8z","sona":"8698"},{"rt":345.8699999609962,"stimulus":"<p>Bereit?</p>","key_press":32,"trial_type":"html-keyboard-response","trial_index":287,"time_elapsed":758619,"internal_node_id":"0.0-8.0-0.70","subject":"ufbselwrboesk8z","sona":"8698"},{"rt":null,"stimulus":"<div style=\"font-size:60px;\">+</div>","key_press":null,"trial_type":"html-keyboard-response","trial_index":288,"time_elapsed":760640,"internal_node_id":"0.0-8.0-1.70","subject":"ufbselwrboesk8z","sona":"8698"},{"trial_type":"turing-test","trial_index":289,"time_elapsed":766719,"internal_node_id":"0.0-8.0-2.70","subject":"ufbselwrboesk8z","sona":"8698"},{"rt":329.8100000247359,"stimulus":"<p>Welche Sequenz haben Sie als natürlicher empfunden?</p>","key_press":70,"test_part":"response","test_stimulus":{"position":0,"left":"bvh/pass-bottle-training2-lines.txt","right":"bvh/vr_prediction_models/model(tmp)-dataset(pass-bottle)-numprim(8)-hold(2)/final-lines.txt","att_check":false},"trial_type":"html-keyboard-response","trial_index":290,"time_elapsed":767063,"internal_node_id":"0.0-8.0-3.70","subject":"ufbselwrboesk8z","sona":"8698"},{"rt":421.08499992173165,"stimulus":"<p>Bereit?</p>","key_press":32,"trial_type":"html-keyboard-response","trial_index":291,"time_elapsed":767495,"internal_node_id":"0.0-8.0-0.71","subject":"ufbselwrboesk8z","sona":"8698"},{"rt":null,"stimulus":"<div style=\"font-size:60px;\">+</div>","key_press":null,"trial_type":"html-keyboard-response","trial_index":292,"time_elapsed":769519,"internal_node_id":"0.0-8.0-1.71","subject":"ufbselwrboesk8z","sona":"8698"},{"trial_type":"turing-test","trial_index":293,"time_elapsed":775664,"internal_node_id":"0.0-8.0-2.71","subject":"ufbselwrboesk8z","sona":"8698"},{"rt":99.3599999928847,"stimulus":"<p>Welche Sequenz haben Sie als natürlicher empfunden?</p>","key_press":70,"test_part":"response","test_stimulus":{"position":0,"left":"bvh/pass-bottle-training2-lines.txt","right":"bvh/vr_prediction_models/model(tmp)-dataset(pass-bottle)-numprim(7)-hold(2)/final-lines.txt","att_check":false},"trial_type":"html-keyboard-response","trial_index":294,"time_elapsed":775769,"internal_node_id":"0.0-8.0-3.71","subject":"ufbselwrboesk8z","sona":"8698"},{"rt":526.9499999703839,"stimulus":"<p>Bereit?</p>","key_press":32,"trial_type":"html-keyboard-response","trial_index":295,"time_elapsed":776307,"internal_node_id":"0.0-8.0-0.72","subject":"ufbselwrboesk8z","sona":"8698"},{"rt":null,"stimulus":"<div style=\"font-size:60px;\">+</div>","key_press":null,"trial_type":"html-keyboard-response","trial_index":296,"time_elapsed":778320,"internal_node_id":"0.0-8.0-1.72","subject":"ufbselwrboesk8z","sona":"8698"},{"trial_type":"turing-test","trial_index":297,"time_elapsed":785088,"internal_node_id":"0.0-8.0-2.72","subject":"ufbselwrboesk8z","sona":"8698"},{"rt":249.30999998468906,"stimulus":"<p>Welche Sequenz haben Sie als natürlicher empfunden?</p>","key_press":70,"test_part":"response","test_stimulus":{"position":1,"left":"bvh/vr_prediction_models/model(tmp)-dataset(pass-bottle)-numprim(14)-hold(0)/final-lines.txt","right":"bvh/pass-bottle-training0-lines.txt","att_check":false},"trial_type":"html-keyboard-response","trial_index":298,"time_elapsed":785347,"internal_node_id":"0.0-8.0-3.72","subject":"ufbselwrboesk8z","sona":"8698"},{"rt":255.21500001195818,"stimulus":"<p>Bereit?</p>","key_press":32,"trial_type":"html-keyboard-response","trial_index":299,"time_elapsed":785616,"internal_node_id":"0.0-8.0-0.73","subject":"ufbselwrboesk8z","sona":"8698"},{"rt":null,"stimulus":"<div style=\"font-size:60px;\">+</div>","key_press":null,"trial_type":"html-keyboard-response","trial_index":300,"time_elapsed":787638,"internal_node_id":"0.0-8.0-1.73","subject":"ufbselwrboesk8z","sona":"8698"},{"trial_type":"turing-test","trial_index":301,"time_elapsed":791537,"internal_node_id":"0.0-8.0-2.73","subject":"ufbselwrboesk8z","sona":"8698"},{"rt":256.7849999759346,"stimulus":"<p>Welche Sequenz haben Sie als natürlicher empfunden?</p>","key_press":70,"test_part":"response","test_stimulus":{"position":0,"left":"bvh/return-bottle-hold-training3-lines.txt","right":"bvh/vr_prediction_models/model(vcgpdm)-dataset(return-bottle-hold)-mode(ELBO)-parts(3)-dyn(20)-lvm(15)-hold(3)/final-lines.txt","att_check":false},"trial_type":"html-keyboard-response","trial_index":302,"time_elapsed":791804,"internal_node_id":"0.0-8.0-3.73","subject":"ufbselwrboesk8z","sona":"8698"},{"rt":155.7800000300631,"stimulus":"<p>Bereit?</p>","key_press":32,"trial_type":"html-keyboard-response","trial_index":303,"time_elapsed":791967,"internal_node_id":"0.0-8.0-0.74","subject":"ufbselwrboesk8z","sona":"8698"},{"rt":null,"stimulus":"<div style=\"font-size:60px;\">+</div>","key_press":null,"trial_type":"html-keyboard-response","trial_index":304,"time_elapsed":793993,"internal_node_id":"0.0-8.0-1.74","subject":"ufbselwrboesk8z","sona":"8698"},{"trial_type":"turing-test","trial_index":305,"time_elapsed":797347,"internal_node_id":"0.0-8.0-2.74","subject":"ufbselwrboesk8z","sona":"8698"},{"rt":295.574999996461,"stimulus":"<p>Welche Sequenz haben Sie als natürlicher empfunden?</p>","key_press":74,"test_part":"response","test_stimulus":{"position":1,"left":"bvh/vr_prediction_models/model(dmp)-dataset(pass-bottle-hold)-npsi(10)-hold(2)/final-lines.txt","right":"bvh/pass-bottle-hold-training2-lines.txt","att_check":false},"trial_type":"html-keyboard-response","trial_index":306,"time_elapsed":797655,"internal_node_id":"0.0-8.0-3.74","subject":"ufbselwrboesk8z","sona":"8698"},{"rt":273.73500005342066,"stimulus":"<p>Bereit?</p>","key_press":32,"trial_type":"html-keyboard-response","trial_index":307,"time_elapsed":797939,"internal_node_id":"0.0-8.0-0.75","subject":"ufbselwrboesk8z","sona":"8698"},{"rt":null,"stimulus":"<div style=\"font-size:60px;\">+</div>","key_press":null,"trial_type":"html-keyboard-response","trial_index":308,"time_elapsed":799955,"internal_node_id":"0.0-8.0-1.75","subject":"ufbselwrboesk8z","sona":"8698"},{"trial_type":"turing-test","trial_index":309,"time_elapsed":805406,"internal_node_id":"0.0-8.0-2.75","subject":"ufbselwrboesk8z","sona":"8698"},{"rt":257.93999992311,"stimulus":"<p>Welche Sequenz haben Sie als natürlicher empfunden?</p>","key_press":70,"test_part":"response","test_stimulus":{"position":0,"left":"bvh/return-bottle-training0-lines.txt","right":"bvh/vr_prediction_models/model(dmp)-dataset(return-bottle)-npsi(90)-hold(0)/final-lines.txt","att_check":false},"trial_type":"html-keyboard-response","trial_index":310,"time_elapsed":805678,"internal_node_id":"0.0-8.0-3.75","subject":"ufbselwrboesk8z","sona":"8698"},{"rt":199.02999990154058,"stimulus":"<p>Bereit?</p>","key_press":32,"trial_type":"html-keyboard-response","trial_index":311,"time_elapsed":805886,"internal_node_id":"0.0-8.0-0.76","subject":"ufbselwrboesk8z","sona":"8698"},{"rt":null,"stimulus":"<div style=\"font-size:60px;\">+</div>","key_press":null,"trial_type":"html-keyboard-response","trial_index":312,"time_elapsed":807914,"internal_node_id":"0.0-8.0-1.76","subject":"ufbselwrboesk8z","sona":"8698"},{"trial_type":"turing-test","trial_index":313,"time_elapsed":811180,"internal_node_id":"0.0-8.0-2.76","subject":"ufbselwrboesk8z","sona":"8698"},{"rt":195.91999996919185,"stimulus":"<p>Welche Sequenz haben Sie als natürlicher empfunden?</p>","key_press":70,"test_part":"response","test_stimulus":{"position":1,"left":"bvh/vr_prediction_models/model(dmp)-dataset(pass-bottle-hold)-npsi(70)-hold(1)/final-lines.txt","right":"bvh/pass-bottle-hold-training1-lines.txt","att_check":false},"trial_type":"html-keyboard-response","trial_index":314,"time_elapsed":811389,"internal_node_id":"0.0-8.0-3.76","subject":"ufbselwrboesk8z","sona":"8698"},{"rt":359.04500004835427,"stimulus":"<p>Bereit?</p>","key_press":32,"trial_type":"html-keyboard-response","trial_index":315,"time_elapsed":811758,"internal_node_id":"0.0-8.0-0.77","subject":"ufbselwrboesk8z","sona":"8698"},{"rt":null,"stimulus":"<div style=\"font-size:60px;\">+</div>","key_press":null,"trial_type":"html-keyboard-response","trial_index":316,"time_elapsed":813771,"internal_node_id":"0.0-8.0-1.77","subject":"ufbselwrboesk8z","sona":"8698"},{"trial_type":"turing-test","trial_index":317,"time_elapsed":817347,"internal_node_id":"0.0-8.0-2.77","subject":"ufbselwrboesk8z","sona":"8698"},{"rt":186.9799999985844,"stimulus":"<p>Welche Sequenz haben Sie als natürlicher empfunden?</p>","key_press":74,"test_part":"response","test_stimulus":{"position":1,"left":"bvh/vr_prediction_models/model(tmp)-dataset(pass-bottle-hold)-numprim(10)-hold(3)/final-lines.txt","right":"bvh/pass-bottle-hold-training3-lines.txt","att_check":false},"trial_type":"html-keyboard-response","trial_index":318,"time_elapsed":817546,"internal_node_id":"0.0-8.0-3.77","subject":"ufbselwrboesk8z","sona":"8698"},{"rt":284.4499999191612,"stimulus":"<p>Bereit?</p>","key_press":32,"trial_type":"html-keyboard-response","trial_index":319,"time_elapsed":817841,"internal_node_id":"0.0-8.0-0.78","subject":"ufbselwrboesk8z","sona":"8698"},{"rt":null,"stimulus":"<div style=\"font-size:60px;\">+</div>","key_press":null,"trial_type":"html-keyboard-response","trial_index":320,"time_elapsed":819848,"internal_node_id":"0.0-8.0-1.78","subject":"ufbselwrboesk8z","sona":"8698"},{"trial_type":"turing-test","trial_index":321,"time_elapsed":823336,"internal_node_id":"0.0-8.0-2.78","subject":"ufbselwrboesk8z","sona":"8698"},{"rt":259.4000000972301,"stimulus":"<p>Welche Sequenz haben Sie als natürlicher empfunden?</p>","key_press":70,"test_part":"response","test_stimulus":{"position":0,"left":"bvh/return-bottle-hold-training1-lines.txt","right":"bvh/vr_prediction_models/model(vcgpdm)-dataset(return-bottle-hold)-mode(MAP)-parts(1)-hold(1)/final-lines.txt","att_check":false},"trial_type":"html-keyboard-response","trial_index":322,"time_elapsed":823606,"internal_node_id":"0.0-8.0-3.78","subject":"ufbselwrboesk8z","sona":"8698"},{"rt":147.61500002350658,"stimulus":"<p>Bereit?</p>","key_press":32,"trial_type":"html-keyboard-response","trial_index":323,"time_elapsed":823763,"internal_node_id":"0.0-8.0-0.79","subject":"ufbselwrboesk8z","sona":"8698"},{"rt":null,"stimulus":"<div style=\"font-size:60px;\">+</div>","key_press":null,"trial_type":"html-keyboard-response","trial_index":324,"time_elapsed":825779,"internal_node_id":"0.0-8.0-1.79","subject":"ufbselwrboesk8z","sona":"8698"},{"trial_type":"turing-test","trial_index":325,"time_elapsed":831801,"internal_node_id":"0.0-8.0-2.79","subject":"ufbselwrboesk8z","sona":"8698"},{"rt":246.39500002376735,"stimulus":"<p>Welche Sequenz haben Sie als natürlicher empfunden?</p>","key_press":70,"test_part":"response","test_stimulus":{"position":0,"left":"bvh/return-bottle-training3-lines.txt","right":"bvh/vr_prediction_models/model(vcgpdm)-dataset(return-bottle)-mode(ELBO)-parts(1)-dyn(35)-lvm(10)-hold(3)/final-lines.txt","att_check":false},"trial_type":"html-keyboard-response","trial_index":326,"time_elapsed":832057,"internal_node_id":"0.0-8.0-3.79","subject":"ufbselwrboesk8z","sona":"8698"},{"rt":4604.68500002753,"responses":"{\"age\":\" 26\",\"gender\":\"weiblich\"}","trial_type":"survey-text","trial_index":327,"time_elapsed":836689,"internal_node_id":"0.0-10.0-0.0","subject":"ufbselwrboesk8z","sona":"8698"},{"rt":138879.73499996588,"responses":"{\"area\":\"Hals, Rumpf, Unterarme & Oberschenkel\",\"Q1\":\"Die Bewegungen waren nicht Flüssig, andere Körperteile bewegten sich nicht mir, Bewegungen waren erstarrt, zu langsam oder schnell. Bei manchen Figuren war es jedoch nicht eindeutig bzw. in der kurzen Zeit nicht eindeutig erkennbar und ich habe nach dem Gefühl angeklickt.\",\"Q2\":\"Drehungen der Figur, abgehackte Bewegungen, andere Körperteile, beispielsweise der Rumpf, bewegten sich nicht mit\"}","trial_type":"survey-text","trial_index":328,"time_elapsed":975598,"internal_node_id":"0.0-10.0-1.0","subject":"ufbselwrboesk8z","sona":"8698"}]