[{"rt":1746,"stimulus":"<p>Welcome!<br> Please choose your language to start the experiment in the chosen language.</p><p>Willkommen!<br> Bitte wählen Sie eine Sprache, um das Experiment in der ausgewählten Sprache zu starten</p>","button_pressed":"1","trial_type":"html-button-response","trial_index":0,"time_elapsed":1756,"internal_node_id":"0.0-0.0","subject":"majx4tvbmuy99fu","sona":"9472"},{"view_history":"[{\"page_index\":0,\"viewing_time\":1881},{\"page_index\":1,\"viewing_time\":1942},{\"page_index\":2,\"viewing_time\":3103},{\"page_index\":3,\"viewing_time\":1136},{\"page_index\":4,\"viewing_time\":1697}]","rt":9760,"trial_type":"instructions","trial_index":1,"time_elapsed":11520,"internal_node_id":"0.0-1.0-0.0","subject":"majx4tvbmuy99fu","sona":"9472"},{"rt":2945,"stimulus":"<p>Bereit?</p>","key_press":32,"trial_type":"html-keyboard-response","trial_index":2,"time_elapsed":14469,"internal_node_id":"0.0-3.0","subject":"majx4tvbmuy99fu","sona":"9472"},{"rt":null,"stimulus":"<div style=\"font-size:60px;\">+</div>","key_press":null,"trial_type":"html-keyboard-response","trial_index":3,"time_elapsed":16491,"internal_node_id":"0.0-4.0","subject":"majx4tvbmuy99fu","sona":"9472"},{"trial_type":"training","trial_index":4,"time_elapsed":19836,"internal_node_id":"0.0-5.0","subject":"majx4tvbmuy99fu","sona":"9472"},{"rt":3990,"stimulus":"<p>Welche Sequenz haben Sie als natürlicher empfunden?</p>","key_press":70,"trial_type":"html-keyboard-response","trial_index":5,"time_elapsed":23828,"internal_node_id":"0.0-6.0","subject":"majx4tvbmuy99fu","sona":"9472"},{"rt":2860,"stimulus":"<p>Das Experiment startet nun.</p><p><small>Bitte drücken Sie den Knopf, wenn Sie bereit sind.</small></p>","button_pressed":"0","trial_type":"html-button-response","trial_index":6,"time_elapsed":26688,"internal_node_id":"0.0-7.0","subject":"majx4tvbmuy99fu","sona":"9472"},{"rt":1042,"stimulus":"<p>Bereit?</p>","key_press":32,"trial_type":"html-keyboard-response","trial_index":7,"time_elapsed":27731,"internal_node_id":"0.0-8.0-0.0","subject":"majx4tvbmuy99fu","sona":"9472"},{"rt":null,"stimulus":"<div style=\"font-size:60px;\">+</div>","key_press":null,"trial_type":"html-keyboard-response","trial_index":8,"time_elapsed":29756,"internal_node_id":"0.0-8.0-1.0","subject":"majx4tvbmuy99fu","sona":"9472"},{"trial_type":"turing-test","trial_index":9,"time_elapsed":34836,"internal_node_id":"0.0-8.0-2.0","subject":"majx4tvbmuy99fu","sona":"9472"},{"rt":1858,"stimulus":"<p>Welche Sequenz haben Sie als natürlicher empfunden?</p>","key_press":70,"test_part":"response","test_stimulus":{"position":1,"left":"bvh/vr_prediction_models/model(dmp)-dataset(return-bottle-hold)-npsi(30)-hold(0)/final-lines.txt","right":"bvh/return-bottle-hold-training0-lines.txt","att_check":false},"trial_type":"html-keyboard-response","trial_index":10,"time_elapsed":36697,"internal_node_id":"0.0-8.0-3.0","subject":"majx4tvbmuy99fu","sona":"9472"},{"rt":929,"stimulus":"<p>Bereit?</p>","key_press":32,"trial_type":"html-keyboard-response","trial_index":11,"time_elapsed":37628,"internal_node_id":"0.0-8.0-0.1","subject":"majx4tvbmuy99fu","sona":"9472"},{"rt":null,"stimulus":"<div style=\"font-size:60px;\">+</div>","key_press":null,"trial_type":"html-keyboard-response","trial_index":12,"time_elapsed":39666,"internal_node_id":"0.0-8.0-1.1","subject":"majx4tvbmuy99fu","sona":"9472"},{"trial_type":"turing-test","trial_index":13,"time_elapsed":44996,"internal_node_id":"0.0-8.0-2.1","subject":"majx4tvbmuy99fu","sona":"9472"},{"rt":1555,"stimulus":"<p>Welche Sequenz haben Sie als natürlicher empfunden?</p>","key_press":74,"test_part":"response","test_stimulus":{"position":1,"left":"bvh/vr_prediction_models/model(vcgpdm)-dataset(return-bottle)-mode(ELBO)-parts(1)-dyn(15)-lvm(35)-hold(0)/final-lines.txt","right":"bvh/return-bottle-training0-lines.txt","att_check":false},"trial_type":"html-keyboard-response","trial_index":14,"time_elapsed":46553,"internal_node_id":"0.0-8.0-3.1","subject":"majx4tvbmuy99fu","sona":"9472"},{"rt":739,"stimulus":"<p>Bereit?</p>","key_press":32,"trial_type":"html-keyboard-response","trial_index":15,"time_elapsed":47295,"internal_node_id":"0.0-8.0-0.2","subject":"majx4tvbmuy99fu","sona":"9472"},{"rt":null,"stimulus":"<div style=\"font-size:60px;\">+</div>","key_press":null,"trial_type":"html-keyboard-response","trial_index":16,"time_elapsed":49316,"internal_node_id":"0.0-8.0-1.2","subject":"majx4tvbmuy99fu","sona":"9472"},{"trial_type":"turing-test","trial_index":17,"time_elapsed":52606,"internal_node_id":"0.0-8.0-2.2","subject":"majx4tvbmuy99fu","sona":"9472"},{"rt":4028,"stimulus":"<p>Welche Sequenz haben Sie als natürlicher empfunden?</p>","key_press":70,"test_part":"response","test_stimulus":{"position":0,"left":"bvh/return-bottle-hold-training1-lines.txt","right":"bvh/vr_prediction_models/model(vcgpdm)-dataset(return-bottle-hold)-mode(ELBO)-parts(1)-dyn(10)-lvm(5)-hold(1)/final-lines.txt","att_check":false},"trial_type":"html-keyboard-response","trial_index":18,"time_elapsed":56635,"internal_node_id":"0.0-8.0-3.2","subject":"majx4tvbmuy99fu","sona":"9472"},{"rt":778,"stimulus":"<p>Bereit?</p>","key_press":32,"trial_type":"html-keyboard-response","trial_index":19,"time_elapsed":57415,"internal_node_id":"0.0-8.0-0.3","subject":"majx4tvbmuy99fu","sona":"9472"},{"rt":null,"stimulus":"<div style=\"font-size:60px;\">+</div>","key_press":null,"trial_type":"html-keyboard-response","trial_index":20,"time_elapsed":59443,"internal_node_id":"0.0-8.0-1.3","subject":"majx4tvbmuy99fu","sona":"9472"},{"trial_type":"turing-test","trial_index":21,"time_elapsed":65596,"internal_node_id":"0.0-8.0-2.3","subject":"majx4tvbmuy99fu","sona":"9472"},{"rt":447,"stimulus":"<p>Welche Sequenz haben Sie als natürlicher empfunden?</p>","key_press":70,"test_part":"response","test_stimulus":{"position":0,"left":"bvh/pass-bottle-training2-lines.txt","right":"bvh/vr_prediction_models/model(vcgpdm)-dataset(pass-bottle)-mode(ELBO)-parts(3)-dyn(15)-lvm(30)-hold(2)/final-lines.txt","att_check":false},"trial_type":"html-keyboard-response","trial_index":22,"time_elapsed":66045,"internal_node_id":"0.0-8.0-3.3","subject":"majx4tvbmuy99fu","sona":"9472"},{"rt":684,"stimulus":"<p>Bereit?</p>","key_press":32,"trial_type":"html-keyboard-response","trial_index":23,"time_elapsed":66731,"internal_node_id":"0.0-8.0-0.4","subject":"majx4tvbmuy99fu","sona":"9472"},{"rt":null,"stimulus":"<div style=\"font-size:60px;\">+</div>","key_press":null,"trial_type":"html-keyboard-response","trial_index":24,"time_elapsed":68756,"internal_node_id":"0.0-8.0-1.4","subject":"majx4tvbmuy99fu","sona":"9472"},{"trial_type":"turing-test","trial_index":25,"time_elapsed":73886,"internal_node_id":"0.0-8.0-2.4","subject":"majx4tvbmuy99fu","sona":"9472"},{"rt":733,"stimulus":"<p>Welche Sequenz haben Sie als natürlicher empfunden?</p>","key_press":74,"test_part":"response","test_stimulus":{"position":0,"left":"bvh/return-bottle-hold-training0-lines.txt","right":"bvh/vr_prediction_models/model(vcgpdm)-dataset(return-bottle-hold)-mode(ELBO)-parts(3)-dyn(10)-lvm(25)-hold(0)/final-lines.txt","att_check":false},"trial_type":"html-keyboard-response","trial_index":26,"time_elapsed":74621,"internal_node_id":"0.0-8.0-3.4","subject":"majx4tvbmuy99fu","sona":"9472"},{"rt":643,"stimulus":"<p>Bereit?</p>","key_press":32,"trial_type":"html-keyboard-response","trial_index":27,"time_elapsed":75265,"internal_node_id":"0.0-8.0-0.5","subject":"majx4tvbmuy99fu","sona":"9472"},{"rt":null,"stimulus":"<div style=\"font-size:60px;\">+</div>","key_press":null,"trial_type":"html-keyboard-response","trial_index":28,"time_elapsed":77296,"internal_node_id":"0.0-8.0-1.5","subject":"majx4tvbmuy99fu","sona":"9472"},{"trial_type":"turing-test","trial_index":29,"time_elapsed":83085,"internal_node_id":"0.0-8.0-2.5","subject":"majx4tvbmuy99fu","sona":"9472"},{"rt":468,"stimulus":"<p>Welche Sequenz haben Sie als natürlicher empfunden?</p>","key_press":74,"test_part":"response","test_stimulus":{"position":1,"left":"bvh/vr_prediction_models/model(dmp)-dataset(pass-bottle)-npsi(70)-hold(3)/final-lines.txt","right":"bvh/pass-bottle-training3-lines.txt","att_check":false},"trial_type":"html-keyboard-response","trial_index":30,"time_elapsed":83557,"internal_node_id":"0.0-8.0-3.5","subject":"majx4tvbmuy99fu","sona":"9472"},{"rt":676,"stimulus":"<p>Bereit?</p>","key_press":32,"trial_type":"html-keyboard-response","trial_index":31,"time_elapsed":84234,"internal_node_id":"0.0-8.0-0.6","subject":"majx4tvbmuy99fu","sona":"9472"},{"rt":null,"stimulus":"<div style=\"font-size:60px;\">+</div>","key_press":null,"trial_type":"html-keyboard-response","trial_index":32,"time_elapsed":86276,"internal_node_id":"0.0-8.0-1.6","subject":"majx4tvbmuy99fu","sona":"9472"},{"trial_type":"turing-test","trial_index":33,"time_elapsed":92016,"internal_node_id":"0.0-8.0-2.6","subject":"majx4tvbmuy99fu","sona":"9472"},{"rt":580,"stimulus":"<p>Welche Sequenz haben Sie als natürlicher empfunden?</p>","key_press":74,"test_part":"response","test_stimulus":{"position":0,"left":"bvh/return-bottle-training4-lines.txt","right":"bvh/vr_prediction_models/model(dmp)-dataset(return-bottle)-npsi(70)-hold(4)/final-lines.txt","att_check":false},"trial_type":"html-keyboard-response","trial_index":34,"time_elapsed":92597,"internal_node_id":"0.0-8.0-3.6","subject":"majx4tvbmuy99fu","sona":"9472"},{"rt":507,"stimulus":"<p>Bereit?</p>","key_press":32,"trial_type":"html-keyboard-response","trial_index":35,"time_elapsed":93106,"internal_node_id":"0.0-8.0-0.7","subject":"majx4tvbmuy99fu","sona":"9472"},{"rt":null,"stimulus":"<div style=\"font-size:60px;\">+</div>","key_press":null,"trial_type":"html-keyboard-response","trial_index":36,"time_elapsed":95136,"internal_node_id":"0.0-8.0-1.7","subject":"majx4tvbmuy99fu","sona":"9472"},{"trial_type":"turing-test","trial_index":37,"time_elapsed":100913,"internal_node_id":"0.0-8.0-2.7","subject":"majx4tvbmuy99fu","sona":"9472"},{"rt":453,"stimulus":"<p>Welche Sequenz haben Sie als natürlicher empfunden?</p>","key_press":74,"test_part":"response","test_stimulus":{"position":1,"left":"bvh/vr_prediction_models/model(vcgpdm)-dataset(return-bottle)-mode(ELBO)-parts(1)-dyn(35)-lvm(10)-hold(3)/final-lines.txt","right":"bvh/return-bottle-training3-lines.txt","att_check":false},"trial_type":"html-keyboard-response","trial_index":38,"time_elapsed":101368,"internal_node_id":"0.0-8.0-3.7","subject":"majx4tvbmuy99fu","sona":"9472"},{"rt":298,"stimulus":"<p>Bereit?</p>","key_press":32,"trial_type":"html-keyboard-response","trial_index":39,"time_elapsed":101668,"internal_node_id":"0.0-8.0-0.8","subject":"majx4tvbmuy99fu","sona":"9472"},{"rt":null,"stimulus":"<div style=\"font-size:60px;\">+</div>","key_press":null,"trial_type":"html-keyboard-response","trial_index":40,"time_elapsed":103693,"internal_node_id":"0.0-8.0-1.8","subject":"majx4tvbmuy99fu","sona":"9472"},{"trial_type":"turing-test","trial_index":41,"time_elapsed":107294,"internal_node_id":"0.0-8.0-2.8","subject":"majx4tvbmuy99fu","sona":"9472"},{"rt":835,"stimulus":"<p>Welche Sequenz haben Sie als natürlicher empfunden?</p>","key_press":70,"test_part":"response","test_stimulus":{"position":1,"left":"bvh/vr_prediction_models/model(vcgpdm)-dataset(pass-bottle-hold)-mode(ELBO)-parts(3)-dyn(20)-lvm(15)-hold(3)/final-lines.txt","right":"bvh/pass-bottle-hold-training3-lines.txt","att_check":false},"trial_type":"html-keyboard-response","trial_index":42,"time_elapsed":108131,"internal_node_id":"0.0-8.0-3.8","subject":"majx4tvbmuy99fu","sona":"9472"},{"rt":285,"stimulus":"<p>Bereit?</p>","key_press":32,"trial_type":"html-keyboard-response","trial_index":43,"time_elapsed":108417,"internal_node_id":"0.0-8.0-0.9","subject":"majx4tvbmuy99fu","sona":"9472"},{"rt":null,"stimulus":"<div style=\"font-size:60px;\">+</div>","key_press":null,"trial_type":"html-keyboard-response","trial_index":44,"time_elapsed":110454,"internal_node_id":"0.0-8.0-1.9","subject":"majx4tvbmuy99fu","sona":"9472"},{"trial_type":"turing-test","trial_index":45,"time_elapsed":116544,"internal_node_id":"0.0-8.0-2.9","subject":"majx4tvbmuy99fu","sona":"9472"},{"rt":1119,"stimulus":"<p>Welche Sequenz haben Sie als natürlicher empfunden?</p>","key_press":70,"test_part":"response","test_stimulus":{"position":1,"left":"bvh/vr_prediction_models/model(tmp)-dataset(return-bottle)-numprim(12)-hold(1)/final-lines.txt","right":"bvh/return-bottle-training1-lines.txt","att_check":false},"trial_type":"html-keyboard-response","trial_index":46,"time_elapsed":117665,"internal_node_id":"0.0-8.0-3.9","subject":"majx4tvbmuy99fu","sona":"9472"},{"rt":229,"stimulus":"<p>Bereit?</p>","key_press":32,"trial_type":"html-keyboard-response","trial_index":47,"time_elapsed":117895,"internal_node_id":"0.0-8.0-0.10","subject":"majx4tvbmuy99fu","sona":"9472"},{"rt":null,"stimulus":"<div style=\"font-size:60px;\">+</div>","key_press":null,"trial_type":"html-keyboard-response","trial_index":48,"time_elapsed":119924,"internal_node_id":"0.0-8.0-1.10","subject":"majx4tvbmuy99fu","sona":"9472"},{"trial_type":"turing-test","trial_index":49,"time_elapsed":123324,"internal_node_id":"0.0-8.0-2.10","subject":"majx4tvbmuy99fu","sona":"9472"},{"rt":1099,"stimulus":"<p>Welche Sequenz haben Sie als natürlicher empfunden?</p>","key_press":74,"test_part":"response","test_stimulus":{"position":1,"left":"bvh/vr_prediction_models/model(dmp)-dataset(return-bottle-hold)-npsi(100)-hold(2)/final-lines.txt","right":"bvh/return-bottle-hold-training2-lines.txt","att_check":false},"trial_type":"html-keyboard-response","trial_index":50,"time_elapsed":124424,"internal_node_id":"0.0-8.0-3.10","subject":"majx4tvbmuy99fu","sona":"9472"},{"rt":277,"stimulus":"<p>Bereit?</p>","key_press":32,"trial_type":"html-keyboard-response","trial_index":51,"time_elapsed":124702,"internal_node_id":"0.0-8.0-0.11","subject":"majx4tvbmuy99fu","sona":"9472"},{"rt":null,"stimulus":"<div style=\"font-size:60px;\">+</div>","key_press":null,"trial_type":"html-keyboard-response","trial_index":52,"time_elapsed":126723,"internal_node_id":"0.0-8.0-1.11","subject":"majx4tvbmuy99fu","sona":"9472"},{"trial_type":"turing-test","trial_index":53,"time_elapsed":133313,"internal_node_id":"0.0-8.0-2.11","subject":"majx4tvbmuy99fu","sona":"9472"}]