[{"rt":1352,"stimulus":"<p>Welcome!<br> Please choose your language to start the experiment in the chosen language.</p><p>Willkommen!<br> Bitte wählen Sie eine Sprache, um das Experiment in der ausgewählten Sprache zu starten</p>","button_pressed":"1","trial_type":"html-button-response","trial_index":0,"time_elapsed":1384,"internal_node_id":"0.0-0.0","subject":"7hlpqay18t1voah"},{"view_history":"[{\"page_index\":0,\"viewing_time\":4744},{\"page_index\":1,\"viewing_time\":1314},{\"page_index\":2,\"viewing_time\":5026},{\"page_index\":3,\"viewing_time\":2071},{\"page_index\":4,\"viewing_time\":1380}]","rt":14535,"trial_type":"instructions","trial_index":1,"time_elapsed":15920,"internal_node_id":"0.0-1.0-0.0","subject":"7hlpqay18t1voah"},{"rt":1018,"stimulus":"<p>Bereit?</p>","key_press":32,"trial_type":"html-keyboard-response","trial_index":2,"time_elapsed":16939,"internal_node_id":"0.0-3.0","subject":"7hlpqay18t1voah"},{"rt":null,"stimulus":"<div style=\"font-size:60px;\">+</div>","key_press":null,"trial_type":"html-keyboard-response","trial_index":3,"time_elapsed":18941,"internal_node_id":"0.0-4.0","subject":"7hlpqay18t1voah"},{"trial_type":"training","trial_index":4,"time_elapsed":22250,"internal_node_id":"0.0-5.0","subject":"7hlpqay18t1voah"},{"rt":977,"stimulus":"<p>Welche Sequenz haben Sie als natürlicher empfunden?</p>","key_press":70,"trial_type":"html-keyboard-response","trial_index":5,"time_elapsed":23228,"internal_node_id":"0.0-6.0","subject":"7hlpqay18t1voah"},{"rt":2111,"stimulus":"<p>Das Experiment startet nun.</p><p><small>Bitte drücken Sie den Knopf, wenn Sie bereit sind.</small></p>","button_pressed":"0","trial_type":"html-button-response","trial_index":6,"time_elapsed":25340,"internal_node_id":"0.0-7.0","subject":"7hlpqay18t1voah"},{"rt":871,"stimulus":"<p>Bereit?</p>","key_press":32,"trial_type":"html-keyboard-response","trial_index":7,"time_elapsed":26211,"internal_node_id":"0.0-8.0-0.0","subject":"7hlpqay18t1voah"},{"rt":null,"stimulus":"<div style=\"font-size:60px;\">+</div>","key_press":null,"trial_type":"html-keyboard-response","trial_index":8,"time_elapsed":28214,"internal_node_id":"0.0-8.0-1.0","subject":"7hlpqay18t1voah"},{"trial_type":"turing-test","trial_index":9,"time_elapsed":33814,"internal_node_id":"0.0-8.0-2.0","subject":"7hlpqay18t1voah"},{"rt":819.0000000000073,"stimulus":"<p>Welche Sequenz haben Sie als natürlicher empfunden?</p>","key_press":70,"test_part":"response","test_stimulus":{"position":0,"left":"bvh/pass-bottle-training1-lines.txt","right":"bvh/vr_prediction_models/model(vcgpdm)-dataset(pass-bottle)-mode(ELBO)-parts(3)-dyn(35)-lvm(20)-hold(1)/final-lines.txt","att_check":false},"trial_type":"html-keyboard-response","trial_index":10,"time_elapsed":34637,"internal_node_id":"0.0-8.0-3.0","subject":"7hlpqay18t1voah"},{"rt":628,"stimulus":"<p>Bereit?</p>","key_press":32,"trial_type":"html-keyboard-response","trial_index":11,"time_elapsed":35267,"internal_node_id":"0.0-8.0-0.1","subject":"7hlpqay18t1voah"},{"rt":null,"stimulus":"<div style=\"font-size:60px;\">+</div>","key_press":null,"trial_type":"html-keyboard-response","trial_index":12,"time_elapsed":37270,"internal_node_id":"0.0-8.0-1.1","subject":"7hlpqay18t1voah"},{"trial_type":"turing-test","trial_index":13,"time_elapsed":43058,"internal_node_id":"0.0-8.0-2.1","subject":"7hlpqay18t1voah"},{"rt":679,"stimulus":"<p>Welche Sequenz haben Sie als natürlicher empfunden?</p>","key_press":74,"test_part":"response","test_stimulus":{"position":1,"left":"bvh/vr_prediction_models/model(vcgpdm)-dataset(return-bottle)-mode(ELBO)-parts(1)-dyn(30)-lvm(35)-hold(4)/final-lines.txt","right":"bvh/return-bottle-training4-lines.txt","att_check":false},"trial_type":"html-keyboard-response","trial_index":14,"time_elapsed":43741,"internal_node_id":"0.0-8.0-3.1","subject":"7hlpqay18t1voah"},{"rt":620,"stimulus":"<p>Bereit?</p>","key_press":32,"trial_type":"html-keyboard-response","trial_index":15,"time_elapsed":44364,"internal_node_id":"0.0-8.0-0.2","subject":"7hlpqay18t1voah"},{"rt":null,"stimulus":"<div style=\"font-size:60px;\">+</div>","key_press":null,"trial_type":"html-keyboard-response","trial_index":16,"time_elapsed":46367,"internal_node_id":"0.0-8.0-1.2","subject":"7hlpqay18t1voah"},{"trial_type":"turing-test","trial_index":17,"time_elapsed":49930,"internal_node_id":"0.0-8.0-2.2","subject":"7hlpqay18t1voah"},{"rt":1568,"stimulus":"<p>Welche Sequenz haben Sie als natürlicher empfunden?</p>","key_press":74,"test_part":"response","test_stimulus":{"position":1,"left":"bvh/vr_prediction_models/model(dmp)-dataset(return-bottle-hold)-npsi(30)-hold(3)/final-lines.txt","right":"bvh/return-bottle-hold-training3-lines.txt","att_check":true},"trial_type":"html-keyboard-response","trial_index":18,"time_elapsed":51501,"internal_node_id":"0.0-8.0-3.2","subject":"7hlpqay18t1voah"},{"rt":772,"stimulus":"<p>Bereit?</p>","key_press":32,"trial_type":"html-keyboard-response","trial_index":19,"time_elapsed":52276,"internal_node_id":"0.0-8.0-0.3","subject":"7hlpqay18t1voah"},{"rt":null,"stimulus":"<div style=\"font-size:60px;\">+</div>","key_press":null,"trial_type":"html-keyboard-response","trial_index":20,"time_elapsed":54279,"internal_node_id":"0.0-8.0-1.3","subject":"7hlpqay18t1voah"},{"trial_type":"turing-test","trial_index":21,"time_elapsed":61079,"internal_node_id":"0.0-8.0-2.3","subject":"7hlpqay18t1voah"},{"rt":851,"stimulus":"<p>Welche Sequenz haben Sie als natürlicher empfunden?</p>","key_press":74,"test_part":"response","test_stimulus":{"position":1,"left":"bvh/vr_prediction_models/model(dmp)-dataset(pass-bottle)-npsi(70)-hold(0)/final-lines.txt","right":"bvh/pass-bottle-training0-lines.txt","att_check":false},"trial_type":"html-keyboard-response","trial_index":22,"time_elapsed":61934,"internal_node_id":"0.0-8.0-3.3","subject":"7hlpqay18t1voah"},{"rt":483,"stimulus":"<p>Bereit?</p>","key_press":32,"trial_type":"html-keyboard-response","trial_index":23,"time_elapsed":62420,"internal_node_id":"0.0-8.0-0.4","subject":"7hlpqay18t1voah"},{"rt":null,"stimulus":"<div style=\"font-size:60px;\">+</div>","key_press":null,"trial_type":"html-keyboard-response","trial_index":24,"time_elapsed":64423,"internal_node_id":"0.0-8.0-1.4","subject":"7hlpqay18t1voah"},{"trial_type":"turing-test","trial_index":25,"time_elapsed":67791,"internal_node_id":"0.0-8.0-2.4","subject":"7hlpqay18t1voah"},{"rt":1123,"stimulus":"<p>Welche Sequenz haben Sie als natürlicher empfunden?</p>","key_press":70,"test_part":"response","test_stimulus":{"position":0,"left":"bvh/pass-bottle-hold-training0-lines.txt","right":"bvh/vr_prediction_models/model(vcgpdm)-dataset(pass-bottle-hold)-mode(ELBO)-parts(1)-dyn(20)-lvm(30)-hold(0)/final-lines.txt","att_check":false},"trial_type":"html-keyboard-response","trial_index":26,"time_elapsed":68917,"internal_node_id":"0.0-8.0-3.4","subject":"7hlpqay18t1voah"},{"rt":429,"stimulus":"<p>Bereit?</p>","key_press":32,"trial_type":"html-keyboard-response","trial_index":27,"time_elapsed":69348,"internal_node_id":"0.0-8.0-0.5","subject":"7hlpqay18t1voah"},{"rt":null,"stimulus":"<div style=\"font-size:60px;\">+</div>","key_press":null,"trial_type":"html-keyboard-response","trial_index":28,"time_elapsed":71350,"internal_node_id":"0.0-8.0-1.5","subject":"7hlpqay18t1voah"},{"trial_type":"turing-test","trial_index":29,"time_elapsed":77559,"internal_node_id":"0.0-8.0-2.5","subject":"7hlpqay18t1voah"},{"rt":516,"stimulus":"<p>Welche Sequenz haben Sie als natürlicher empfunden?</p>","key_press":74,"test_part":"response","test_stimulus":{"position":1,"left":"bvh/vr_prediction_models/model(vcgpdm)-dataset(return-bottle)-mode(ELBO)-parts(3)-dyn(20)-lvm(15)-hold(1)/final-lines.txt","right":"bvh/return-bottle-training1-lines.txt","att_check":false},"trial_type":"html-keyboard-response","trial_index":30,"time_elapsed":78078,"internal_node_id":"0.0-8.0-3.5","subject":"7hlpqay18t1voah"},{"rt":379,"stimulus":"<p>Bereit?</p>","key_press":32,"trial_type":"html-keyboard-response","trial_index":31,"time_elapsed":78460,"internal_node_id":"0.0-8.0-0.6","subject":"7hlpqay18t1voah"},{"rt":null,"stimulus":"<div style=\"font-size:60px;\">+</div>","key_press":null,"trial_type":"html-keyboard-response","trial_index":32,"time_elapsed":80463,"internal_node_id":"0.0-8.0-1.6","subject":"7hlpqay18t1voah"},{"trial_type":"turing-test","trial_index":33,"time_elapsed":87122,"internal_node_id":"0.0-8.0-2.6","subject":"7hlpqay18t1voah"},{"rt":529,"stimulus":"<p>Welche Sequenz haben Sie als natürlicher empfunden?</p>","key_press":70,"test_part":"response","test_stimulus":{"position":0,"left":"bvh/pass-bottle-training0-lines.txt","right":"bvh/vr_prediction_models/model(dmp)-dataset(pass-bottle)-npsi(10)-hold(0)/final-lines.txt","att_check":false},"trial_type":"html-keyboard-response","trial_index":34,"time_elapsed":87655,"internal_node_id":"0.0-8.0-3.6","subject":"7hlpqay18t1voah"},{"rt":866,"stimulus":"<p>Bereit?</p>","key_press":32,"trial_type":"html-keyboard-response","trial_index":35,"time_elapsed":88525,"internal_node_id":"0.0-8.0-0.7","subject":"7hlpqay18t1voah"},{"rt":null,"stimulus":"<div style=\"font-size:60px;\">+</div>","key_press":null,"trial_type":"html-keyboard-response","trial_index":36,"time_elapsed":90528,"internal_node_id":"0.0-8.0-1.7","subject":"7hlpqay18t1voah"},{"trial_type":"turing-test","trial_index":37,"time_elapsed":94145,"internal_node_id":"0.0-8.0-2.7","subject":"7hlpqay18t1voah"},{"rt":673,"stimulus":"<p>Welche Sequenz haben Sie als natürlicher empfunden?</p>","key_press":74,"test_part":"response","test_stimulus":{"position":1,"left":"bvh/vr_prediction_models/model(vcgpdm)-dataset(pass-bottle-hold)-mode(ELBO)-parts(3)-dyn(30)-lvm(15)-hold(4)/final-lines.txt","right":"bvh/pass-bottle-hold-training4-lines.txt","att_check":false},"trial_type":"html-keyboard-response","trial_index":38,"time_elapsed":94822,"internal_node_id":"0.0-8.0-3.7","subject":"7hlpqay18t1voah"},{"rt":356,"stimulus":"<p>Bereit?</p>","key_press":32,"trial_type":"html-keyboard-response","trial_index":39,"time_elapsed":95181,"internal_node_id":"0.0-8.0-0.8","subject":"7hlpqay18t1voah"},{"rt":null,"stimulus":"<div style=\"font-size:60px;\">+</div>","key_press":null,"trial_type":"html-keyboard-response","trial_index":40,"time_elapsed":97184,"internal_node_id":"0.0-8.0-1.8","subject":"7hlpqay18t1voah"},{"trial_type":"turing-test","trial_index":41,"time_elapsed":102924,"internal_node_id":"0.0-8.0-2.8","subject":"7hlpqay18t1voah"},{"rt":560,"stimulus":"<p>Welche Sequenz haben Sie als natürlicher empfunden?</p>","key_press":74,"test_part":"response","test_stimulus":{"position":1,"left":"bvh/vr_prediction_models/model(dmp)-dataset(pass-bottle)-npsi(90)-hold(4)/final-lines.txt","right":"bvh/pass-bottle-training4-lines.txt","att_check":false},"trial_type":"html-keyboard-response","trial_index":42,"time_elapsed":103486,"internal_node_id":"0.0-8.0-3.8","subject":"7hlpqay18t1voah"},{"rt":564,"stimulus":"<p>Bereit?</p>","key_press":32,"trial_type":"html-keyboard-response","trial_index":43,"time_elapsed":104053,"internal_node_id":"0.0-8.0-0.9","subject":"7hlpqay18t1voah"},{"rt":null,"stimulus":"<div style=\"font-size:60px;\">+</div>","key_press":null,"trial_type":"html-keyboard-response","trial_index":44,"time_elapsed":106056,"internal_node_id":"0.0-8.0-1.9","subject":"7hlpqay18t1voah"},{"trial_type":"turing-test","trial_index":45,"time_elapsed":109876,"internal_node_id":"0.0-8.0-2.9","subject":"7hlpqay18t1voah"},{"rt":286,"stimulus":"<p>Welche Sequenz haben Sie als natürlicher empfunden?</p>","key_press":70,"test_part":"response","test_stimulus":{"position":0,"left":"bvh/return-bottle-hold-training4-lines.txt","right":"bvh/vr_prediction_models/model(vcgpdm)-dataset(return-bottle-hold)-mode(ELBO)-parts(1)-dyn(10)-lvm(5)-hold(4)/final-lines.txt","att_check":false},"trial_type":"html-keyboard-response","trial_index":46,"time_elapsed":110165,"internal_node_id":"0.0-8.0-3.9","subject":"7hlpqay18t1voah"},{"rt":445,"stimulus":"<p>Bereit?</p>","key_press":32,"trial_type":"html-keyboard-response","trial_index":47,"time_elapsed":110613,"internal_node_id":"0.0-8.0-0.10","subject":"7hlpqay18t1voah"},{"rt":null,"stimulus":"<div style=\"font-size:60px;\">+</div>","key_press":null,"trial_type":"html-keyboard-response","trial_index":48,"time_elapsed":112616,"internal_node_id":"0.0-8.0-1.10","subject":"7hlpqay18t1voah"},{"trial_type":"turing-test","trial_index":49,"time_elapsed":116070,"internal_node_id":"0.0-8.0-2.10","subject":"7hlpqay18t1voah"},{"rt":349,"stimulus":"<p>Welche Sequenz haben Sie als natürlicher empfunden?</p>","key_press":74,"test_part":"response","test_stimulus":{"position":0,"left":"bvh/return-bottle-hold-training2-lines.txt","right":"bvh/vr_prediction_models/model(tmp)-dataset(return-bottle-hold)-numprim(10)-hold(2)/final-lines.txt","att_check":false},"trial_type":"html-keyboard-response","trial_index":50,"time_elapsed":116422,"internal_node_id":"0.0-8.0-3.10","subject":"7hlpqay18t1voah"},{"rt":332,"stimulus":"<p>Bereit?</p>","key_press":32,"trial_type":"html-keyboard-response","trial_index":51,"time_elapsed":116757,"internal_node_id":"0.0-8.0-0.11","subject":"7hlpqay18t1voah"},{"rt":null,"stimulus":"<div style=\"font-size:60px;\">+</div>","key_press":null,"trial_type":"html-keyboard-response","trial_index":52,"time_elapsed":118760,"internal_node_id":"0.0-8.0-1.11","subject":"7hlpqay18t1voah"},{"trial_type":"turing-test","trial_index":53,"time_elapsed":122411,"internal_node_id":"0.0-8.0-2.11","subject":"7hlpqay18t1voah"},{"rt":551,"stimulus":"<p>Welche Sequenz haben Sie als natürlicher empfunden?</p>","key_press":70,"test_part":"response","test_stimulus":{"position":0,"left":"bvh/return-bottle-hold-training4-lines.txt","right":"bvh/vr_prediction_models/model(dmp)-dataset(return-bottle-hold)-npsi(100)-hold(4)/final-lines.txt","att_check":false},"trial_type":"html-keyboard-response","trial_index":54,"time_elapsed":122966,"internal_node_id":"0.0-8.0-3.11","subject":"7hlpqay18t1voah"},{"rt":501,"stimulus":"<p>Bereit?</p>","key_press":32,"trial_type":"html-keyboard-response","trial_index":55,"time_elapsed":123469,"internal_node_id":"0.0-8.0-0.12","subject":"7hlpqay18t1voah"},{"rt":null,"stimulus":"<div style=\"font-size:60px;\">+</div>","key_press":null,"trial_type":"html-keyboard-response","trial_index":56,"time_elapsed":125472,"internal_node_id":"0.0-8.0-1.12","subject":"7hlpqay18t1voah"},{"trial_type":"turing-test","trial_index":57,"time_elapsed":131356,"internal_node_id":"0.0-8.0-2.12","subject":"7hlpqay18t1voah"},{"rt":575,"stimulus":"<p>Welche Sequenz haben Sie als natürlicher empfunden?</p>","key_press":74,"test_part":"response","test_stimulus":{"position":1,"left":"bvh/vr_prediction_models/model(vcgpdm)-dataset(pass-bottle)-mode(ELBO)-parts(3)-dyn(25)-lvm(25)-hold(3)/final-lines.txt","right":"bvh/pass-bottle-training3-lines.txt","att_check":false},"trial_type":"html-keyboard-response","trial_index":58,"time_elapsed":131935,"internal_node_id":"0.0-8.0-3.12","subject":"7hlpqay18t1voah"},{"rt":492,"stimulus":"<p>Bereit?</p>","key_press":32,"trial_type":"html-keyboard-response","trial_index":59,"time_elapsed":132430,"internal_node_id":"0.0-8.0-0.13","subject":"7hlpqay18t1voah"},{"rt":null,"stimulus":"<div style=\"font-size:60px;\">+</div>","key_press":null,"trial_type":"html-keyboard-response","trial_index":60,"time_elapsed":134432,"internal_node_id":"0.0-8.0-1.13","subject":"7hlpqay18t1voah"},{"trial_type":"turing-test","trial_index":61,"time_elapsed":139863,"internal_node_id":"0.0-8.0-2.13","subject":"7hlpqay18t1voah"},{"rt":501,"stimulus":"<p>Welche Sequenz haben Sie als natürlicher empfunden?</p>","key_press":70,"test_part":"response","test_stimulus":{"position":0,"left":"bvh/return-bottle-training0-lines.txt","right":"bvh/vr_prediction_models/model(dmp)-dataset(return-bottle)-npsi(70)-hold(0)/final-lines.txt","att_check":false},"trial_type":"html-keyboard-response","trial_index":62,"time_elapsed":140368,"internal_node_id":"0.0-8.0-3.13","subject":"7hlpqay18t1voah"},{"rt":364,"stimulus":"<p>Bereit?</p>","key_press":32,"trial_type":"html-keyboard-response","trial_index":63,"time_elapsed":140735,"internal_node_id":"0.0-8.0-0.14","subject":"7hlpqay18t1voah"},{"rt":null,"stimulus":"<div style=\"font-size:60px;\">+</div>","key_press":null,"trial_type":"html-keyboard-response","trial_index":64,"time_elapsed":142738,"internal_node_id":"0.0-8.0-1.14","subject":"7hlpqay18t1voah"},{"trial_type":"turing-test","trial_index":65,"time_elapsed":146008,"internal_node_id":"0.0-8.0-2.14","subject":"7hlpqay18t1voah"},{"rt":507,"stimulus":"<p>Welche Sequenz haben Sie als natürlicher empfunden?</p>","key_press":74,"test_part":"response","test_stimulus":{"position":0,"left":"bvh/pass-bottle-hold-training0-lines.txt","right":"bvh/vr_prediction_models/model(tmp)-dataset(pass-bottle-hold)-numprim(13)-hold(0)/final-lines.txt","att_check":false},"trial_type":"html-keyboard-response","trial_index":66,"time_elapsed":146518,"internal_node_id":"0.0-8.0-3.14","subject":"7hlpqay18t1voah"},{"rt":301,"stimulus":"<p>Bereit?</p>","key_press":32,"trial_type":"html-keyboard-response","trial_index":67,"time_elapsed":146822,"internal_node_id":"0.0-8.0-0.15","subject":"7hlpqay18t1voah"},{"rt":null,"stimulus":"<div style=\"font-size:60px;\">+</div>","key_press":null,"trial_type":"html-keyboard-response","trial_index":68,"time_elapsed":148825,"internal_node_id":"0.0-8.0-1.15","subject":"7hlpqay18t1voah"},{"trial_type":"turing-test","trial_index":69,"time_elapsed":154625,"internal_node_id":"0.0-8.0-2.15","subject":"7hlpqay18t1voah"},{"rt":323.0000000000291,"stimulus":"<p>Welche Sequenz haben Sie als natürlicher empfunden?</p>","key_press":70,"test_part":"response","test_stimulus":{"position":0,"left":"bvh/return-bottle-training4-lines.txt","right":"bvh/vr_prediction_models/model(vcgpdm)-dataset(return-bottle)-mode(ELBO)-parts(3)-dyn(10)-lvm(30)-hold(4)/final-lines.txt","att_check":false},"trial_type":"html-keyboard-response","trial_index":70,"time_elapsed":154952,"internal_node_id":"0.0-8.0-3.15","subject":"7hlpqay18t1voah"},{"rt":388,"stimulus":"<p>Bereit?</p>","key_press":32,"trial_type":"html-keyboard-response","trial_index":71,"time_elapsed":155342,"internal_node_id":"0.0-8.0-0.16","subject":"7hlpqay18t1voah"},{"rt":null,"stimulus":"<div style=\"font-size:60px;\">+</div>","key_press":null,"trial_type":"html-keyboard-response","trial_index":72,"time_elapsed":157345,"internal_node_id":"0.0-8.0-1.16","subject":"7hlpqay18t1voah"},{"trial_type":"turing-test","trial_index":73,"time_elapsed":161000,"internal_node_id":"0.0-8.0-2.16","subject":"7hlpqay18t1voah"},{"rt":516,"stimulus":"<p>Welche Sequenz haben Sie als natürlicher empfunden?</p>","key_press":70,"test_part":"response","test_stimulus":{"position":0,"left":"bvh/pass-bottle-hold-training4-lines.txt","right":"bvh/vr_prediction_models/model(vcgpdm)-dataset(pass-bottle-hold)-mode(ELBO)-parts(1)-dyn(30)-lvm(20)-hold(4)/final-lines.txt","att_check":false},"trial_type":"html-keyboard-response","trial_index":74,"time_elapsed":161520,"internal_node_id":"0.0-8.0-3.16","subject":"7hlpqay18t1voah"},{"rt":300,"stimulus":"<p>Bereit?</p>","key_press":32,"trial_type":"html-keyboard-response","trial_index":75,"time_elapsed":161822,"internal_node_id":"0.0-8.0-0.17","subject":"7hlpqay18t1voah"},{"rt":null,"stimulus":"<div style=\"font-size:60px;\">+</div>","key_press":null,"trial_type":"html-keyboard-response","trial_index":76,"time_elapsed":163824,"internal_node_id":"0.0-8.0-1.17","subject":"7hlpqay18t1voah"},{"trial_type":"turing-test","trial_index":77,"time_elapsed":169813,"internal_node_id":"0.0-8.0-2.17","subject":"7hlpqay18t1voah"},{"rt":455,"stimulus":"<p>Welche Sequenz haben Sie als natürlicher empfunden?</p>","key_press":74,"test_part":"response","test_stimulus":{"position":1,"left":"bvh/vr_prediction_models/model(vcgpdm)-dataset(pass-bottle)-mode(ELBO)-parts(1)-dyn(10)-lvm(25)-hold(3)/final-lines.txt","right":"bvh/pass-bottle-training3-lines.txt","att_check":false},"trial_type":"html-keyboard-response","trial_index":78,"time_elapsed":170272,"internal_node_id":"0.0-8.0-3.17","subject":"7hlpqay18t1voah"},{"rt":396,"stimulus":"<p>Bereit?</p>","key_press":32,"trial_type":"html-keyboard-response","trial_index":79,"time_elapsed":170671,"internal_node_id":"0.0-8.0-0.18","subject":"7hlpqay18t1voah"},{"rt":null,"stimulus":"<div style=\"font-size:60px;\">+</div>","key_press":null,"trial_type":"html-keyboard-response","trial_index":80,"time_elapsed":172673,"internal_node_id":"0.0-8.0-1.18","subject":"7hlpqay18t1voah"},{"trial_type":"turing-test","trial_index":81,"time_elapsed":175888,"internal_node_id":"0.0-8.0-2.18","subject":"7hlpqay18t1voah"},{"rt":2668,"stimulus":"<p>Welche Sequenz haben Sie als natürlicher empfunden?</p>","key_press":74,"test_part":"response","test_stimulus":{"position":1,"left":"bvh/vr_prediction_models/model(tmp)-dataset(pass-bottle-hold)-numprim(13)-hold(1)/final-lines.txt","right":"bvh/pass-bottle-hold-training1-lines.txt","att_check":false},"trial_type":"html-keyboard-response","trial_index":82,"time_elapsed":178560,"internal_node_id":"0.0-8.0-3.18","subject":"7hlpqay18t1voah"},{"rt":524,"stimulus":"<p>Bereit?</p>","key_press":32,"trial_type":"html-keyboard-response","trial_index":83,"time_elapsed":179087,"internal_node_id":"0.0-8.0-0.19","subject":"7hlpqay18t1voah"},{"rt":null,"stimulus":"<div style=\"font-size:60px;\">+</div>","key_press":null,"trial_type":"html-keyboard-response","trial_index":84,"time_elapsed":181089,"internal_node_id":"0.0-8.0-1.19","subject":"7hlpqay18t1voah"},{"trial_type":"turing-test","trial_index":85,"time_elapsed":184343,"internal_node_id":"0.0-8.0-2.19","subject":"7hlpqay18t1voah"},{"rt":397.0000000000291,"stimulus":"<p>Welche Sequenz haben Sie als natürlicher empfunden?</p>","key_press":74,"test_part":"response","test_stimulus":{"position":1,"left":"bvh/vr_prediction_models/model(vcgpdm)-dataset(pass-bottle-hold)-mode(ELBO)-parts(3)-dyn(25)-lvm(30)-hold(1)/final-lines.txt","right":"bvh/pass-bottle-hold-training1-lines.txt","att_check":false},"trial_type":"html-keyboard-response","trial_index":86,"time_elapsed":184744,"internal_node_id":"0.0-8.0-3.19","subject":"7hlpqay18t1voah"},{"rt":308,"stimulus":"<p>Bereit?</p>","key_press":32,"trial_type":"html-keyboard-response","trial_index":87,"time_elapsed":185055,"internal_node_id":"0.0-8.0-0.20","subject":"7hlpqay18t1voah"},{"rt":null,"stimulus":"<div style=\"font-size:60px;\">+</div>","key_press":null,"trial_type":"html-keyboard-response","trial_index":88,"time_elapsed":187057,"internal_node_id":"0.0-8.0-1.20","subject":"7hlpqay18t1voah"},{"trial_type":"turing-test","trial_index":89,"time_elapsed":192253,"internal_node_id":"0.0-8.0-2.20","subject":"7hlpqay18t1voah"},{"rt":528.9999999999709,"stimulus":"<p>Welche Sequenz haben Sie als natürlicher empfunden?</p>","key_press":70,"test_part":"response","test_stimulus":{"position":0,"left":"bvh/return-bottle-hold-training0-lines.txt","right":"bvh/vr_prediction_models/model(vcgpdm)-dataset(return-bottle-hold)-mode(ELBO)-parts(1)-dyn(30)-lvm(35)-hold(0)/final-lines.txt","att_check":false},"trial_type":"html-keyboard-response","trial_index":90,"time_elapsed":192785,"internal_node_id":"0.0-8.0-3.20","subject":"7hlpqay18t1voah"},{"rt":371,"stimulus":"<p>Bereit?</p>","key_press":32,"trial_type":"html-keyboard-response","trial_index":91,"time_elapsed":193159,"internal_node_id":"0.0-8.0-0.21","subject":"7hlpqay18t1voah"},{"rt":null,"stimulus":"<div style=\"font-size:60px;\">+</div>","key_press":null,"trial_type":"html-keyboard-response","trial_index":92,"time_elapsed":195162,"internal_node_id":"0.0-8.0-1.21","subject":"7hlpqay18t1voah"},{"trial_type":"turing-test","trial_index":93,"time_elapsed":198790,"internal_node_id":"0.0-8.0-2.21","subject":"7hlpqay18t1voah"},{"rt":1055,"stimulus":"<p>Welche Sequenz haben Sie als natürlicher empfunden?</p>","key_press":74,"test_part":"response","test_stimulus":{"position":0,"left":"bvh/pass-bottle-hold-training3-lines.txt","right":"bvh/vr_prediction_models/model(vcgpdm)-dataset(pass-bottle-hold)-mode(ELBO)-parts(1)-dyn(20)-lvm(5)-hold(3)/final-lines.txt","att_check":false},"trial_type":"html-keyboard-response","trial_index":94,"time_elapsed":199849,"internal_node_id":"0.0-8.0-3.21","subject":"7hlpqay18t1voah"},{"rt":771.9999999999709,"stimulus":"<p>Bereit?</p>","key_press":32,"trial_type":"html-keyboard-response","trial_index":95,"time_elapsed":200623,"internal_node_id":"0.0-8.0-0.22","subject":"7hlpqay18t1voah"},{"rt":null,"stimulus":"<div style=\"font-size:60px;\">+</div>","key_press":null,"trial_type":"html-keyboard-response","trial_index":96,"time_elapsed":202626,"internal_node_id":"0.0-8.0-1.22","subject":"7hlpqay18t1voah"},{"trial_type":"turing-test","trial_index":97,"time_elapsed":208781,"internal_node_id":"0.0-8.0-2.22","subject":"7hlpqay18t1voah"},{"rt":416,"stimulus":"<p>Welche Sequenz haben Sie als natürlicher empfunden?</p>","key_press":74,"test_part":"response","test_stimulus":{"position":1,"left":"bvh/vr_prediction_models/model(vcgpdm)-dataset(pass-bottle)-mode(ELBO)-parts(1)-dyn(35)-lvm(10)-hold(2)/final-lines.txt","right":"bvh/pass-bottle-training2-lines.txt","att_check":false},"trial_type":"html-keyboard-response","trial_index":98,"time_elapsed":209201,"internal_node_id":"0.0-8.0-3.22","subject":"7hlpqay18t1voah"},{"rt":500,"stimulus":"<p>Bereit?</p>","key_press":32,"trial_type":"html-keyboard-response","trial_index":99,"time_elapsed":209704,"internal_node_id":"0.0-8.0-0.23","subject":"7hlpqay18t1voah"},{"rt":null,"stimulus":"<div style=\"font-size:60px;\">+</div>","key_press":null,"trial_type":"html-keyboard-response","trial_index":100,"time_elapsed":211705,"internal_node_id":"0.0-8.0-1.23","subject":"7hlpqay18t1voah"},{"trial_type":"turing-test","trial_index":101,"time_elapsed":217379,"internal_node_id":"0.0-8.0-2.23","subject":"7hlpqay18t1voah"},{"rt":305.9999999999709,"stimulus":"<p>Welche Sequenz haben Sie als natürlicher empfunden?</p>","key_press":70,"test_part":"response","test_stimulus":{"position":0,"left":"bvh/return-bottle-training3-lines.txt","right":"bvh/vr_prediction_models/model(dmp)-dataset(return-bottle)-npsi(20)-hold(3)/final-lines.txt","att_check":false},"trial_type":"html-keyboard-response","trial_index":102,"time_elapsed":217688,"internal_node_id":"0.0-8.0-3.23","subject":"7hlpqay18t1voah"},{"rt":405,"stimulus":"<p>Bereit?</p>","key_press":32,"trial_type":"html-keyboard-response","trial_index":103,"time_elapsed":218096,"internal_node_id":"0.0-8.0-0.24","subject":"7hlpqay18t1voah"},{"rt":null,"stimulus":"<div style=\"font-size:60px;\">+</div>","key_press":null,"trial_type":"html-keyboard-response","trial_index":104,"time_elapsed":220097,"internal_node_id":"0.0-8.0-1.24","subject":"7hlpqay18t1voah"},{"trial_type":"turing-test","trial_index":105,"time_elapsed":226094,"internal_node_id":"0.0-8.0-2.24","subject":"7hlpqay18t1voah"},{"rt":327,"stimulus":"<p>Welche Sequenz haben Sie als natürlicher empfunden?</p>","key_press":74,"test_part":"response","test_stimulus":{"position":0,"left":"bvh/return-bottle-training1-lines.txt","right":"bvh/vr_prediction_models/model(tmp)-dataset(return-bottle)-numprim(4)-hold(1)/final-lines.txt","att_check":false},"trial_type":"html-keyboard-response","trial_index":106,"time_elapsed":226425,"internal_node_id":"0.0-8.0-3.24","subject":"7hlpqay18t1voah"},{"rt":333,"stimulus":"<p>Bereit?</p>","key_press":32,"trial_type":"html-keyboard-response","trial_index":107,"time_elapsed":226760,"internal_node_id":"0.0-8.0-0.25","subject":"7hlpqay18t1voah"},{"rt":null,"stimulus":"<div style=\"font-size:60px;\">+</div>","key_press":null,"trial_type":"html-keyboard-response","trial_index":108,"time_elapsed":228761,"internal_node_id":"0.0-8.0-1.25","subject":"7hlpqay18t1voah"},{"trial_type":"turing-test","trial_index":109,"time_elapsed":234550,"internal_node_id":"0.0-8.0-2.25","subject":"7hlpqay18t1voah"},{"rt":496,"stimulus":"<p>Welche Sequenz haben Sie als natürlicher empfunden?</p>","key_press":74,"test_part":"response","test_stimulus":{"position":0,"left":"bvh/return-bottle-training3-lines.txt","right":"bvh/vr_prediction_models/model(vcgpdm)-dataset(return-bottle)-mode(ELBO)-parts(1)-dyn(35)-lvm(10)-hold(3)/final-lines.txt","att_check":false},"trial_type":"html-keyboard-response","trial_index":110,"time_elapsed":235049,"internal_node_id":"0.0-8.0-3.25","subject":"7hlpqay18t1voah"},{"rt":308,"stimulus":"<p>Bereit?</p>","key_press":32,"trial_type":"html-keyboard-response","trial_index":111,"time_elapsed":235360,"internal_node_id":"0.0-8.0-0.26","subject":"7hlpqay18t1voah"},{"rt":null,"stimulus":"<div style=\"font-size:60px;\">+</div>","key_press":null,"trial_type":"html-keyboard-response","trial_index":112,"time_elapsed":237362,"internal_node_id":"0.0-8.0-1.26","subject":"7hlpqay18t1voah"},{"trial_type":"turing-test","trial_index":113,"time_elapsed":243210,"internal_node_id":"0.0-8.0-2.26","subject":"7hlpqay18t1voah"},{"rt":476,"stimulus":"<p>Welche Sequenz haben Sie als natürlicher empfunden?</p>","key_press":70,"test_part":"response","test_stimulus":{"position":0,"left":"bvh/return-bottle-training4-lines.txt","right":"bvh/vr_prediction_models/model(vcgpdm)-dataset(return-bottle)-mode(ELBO)-parts(3)-dyn(35)-lvm(20)-hold(4)/final-lines.txt","att_check":false},"trial_type":"html-keyboard-response","trial_index":114,"time_elapsed":243690,"internal_node_id":"0.0-8.0-3.26","subject":"7hlpqay18t1voah"},{"rt":395,"stimulus":"<p>Bereit?</p>","key_press":32,"trial_type":"html-keyboard-response","trial_index":115,"time_elapsed":244088,"internal_node_id":"0.0-8.0-0.27","subject":"7hlpqay18t1voah"},{"rt":null,"stimulus":"<div style=\"font-size:60px;\">+</div>","key_press":null,"trial_type":"html-keyboard-response","trial_index":116,"time_elapsed":246090,"internal_node_id":"0.0-8.0-1.27","subject":"7hlpqay18t1voah"},{"trial_type":"turing-test","trial_index":117,"time_elapsed":249789,"internal_node_id":"0.0-8.0-2.27","subject":"7hlpqay18t1voah"},{"rt":826,"stimulus":"<p>Welche Sequenz haben Sie als natürlicher empfunden?</p>","key_press":70,"test_part":"response","test_stimulus":{"position":1,"left":"bvh/vr_prediction_models/model(tmp)-dataset(return-bottle-hold)-numprim(8)-hold(4)/final-lines.txt","right":"bvh/return-bottle-hold-training4-lines.txt","att_check":false},"trial_type":"html-keyboard-response","trial_index":118,"time_elapsed":250617,"internal_node_id":"0.0-8.0-3.27","subject":"7hlpqay18t1voah"},{"rt":307.9999999999709,"stimulus":"<p>Bereit?</p>","key_press":32,"trial_type":"html-keyboard-response","trial_index":119,"time_elapsed":250928,"internal_node_id":"0.0-8.0-0.28","subject":"7hlpqay18t1voah"},{"rt":null,"stimulus":"<div style=\"font-size:60px;\">+</div>","key_press":null,"trial_type":"html-keyboard-response","trial_index":120,"time_elapsed":252931,"internal_node_id":"0.0-8.0-1.28","subject":"7hlpqay18t1voah"},{"trial_type":"turing-test","trial_index":121,"time_elapsed":256395,"internal_node_id":"0.0-8.0-2.28","subject":"7hlpqay18t1voah"},{"rt":426.0000000000582,"stimulus":"<p>Welche Sequenz haben Sie als natürlicher empfunden?</p>","key_press":74,"test_part":"response","test_stimulus":{"position":1,"left":"bvh/vr_prediction_models/model(dmp)-dataset(return-bottle-hold)-npsi(40)-hold(2)/final-lines.txt","right":"bvh/return-bottle-hold-training2-lines.txt","att_check":false},"trial_type":"html-keyboard-response","trial_index":122,"time_elapsed":256825,"internal_node_id":"0.0-8.0-3.28","subject":"7hlpqay18t1voah"},{"rt":356.9999999999709,"stimulus":"<p>Bereit?</p>","key_press":32,"trial_type":"html-keyboard-response","trial_index":123,"time_elapsed":257184,"internal_node_id":"0.0-8.0-0.29","subject":"7hlpqay18t1voah"},{"rt":null,"stimulus":"<div style=\"font-size:60px;\">+</div>","key_press":null,"trial_type":"html-keyboard-response","trial_index":124,"time_elapsed":259186,"internal_node_id":"0.0-8.0-1.29","subject":"7hlpqay18t1voah"},{"trial_type":"turing-test","trial_index":125,"time_elapsed":265212,"internal_node_id":"0.0-8.0-2.29","subject":"7hlpqay18t1voah"},{"rt":458,"stimulus":"<p>Welche Sequenz haben Sie als natürlicher empfunden?</p>","key_press":74,"test_part":"response","test_stimulus":{"position":1,"left":"bvh/vr_prediction_models/model(vcgpdm)-dataset(return-bottle)-mode(ELBO)-parts(3)-dyn(15)-lvm(30)-hold(3)/final-lines.txt","right":"bvh/return-bottle-training3-lines.txt","att_check":false},"trial_type":"html-keyboard-response","trial_index":126,"time_elapsed":265674,"internal_node_id":"0.0-8.0-3.29","subject":"7hlpqay18t1voah"},{"rt":468,"stimulus":"<p>Bereit?</p>","key_press":32,"trial_type":"html-keyboard-response","trial_index":127,"time_elapsed":266145,"internal_node_id":"0.0-8.0-0.30","subject":"7hlpqay18t1voah"},{"rt":null,"stimulus":"<div style=\"font-size:60px;\">+</div>","key_press":null,"trial_type":"html-keyboard-response","trial_index":128,"time_elapsed":268147,"internal_node_id":"0.0-8.0-1.30","subject":"7hlpqay18t1voah"},{"trial_type":"turing-test","trial_index":129,"time_elapsed":271595,"internal_node_id":"0.0-8.0-2.30","subject":"7hlpqay18t1voah"},{"rt":587,"stimulus":"<p>Welche Sequenz haben Sie als natürlicher empfunden?</p>","key_press":74,"test_part":"response","test_stimulus":{"position":1,"left":"bvh/vr_prediction_models/model(vcgpdm)-dataset(pass-bottle-hold)-mode(ELBO)-parts(1)-dyn(30)-lvm(20)-hold(4)/final-lines.txt","right":"bvh/pass-bottle-hold-training4-lines.txt","att_check":false},"trial_type":"html-keyboard-response","trial_index":130,"time_elapsed":272187,"internal_node_id":"0.0-8.0-3.30","subject":"7hlpqay18t1voah"},{"rt":356,"stimulus":"<p>Bereit?</p>","key_press":32,"trial_type":"html-keyboard-response","trial_index":131,"time_elapsed":272545,"internal_node_id":"0.0-8.0-0.31","subject":"7hlpqay18t1voah"},{"rt":null,"stimulus":"<div style=\"font-size:60px;\">+</div>","key_press":null,"trial_type":"html-keyboard-response","trial_index":132,"time_elapsed":274548,"internal_node_id":"0.0-8.0-1.31","subject":"7hlpqay18t1voah"},{"trial_type":"turing-test","trial_index":133,"time_elapsed":280286,"internal_node_id":"0.0-8.0-2.31","subject":"7hlpqay18t1voah"},{"rt":850,"stimulus":"<p>Welche Sequenz haben Sie als natürlicher empfunden?</p>","key_press":70,"test_part":"response","test_stimulus":{"position":0,"left":"bvh/return-bottle-training3-lines.txt","right":"bvh/vr_prediction_models/model(vcgpdm)-dataset(return-bottle)-mode(ELBO)-parts(1)-dyn(20)-lvm(5)-hold(3)/final-lines.txt","att_check":false},"trial_type":"html-keyboard-response","trial_index":134,"time_elapsed":281139,"internal_node_id":"0.0-8.0-3.31","subject":"7hlpqay18t1voah"},{"rt":834.9999999999418,"stimulus":"<p>Bereit?</p>","key_press":32,"trial_type":"html-keyboard-response","trial_index":135,"time_elapsed":281977,"internal_node_id":"0.0-8.0-0.32","subject":"7hlpqay18t1voah"},{"rt":null,"stimulus":"<div style=\"font-size:60px;\">+</div>","key_press":null,"trial_type":"html-keyboard-response","trial_index":136,"time_elapsed":283980,"internal_node_id":"0.0-8.0-1.32","subject":"7hlpqay18t1voah"},{"trial_type":"turing-test","trial_index":137,"time_elapsed":287524,"internal_node_id":"0.0-8.0-2.32","subject":"7hlpqay18t1voah"},{"rt":890,"stimulus":"<p>Welche Sequenz haben Sie als natürlicher empfunden?</p>","key_press":74,"test_part":"response","test_stimulus":{"position":1,"left":"bvh/vr_prediction_models/model(dmp)-dataset(pass-bottle-hold)-npsi(80)-hold(4)/final-lines.txt","right":"bvh/pass-bottle-hold-training4-lines.txt","att_check":false},"trial_type":"html-keyboard-response","trial_index":138,"time_elapsed":288418,"internal_node_id":"0.0-8.0-3.32","subject":"7hlpqay18t1voah"},{"rt":1117,"stimulus":"<p>Bereit?</p>","key_press":32,"trial_type":"html-keyboard-response","trial_index":139,"time_elapsed":289538,"internal_node_id":"0.0-8.0-0.33","subject":"7hlpqay18t1voah"},{"rt":null,"stimulus":"<div style=\"font-size:60px;\">+</div>","key_press":null,"trial_type":"html-keyboard-response","trial_index":140,"time_elapsed":291541,"internal_node_id":"0.0-8.0-1.33","subject":"7hlpqay18t1voah"},{"trial_type":"turing-test","trial_index":141,"time_elapsed":297493,"internal_node_id":"0.0-8.0-2.33","subject":"7hlpqay18t1voah"},{"rt":2786,"stimulus":"<p>Welche Sequenz haben Sie als natürlicher empfunden?</p>","key_press":74,"test_part":"response","test_stimulus":{"position":0,"left":"bvh/pass-bottle-training2-lines.txt","right":"bvh/vr_prediction_models/model(vcgpdm)-dataset(pass-bottle)-mode(ELBO)-parts(1)-dyn(35)-lvm(10)-hold(2)/final-lines.txt","att_check":false},"trial_type":"html-keyboard-response","trial_index":142,"time_elapsed":300283,"internal_node_id":"0.0-8.0-3.33","subject":"7hlpqay18t1voah"},{"rt":540,"stimulus":"<p>Bereit?</p>","key_press":32,"trial_type":"html-keyboard-response","trial_index":143,"time_elapsed":300825,"internal_node_id":"0.0-8.0-0.34","subject":"7hlpqay18t1voah"},{"rt":null,"stimulus":"<div style=\"font-size:60px;\">+</div>","key_press":null,"trial_type":"html-keyboard-response","trial_index":144,"time_elapsed":302828,"internal_node_id":"0.0-8.0-1.34","subject":"7hlpqay18t1voah"},{"trial_type":"turing-test","trial_index":145,"time_elapsed":306394,"internal_node_id":"0.0-8.0-2.34","subject":"7hlpqay18t1voah"},{"rt":1132.0000000000582,"stimulus":"<p>Welche Sequenz haben Sie als natürlicher empfunden?</p>","key_press":74,"test_part":"response","test_stimulus":{"position":1,"left":"bvh/vr_prediction_models/model(tmp)-dataset(pass-bottle-hold)-numprim(9)-hold(4)/final-lines.txt","right":"bvh/pass-bottle-hold-training4-lines.txt","att_check":false},"trial_type":"html-keyboard-response","trial_index":146,"time_elapsed":307530,"internal_node_id":"0.0-8.0-3.34","subject":"7hlpqay18t1voah"},{"rt":621,"stimulus":"<p>Bereit?</p>","key_press":32,"trial_type":"html-keyboard-response","trial_index":147,"time_elapsed":308154,"internal_node_id":"0.0-8.0-0.35","subject":"7hlpqay18t1voah"},{"rt":null,"stimulus":"<div style=\"font-size:60px;\">+</div>","key_press":null,"trial_type":"html-keyboard-response","trial_index":148,"time_elapsed":310157,"internal_node_id":"0.0-8.0-1.35","subject":"7hlpqay18t1voah"},{"trial_type":"turing-test","trial_index":149,"time_elapsed":316843,"internal_node_id":"0.0-8.0-2.35","subject":"7hlpqay18t1voah"},{"rt":724.0000000000582,"stimulus":"<p>Welche Sequenz haben Sie als natürlicher empfunden?</p>","key_press":74,"test_part":"response","test_stimulus":{"position":1,"left":"bvh/vr_prediction_models/model(dmp)-dataset(pass-bottle)-npsi(20)-hold(0)/final-lines.txt","right":"bvh/pass-bottle-training0-lines.txt","att_check":false},"trial_type":"html-keyboard-response","trial_index":150,"time_elapsed":317571,"internal_node_id":"0.0-8.0-3.35","subject":"7hlpqay18t1voah"},{"rt":587,"stimulus":"<p>Bereit?</p>","key_press":32,"trial_type":"html-keyboard-response","trial_index":151,"time_elapsed":318162,"internal_node_id":"0.0-8.0-0.36","subject":"7hlpqay18t1voah"},{"rt":null,"stimulus":"<div style=\"font-size:60px;\">+</div>","key_press":null,"trial_type":"html-keyboard-response","trial_index":152,"time_elapsed":320164,"internal_node_id":"0.0-8.0-1.36","subject":"7hlpqay18t1voah"},{"trial_type":"turing-test","trial_index":153,"time_elapsed":323329,"internal_node_id":"0.0-8.0-2.36","subject":"7hlpqay18t1voah"},{"rt":838,"stimulus":"<p>Welche Sequenz haben Sie als natürlicher empfunden?</p>","key_press":74,"test_part":"response","test_stimulus":{"position":0,"left":"bvh/pass-bottle-hold-training1-lines.txt","right":"bvh/vr_prediction_models/model(dmp)-dataset(pass-bottle-hold)-npsi(90)-hold(1)/final-lines.txt","att_check":false},"trial_type":"html-keyboard-response","trial_index":154,"time_elapsed":324170,"internal_node_id":"0.0-8.0-3.36","subject":"7hlpqay18t1voah"},{"rt":372,"stimulus":"<p>Bereit?</p>","key_press":32,"trial_type":"html-keyboard-response","trial_index":155,"time_elapsed":324546,"internal_node_id":"0.0-8.0-0.37","subject":"7hlpqay18t1voah"},{"rt":null,"stimulus":"<div style=\"font-size:60px;\">+</div>","key_press":null,"trial_type":"html-keyboard-response","trial_index":156,"time_elapsed":326549,"internal_node_id":"0.0-8.0-1.37","subject":"7hlpqay18t1voah"},{"trial_type":"turing-test","trial_index":157,"time_elapsed":332257,"internal_node_id":"0.0-8.0-2.37","subject":"7hlpqay18t1voah"},{"rt":1808,"stimulus":"<p>Welche Sequenz haben Sie als natürlicher empfunden?</p>","key_press":70,"test_part":"response","test_stimulus":{"position":1,"left":"bvh/vr_prediction_models/model(tmp)-dataset(return-bottle)-numprim(6)-hold(4)/final-lines.txt","right":"bvh/return-bottle-training4-lines.txt","att_check":false},"trial_type":"html-keyboard-response","trial_index":158,"time_elapsed":334069,"internal_node_id":"0.0-8.0-3.37","subject":"7hlpqay18t1voah"},{"rt":602.9999999999418,"stimulus":"<p>Bereit?</p>","key_press":32,"trial_type":"html-keyboard-response","trial_index":159,"time_elapsed":334674,"internal_node_id":"0.0-8.0-0.38","subject":"7hlpqay18t1voah"},{"rt":null,"stimulus":"<div style=\"font-size:60px;\">+</div>","key_press":null,"trial_type":"html-keyboard-response","trial_index":160,"time_elapsed":336676,"internal_node_id":"0.0-8.0-1.38","subject":"7hlpqay18t1voah"},{"trial_type":"turing-test","trial_index":161,"time_elapsed":340113,"internal_node_id":"0.0-8.0-2.38","subject":"7hlpqay18t1voah"},{"rt":720,"stimulus":"<p>Welche Sequenz haben Sie als natürlicher empfunden?</p>","key_press":70,"test_part":"response","test_stimulus":{"position":0,"left":"bvh/pass-bottle-hold-training4-lines.txt","right":"bvh/vr_prediction_models/model(dmp)-dataset(pass-bottle-hold)-npsi(80)-hold(4)/final-lines.txt","att_check":false},"trial_type":"html-keyboard-response","trial_index":162,"time_elapsed":340836,"internal_node_id":"0.0-8.0-3.38","subject":"7hlpqay18t1voah"},{"rt":355,"stimulus":"<p>Bereit?</p>","key_press":32,"trial_type":"html-keyboard-response","trial_index":163,"time_elapsed":341194,"internal_node_id":"0.0-8.0-0.39","subject":"7hlpqay18t1voah"},{"rt":null,"stimulus":"<div style=\"font-size:60px;\">+</div>","key_press":null,"trial_type":"html-keyboard-response","trial_index":164,"time_elapsed":343199,"internal_node_id":"0.0-8.0-1.39","subject":"7hlpqay18t1voah"},{"trial_type":"turing-test","trial_index":165,"time_elapsed":346903,"internal_node_id":"0.0-8.0-2.39","subject":"7hlpqay18t1voah"},{"rt":280,"stimulus":"<p>Welche Sequenz haben Sie als natürlicher empfunden?</p>","key_press":74,"test_part":"response","test_stimulus":{"position":1,"left":"bvh/vr_prediction_models/model(dmp)-dataset(pass-bottle-hold)-npsi(40)-hold(3)/final-lines.txt","right":"bvh/pass-bottle-hold-training3-lines.txt","att_check":true},"trial_type":"html-keyboard-response","trial_index":166,"time_elapsed":347187,"internal_node_id":"0.0-8.0-3.39","subject":"7hlpqay18t1voah"},{"rt":421,"stimulus":"<p>Bereit?</p>","key_press":32,"trial_type":"html-keyboard-response","trial_index":167,"time_elapsed":347611,"internal_node_id":"0.0-8.0-0.40","subject":"7hlpqay18t1voah"},{"rt":null,"stimulus":"<div style=\"font-size:60px;\">+</div>","key_press":null,"trial_type":"html-keyboard-response","trial_index":168,"time_elapsed":349614,"internal_node_id":"0.0-8.0-1.40","subject":"7hlpqay18t1voah"},{"trial_type":"turing-test","trial_index":169,"time_elapsed":356068,"internal_node_id":"0.0-8.0-2.40","subject":"7hlpqay18t1voah"},{"rt":1045,"stimulus":"<p>Welche Sequenz haben Sie als natürlicher empfunden?</p>","key_press":70,"test_part":"response","test_stimulus":{"position":0,"left":"bvh/return-bottle-training1-lines.txt","right":"bvh/vr_prediction_models/model(vcgpdm)-dataset(return-bottle)-mode(ELBO)-parts(3)-dyn(30)-lvm(15)-hold(1)/final-lines.txt","att_check":false},"trial_type":"html-keyboard-response","trial_index":170,"time_elapsed":357116,"internal_node_id":"0.0-8.0-3.40","subject":"7hlpqay18t1voah"},{"rt":538.9999999999418,"stimulus":"<p>Bereit?</p>","key_press":32,"trial_type":"html-keyboard-response","trial_index":171,"time_elapsed":357659,"internal_node_id":"0.0-8.0-0.41","subject":"7hlpqay18t1voah"},{"rt":null,"stimulus":"<div style=\"font-size:60px;\">+</div>","key_press":null,"trial_type":"html-keyboard-response","trial_index":172,"time_elapsed":359662,"internal_node_id":"0.0-8.0-1.41","subject":"7hlpqay18t1voah"},{"trial_type":"turing-test","trial_index":173,"time_elapsed":365224,"internal_node_id":"0.0-8.0-2.41","subject":"7hlpqay18t1voah"},{"rt":440,"stimulus":"<p>Welche Sequenz haben Sie als natürlicher empfunden?</p>","key_press":70,"test_part":"response","test_stimulus":{"position":0,"left":"bvh/return-bottle-training0-lines.txt","right":"bvh/vr_prediction_models/model(dmp)-dataset(return-bottle)-npsi(100)-hold(0)/final-lines.txt","att_check":false},"trial_type":"html-keyboard-response","trial_index":174,"time_elapsed":365668,"internal_node_id":"0.0-8.0-3.41","subject":"7hlpqay18t1voah"},{"rt":365,"stimulus":"<p>Bereit?</p>","key_press":32,"trial_type":"html-keyboard-response","trial_index":175,"time_elapsed":366035,"internal_node_id":"0.0-8.0-0.42","subject":"7hlpqay18t1voah"},{"rt":null,"stimulus":"<div style=\"font-size:60px;\">+</div>","key_press":null,"trial_type":"html-keyboard-response","trial_index":176,"time_elapsed":368038,"internal_node_id":"0.0-8.0-1.42","subject":"7hlpqay18t1voah"},{"trial_type":"turing-test","trial_index":177,"time_elapsed":374013,"internal_node_id":"0.0-8.0-2.42","subject":"7hlpqay18t1voah"},{"rt":693.0000000000582,"stimulus":"<p>Welche Sequenz haben Sie als natürlicher empfunden?</p>","key_press":74,"test_part":"response","test_stimulus":{"position":1,"left":"bvh/vr_prediction_models/model(vcgpdm)-dataset(return-bottle)-mode(ELBO)-parts(1)-dyn(20)-lvm(20)-hold(3)/final-lines.txt","right":"bvh/return-bottle-training3-lines.txt","att_check":false},"trial_type":"html-keyboard-response","trial_index":178,"time_elapsed":374709,"internal_node_id":"0.0-8.0-3.42","subject":"7hlpqay18t1voah"},{"rt":395,"stimulus":"<p>Bereit?</p>","key_press":32,"trial_type":"html-keyboard-response","trial_index":179,"time_elapsed":375107,"internal_node_id":"0.0-8.0-0.43","subject":"7hlpqay18t1voah"},{"rt":null,"stimulus":"<div style=\"font-size:60px;\">+</div>","key_press":null,"trial_type":"html-keyboard-response","trial_index":180,"time_elapsed":377109,"internal_node_id":"0.0-8.0-1.43","subject":"7hlpqay18t1voah"},{"trial_type":"turing-test","trial_index":181,"time_elapsed":381292,"internal_node_id":"0.0-8.0-2.43","subject":"7hlpqay18t1voah"},{"rt":525,"stimulus":"<p>Welche Sequenz haben Sie als natürlicher empfunden?</p>","key_press":70,"test_part":"response","test_stimulus":{"position":0,"left":"bvh/pass-bottle-hold-training3-lines.txt","right":"bvh/vr_prediction_models/model(vcgpdm)-dataset(pass-bottle-hold)-mode(MAP)-parts(1)-hold(3)/final-lines.txt","att_check":false},"trial_type":"html-keyboard-response","trial_index":182,"time_elapsed":381821,"internal_node_id":"0.0-8.0-3.43","subject":"7hlpqay18t1voah"},{"rt":500,"stimulus":"<p>Bereit?</p>","key_press":32,"trial_type":"html-keyboard-response","trial_index":183,"time_elapsed":382324,"internal_node_id":"0.0-8.0-0.44","subject":"7hlpqay18t1voah"},{"rt":null,"stimulus":"<div style=\"font-size:60px;\">+</div>","key_press":null,"trial_type":"html-keyboard-response","trial_index":184,"time_elapsed":384326,"internal_node_id":"0.0-8.0-1.44","subject":"7hlpqay18t1voah"},{"trial_type":"turing-test","trial_index":185,"time_elapsed":387601,"internal_node_id":"0.0-8.0-2.44","subject":"7hlpqay18t1voah"},{"rt":520,"stimulus":"<p>Welche Sequenz haben Sie als natürlicher empfunden?</p>","key_press":74,"test_part":"response","test_stimulus":{"position":1,"left":"bvh/vr_prediction_models/model(vcgpdm)-dataset(pass-bottle-hold)-mode(ELBO)-parts(1)-dyn(35)-lvm(30)-hold(1)/final-lines.txt","right":"bvh/pass-bottle-hold-training1-lines.txt","att_check":false},"trial_type":"html-keyboard-response","trial_index":186,"time_elapsed":388124,"internal_node_id":"0.0-8.0-3.44","subject":"7hlpqay18t1voah"},{"rt":339.9999999999418,"stimulus":"<p>Bereit?</p>","key_press":32,"trial_type":"html-keyboard-response","trial_index":187,"time_elapsed":388468,"internal_node_id":"0.0-8.0-0.45","subject":"7hlpqay18t1voah"},{"rt":null,"stimulus":"<div style=\"font-size:60px;\">+</div>","key_press":null,"trial_type":"html-keyboard-response","trial_index":188,"time_elapsed":390470,"internal_node_id":"0.0-8.0-1.45","subject":"7hlpqay18t1voah"},{"trial_type":"turing-test","trial_index":189,"time_elapsed":397323,"internal_node_id":"0.0-8.0-2.45","subject":"7hlpqay18t1voah"},{"rt":384.0000000000582,"stimulus":"<p>Welche Sequenz haben Sie als natürlicher empfunden?</p>","key_press":74,"test_part":"response","test_stimulus":{"position":1,"left":"bvh/vr_prediction_models/model(vcgpdm)-dataset(pass-bottle)-mode(ELBO)-parts(1)-dyn(25)-lvm(35)-hold(0)/final-lines.txt","right":"bvh/pass-bottle-training0-lines.txt","att_check":false},"trial_type":"html-keyboard-response","trial_index":190,"time_elapsed":397710,"internal_node_id":"0.0-8.0-3.45","subject":"7hlpqay18t1voah"},{"rt":355.0000000000582,"stimulus":"<p>Bereit?</p>","key_press":32,"trial_type":"html-keyboard-response","trial_index":191,"time_elapsed":398068,"internal_node_id":"0.0-8.0-0.46","subject":"7hlpqay18t1voah"},{"rt":null,"stimulus":"<div style=\"font-size:60px;\">+</div>","key_press":null,"trial_type":"html-keyboard-response","trial_index":192,"time_elapsed":400071,"internal_node_id":"0.0-8.0-1.46","subject":"7hlpqay18t1voah"},{"trial_type":"turing-test","trial_index":193,"time_elapsed":403670,"internal_node_id":"0.0-8.0-2.46","subject":"7hlpqay18t1voah"},{"rt":554,"stimulus":"<p>Welche Sequenz haben Sie als natürlicher empfunden?</p>","key_press":70,"test_part":"response","test_stimulus":{"position":0,"left":"bvh/return-bottle-hold-training3-lines.txt","right":"bvh/vr_prediction_models/model(dmp)-dataset(return-bottle-hold)-npsi(60)-hold(3)/final-lines.txt","att_check":false},"trial_type":"html-keyboard-response","trial_index":194,"time_elapsed":404228,"internal_node_id":"0.0-8.0-3.46","subject":"7hlpqay18t1voah"},{"rt":332,"stimulus":"<p>Bereit?</p>","key_press":32,"trial_type":"html-keyboard-response","trial_index":195,"time_elapsed":404564,"internal_node_id":"0.0-8.0-0.47","subject":"7hlpqay18t1voah"},{"rt":null,"stimulus":"<div style=\"font-size:60px;\">+</div>","key_press":null,"trial_type":"html-keyboard-response","trial_index":196,"time_elapsed":406566,"internal_node_id":"0.0-8.0-1.47","subject":"7hlpqay18t1voah"},{"trial_type":"turing-test","trial_index":197,"time_elapsed":412006,"internal_node_id":"0.0-8.0-2.47","subject":"7hlpqay18t1voah"},{"rt":395,"stimulus":"<p>Welche Sequenz haben Sie als natürlicher empfunden?</p>","key_press":70,"test_part":"response","test_stimulus":{"position":0,"left":"bvh/pass-bottle-training1-lines.txt","right":"bvh/vr_prediction_models/model(vcgpdm)-dataset(pass-bottle)-mode(ELBO)-parts(3)-dyn(15)-lvm(30)-hold(1)/final-lines.txt","att_check":false},"trial_type":"html-keyboard-response","trial_index":198,"time_elapsed":412405,"internal_node_id":"0.0-8.0-3.47","subject":"7hlpqay18t1voah"},{"rt":348.9999999999418,"stimulus":"<p>Bereit?</p>","key_press":32,"trial_type":"html-keyboard-response","trial_index":199,"time_elapsed":412756,"internal_node_id":"0.0-8.0-0.48","subject":"7hlpqay18t1voah"},{"rt":null,"stimulus":"<div style=\"font-size:60px;\">+</div>","key_press":null,"trial_type":"html-keyboard-response","trial_index":200,"time_elapsed":414759,"internal_node_id":"0.0-8.0-1.48","subject":"7hlpqay18t1voah"},{"trial_type":"turing-test","trial_index":201,"time_elapsed":420149,"internal_node_id":"0.0-8.0-2.48","subject":"7hlpqay18t1voah"},{"rt":525,"stimulus":"<p>Welche Sequenz haben Sie als natürlicher empfunden?</p>","key_press":74,"test_part":"response","test_stimulus":{"position":1,"left":"bvh/vr_prediction_models/model(dmp)-dataset(pass-bottle)-npsi(100)-hold(1)/final-lines.txt","right":"bvh/pass-bottle-training1-lines.txt","att_check":false},"trial_type":"html-keyboard-response","trial_index":202,"time_elapsed":420677,"internal_node_id":"0.0-8.0-3.48","subject":"7hlpqay18t1voah"},{"rt":324,"stimulus":"<p>Bereit?</p>","key_press":32,"trial_type":"html-keyboard-response","trial_index":203,"time_elapsed":421004,"internal_node_id":"0.0-8.0-0.49","subject":"7hlpqay18t1voah"},{"rt":null,"stimulus":"<div style=\"font-size:60px;\">+</div>","key_press":null,"trial_type":"html-keyboard-response","trial_index":204,"time_elapsed":423007,"internal_node_id":"0.0-8.0-1.49","subject":"7hlpqay18t1voah"},{"trial_type":"turing-test","trial_index":205,"time_elapsed":429119,"internal_node_id":"0.0-8.0-2.49","subject":"7hlpqay18t1voah"},{"rt":362,"stimulus":"<p>Welche Sequenz haben Sie als natürlicher empfunden?</p>","key_press":74,"test_part":"response","test_stimulus":{"position":1,"left":"bvh/vr_prediction_models/model(tmp)-dataset(pass-bottle)-numprim(8)-hold(4)/final-lines.txt","right":"bvh/pass-bottle-training4-lines.txt","att_check":false},"trial_type":"html-keyboard-response","trial_index":206,"time_elapsed":429485,"internal_node_id":"0.0-8.0-3.49","subject":"7hlpqay18t1voah"},{"rt":373,"stimulus":"<p>Bereit?</p>","key_press":32,"trial_type":"html-keyboard-response","trial_index":207,"time_elapsed":429861,"internal_node_id":"0.0-8.0-0.50","subject":"7hlpqay18t1voah"},{"rt":null,"stimulus":"<div style=\"font-size:60px;\">+</div>","key_press":null,"trial_type":"html-keyboard-response","trial_index":208,"time_elapsed":431865,"internal_node_id":"0.0-8.0-1.50","subject":"7hlpqay18t1voah"},{"trial_type":"turing-test","trial_index":209,"time_elapsed":438628,"internal_node_id":"0.0-8.0-2.50","subject":"7hlpqay18t1voah"},{"rt":360.0000000000582,"stimulus":"<p>Welche Sequenz haben Sie als natürlicher empfunden?</p>","key_press":70,"test_part":"response","test_stimulus":{"position":0,"left":"bvh/return-bottle-training2-lines.txt","right":"bvh/vr_prediction_models/model(tmp)-dataset(return-bottle)-numprim(3)-hold(2)/final-lines.txt","att_check":false},"trial_type":"html-keyboard-response","trial_index":210,"time_elapsed":438992,"internal_node_id":"0.0-8.0-3.50","subject":"7hlpqay18t1voah"},{"rt":321,"stimulus":"<p>Bereit?</p>","key_press":32,"trial_type":"html-keyboard-response","trial_index":211,"time_elapsed":439317,"internal_node_id":"0.0-8.0-0.51","subject":"7hlpqay18t1voah"},{"rt":null,"stimulus":"<div style=\"font-size:60px;\">+</div>","key_press":null,"trial_type":"html-keyboard-response","trial_index":212,"time_elapsed":441320,"internal_node_id":"0.0-8.0-1.51","subject":"7hlpqay18t1voah"},{"trial_type":"turing-test","trial_index":213,"time_elapsed":444587,"internal_node_id":"0.0-8.0-2.51","subject":"7hlpqay18t1voah"},{"rt":599,"stimulus":"<p>Welche Sequenz haben Sie als natürlicher empfunden?</p>","key_press":74,"test_part":"response","test_stimulus":{"position":1,"left":"bvh/vr_prediction_models/model(tmp)-dataset(pass-bottle-hold)-numprim(10)-hold(2)/final-lines.txt","right":"bvh/pass-bottle-hold-training2-lines.txt","att_check":false},"trial_type":"html-keyboard-response","trial_index":214,"time_elapsed":445190,"internal_node_id":"0.0-8.0-3.51","subject":"7hlpqay18t1voah"},{"rt":324,"stimulus":"<p>Bereit?</p>","key_press":32,"trial_type":"html-keyboard-response","trial_index":215,"time_elapsed":445517,"internal_node_id":"0.0-8.0-0.52","subject":"7hlpqay18t1voah"},{"rt":null,"stimulus":"<div style=\"font-size:60px;\">+</div>","key_press":null,"trial_type":"html-keyboard-response","trial_index":216,"time_elapsed":447520,"internal_node_id":"0.0-8.0-1.52","subject":"7hlpqay18t1voah"},{"trial_type":"turing-test","trial_index":217,"time_elapsed":451340,"internal_node_id":"0.0-8.0-2.52","subject":"7hlpqay18t1voah"},{"rt":429,"stimulus":"<p>Welche Sequenz haben Sie als natürlicher empfunden?</p>","key_press":74,"test_part":"response","test_stimulus":{"position":0,"left":"bvh/pass-bottle-hold-training4-lines.txt","right":"bvh/vr_prediction_models/model(tmp)-dataset(pass-bottle-hold)-numprim(10)-hold(4)/final-lines.txt","att_check":false},"trial_type":"html-keyboard-response","trial_index":218,"time_elapsed":451773,"internal_node_id":"0.0-8.0-3.52","subject":"7hlpqay18t1voah"},{"rt":309,"stimulus":"<p>Bereit?</p>","key_press":32,"trial_type":"html-keyboard-response","trial_index":219,"time_elapsed":452085,"internal_node_id":"0.0-8.0-0.53","subject":"7hlpqay18t1voah"},{"rt":null,"stimulus":"<div style=\"font-size:60px;\">+</div>","key_press":null,"trial_type":"html-keyboard-response","trial_index":220,"time_elapsed":454087,"internal_node_id":"0.0-8.0-1.53","subject":"7hlpqay18t1voah"},{"trial_type":"turing-test","trial_index":221,"time_elapsed":460388,"internal_node_id":"0.0-8.0-2.53","subject":"7hlpqay18t1voah"},{"rt":382.9999999999418,"stimulus":"<p>Welche Sequenz haben Sie als natürlicher empfunden?</p>","key_press":74,"test_part":"response","test_stimulus":{"position":1,"left":"bvh/vr_prediction_models/model(tmp)-dataset(pass-bottle)-numprim(13)-hold(2)/final-lines.txt","right":"bvh/pass-bottle-training2-lines.txt","att_check":false},"trial_type":"html-keyboard-response","trial_index":222,"time_elapsed":460775,"internal_node_id":"0.0-8.0-3.53","subject":"7hlpqay18t1voah"},{"rt":610.9999999999418,"stimulus":"<p>Bereit?</p>","key_press":32,"trial_type":"html-keyboard-response","trial_index":223,"time_elapsed":461390,"internal_node_id":"0.0-8.0-0.54","subject":"7hlpqay18t1voah"},{"rt":null,"stimulus":"<div style=\"font-size:60px;\">+</div>","key_press":null,"trial_type":"html-keyboard-response","trial_index":224,"time_elapsed":463392,"internal_node_id":"0.0-8.0-1.54","subject":"7hlpqay18t1voah"},{"trial_type":"turing-test","trial_index":225,"time_elapsed":466773,"internal_node_id":"0.0-8.0-2.54","subject":"7hlpqay18t1voah"},{"rt":477.0000000000582,"stimulus":"<p>Welche Sequenz haben Sie als natürlicher empfunden?</p>","key_press":74,"test_part":"response","test_stimulus":{"position":0,"left":"bvh/pass-bottle-hold-training0-lines.txt","right":"bvh/vr_prediction_models/model(dmp)-dataset(pass-bottle-hold)-npsi(40)-hold(0)/final-lines.txt","att_check":false},"trial_type":"html-keyboard-response","trial_index":226,"time_elapsed":467255,"internal_node_id":"0.0-8.0-3.54","subject":"7hlpqay18t1voah"},{"rt":355,"stimulus":"<p>Bereit?</p>","key_press":32,"trial_type":"html-keyboard-response","trial_index":227,"time_elapsed":467613,"internal_node_id":"0.0-8.0-0.55","subject":"7hlpqay18t1voah"},{"rt":null,"stimulus":"<div style=\"font-size:60px;\">+</div>","key_press":null,"trial_type":"html-keyboard-response","trial_index":228,"time_elapsed":469615,"internal_node_id":"0.0-8.0-1.55","subject":"7hlpqay18t1voah"},{"trial_type":"turing-test","trial_index":229,"time_elapsed":473390,"internal_node_id":"0.0-8.0-2.55","subject":"7hlpqay18t1voah"},{"rt":348,"stimulus":"<p>Welche Sequenz haben Sie als natürlicher empfunden?</p>","key_press":74,"test_part":"response","test_stimulus":{"position":0,"left":"bvh/return-bottle-hold-training4-lines.txt","right":"bvh/vr_prediction_models/model(tmp)-dataset(return-bottle-hold)-numprim(9)-hold(4)/final-lines.txt","att_check":false},"trial_type":"html-keyboard-response","trial_index":230,"time_elapsed":473742,"internal_node_id":"0.0-8.0-3.55","subject":"7hlpqay18t1voah"},{"rt":397.0000000000582,"stimulus":"<p>Bereit?</p>","key_press":32,"trial_type":"html-keyboard-response","trial_index":231,"time_elapsed":474142,"internal_node_id":"0.0-8.0-0.56","subject":"7hlpqay18t1voah"},{"rt":null,"stimulus":"<div style=\"font-size:60px;\">+</div>","key_press":null,"trial_type":"html-keyboard-response","trial_index":232,"time_elapsed":476144,"internal_node_id":"0.0-8.0-1.56","subject":"7hlpqay18t1voah"},{"trial_type":"turing-test","trial_index":233,"time_elapsed":479918,"internal_node_id":"0.0-8.0-2.56","subject":"7hlpqay18t1voah"},{"rt":620,"stimulus":"<p>Welche Sequenz haben Sie als natürlicher empfunden?</p>","key_press":74,"test_part":"response","test_stimulus":{"position":1,"left":"bvh/vr_prediction_models/model(vcgpdm)-dataset(pass-bottle-hold)-mode(ELBO)-parts(1)-dyn(15)-lvm(35)-hold(4)/final-lines.txt","right":"bvh/pass-bottle-hold-training4-lines.txt","att_check":false},"trial_type":"html-keyboard-response","trial_index":234,"time_elapsed":480543,"internal_node_id":"0.0-8.0-3.56","subject":"7hlpqay18t1voah"},{"rt":709,"stimulus":"<p>Bereit?</p>","key_press":32,"trial_type":"html-keyboard-response","trial_index":235,"time_elapsed":481254,"internal_node_id":"0.0-8.0-0.57","subject":"7hlpqay18t1voah"},{"rt":null,"stimulus":"<div style=\"font-size:60px;\">+</div>","key_press":null,"trial_type":"html-keyboard-response","trial_index":236,"time_elapsed":483257,"internal_node_id":"0.0-8.0-1.57","subject":"7hlpqay18t1voah"},{"trial_type":"turing-test","trial_index":237,"time_elapsed":487150,"internal_node_id":"0.0-8.0-2.57","subject":"7hlpqay18t1voah"},{"rt":503,"stimulus":"<p>Welche Sequenz haben Sie als natürlicher empfunden?</p>","key_press":74,"test_part":"response","test_stimulus":{"position":1,"left":"bvh/vr_prediction_models/model(vcgpdm)-dataset(pass-bottle-hold)-mode(ELBO)-parts(1)-dyn(10)-lvm(25)-hold(4)/final-lines.txt","right":"bvh/pass-bottle-hold-training4-lines.txt","att_check":false},"trial_type":"html-keyboard-response","trial_index":238,"time_elapsed":487657,"internal_node_id":"0.0-8.0-3.57","subject":"7hlpqay18t1voah"},{"rt":346,"stimulus":"<p>Bereit?</p>","key_press":32,"trial_type":"html-keyboard-response","trial_index":239,"time_elapsed":488006,"internal_node_id":"0.0-8.0-0.58","subject":"7hlpqay18t1voah"},{"rt":null,"stimulus":"<div style=\"font-size:60px;\">+</div>","key_press":null,"trial_type":"html-keyboard-response","trial_index":240,"time_elapsed":490009,"internal_node_id":"0.0-8.0-1.58","subject":"7hlpqay18t1voah"},{"trial_type":"turing-test","trial_index":241,"time_elapsed":496708,"internal_node_id":"0.0-8.0-2.58","subject":"7hlpqay18t1voah"},{"rt":646.9999999999418,"stimulus":"<p>Welche Sequenz haben Sie als natürlicher empfunden?</p>","key_press":74,"test_part":"response","test_stimulus":{"position":1,"left":"bvh/vr_prediction_models/model(vcgpdm)-dataset(pass-bottle)-mode(ELBO)-parts(1)-dyn(10)-lvm(30)-hold(3)/final-lines.txt","right":"bvh/pass-bottle-training3-lines.txt","att_check":false},"trial_type":"html-keyboard-response","trial_index":242,"time_elapsed":497359,"internal_node_id":"0.0-8.0-3.58","subject":"7hlpqay18t1voah"},{"rt":348.9999999999418,"stimulus":"<p>Bereit?</p>","key_press":32,"trial_type":"html-keyboard-response","trial_index":243,"time_elapsed":497710,"internal_node_id":"0.0-8.0-0.59","subject":"7hlpqay18t1voah"},{"rt":null,"stimulus":"<div style=\"font-size:60px;\">+</div>","key_press":null,"trial_type":"html-keyboard-response","trial_index":244,"time_elapsed":499712,"internal_node_id":"0.0-8.0-1.59","subject":"7hlpqay18t1voah"},{"trial_type":"turing-test","trial_index":245,"time_elapsed":506402,"internal_node_id":"0.0-8.0-2.59","subject":"7hlpqay18t1voah"},{"rt":521,"stimulus":"<p>Welche Sequenz haben Sie als natürlicher empfunden?</p>","key_press":70,"test_part":"response","test_stimulus":{"position":0,"left":"bvh/return-bottle-training2-lines.txt","right":"bvh/vr_prediction_models/model(dmp)-dataset(return-bottle)-npsi(100)-hold(2)/final-lines.txt","att_check":false},"trial_type":"html-keyboard-response","trial_index":246,"time_elapsed":506927,"internal_node_id":"0.0-8.0-3.59","subject":"7hlpqay18t1voah"},{"rt":413,"stimulus":"<p>Bereit?</p>","key_press":32,"trial_type":"html-keyboard-response","trial_index":247,"time_elapsed":507342,"internal_node_id":"0.0-8.0-0.60","subject":"7hlpqay18t1voah"},{"rt":null,"stimulus":"<div style=\"font-size:60px;\">+</div>","key_press":null,"trial_type":"html-keyboard-response","trial_index":248,"time_elapsed":509345,"internal_node_id":"0.0-8.0-1.60","subject":"7hlpqay18t1voah"},{"trial_type":"turing-test","trial_index":249,"time_elapsed":515421,"internal_node_id":"0.0-8.0-2.60","subject":"7hlpqay18t1voah"},{"rt":493.0000000000582,"stimulus":"<p>Welche Sequenz haben Sie als natürlicher empfunden?</p>","key_press":74,"test_part":"response","test_stimulus":{"position":1,"left":"bvh/vr_prediction_models/model(tmp)-dataset(pass-bottle)-numprim(3)-hold(2)/final-lines.txt","right":"bvh/pass-bottle-training2-lines.txt","att_check":false},"trial_type":"html-keyboard-response","trial_index":250,"time_elapsed":515919,"internal_node_id":"0.0-8.0-3.60","subject":"7hlpqay18t1voah"},{"rt":317,"stimulus":"<p>Bereit?</p>","key_press":32,"trial_type":"html-keyboard-response","trial_index":251,"time_elapsed":516239,"internal_node_id":"0.0-8.0-0.61","subject":"7hlpqay18t1voah"},{"rt":null,"stimulus":"<div style=\"font-size:60px;\">+</div>","key_press":null,"trial_type":"html-keyboard-response","trial_index":252,"time_elapsed":518240,"internal_node_id":"0.0-8.0-1.61","subject":"7hlpqay18t1voah"},{"trial_type":"turing-test","trial_index":253,"time_elapsed":523993,"internal_node_id":"0.0-8.0-2.61","subject":"7hlpqay18t1voah"},{"rt":410,"stimulus":"<p>Welche Sequenz haben Sie als natürlicher empfunden?</p>","key_press":70,"test_part":"response","test_stimulus":{"position":0,"left":"bvh/pass-bottle-training3-lines.txt","right":"bvh/vr_prediction_models/model(dmp)-dataset(pass-bottle)-npsi(70)-hold(3)/final-lines.txt","att_check":false},"trial_type":"html-keyboard-response","trial_index":254,"time_elapsed":524407,"internal_node_id":"0.0-8.0-3.61","subject":"7hlpqay18t1voah"},{"rt":477,"stimulus":"<p>Bereit?</p>","key_press":32,"trial_type":"html-keyboard-response","trial_index":255,"time_elapsed":524888,"internal_node_id":"0.0-8.0-0.62","subject":"7hlpqay18t1voah"},{"rt":null,"stimulus":"<div style=\"font-size:60px;\">+</div>","key_press":null,"trial_type":"html-keyboard-response","trial_index":256,"time_elapsed":526891,"internal_node_id":"0.0-8.0-1.62","subject":"7hlpqay18t1voah"},{"trial_type":"turing-test","trial_index":257,"time_elapsed":533121,"internal_node_id":"0.0-8.0-2.62","subject":"7hlpqay18t1voah"},{"rt":2179.9999999998836,"stimulus":"<p>Welche Sequenz haben Sie als natürlicher empfunden?</p>","key_press":70,"test_part":"response","test_stimulus":{"position":0,"left":"bvh/return-bottle-training1-lines.txt","right":"bvh/vr_prediction_models/model(vcgpdm)-dataset(return-bottle)-mode(ELBO)-parts(1)-dyn(30)-lvm(30)-hold(1)/final-lines.txt","att_check":false},"trial_type":"html-keyboard-response","trial_index":258,"time_elapsed":535305,"internal_node_id":"0.0-8.0-3.62","subject":"7hlpqay18t1voah"},{"rt":499,"stimulus":"<p>Bereit?</p>","key_press":32,"trial_type":"html-keyboard-response","trial_index":259,"time_elapsed":535807,"internal_node_id":"0.0-8.0-0.63","subject":"7hlpqay18t1voah"},{"rt":null,"stimulus":"<div style=\"font-size:60px;\">+</div>","key_press":null,"trial_type":"html-keyboard-response","trial_index":260,"time_elapsed":537809,"internal_node_id":"0.0-8.0-1.63","subject":"7hlpqay18t1voah"},{"trial_type":"turing-test","trial_index":261,"time_elapsed":541287,"internal_node_id":"0.0-8.0-2.63","subject":"7hlpqay18t1voah"},{"rt":621,"stimulus":"<p>Welche Sequenz haben Sie als natürlicher empfunden?</p>","key_press":74,"test_part":"response","test_stimulus":{"position":0,"left":"bvh/pass-bottle-hold-training3-lines.txt","right":"bvh/vr_prediction_models/model(dmp)-dataset(pass-bottle-hold)-npsi(50)-hold(3)/final-lines.txt","att_check":false},"trial_type":"html-keyboard-response","trial_index":262,"time_elapsed":541912,"internal_node_id":"0.0-8.0-3.63","subject":"7hlpqay18t1voah"},{"rt":292,"stimulus":"<p>Bereit?</p>","key_press":32,"trial_type":"html-keyboard-response","trial_index":263,"time_elapsed":542207,"internal_node_id":"0.0-8.0-0.64","subject":"7hlpqay18t1voah"},{"rt":null,"stimulus":"<div style=\"font-size:60px;\">+</div>","key_press":null,"trial_type":"html-keyboard-response","trial_index":264,"time_elapsed":544210,"internal_node_id":"0.0-8.0-1.64","subject":"7hlpqay18t1voah"},{"trial_type":"turing-test","trial_index":265,"time_elapsed":550241,"internal_node_id":"0.0-8.0-2.64","subject":"7hlpqay18t1voah"},{"rt":604,"stimulus":"<p>Welche Sequenz haben Sie als natürlicher empfunden?</p>","key_press":70,"test_part":"response","test_stimulus":{"position":0,"left":"bvh/return-bottle-training1-lines.txt","right":"bvh/vr_prediction_models/model(dmp)-dataset(return-bottle)-npsi(80)-hold(1)/final-lines.txt","att_check":false},"trial_type":"html-keyboard-response","trial_index":266,"time_elapsed":550849,"internal_node_id":"0.0-8.0-3.64","subject":"7hlpqay18t1voah"},{"rt":403.0000000001164,"stimulus":"<p>Bereit?</p>","key_press":32,"trial_type":"html-keyboard-response","trial_index":267,"time_elapsed":551256,"internal_node_id":"0.0-8.0-0.65","subject":"7hlpqay18t1voah"},{"rt":null,"stimulus":"<div style=\"font-size:60px;\">+</div>","key_press":null,"trial_type":"html-keyboard-response","trial_index":268,"time_elapsed":553259,"internal_node_id":"0.0-8.0-1.65","subject":"7hlpqay18t1voah"},{"trial_type":"turing-test","trial_index":269,"time_elapsed":556660,"internal_node_id":"0.0-8.0-2.65","subject":"7hlpqay18t1voah"},{"rt":568.0000000001164,"stimulus":"<p>Welche Sequenz haben Sie als natürlicher empfunden?</p>","key_press":70,"test_part":"response","test_stimulus":{"position":1,"left":"bvh/vr_prediction_models/model(tmp)-dataset(return-bottle-hold)-numprim(5)-hold(2)/final-lines.txt","right":"bvh/return-bottle-hold-training2-lines.txt","att_check":false},"trial_type":"html-keyboard-response","trial_index":270,"time_elapsed":557232,"internal_node_id":"0.0-8.0-3.65","subject":"7hlpqay18t1voah"},{"rt":340,"stimulus":"<p>Bereit?</p>","key_press":32,"trial_type":"html-keyboard-response","trial_index":271,"time_elapsed":557576,"internal_node_id":"0.0-8.0-0.66","subject":"7hlpqay18t1voah"},{"rt":null,"stimulus":"<div style=\"font-size:60px;\">+</div>","key_press":null,"trial_type":"html-keyboard-response","trial_index":272,"time_elapsed":559579,"internal_node_id":"0.0-8.0-1.66","subject":"7hlpqay18t1voah"},{"trial_type":"turing-test","trial_index":273,"time_elapsed":566789,"internal_node_id":"0.0-8.0-2.66","subject":"7hlpqay18t1voah"},{"rt":543,"stimulus":"<p>Welche Sequenz haben Sie als natürlicher empfunden?</p>","key_press":70,"test_part":"response","test_stimulus":{"position":0,"left":"bvh/return-bottle-training2-lines.txt","right":"bvh/vr_prediction_models/model(vcgpdm)-dataset(return-bottle)-mode(MAP)-parts(1)-hold(2)/final-lines.txt","att_check":false},"trial_type":"html-keyboard-response","trial_index":274,"time_elapsed":567336,"internal_node_id":"0.0-8.0-3.66","subject":"7hlpqay18t1voah"},{"rt":452,"stimulus":"<p>Bereit?</p>","key_press":32,"trial_type":"html-keyboard-response","trial_index":275,"time_elapsed":567792,"internal_node_id":"0.0-8.0-0.67","subject":"7hlpqay18t1voah"},{"rt":null,"stimulus":"<div style=\"font-size:60px;\">+</div>","key_press":null,"trial_type":"html-keyboard-response","trial_index":276,"time_elapsed":569795,"internal_node_id":"0.0-8.0-1.67","subject":"7hlpqay18t1voah"},{"trial_type":"turing-test","trial_index":277,"time_elapsed":574842,"internal_node_id":"0.0-8.0-2.67","subject":"7hlpqay18t1voah"},{"rt":308,"stimulus":"<p>Welche Sequenz haben Sie als natürlicher empfunden?</p>","key_press":70,"test_part":"response","test_stimulus":{"position":0,"left":"bvh/return-bottle-hold-training0-lines.txt","right":"bvh/vr_prediction_models/model(tmp)-dataset(return-bottle-hold)-numprim(8)-hold(0)/final-lines.txt","att_check":false},"trial_type":"html-keyboard-response","trial_index":278,"time_elapsed":575153,"internal_node_id":"0.0-8.0-3.67","subject":"7hlpqay18t1voah"},{"rt":340,"stimulus":"<p>Bereit?</p>","key_press":32,"trial_type":"html-keyboard-response","trial_index":279,"time_elapsed":575496,"internal_node_id":"0.0-8.0-0.68","subject":"7hlpqay18t1voah"},{"rt":null,"stimulus":"<div style=\"font-size:60px;\">+</div>","key_press":null,"trial_type":"html-keyboard-response","trial_index":280,"time_elapsed":577499,"internal_node_id":"0.0-8.0-1.68","subject":"7hlpqay18t1voah"},{"trial_type":"turing-test","trial_index":281,"time_elapsed":583166,"internal_node_id":"0.0-8.0-2.68","subject":"7hlpqay18t1voah"},{"rt":559,"stimulus":"<p>Welche Sequenz haben Sie als natürlicher empfunden?</p>","key_press":70,"test_part":"response","test_stimulus":{"position":0,"left":"bvh/pass-bottle-training4-lines.txt","right":"bvh/vr_prediction_models/model(tmp)-dataset(pass-bottle)-numprim(4)-hold(4)/final-lines.txt","att_check":false},"trial_type":"html-keyboard-response","trial_index":282,"time_elapsed":583729,"internal_node_id":"0.0-8.0-3.68","subject":"7hlpqay18t1voah"},{"rt":314.9999999998836,"stimulus":"<p>Bereit?</p>","key_press":32,"trial_type":"html-keyboard-response","trial_index":283,"time_elapsed":584048,"internal_node_id":"0.0-8.0-0.69","subject":"7hlpqay18t1voah"},{"rt":null,"stimulus":"<div style=\"font-size:60px;\">+</div>","key_press":null,"trial_type":"html-keyboard-response","trial_index":284,"time_elapsed":586051,"internal_node_id":"0.0-8.0-1.69","subject":"7hlpqay18t1voah"},{"trial_type":"turing-test","trial_index":285,"time_elapsed":589847,"internal_node_id":"0.0-8.0-2.69","subject":"7hlpqay18t1voah"},{"rt":423,"stimulus":"<p>Welche Sequenz haben Sie als natürlicher empfunden?</p>","key_press":74,"test_part":"response","test_stimulus":{"position":0,"left":"bvh/pass-bottle-hold-training3-lines.txt","right":"bvh/vr_prediction_models/model(vcgpdm)-dataset(pass-bottle-hold)-mode(MAP)-parts(3)-hold(3)/final-lines.txt","att_check":false},"trial_type":"html-keyboard-response","trial_index":286,"time_elapsed":590273,"internal_node_id":"0.0-8.0-3.69","subject":"7hlpqay18t1voah"},{"rt":556,"stimulus":"<p>Bereit?</p>","key_press":32,"trial_type":"html-keyboard-response","trial_index":287,"time_elapsed":590832,"internal_node_id":"0.0-8.0-0.70","subject":"7hlpqay18t1voah"},{"rt":null,"stimulus":"<div style=\"font-size:60px;\">+</div>","key_press":null,"trial_type":"html-keyboard-response","trial_index":288,"time_elapsed":592834,"internal_node_id":"0.0-8.0-1.70","subject":"7hlpqay18t1voah"},{"trial_type":"turing-test","trial_index":289,"time_elapsed":596647,"internal_node_id":"0.0-8.0-2.70","subject":"7hlpqay18t1voah"},{"rt":623,"stimulus":"<p>Welche Sequenz haben Sie als natürlicher empfunden?</p>","key_press":70,"test_part":"response","test_stimulus":{"position":0,"left":"bvh/return-bottle-hold-training3-lines.txt","right":"bvh/vr_prediction_models/model(vcgpdm)-dataset(return-bottle-hold)-mode(MAP)-parts(3)-hold(3)/final-lines.txt","att_check":false},"trial_type":"html-keyboard-response","trial_index":290,"time_elapsed":597274,"internal_node_id":"0.0-8.0-3.70","subject":"7hlpqay18t1voah"},{"rt":323,"stimulus":"<p>Bereit?</p>","key_press":32,"trial_type":"html-keyboard-response","trial_index":291,"time_elapsed":597600,"internal_node_id":"0.0-8.0-0.71","subject":"7hlpqay18t1voah"},{"rt":null,"stimulus":"<div style=\"font-size:60px;\">+</div>","key_press":null,"trial_type":"html-keyboard-response","trial_index":292,"time_elapsed":599602,"internal_node_id":"0.0-8.0-1.71","subject":"7hlpqay18t1voah"},{"trial_type":"turing-test","trial_index":293,"time_elapsed":602861,"internal_node_id":"0.0-8.0-2.71","subject":"7hlpqay18t1voah"},{"rt":864,"stimulus":"<p>Welche Sequenz haben Sie als natürlicher empfunden?</p>","key_press":74,"test_part":"response","test_stimulus":{"position":0,"left":"bvh/pass-bottle-hold-training2-lines.txt","right":"bvh/vr_prediction_models/model(tmp)-dataset(pass-bottle-hold)-numprim(9)-hold(2)/final-lines.txt","att_check":false},"trial_type":"html-keyboard-response","trial_index":294,"time_elapsed":603729,"internal_node_id":"0.0-8.0-3.71","subject":"7hlpqay18t1voah"},{"rt":381,"stimulus":"<p>Bereit?</p>","key_press":32,"trial_type":"html-keyboard-response","trial_index":295,"time_elapsed":604113,"internal_node_id":"0.0-8.0-0.72","subject":"7hlpqay18t1voah"},{"rt":null,"stimulus":"<div style=\"font-size:60px;\">+</div>","key_press":null,"trial_type":"html-keyboard-response","trial_index":296,"time_elapsed":606114,"internal_node_id":"0.0-8.0-1.72","subject":"7hlpqay18t1voah"},{"trial_type":"turing-test","trial_index":297,"time_elapsed":612067,"internal_node_id":"0.0-8.0-2.72","subject":"7hlpqay18t1voah"},{"rt":667,"stimulus":"<p>Welche Sequenz haben Sie als natürlicher empfunden?</p>","key_press":74,"test_part":"response","test_stimulus":{"position":0,"left":"bvh/pass-bottle-training2-lines.txt","right":"bvh/vr_prediction_models/model(vcgpdm)-dataset(pass-bottle)-mode(ELBO)-parts(1)-dyn(35)-lvm(10)-hold(2)/final-lines.txt","att_check":false},"trial_type":"html-keyboard-response","trial_index":298,"time_elapsed":612738,"internal_node_id":"0.0-8.0-3.72","subject":"7hlpqay18t1voah"},{"rt":483,"stimulus":"<p>Bereit?</p>","key_press":32,"trial_type":"html-keyboard-response","trial_index":299,"time_elapsed":613225,"internal_node_id":"0.0-8.0-0.73","subject":"7hlpqay18t1voah"},{"rt":null,"stimulus":"<div style=\"font-size:60px;\">+</div>","key_press":null,"trial_type":"html-keyboard-response","trial_index":300,"time_elapsed":615228,"internal_node_id":"0.0-8.0-1.73","subject":"7hlpqay18t1voah"},{"trial_type":"turing-test","trial_index":301,"time_elapsed":621492,"internal_node_id":"0.0-8.0-2.73","subject":"7hlpqay18t1voah"},{"rt":426,"stimulus":"<p>Welche Sequenz haben Sie als natürlicher empfunden?</p>","key_press":74,"test_part":"response","test_stimulus":{"position":1,"left":"bvh/vr_prediction_models/model(vcgpdm)-dataset(pass-bottle)-mode(ELBO)-parts(3)-dyn(20)-lvm(15)-hold(2)/final-lines.txt","right":"bvh/pass-bottle-training2-lines.txt","att_check":false},"trial_type":"html-keyboard-response","trial_index":302,"time_elapsed":621923,"internal_node_id":"0.0-8.0-3.73","subject":"7hlpqay18t1voah"},{"rt":403.0000000001164,"stimulus":"<p>Bereit?</p>","key_press":32,"trial_type":"html-keyboard-response","trial_index":303,"time_elapsed":622329,"internal_node_id":"0.0-8.0-0.74","subject":"7hlpqay18t1voah"},{"rt":null,"stimulus":"<div style=\"font-size:60px;\">+</div>","key_press":null,"trial_type":"html-keyboard-response","trial_index":304,"time_elapsed":624332,"internal_node_id":"0.0-8.0-1.74","subject":"7hlpqay18t1voah"},{"trial_type":"turing-test","trial_index":305,"time_elapsed":630733,"internal_node_id":"0.0-8.0-2.74","subject":"7hlpqay18t1voah"},{"rt":506,"stimulus":"<p>Welche Sequenz haben Sie als natürlicher empfunden?</p>","key_press":74,"test_part":"response","test_stimulus":{"position":0,"left":"bvh/return-bottle-training2-lines.txt","right":"bvh/vr_prediction_models/model(tmp)-dataset(return-bottle)-numprim(3)-hold(2)/final-lines.txt","att_check":false},"trial_type":"html-keyboard-response","trial_index":306,"time_elapsed":631243,"internal_node_id":"0.0-8.0-3.74","subject":"7hlpqay18t1voah"},{"rt":339,"stimulus":"<p>Bereit?</p>","key_press":32,"trial_type":"html-keyboard-response","trial_index":307,"time_elapsed":631585,"internal_node_id":"0.0-8.0-0.75","subject":"7hlpqay18t1voah"},{"rt":null,"stimulus":"<div style=\"font-size:60px;\">+</div>","key_press":null,"trial_type":"html-keyboard-response","trial_index":308,"time_elapsed":633587,"internal_node_id":"0.0-8.0-1.75","subject":"7hlpqay18t1voah"},{"trial_type":"turing-test","trial_index":309,"time_elapsed":638825,"internal_node_id":"0.0-8.0-2.75","subject":"7hlpqay18t1voah"},{"rt":589,"stimulus":"<p>Welche Sequenz haben Sie als natürlicher empfunden?</p>","key_press":70,"test_part":"response","test_stimulus":{"position":0,"left":"bvh/return-bottle-training0-lines.txt","right":"bvh/vr_prediction_models/model(dmp)-dataset(return-bottle)-npsi(100)-hold(0)/final-lines.txt","att_check":true},"trial_type":"html-keyboard-response","trial_index":310,"time_elapsed":639418,"internal_node_id":"0.0-8.0-3.75","subject":"7hlpqay18t1voah"},{"rt":533,"stimulus":"<p>Bereit?</p>","key_press":32,"trial_type":"html-keyboard-response","trial_index":311,"time_elapsed":639953,"internal_node_id":"0.0-8.0-0.76","subject":"7hlpqay18t1voah"},{"rt":null,"stimulus":"<div style=\"font-size:60px;\">+</div>","key_press":null,"trial_type":"html-keyboard-response","trial_index":312,"time_elapsed":641956,"internal_node_id":"0.0-8.0-1.76","subject":"7hlpqay18t1voah"},{"trial_type":"turing-test","trial_index":313,"time_elapsed":645155,"internal_node_id":"0.0-8.0-2.76","subject":"7hlpqay18t1voah"},{"rt":467,"stimulus":"<p>Welche Sequenz haben Sie als natürlicher empfunden?</p>","key_press":74,"test_part":"response","test_stimulus":{"position":1,"left":"bvh/vr_prediction_models/model(vcgpdm)-dataset(pass-bottle-hold)-mode(ELBO)-parts(1)-dyn(20)-lvm(30)-hold(0)/final-lines.txt","right":"bvh/pass-bottle-hold-training0-lines.txt","att_check":false},"trial_type":"html-keyboard-response","trial_index":314,"time_elapsed":645627,"internal_node_id":"0.0-8.0-3.76","subject":"7hlpqay18t1voah"},{"rt":388,"stimulus":"<p>Bereit?</p>","key_press":32,"trial_type":"html-keyboard-response","trial_index":315,"time_elapsed":646018,"internal_node_id":"0.0-8.0-0.77","subject":"7hlpqay18t1voah"},{"rt":null,"stimulus":"<div style=\"font-size:60px;\">+</div>","key_press":null,"trial_type":"html-keyboard-response","trial_index":316,"time_elapsed":648020,"internal_node_id":"0.0-8.0-1.77","subject":"7hlpqay18t1voah"},{"trial_type":"turing-test","trial_index":317,"time_elapsed":651448,"internal_node_id":"0.0-8.0-2.77","subject":"7hlpqay18t1voah"},{"rt":1743,"stimulus":"<p>Welche Sequenz haben Sie als natürlicher empfunden?</p>","key_press":74,"test_part":"response","test_stimulus":{"position":1,"left":"bvh/vr_prediction_models/model(dmp)-dataset(pass-bottle-hold)-npsi(60)-hold(0)/final-lines.txt","right":"bvh/pass-bottle-hold-training0-lines.txt","att_check":false},"trial_type":"html-keyboard-response","trial_index":318,"time_elapsed":653195,"internal_node_id":"0.0-8.0-3.77","subject":"7hlpqay18t1voah"},{"rt":324.0000000001164,"stimulus":"<p>Bereit?</p>","key_press":32,"trial_type":"html-keyboard-response","trial_index":319,"time_elapsed":653522,"internal_node_id":"0.0-8.0-0.78","subject":"7hlpqay18t1voah"},{"rt":null,"stimulus":"<div style=\"font-size:60px;\">+</div>","key_press":null,"trial_type":"html-keyboard-response","trial_index":320,"time_elapsed":655524,"internal_node_id":"0.0-8.0-1.78","subject":"7hlpqay18t1voah"},{"trial_type":"turing-test","trial_index":321,"time_elapsed":659553,"internal_node_id":"0.0-8.0-2.78","subject":"7hlpqay18t1voah"},{"rt":646,"stimulus":"<p>Welche Sequenz haben Sie als natürlicher empfunden?</p>","key_press":74,"test_part":"response","test_stimulus":{"position":1,"left":"bvh/vr_prediction_models/model(vcgpdm)-dataset(return-bottle-hold)-mode(ELBO)-parts(3)-dyn(30)-lvm(15)-hold(2)/final-lines.txt","right":"bvh/return-bottle-hold-training2-lines.txt","att_check":false},"trial_type":"html-keyboard-response","trial_index":322,"time_elapsed":660203,"internal_node_id":"0.0-8.0-3.78","subject":"7hlpqay18t1voah"},{"rt":364,"stimulus":"<p>Bereit?</p>","key_press":32,"trial_type":"html-keyboard-response","trial_index":323,"time_elapsed":660570,"internal_node_id":"0.0-8.0-0.79","subject":"7hlpqay18t1voah"},{"rt":null,"stimulus":"<div style=\"font-size:60px;\">+</div>","key_press":null,"trial_type":"html-keyboard-response","trial_index":324,"time_elapsed":662573,"internal_node_id":"0.0-8.0-1.79","subject":"7hlpqay18t1voah"},{"trial_type":"turing-test","trial_index":325,"time_elapsed":668245,"internal_node_id":"0.0-8.0-2.79","subject":"7hlpqay18t1voah"},{"rt":593.9999999998836,"stimulus":"<p>Welche Sequenz haben Sie als natürlicher empfunden?</p>","key_press":74,"test_part":"response","test_stimulus":{"position":1,"left":"bvh/vr_prediction_models/model(tmp)-dataset(pass-bottle)-numprim(10)-hold(4)/final-lines.txt","right":"bvh/pass-bottle-training4-lines.txt","att_check":false},"trial_type":"html-keyboard-response","trial_index":326,"time_elapsed":668843,"internal_node_id":"0.0-8.0-3.79","subject":"7hlpqay18t1voah"}]