[{"rt":2411,"stimulus":"<p>Welcome!<br> Please choose your language to start the experiment in the chosen language.</p><p>Willkommen!<br> Bitte wählen Sie eine Sprache, um das Experiment in der ausgewählten Sprache zu starten</p>","button_pressed":"1","trial_type":"html-button-response","trial_index":0,"time_elapsed":2427,"internal_node_id":"0.0-0.0","subject":"ahg1zgodo3pqjp6","sona":"7828"},{"view_history":"[{\"page_index\":0,\"viewing_time\":10334},{\"page_index\":1,\"viewing_time\":3772},{\"page_index\":2,\"viewing_time\":7650},{\"page_index\":3,\"viewing_time\":6220},{\"page_index\":4,\"viewing_time\":3809}]","rt":31786,"trial_type":"instructions","trial_index":1,"time_elapsed":34221,"internal_node_id":"0.0-1.0-0.0","subject":"ahg1zgodo3pqjp6","sona":"7828"},{"rt":3015,"stimulus":"<p>Bereit?</p>","key_press":32,"trial_type":"html-keyboard-response","trial_index":2,"time_elapsed":37243,"internal_node_id":"0.0-3.0","subject":"ahg1zgodo3pqjp6","sona":"7828"},{"rt":null,"stimulus":"<div style=\"font-size:60px;\">+</div>","key_press":null,"trial_type":"html-keyboard-response","trial_index":3,"time_elapsed":39264,"internal_node_id":"0.0-4.0","subject":"ahg1zgodo3pqjp6","sona":"7828"},{"trial_type":"training","trial_index":4,"time_elapsed":43665,"internal_node_id":"0.0-5.0","subject":"ahg1zgodo3pqjp6","sona":"7828"},{"rt":3181,"stimulus":"<p>Welche Sequenz haben Sie als natürlicher empfunden?</p>","key_press":70,"trial_type":"html-keyboard-response","trial_index":5,"time_elapsed":46853,"internal_node_id":"0.0-6.0","subject":"ahg1zgodo3pqjp6","sona":"7828"},{"rt":3432,"stimulus":"<p>Das Experiment startet nun.</p><p><small>Bitte drücken Sie den Knopf, wenn Sie bereit sind.</small></p>","button_pressed":"0","trial_type":"html-button-response","trial_index":6,"time_elapsed":50291,"internal_node_id":"0.0-7.0","subject":"ahg1zgodo3pqjp6","sona":"7828"},{"rt":1579,"stimulus":"<p>Bereit?</p>","key_press":32,"trial_type":"html-keyboard-response","trial_index":7,"time_elapsed":51878,"internal_node_id":"0.0-8.0-0.0","subject":"ahg1zgodo3pqjp6","sona":"7828"},{"rt":null,"stimulus":"<div style=\"font-size:60px;\">+</div>","key_press":null,"trial_type":"html-keyboard-response","trial_index":8,"time_elapsed":53895,"internal_node_id":"0.0-8.0-1.0","subject":"ahg1zgodo3pqjp6","sona":"7828"},{"trial_type":"turing-test","trial_index":9,"time_elapsed":60743,"internal_node_id":"0.0-8.0-2.0","subject":"ahg1zgodo3pqjp6","sona":"7828"},{"rt":4990,"stimulus":"<p>Welche Sequenz haben Sie als natürlicher empfunden?</p>","key_press":74,"test_part":"response","test_stimulus":{"position":1,"left":"bvh/vr_prediction_models/model(vcgpdm)-dataset(return-bottle-hold)-mode(ELBO)-parts(1)-dyn(20)-lvm(20)-hold(2)/final-lines.txt","right":"bvh/return-bottle-hold-training2-lines.txt","att_check":false},"trial_type":"html-keyboard-response","trial_index":10,"time_elapsed":65740,"internal_node_id":"0.0-8.0-3.0","subject":"ahg1zgodo3pqjp6","sona":"7828"},{"rt":952,"stimulus":"<p>Bereit?</p>","key_press":32,"trial_type":"html-keyboard-response","trial_index":11,"time_elapsed":66698,"internal_node_id":"0.0-8.0-0.1","subject":"ahg1zgodo3pqjp6","sona":"7828"},{"rt":null,"stimulus":"<div style=\"font-size:60px;\">+</div>","key_press":null,"trial_type":"html-keyboard-response","trial_index":12,"time_elapsed":68712,"internal_node_id":"0.0-8.0-1.1","subject":"ahg1zgodo3pqjp6","sona":"7828"},{"trial_type":"turing-test","trial_index":13,"time_elapsed":77999,"internal_node_id":"0.0-8.0-2.1","subject":"ahg1zgodo3pqjp6","sona":"7828"},{"rt":658,"stimulus":"<p>Welche Sequenz haben Sie als natürlicher empfunden?</p>","key_press":74,"test_part":"response","test_stimulus":{"position":0,"left":"bvh/return-bottle-training3-lines.txt","right":"bvh/vr_prediction_models/model(vcgpdm)-dataset(return-bottle)-mode(ELBO)-parts(3)-dyn(30)-lvm(15)-hold(3)/final-lines.txt","att_check":false},"trial_type":"html-keyboard-response","trial_index":14,"time_elapsed":78665,"internal_node_id":"0.0-8.0-3.1","subject":"ahg1zgodo3pqjp6","sona":"7828"},{"rt":1054,"stimulus":"<p>Bereit?</p>","key_press":32,"trial_type":"html-keyboard-response","trial_index":15,"time_elapsed":79726,"internal_node_id":"0.0-8.0-0.2","subject":"ahg1zgodo3pqjp6","sona":"7828"},{"rt":null,"stimulus":"<div style=\"font-size:60px;\">+</div>","key_press":null,"trial_type":"html-keyboard-response","trial_index":16,"time_elapsed":81739,"internal_node_id":"0.0-8.0-1.2","subject":"ahg1zgodo3pqjp6","sona":"7828"},{"trial_type":"turing-test","trial_index":17,"time_elapsed":85651,"internal_node_id":"0.0-8.0-2.2","subject":"ahg1zgodo3pqjp6","sona":"7828"},{"rt":992,"stimulus":"<p>Welche Sequenz haben Sie als natürlicher empfunden?</p>","key_press":74,"test_part":"response","test_stimulus":{"position":0,"left":"bvh/return-bottle-hold-training1-lines.txt","right":"bvh/vr_prediction_models/model(tmp)-dataset(return-bottle-hold)-numprim(12)-hold(1)/final-lines.txt","att_check":false},"trial_type":"html-keyboard-response","trial_index":18,"time_elapsed":86648,"internal_node_id":"0.0-8.0-3.2","subject":"ahg1zgodo3pqjp6","sona":"7828"},{"rt":982,"stimulus":"<p>Bereit?</p>","key_press":32,"trial_type":"html-keyboard-response","trial_index":19,"time_elapsed":87636,"internal_node_id":"0.0-8.0-0.3","subject":"ahg1zgodo3pqjp6","sona":"7828"},{"rt":null,"stimulus":"<div style=\"font-size:60px;\">+</div>","key_press":null,"trial_type":"html-keyboard-response","trial_index":20,"time_elapsed":89651,"internal_node_id":"0.0-8.0-1.3","subject":"ahg1zgodo3pqjp6","sona":"7828"},{"trial_type":"turing-test","trial_index":21,"time_elapsed":98684,"internal_node_id":"0.0-8.0-2.3","subject":"ahg1zgodo3pqjp6","sona":"7828"},{"rt":667,"stimulus":"<p>Welche Sequenz haben Sie als natürlicher empfunden?</p>","key_press":70,"test_part":"response","test_stimulus":{"position":0,"left":"bvh/return-bottle-training0-lines.txt","right":"bvh/vr_prediction_models/model(vcgpdm)-dataset(return-bottle)-mode(ELBO)-parts(3)-dyn(25)-lvm(15)-hold(0)/final-lines.txt","att_check":false},"trial_type":"html-keyboard-response","trial_index":22,"time_elapsed":99361,"internal_node_id":"0.0-8.0-3.3","subject":"ahg1zgodo3pqjp6","sona":"7828"},{"rt":940,"stimulus":"<p>Bereit?</p>","key_press":32,"trial_type":"html-keyboard-response","trial_index":23,"time_elapsed":100307,"internal_node_id":"0.0-8.0-0.4","subject":"ahg1zgodo3pqjp6","sona":"7828"},{"rt":null,"stimulus":"<div style=\"font-size:60px;\">+</div>","key_press":null,"trial_type":"html-keyboard-response","trial_index":24,"time_elapsed":102315,"internal_node_id":"0.0-8.0-1.4","subject":"ahg1zgodo3pqjp6","sona":"7828"},{"trial_type":"turing-test","trial_index":25,"time_elapsed":109265,"internal_node_id":"0.0-8.0-2.4","subject":"ahg1zgodo3pqjp6","sona":"7828"},{"rt":1953,"stimulus":"<p>Welche Sequenz haben Sie als natürlicher empfunden?</p>","key_press":70,"test_part":"response","test_stimulus":{"position":1,"left":"bvh/vr_prediction_models/model(vcgpdm)-dataset(pass-bottle-hold)-mode(ELBO)-parts(1)-dyn(25)-lvm(35)-hold(2)/final-lines.txt","right":"bvh/pass-bottle-hold-training2-lines.txt","att_check":false},"trial_type":"html-keyboard-response","trial_index":26,"time_elapsed":111224,"internal_node_id":"0.0-8.0-3.4","subject":"ahg1zgodo3pqjp6","sona":"7828"},{"rt":829,"stimulus":"<p>Bereit?</p>","key_press":32,"trial_type":"html-keyboard-response","trial_index":27,"time_elapsed":112057,"internal_node_id":"0.0-8.0-0.5","subject":"ahg1zgodo3pqjp6","sona":"7828"},{"rt":null,"stimulus":"<div style=\"font-size:60px;\">+</div>","key_press":null,"trial_type":"html-keyboard-response","trial_index":28,"time_elapsed":114076,"internal_node_id":"0.0-8.0-1.5","subject":"ahg1zgodo3pqjp6","sona":"7828"},{"trial_type":"turing-test","trial_index":29,"time_elapsed":120735,"internal_node_id":"0.0-8.0-2.5","subject":"ahg1zgodo3pqjp6","sona":"7828"},{"rt":790,"stimulus":"<p>Welche Sequenz haben Sie als natürlicher empfunden?</p>","key_press":74,"test_part":"response","test_stimulus":{"position":1,"left":"bvh/vr_prediction_models/model(tmp)-dataset(return-bottle)-numprim(9)-hold(4)/final-lines.txt","right":"bvh/return-bottle-training4-lines.txt","att_check":false},"trial_type":"html-keyboard-response","trial_index":30,"time_elapsed":121531,"internal_node_id":"0.0-8.0-3.5","subject":"ahg1zgodo3pqjp6","sona":"7828"},{"rt":925,"stimulus":"<p>Bereit?</p>","key_press":32,"trial_type":"html-keyboard-response","trial_index":31,"time_elapsed":122459,"internal_node_id":"0.0-8.0-0.6","subject":"ahg1zgodo3pqjp6","sona":"7828"},{"rt":null,"stimulus":"<div style=\"font-size:60px;\">+</div>","key_press":null,"trial_type":"html-keyboard-response","trial_index":32,"time_elapsed":124475,"internal_node_id":"0.0-8.0-1.6","subject":"ahg1zgodo3pqjp6","sona":"7828"},{"trial_type":"turing-test","trial_index":33,"time_elapsed":128068,"internal_node_id":"0.0-8.0-2.6","subject":"ahg1zgodo3pqjp6","sona":"7828"},{"rt":615,"stimulus":"<p>Welche Sequenz haben Sie als natürlicher empfunden?</p>","key_press":70,"test_part":"response","test_stimulus":{"position":0,"left":"bvh/return-bottle-hold-training1-lines.txt","right":"bvh/vr_prediction_models/model(dmp)-dataset(return-bottle-hold)-npsi(50)-hold(1)/final-lines.txt","att_check":false},"trial_type":"html-keyboard-response","trial_index":34,"time_elapsed":128689,"internal_node_id":"0.0-8.0-3.6","subject":"ahg1zgodo3pqjp6","sona":"7828"},{"rt":863,"stimulus":"<p>Bereit?</p>","key_press":32,"trial_type":"html-keyboard-response","trial_index":35,"time_elapsed":129556,"internal_node_id":"0.0-8.0-0.7","subject":"ahg1zgodo3pqjp6","sona":"7828"},{"rt":null,"stimulus":"<div style=\"font-size:60px;\">+</div>","key_press":null,"trial_type":"html-keyboard-response","trial_index":36,"time_elapsed":131568,"internal_node_id":"0.0-8.0-1.7","subject":"ahg1zgodo3pqjp6","sona":"7828"},{"trial_type":"turing-test","trial_index":37,"time_elapsed":140099,"internal_node_id":"0.0-8.0-2.7","subject":"ahg1zgodo3pqjp6","sona":"7828"},{"rt":433,"stimulus":"<p>Welche Sequenz haben Sie als natürlicher empfunden?</p>","key_press":70,"test_part":"response","test_stimulus":{"position":0,"left":"bvh/return-bottle-training0-lines.txt","right":"bvh/vr_prediction_models/model(vcgpdm)-dataset(return-bottle)-mode(ELBO)-parts(1)-dyn(20)-lvm(20)-hold(0)/final-lines.txt","att_check":false},"trial_type":"html-keyboard-response","trial_index":38,"time_elapsed":140537,"internal_node_id":"0.0-8.0-3.7","subject":"ahg1zgodo3pqjp6","sona":"7828"},{"rt":1224,"stimulus":"<p>Bereit?</p>","key_press":32,"trial_type":"html-keyboard-response","trial_index":39,"time_elapsed":141768,"internal_node_id":"0.0-8.0-0.8","subject":"ahg1zgodo3pqjp6","sona":"7828"},{"rt":null,"stimulus":"<div style=\"font-size:60px;\">+</div>","key_press":null,"trial_type":"html-keyboard-response","trial_index":40,"time_elapsed":143775,"internal_node_id":"0.0-8.0-1.8","subject":"ahg1zgodo3pqjp6","sona":"7828"},{"trial_type":"turing-test","trial_index":41,"time_elapsed":147388,"internal_node_id":"0.0-8.0-2.8","subject":"ahg1zgodo3pqjp6","sona":"7828"},{"rt":3273,"stimulus":"<p>Welche Sequenz haben Sie als natürlicher empfunden?</p>","key_press":70,"test_part":"response","test_stimulus":{"position":1,"left":"bvh/vr_prediction_models/model(dmp)-dataset(pass-bottle-hold)-npsi(60)-hold(0)/final-lines.txt","right":"bvh/pass-bottle-hold-training0-lines.txt","att_check":false},"trial_type":"html-keyboard-response","trial_index":42,"time_elapsed":150667,"internal_node_id":"0.0-8.0-3.8","subject":"ahg1zgodo3pqjp6","sona":"7828"},{"rt":662,"stimulus":"<p>Bereit?</p>","key_press":32,"trial_type":"html-keyboard-response","trial_index":43,"time_elapsed":151333,"internal_node_id":"0.0-8.0-0.9","subject":"ahg1zgodo3pqjp6","sona":"7828"},{"rt":null,"stimulus":"<div style=\"font-size:60px;\">+</div>","key_press":null,"trial_type":"html-keyboard-response","trial_index":44,"time_elapsed":153339,"internal_node_id":"0.0-8.0-1.9","subject":"ahg1zgodo3pqjp6","sona":"7828"},{"trial_type":"turing-test","trial_index":45,"time_elapsed":157001,"internal_node_id":"0.0-8.0-2.9","subject":"ahg1zgodo3pqjp6","sona":"7828"},{"rt":583,"stimulus":"<p>Welche Sequenz haben Sie als natürlicher empfunden?</p>","key_press":74,"test_part":"response","test_stimulus":{"position":1,"left":"bvh/vr_prediction_models/model(dmp)-dataset(pass-bottle-hold)-npsi(70)-hold(2)/final-lines.txt","right":"bvh/pass-bottle-hold-training2-lines.txt","att_check":false},"trial_type":"html-keyboard-response","trial_index":46,"time_elapsed":157593,"internal_node_id":"0.0-8.0-3.9","subject":"ahg1zgodo3pqjp6","sona":"7828"},{"rt":820,"stimulus":"<p>Bereit?</p>","key_press":32,"trial_type":"html-keyboard-response","trial_index":47,"time_elapsed":158422,"internal_node_id":"0.0-8.0-0.10","subject":"ahg1zgodo3pqjp6","sona":"7828"},{"rt":null,"stimulus":"<div style=\"font-size:60px;\">+</div>","key_press":null,"trial_type":"html-keyboard-response","trial_index":48,"time_elapsed":160441,"internal_node_id":"0.0-8.0-1.10","subject":"ahg1zgodo3pqjp6","sona":"7828"},{"trial_type":"turing-test","trial_index":49,"time_elapsed":167497,"internal_node_id":"0.0-8.0-2.10","subject":"ahg1zgodo3pqjp6","sona":"7828"},{"rt":847,"stimulus":"<p>Welche Sequenz haben Sie als natürlicher empfunden?</p>","key_press":74,"test_part":"response","test_stimulus":{"position":1,"left":"bvh/vr_prediction_models/model(tmp)-dataset(pass-bottle)-numprim(13)-hold(2)/final-lines.txt","right":"bvh/pass-bottle-training2-lines.txt","att_check":false},"trial_type":"html-keyboard-response","trial_index":50,"time_elapsed":168350,"internal_node_id":"0.0-8.0-3.10","subject":"ahg1zgodo3pqjp6","sona":"7828"},{"rt":1133,"stimulus":"<p>Bereit?</p>","key_press":32,"trial_type":"html-keyboard-response","trial_index":51,"time_elapsed":169488,"internal_node_id":"0.0-8.0-0.11","subject":"ahg1zgodo3pqjp6","sona":"7828"},{"rt":null,"stimulus":"<div style=\"font-size:60px;\">+</div>","key_press":null,"trial_type":"html-keyboard-response","trial_index":52,"time_elapsed":171507,"internal_node_id":"0.0-8.0-1.11","subject":"ahg1zgodo3pqjp6","sona":"7828"},{"trial_type":"turing-test","trial_index":53,"time_elapsed":174797,"internal_node_id":"0.0-8.0-2.11","subject":"ahg1zgodo3pqjp6","sona":"7828"}]