[{"rt":983,"stimulus":"<p>Welcome!<br> Please choose your language to start the experiment in the chosen language.</p><p>Willkommen!<br> Bitte wählen Sie eine Sprache um das Experiment in der ausgewählten Sprache zu starten</p>","button_pressed":"1","trial_type":"html-button-response","trial_index":0,"time_elapsed":994,"internal_node_id":"0.0-0.0","subject":"x2kwukss3paod9f"},{"view_history":"[{\"page_index\":0,\"viewing_time\":382},{\"page_index\":1,\"viewing_time\":761},{\"page_index\":2,\"viewing_time\":920},{\"page_index\":3,\"viewing_time\":650}]","rt":2713,"trial_type":"instructions","trial_index":1,"time_elapsed":3708,"internal_node_id":"0.0-1.0","subject":"x2kwukss3paod9f"},{"rt":782,"stimulus":"<p>Bereit?</p>","button_pressed":"0","trial_type":"html-button-response","trial_index":2,"time_elapsed":4491,"internal_node_id":"0.0-2.0","subject":"x2kwukss3paod9f"},{"rt":null,"stimulus":"<div style=\"font-size:60px;\">+</div>","key_press":null,"trial_type":"html-keyboard-response","trial_index":3,"time_elapsed":6496,"internal_node_id":"0.0-3.0","subject":"x2kwukss3paod9f"},{"trial_type":"training","trial_index":4,"time_elapsed":10533,"internal_node_id":"0.0-4.0","subject":"x2kwukss3paod9f"},{"rt":1123,"stimulus":"<p>Welche Sequenz haben Sie als natürlicher empfunden?</p>","button_pressed":"0","trial_type":"html-button-response","trial_index":5,"time_elapsed":11660,"internal_node_id":"0.0-5.0","subject":"x2kwukss3paod9f"},{"rt":2785,"stimulus":"<p>Das Experiment startet nun.</p><p> Bitte drücken Sie den Knopf, wenn Sie bereit sind.</p>","button_pressed":"0","trial_type":"html-button-response","trial_index":6,"time_elapsed":14446,"internal_node_id":"0.0-6.0","subject":"x2kwukss3paod9f"},{"rt":1958,"stimulus":"<p>Bereit?</p>","button_pressed":"0","trial_type":"html-button-response","trial_index":7,"time_elapsed":16405,"internal_node_id":"0.0-7.0-0.0","subject":"x2kwukss3paod9f"},{"rt":null,"stimulus":"<div style=\"font-size:60px;\">+</div>","key_press":null,"trial_type":"html-keyboard-response","trial_index":8,"time_elapsed":18409,"internal_node_id":"0.0-7.0-1.0","subject":"x2kwukss3paod9f"},{"trial_type":"turing-test","trial_index":9,"time_elapsed":22631,"internal_node_id":"0.0-7.0-2.0","subject":"x2kwukss3paod9f"},{"rt":1056,"stimulus":"<p>Welche Sequenz haben Sie als natürlicher empfunden?</p>","button_pressed":"1","test_part":"response","test_stimulus":{"position":1,"left":"bvh/vr_prediction_models/model(dmp)-dataset(return-bottle-hold)-npsi(20)-hold(4)/final-lines.txt","right":"bvh/return-bottle-hold-training4-lines.txt","att_check":true},"trial_type":"html-button-response","trial_index":10,"time_elapsed":23690,"internal_node_id":"0.0-7.0-3.0","subject":"x2kwukss3paod9f"},{"rt":12471,"stimulus":"<p>Bereit?</p>","button_pressed":"0","trial_type":"html-button-response","trial_index":11,"time_elapsed":36162,"internal_node_id":"0.0-7.0-0.1","subject":"x2kwukss3paod9f"},{"rt":null,"stimulus":"<div style=\"font-size:60px;\">+</div>","key_press":null,"trial_type":"html-keyboard-response","trial_index":12,"time_elapsed":38168,"internal_node_id":"0.0-7.0-1.1","subject":"x2kwukss3paod9f"},{"trial_type":"turing-test","trial_index":13,"time_elapsed":43685,"internal_node_id":"0.0-7.0-2.1","subject":"x2kwukss3paod9f"}]