[{"rt":1509,"stimulus":"<p>Welcome!<br> Please choose your language to start the experiment in the chosen language.</p><p>Willkommen!<br> Bitte wählen Sie eine Sprache um das Experiment in der ausgewählten Sprache zu starten</p>","button_pressed":"1","trial_type":"html-button-response","trial_index":0,"time_elapsed":1516,"internal_node_id":"0.0-0.0","subject":"qcsx88zcoj4qgcu","sona":"3973"},{"view_history":"[{\"page_index\":0,\"viewing_time\":330},{\"page_index\":1,\"viewing_time\":672},{\"page_index\":2,\"viewing_time\":784},{\"page_index\":3,\"viewing_time\":633}]","rt":2420,"trial_type":"instructions","trial_index":1,"time_elapsed":3937,"internal_node_id":"0.0-1.0-0.0","subject":"qcsx88zcoj4qgcu","sona":"3973"},{"rt":631,"stimulus":"<p>Bereit?</p>","button_pressed":"0","trial_type":"html-button-response","trial_index":2,"time_elapsed":4570,"internal_node_id":"0.0-3.0","subject":"qcsx88zcoj4qgcu","sona":"3973"},{"rt":null,"stimulus":"<div style=\"font-size:60px;\">+</div>","key_press":null,"trial_type":"html-keyboard-response","trial_index":3,"time_elapsed":6574,"internal_node_id":"0.0-4.0","subject":"qcsx88zcoj4qgcu","sona":"3973"},{"trial_type":"training","trial_index":4,"time_elapsed":9830,"internal_node_id":"0.0-5.0","subject":"qcsx88zcoj4qgcu","sona":"3973"},{"rt":769,"stimulus":"<p>Welche Sequenz haben Sie als natürlicher empfunden?</p>","button_pressed":"0","trial_type":"html-button-response","trial_index":5,"time_elapsed":10600,"internal_node_id":"0.0-6.0","subject":"qcsx88zcoj4qgcu","sona":"3973"},{"rt":926,"stimulus":"<p>Das Experiment startet nun.</p><p> Bitte drücken Sie den Knopf, wenn Sie bereit sind.</p>","button_pressed":"0","trial_type":"html-button-response","trial_index":6,"time_elapsed":11527,"internal_node_id":"0.0-7.0","subject":"qcsx88zcoj4qgcu","sona":"3973"},{"rt":809,"stimulus":"<p>Bereit?</p>","button_pressed":"0","trial_type":"html-button-response","trial_index":7,"time_elapsed":12337,"internal_node_id":"0.0-8.0-0.0","subject":"qcsx88zcoj4qgcu","sona":"3973"},{"rt":null,"stimulus":"<div style=\"font-size:60px;\">+</div>","key_press":null,"trial_type":"html-keyboard-response","trial_index":8,"time_elapsed":14344,"internal_node_id":"0.0-8.0-1.0","subject":"qcsx88zcoj4qgcu","sona":"3973"},{"trial_type":"turing-test","trial_index":9,"time_elapsed":20120,"internal_node_id":"0.0-8.0-2.0","subject":"qcsx88zcoj4qgcu","sona":"3973"},{"rt":738,"stimulus":"<p>Welche Sequenz haben Sie als natürlicher empfunden?</p>","button_pressed":"0","test_part":"response","test_stimulus":{"position":0,"left":"bvh/return-bottle-training4-lines.txt","right":"bvh/vr_prediction_models/model(dmp)-dataset(return-bottle)-npsi(80)-hold(4)/final-lines.txt","att_check":true},"trial_type":"html-button-response","trial_index":10,"time_elapsed":20861,"internal_node_id":"0.0-8.0-3.0","subject":"qcsx88zcoj4qgcu","sona":"3973"},{"rt":589,"stimulus":"<p>Bereit?</p>","button_pressed":"0","trial_type":"html-button-response","trial_index":11,"time_elapsed":21452,"internal_node_id":"0.0-8.0-0.1","subject":"qcsx88zcoj4qgcu","sona":"3973"},{"rt":null,"stimulus":"<div style=\"font-size:60px;\">+</div>","key_press":null,"trial_type":"html-keyboard-response","trial_index":12,"time_elapsed":23455,"internal_node_id":"0.0-8.0-1.1","subject":"qcsx88zcoj4qgcu","sona":"3973"},{"trial_type":"turing-test","trial_index":13,"time_elapsed":26824,"internal_node_id":"0.0-8.0-2.1","subject":"qcsx88zcoj4qgcu","sona":"3973"},{"rt":897,"stimulus":"<p>Welche Sequenz haben Sie als natürlicher empfunden?</p>","button_pressed":"0","test_part":"response","test_stimulus":{"position":0,"left":"bvh/return-bottle-hold-training1-lines.txt","right":"bvh/vr_prediction_models/model(vcgpdm)-dataset(return-bottle-hold)-mode(MAP)-parts(1)-hold(1)/final-lines.txt","att_check":false},"trial_type":"html-button-response","trial_index":14,"time_elapsed":27722,"internal_node_id":"0.0-8.0-3.1","subject":"qcsx88zcoj4qgcu","sona":"3973"}]