[{"rt":2216,"stimulus":"<p>Welcome!<br> Please choose your language to start the experiment in the chosen language.</p><p>Willkommen!<br> Bitte wählen Sie eine Sprache um das Experiment in der ausgewählten Sprache zu starten</p>","button_pressed":"1","trial_type":"html-button-response","trial_index":0,"time_elapsed":2220,"internal_node_id":"0.0-0.0","subject":"kpz4nzms9z915s2"},{"view_history":"[{\"page_index\":0,\"viewing_time\":296},{\"page_index\":1,\"viewing_time\":666},{\"page_index\":2,\"viewing_time\":656.0000000000009},{\"page_index\":3,\"viewing_time\":527.9999999999991}]","rt":2146,"trial_type":"instructions","trial_index":1,"time_elapsed":4369,"internal_node_id":"0.0-1.0-0.0","subject":"kpz4nzms9z915s2"},{"rt":722,"stimulus":"<p>Bereit?</p>","button_pressed":"0","trial_type":"html-button-response","trial_index":2,"time_elapsed":5092,"internal_node_id":"0.0-3.0","subject":"kpz4nzms9z915s2"},{"rt":null,"stimulus":"<div style=\"font-size:60px;\">+</div>","key_press":null,"trial_type":"html-keyboard-response","trial_index":3,"time_elapsed":7096,"internal_node_id":"0.0-4.0","subject":"kpz4nzms9z915s2"},{"trial_type":"training","trial_index":4,"time_elapsed":10295,"internal_node_id":"0.0-5.0","subject":"kpz4nzms9z915s2"},{"rt":754,"stimulus":"<p>Welche Sequenz haben Sie als natürlicher empfunden?</p>","button_pressed":"0","trial_type":"html-button-response","trial_index":5,"time_elapsed":11050,"internal_node_id":"0.0-6.0","subject":"kpz4nzms9z915s2"},{"rt":678.9999999999982,"stimulus":"<p>Das Experiment startet nun.</p><p> Bitte drücken Sie den Knopf, wenn Sie bereit sind.</p>","button_pressed":"0","trial_type":"html-button-response","trial_index":6,"time_elapsed":11730,"internal_node_id":"0.0-7.0","subject":"kpz4nzms9z915s2"},{"rt":575,"stimulus":"<p>Bereit?</p>","button_pressed":"0","trial_type":"html-button-response","trial_index":7,"time_elapsed":12305,"internal_node_id":"0.0-8.0-0.0","subject":"kpz4nzms9z915s2"},{"rt":null,"stimulus":"<div style=\"font-size:60px;\">+</div>","key_press":null,"trial_type":"html-keyboard-response","trial_index":8,"time_elapsed":14309,"internal_node_id":"0.0-8.0-1.0","subject":"kpz4nzms9z915s2"},{"trial_type":"turing-test","trial_index":9,"time_elapsed":17709,"internal_node_id":"0.0-8.0-2.0","subject":"kpz4nzms9z915s2"},{"rt":669,"stimulus":"<p>Welche Sequenz haben Sie als natürlicher empfunden?</p>","button_pressed":"0","test_part":"response","test_stimulus":{"position":0,"left":"bvh/pass-bottle-hold-training2-lines.txt","right":"bvh/vr_prediction_models/model(vcgpdm)-dataset(pass-bottle-hold)-mode(ELBO)-parts(3)-dyn(10)-lvm(25)-hold(2)/final-lines.txt","att_check":false},"trial_type":"html-button-response","trial_index":10,"time_elapsed":18382,"internal_node_id":"0.0-8.0-3.0","subject":"kpz4nzms9z915s2"},{"rt":272,"stimulus":"<p>Bereit?</p>","button_pressed":"0","trial_type":"html-button-response","trial_index":11,"time_elapsed":18657,"internal_node_id":"0.0-8.0-0.1","subject":"kpz4nzms9z915s2"},{"rt":null,"stimulus":"<div style=\"font-size:60px;\">+</div>","key_press":null,"trial_type":"html-keyboard-response","trial_index":12,"time_elapsed":20660,"internal_node_id":"0.0-8.0-1.1","subject":"kpz4nzms9z915s2"},{"trial_type":"turing-test","trial_index":13,"time_elapsed":26441,"internal_node_id":"0.0-8.0-2.1","subject":"kpz4nzms9z915s2"},{"rt":732,"stimulus":"<p>Welche Sequenz haben Sie als natürlicher empfunden?</p>","button_pressed":"0","test_part":"response","test_stimulus":{"position":1,"left":"bvh/vr_prediction_models/model(vcgpdm)-dataset(pass-bottle)-mode(ELBO)-parts(1)-dyn(10)-lvm(25)-hold(4)/final-lines.txt","right":"bvh/pass-bottle-training4-lines.txt","att_check":false},"trial_type":"html-button-response","trial_index":14,"time_elapsed":27178,"internal_node_id":"0.0-8.0-3.1","subject":"kpz4nzms9z915s2"},{"rt":324,"stimulus":"<p>Bereit?</p>","button_pressed":"0","trial_type":"html-button-response","trial_index":15,"time_elapsed":27505,"internal_node_id":"0.0-8.0-0.2","subject":"kpz4nzms9z915s2"},{"rt":null,"stimulus":"<div style=\"font-size:60px;\">+</div>","key_press":null,"trial_type":"html-keyboard-response","trial_index":16,"time_elapsed":29507,"internal_node_id":"0.0-8.0-1.2","subject":"kpz4nzms9z915s2"},{"trial_type":"turing-test","trial_index":17,"time_elapsed":35244,"internal_node_id":"0.0-8.0-2.2","subject":"kpz4nzms9z915s2"},{"rt":580.0000000000073,"stimulus":"<p>Welche Sequenz haben Sie als natürlicher empfunden?</p>","button_pressed":"1","test_part":"response","test_stimulus":{"position":1,"left":"bvh/vr_prediction_models/model(vcgpdm)-dataset(pass-bottle)-mode(ELBO)-parts(1)-dyn(30)-lvm(30)-hold(4)/final-lines.txt","right":"bvh/pass-bottle-training4-lines.txt","att_check":false},"trial_type":"html-button-response","trial_index":18,"time_elapsed":35829,"internal_node_id":"0.0-8.0-3.2","subject":"kpz4nzms9z915s2"},{"rt":615,"stimulus":"<p>Bereit?</p>","button_pressed":"0","trial_type":"html-button-response","trial_index":19,"time_elapsed":36447,"internal_node_id":"0.0-8.0-0.3","subject":"kpz4nzms9z915s2"},{"rt":null,"stimulus":"<div style=\"font-size:60px;\">+</div>","key_press":null,"trial_type":"html-keyboard-response","trial_index":20,"time_elapsed":38450,"internal_node_id":"0.0-8.0-1.3","subject":"kpz4nzms9z915s2"},{"trial_type":"turing-test","trial_index":21,"time_elapsed":43777,"internal_node_id":"0.0-8.0-2.3","subject":"kpz4nzms9z915s2"},{"rt":734,"stimulus":"<p>Welche Sequenz haben Sie als natürlicher empfunden?</p>","button_pressed":"0","test_part":"response","test_stimulus":{"position":0,"left":"bvh/return-bottle-training0-lines.txt","right":"bvh/vr_prediction_models/model(dmp)-dataset(return-bottle)-npsi(100)-hold(0)/final-lines.txt","att_check":false},"trial_type":"html-button-response","trial_index":22,"time_elapsed":44516,"internal_node_id":"0.0-8.0-3.3","subject":"kpz4nzms9z915s2"},{"rt":631,"stimulus":"<p>Bereit?</p>","button_pressed":"0","trial_type":"html-button-response","trial_index":23,"time_elapsed":45149,"internal_node_id":"0.0-8.0-0.4","subject":"kpz4nzms9z915s2"},{"rt":null,"stimulus":"<div style=\"font-size:60px;\">+</div>","key_press":null,"trial_type":"html-keyboard-response","trial_index":24,"time_elapsed":47153,"internal_node_id":"0.0-8.0-1.4","subject":"kpz4nzms9z915s2"},{"trial_type":"turing-test","trial_index":25,"time_elapsed":50485,"internal_node_id":"0.0-8.0-2.4","subject":"kpz4nzms9z915s2"},{"rt":994,"stimulus":"<p>Welche Sequenz haben Sie als natürlicher empfunden?</p>","button_pressed":"0","test_part":"response","test_stimulus":{"position":1,"left":"bvh/vr_prediction_models/model(vcgpdm)-dataset(pass-bottle-hold)-mode(ELBO)-parts(3)-dyn(10)-lvm(25)-hold(1)/final-lines.txt","right":"bvh/pass-bottle-hold-training1-lines.txt","att_check":false},"trial_type":"html-button-response","trial_index":26,"time_elapsed":51483,"internal_node_id":"0.0-8.0-3.4","subject":"kpz4nzms9z915s2"},{"rt":647,"stimulus":"<p>Bereit?</p>","button_pressed":"0","trial_type":"html-button-response","trial_index":27,"time_elapsed":52133,"internal_node_id":"0.0-8.0-0.5","subject":"kpz4nzms9z915s2"},{"rt":null,"stimulus":"<div style=\"font-size:60px;\">+</div>","key_press":null,"trial_type":"html-keyboard-response","trial_index":28,"time_elapsed":54137,"internal_node_id":"0.0-8.0-1.5","subject":"kpz4nzms9z915s2"},{"trial_type":"turing-test","trial_index":29,"time_elapsed":59907,"internal_node_id":"0.0-8.0-2.5","subject":"kpz4nzms9z915s2"},{"rt":786.9999999999927,"stimulus":"<p>Welche Sequenz haben Sie als natürlicher empfunden?</p>","button_pressed":"0","test_part":"response","test_stimulus":{"position":0,"left":"bvh/pass-bottle-training4-lines.txt","right":"bvh/vr_prediction_models/model(vcgpdm)-dataset(pass-bottle)-mode(ELBO)-parts(3)-dyn(25)-lvm(30)-hold(4)/final-lines.txt","att_check":false},"trial_type":"html-button-response","trial_index":30,"time_elapsed":60698,"internal_node_id":"0.0-8.0-3.5","subject":"kpz4nzms9z915s2"},{"rt":253.99999999999272,"stimulus":"<p>Bereit?</p>","button_pressed":"0","trial_type":"html-button-response","trial_index":31,"time_elapsed":60955,"internal_node_id":"0.0-8.0-0.6","subject":"kpz4nzms9z915s2"},{"rt":null,"stimulus":"<div style=\"font-size:60px;\">+</div>","key_press":null,"trial_type":"html-keyboard-response","trial_index":32,"time_elapsed":62958,"internal_node_id":"0.0-8.0-1.6","subject":"kpz4nzms9z915s2"},{"trial_type":"turing-test","trial_index":33,"time_elapsed":68637,"internal_node_id":"0.0-8.0-2.6","subject":"kpz4nzms9z915s2"},{"rt":589.9999999999854,"stimulus":"<p>Welche Sequenz haben Sie als natürlicher empfunden?</p>","button_pressed":"1","test_part":"response","test_stimulus":{"position":1,"left":"bvh/vr_prediction_models/model(dmp)-dataset(pass-bottle)-npsi(60)-hold(4)/final-lines.txt","right":"bvh/pass-bottle-training4-lines.txt","att_check":false},"trial_type":"html-button-response","trial_index":34,"time_elapsed":69232,"internal_node_id":"0.0-8.0-3.6","subject":"kpz4nzms9z915s2"},{"rt":599,"stimulus":"<p>Bereit?</p>","button_pressed":"0","trial_type":"html-button-response","trial_index":35,"time_elapsed":69833,"internal_node_id":"0.0-8.0-0.7","subject":"kpz4nzms9z915s2"},{"rt":null,"stimulus":"<div style=\"font-size:60px;\">+</div>","key_press":null,"trial_type":"html-keyboard-response","trial_index":36,"time_elapsed":71836,"internal_node_id":"0.0-8.0-1.7","subject":"kpz4nzms9z915s2"},{"trial_type":"turing-test","trial_index":37,"time_elapsed":77676,"internal_node_id":"0.0-8.0-2.7","subject":"kpz4nzms9z915s2"},{"rt":739,"stimulus":"<p>Welche Sequenz haben Sie als natürlicher empfunden?</p>","button_pressed":"1","test_part":"response","test_stimulus":{"position":1,"left":"bvh/vr_prediction_models/model(vcgpdm)-dataset(pass-bottle)-mode(ELBO)-parts(3)-dyn(25)-lvm(15)-hold(3)/final-lines.txt","right":"bvh/pass-bottle-training3-lines.txt","att_check":false},"trial_type":"html-button-response","trial_index":38,"time_elapsed":78418,"internal_node_id":"0.0-8.0-3.7","subject":"kpz4nzms9z915s2"},{"rt":622,"stimulus":"<p>Bereit?</p>","button_pressed":"0","trial_type":"html-button-response","trial_index":39,"time_elapsed":79042,"internal_node_id":"0.0-8.0-0.8","subject":"kpz4nzms9z915s2"},{"rt":null,"stimulus":"<div style=\"font-size:60px;\">+</div>","key_press":null,"trial_type":"html-keyboard-response","trial_index":40,"time_elapsed":81046,"internal_node_id":"0.0-8.0-1.8","subject":"kpz4nzms9z915s2"},{"trial_type":"turing-test","trial_index":41,"time_elapsed":86834,"internal_node_id":"0.0-8.0-2.8","subject":"kpz4nzms9z915s2"},{"rt":852,"stimulus":"<p>Welche Sequenz haben Sie als natürlicher empfunden?</p>","button_pressed":"0","test_part":"response","test_stimulus":{"position":0,"left":"bvh/pass-bottle-training4-lines.txt","right":"bvh/vr_prediction_models/model(vcgpdm)-dataset(pass-bottle)-mode(ELBO)-parts(3)-dyn(10)-lvm(25)-hold(4)/final-lines.txt","att_check":false},"trial_type":"html-button-response","trial_index":42,"time_elapsed":87689,"internal_node_id":"0.0-8.0-3.8","subject":"kpz4nzms9z915s2"},{"rt":570,"stimulus":"<p>Bereit?</p>","button_pressed":"0","trial_type":"html-button-response","trial_index":43,"time_elapsed":88263,"internal_node_id":"0.0-8.0-0.9","subject":"kpz4nzms9z915s2"},{"rt":null,"stimulus":"<div style=\"font-size:60px;\">+</div>","key_press":null,"trial_type":"html-keyboard-response","trial_index":44,"time_elapsed":90266,"internal_node_id":"0.0-8.0-1.9","subject":"kpz4nzms9z915s2"},{"trial_type":"turing-test","trial_index":45,"time_elapsed":95502,"internal_node_id":"0.0-8.0-2.9","subject":"kpz4nzms9z915s2"},{"rt":1448,"stimulus":"<p>Welche Sequenz haben Sie als natürlicher empfunden?</p>","button_pressed":"1","test_part":"response","test_stimulus":{"position":1,"left":"bvh/vr_prediction_models/model(dmp)-dataset(return-bottle)-npsi(80)-hold(0)/final-lines.txt","right":"bvh/return-bottle-training0-lines.txt","att_check":true},"trial_type":"html-button-response","trial_index":46,"time_elapsed":96954,"internal_node_id":"0.0-8.0-3.9","subject":"kpz4nzms9z915s2"},{"rt":831,"stimulus":"<p>Bereit?</p>","button_pressed":"0","trial_type":"html-button-response","trial_index":47,"time_elapsed":97788,"internal_node_id":"0.0-8.0-0.10","subject":"kpz4nzms9z915s2"},{"rt":null,"stimulus":"<div style=\"font-size:60px;\">+</div>","key_press":null,"trial_type":"html-keyboard-response","trial_index":48,"time_elapsed":99792,"internal_node_id":"0.0-8.0-1.10","subject":"kpz4nzms9z915s2"},{"trial_type":"turing-test","trial_index":49,"time_elapsed":105119,"internal_node_id":"0.0-8.0-2.10","subject":"kpz4nzms9z915s2"},{"rt":929,"stimulus":"<p>Welche Sequenz haben Sie als natürlicher empfunden?</p>","button_pressed":"1","test_part":"response","test_stimulus":{"position":1,"left":"bvh/vr_prediction_models/model(tmp)-dataset(return-bottle)-numprim(4)-hold(0)/final-lines.txt","right":"bvh/return-bottle-training0-lines.txt","att_check":false},"trial_type":"html-button-response","trial_index":50,"time_elapsed":106052,"internal_node_id":"0.0-8.0-3.10","subject":"kpz4nzms9z915s2"},{"rt":317,"stimulus":"<p>Bereit?</p>","button_pressed":"0","trial_type":"html-button-response","trial_index":51,"time_elapsed":106372,"internal_node_id":"0.0-8.0-0.11","subject":"kpz4nzms9z915s2"},{"rt":null,"stimulus":"<div style=\"font-size:60px;\">+</div>","key_press":null,"trial_type":"html-keyboard-response","trial_index":52,"time_elapsed":108375,"internal_node_id":"0.0-8.0-1.11","subject":"kpz4nzms9z915s2"},{"trial_type":"turing-test","trial_index":53,"time_elapsed":111769,"internal_node_id":"0.0-8.0-2.11","subject":"kpz4nzms9z915s2"},{"rt":609,"stimulus":"<p>Welche Sequenz haben Sie als natürlicher empfunden?</p>","button_pressed":"1","test_part":"response","test_stimulus":{"position":1,"left":"bvh/vr_prediction_models/model(vcgpdm)-dataset(pass-bottle-hold)-mode(ELBO)-parts(3)-dyn(30)-lvm(15)-hold(1)/final-lines.txt","right":"bvh/pass-bottle-hold-training1-lines.txt","att_check":false},"trial_type":"html-button-response","trial_index":54,"time_elapsed":112381,"internal_node_id":"0.0-8.0-3.11","subject":"kpz4nzms9z915s2"},{"rt":366,"stimulus":"<p>Bereit?</p>","button_pressed":"0","trial_type":"html-button-response","trial_index":55,"time_elapsed":112750,"internal_node_id":"0.0-8.0-0.12","subject":"kpz4nzms9z915s2"},{"rt":null,"stimulus":"<div style=\"font-size:60px;\">+</div>","key_press":null,"trial_type":"html-keyboard-response","trial_index":56,"time_elapsed":114753,"internal_node_id":"0.0-8.0-1.12","subject":"kpz4nzms9z915s2"},{"trial_type":"turing-test","trial_index":57,"time_elapsed":118143,"internal_node_id":"0.0-8.0-2.12","subject":"kpz4nzms9z915s2"},{"rt":698,"stimulus":"<p>Welche Sequenz haben Sie als natürlicher empfunden?</p>","button_pressed":"1","test_part":"response","test_stimulus":{"position":1,"left":"bvh/vr_prediction_models/model(vcgpdm)-dataset(pass-bottle-hold)-mode(ELBO)-parts(3)-dyn(20)-lvm(35)-hold(2)/final-lines.txt","right":"bvh/pass-bottle-hold-training2-lines.txt","att_check":false},"trial_type":"html-button-response","trial_index":58,"time_elapsed":118844,"internal_node_id":"0.0-8.0-3.12","subject":"kpz4nzms9z915s2"},{"rt":629,"stimulus":"<p>Bereit?</p>","button_pressed":"0","trial_type":"html-button-response","trial_index":59,"time_elapsed":119476,"internal_node_id":"0.0-8.0-0.13","subject":"kpz4nzms9z915s2"},{"rt":null,"stimulus":"<div style=\"font-size:60px;\">+</div>","key_press":null,"trial_type":"html-keyboard-response","trial_index":60,"time_elapsed":121479,"internal_node_id":"0.0-8.0-1.13","subject":"kpz4nzms9z915s2"},{"trial_type":"turing-test","trial_index":61,"time_elapsed":124945,"internal_node_id":"0.0-8.0-2.13","subject":"kpz4nzms9z915s2"},{"rt":691,"stimulus":"<p>Welche Sequenz haben Sie als natürlicher empfunden?</p>","button_pressed":"1","test_part":"response","test_stimulus":{"position":1,"left":"bvh/vr_prediction_models/model(dmp)-dataset(return-bottle-hold)-npsi(80)-hold(2)/final-lines.txt","right":"bvh/return-bottle-hold-training2-lines.txt","att_check":false},"trial_type":"html-button-response","trial_index":62,"time_elapsed":125641,"internal_node_id":"0.0-8.0-3.13","subject":"kpz4nzms9z915s2"},{"rt":308,"stimulus":"<p>Bereit?</p>","button_pressed":"0","trial_type":"html-button-response","trial_index":63,"time_elapsed":125953,"internal_node_id":"0.0-8.0-0.14","subject":"kpz4nzms9z915s2"},{"rt":null,"stimulus":"<div style=\"font-size:60px;\">+</div>","key_press":null,"trial_type":"html-keyboard-response","trial_index":64,"time_elapsed":127959,"internal_node_id":"0.0-8.0-1.14","subject":"kpz4nzms9z915s2"},{"trial_type":"turing-test","trial_index":65,"time_elapsed":133585,"internal_node_id":"0.0-8.0-2.14","subject":"kpz4nzms9z915s2"},{"rt":549,"stimulus":"<p>Welche Sequenz haben Sie als natürlicher empfunden?</p>","button_pressed":"0","test_part":"response","test_stimulus":{"position":0,"left":"bvh/return-bottle-training4-lines.txt","right":"bvh/vr_prediction_models/model(vcgpdm)-dataset(return-bottle)-mode(ELBO)-parts(3)-dyn(20)-lvm(15)-hold(4)/final-lines.txt","att_check":false},"trial_type":"html-button-response","trial_index":66,"time_elapsed":134139,"internal_node_id":"0.0-8.0-3.14","subject":"kpz4nzms9z915s2"},{"rt":590,"stimulus":"<p>Bereit?</p>","button_pressed":"0","trial_type":"html-button-response","trial_index":67,"time_elapsed":134733,"internal_node_id":"0.0-8.0-0.15","subject":"kpz4nzms9z915s2"},{"rt":null,"stimulus":"<div style=\"font-size:60px;\">+</div>","key_press":null,"trial_type":"html-keyboard-response","trial_index":68,"time_elapsed":136736,"internal_node_id":"0.0-8.0-1.15","subject":"kpz4nzms9z915s2"},{"trial_type":"turing-test","trial_index":69,"time_elapsed":143412,"internal_node_id":"0.0-8.0-2.15","subject":"kpz4nzms9z915s2"},{"rt":944,"stimulus":"<p>Welche Sequenz haben Sie als natürlicher empfunden?</p>","button_pressed":"1","test_part":"response","test_stimulus":{"position":1,"left":"bvh/vr_prediction_models/model(vcgpdm)-dataset(return-bottle)-mode(ELBO)-parts(1)-dyn(30)-lvm(20)-hold(2)/final-lines.txt","right":"bvh/return-bottle-training2-lines.txt","att_check":false},"trial_type":"html-button-response","trial_index":70,"time_elapsed":144361,"internal_node_id":"0.0-8.0-3.15","subject":"kpz4nzms9z915s2"},{"rt":277,"stimulus":"<p>Bereit?</p>","button_pressed":"0","trial_type":"html-button-response","trial_index":71,"time_elapsed":144642,"internal_node_id":"0.0-8.0-0.16","subject":"kpz4nzms9z915s2"},{"rt":null,"stimulus":"<div style=\"font-size:60px;\">+</div>","key_press":null,"trial_type":"html-keyboard-response","trial_index":72,"time_elapsed":146646,"internal_node_id":"0.0-8.0-1.16","subject":"kpz4nzms9z915s2"},{"trial_type":"turing-test","trial_index":73,"time_elapsed":149941,"internal_node_id":"0.0-8.0-2.16","subject":"kpz4nzms9z915s2"},{"rt":728.9999999999709,"stimulus":"<p>Welche Sequenz haben Sie als natürlicher empfunden?</p>","button_pressed":"0","test_part":"response","test_stimulus":{"position":0,"left":"bvh/return-bottle-hold-training1-lines.txt","right":"bvh/vr_prediction_models/model(tmp)-dataset(return-bottle-hold)-numprim(15)-hold(1)/final-lines.txt","att_check":false},"trial_type":"html-button-response","trial_index":74,"time_elapsed":150675,"internal_node_id":"0.0-8.0-3.16","subject":"kpz4nzms9z915s2"},{"rt":269,"stimulus":"<p>Bereit?</p>","button_pressed":"0","trial_type":"html-button-response","trial_index":75,"time_elapsed":150947,"internal_node_id":"0.0-8.0-0.17","subject":"kpz4nzms9z915s2"},{"rt":null,"stimulus":"<div style=\"font-size:60px;\">+</div>","key_press":null,"trial_type":"html-keyboard-response","trial_index":76,"time_elapsed":152950,"internal_node_id":"0.0-8.0-1.17","subject":"kpz4nzms9z915s2"},{"trial_type":"turing-test","trial_index":77,"time_elapsed":158348,"internal_node_id":"0.0-8.0-2.17","subject":"kpz4nzms9z915s2"},{"rt":601.9999999999709,"stimulus":"<p>Welche Sequenz haben Sie als natürlicher empfunden?</p>","button_pressed":"1","test_part":"response","test_stimulus":{"position":1,"left":"bvh/vr_prediction_models/model(dmp)-dataset(pass-bottle)-npsi(40)-hold(1)/final-lines.txt","right":"bvh/pass-bottle-training1-lines.txt","att_check":false},"trial_type":"html-button-response","trial_index":78,"time_elapsed":158952,"internal_node_id":"0.0-8.0-3.17","subject":"kpz4nzms9z915s2"},{"rt":621,"stimulus":"<p>Bereit?</p>","button_pressed":"0","trial_type":"html-button-response","trial_index":79,"time_elapsed":159575,"internal_node_id":"0.0-8.0-0.18","subject":"kpz4nzms9z915s2"},{"rt":null,"stimulus":"<div style=\"font-size:60px;\">+</div>","key_press":null,"trial_type":"html-keyboard-response","trial_index":80,"time_elapsed":161578,"internal_node_id":"0.0-8.0-1.18","subject":"kpz4nzms9z915s2"},{"trial_type":"turing-test","trial_index":81,"time_elapsed":167620,"internal_node_id":"0.0-8.0-2.18","subject":"kpz4nzms9z915s2"},{"rt":671.9999999999709,"stimulus":"<p>Welche Sequenz haben Sie als natürlicher empfunden?</p>","button_pressed":"0","test_part":"response","test_stimulus":{"position":0,"left":"bvh/pass-bottle-training2-lines.txt","right":"bvh/vr_prediction_models/model(dmp)-dataset(pass-bottle)-npsi(30)-hold(2)/final-lines.txt","att_check":true},"trial_type":"html-button-response","trial_index":82,"time_elapsed":168296,"internal_node_id":"0.0-8.0-3.18","subject":"kpz4nzms9z915s2"},{"rt":340,"stimulus":"<p>Bereit?</p>","button_pressed":"0","trial_type":"html-button-response","trial_index":83,"time_elapsed":168639,"internal_node_id":"0.0-8.0-0.19","subject":"kpz4nzms9z915s2"},{"rt":null,"stimulus":"<div style=\"font-size:60px;\">+</div>","key_press":null,"trial_type":"html-keyboard-response","trial_index":84,"time_elapsed":170641,"internal_node_id":"0.0-8.0-1.19","subject":"kpz4nzms9z915s2"},{"trial_type":"turing-test","trial_index":85,"time_elapsed":176441,"internal_node_id":"0.0-8.0-2.19","subject":"kpz4nzms9z915s2"},{"rt":593.9999999999709,"stimulus":"<p>Welche Sequenz haben Sie als natürlicher empfunden?</p>","button_pressed":"1","test_part":"response","test_stimulus":{"position":1,"left":"bvh/vr_prediction_models/model(vcgpdm)-dataset(return-bottle)-mode(ELBO)-parts(1)-dyn(20)-lvm(30)-hold(3)/final-lines.txt","right":"bvh/return-bottle-training3-lines.txt","att_check":false},"trial_type":"html-button-response","trial_index":86,"time_elapsed":177040,"internal_node_id":"0.0-8.0-3.19","subject":"kpz4nzms9z915s2"},{"rt":542,"stimulus":"<p>Bereit?</p>","button_pressed":"0","trial_type":"html-button-response","trial_index":87,"time_elapsed":177585,"internal_node_id":"0.0-8.0-0.20","subject":"kpz4nzms9z915s2"},{"rt":null,"stimulus":"<div style=\"font-size:60px;\">+</div>","key_press":null,"trial_type":"html-keyboard-response","trial_index":88,"time_elapsed":179589,"internal_node_id":"0.0-8.0-1.20","subject":"kpz4nzms9z915s2"},{"trial_type":"turing-test","trial_index":89,"time_elapsed":186342,"internal_node_id":"0.0-8.0-2.20","subject":"kpz4nzms9z915s2"},{"rt":587,"stimulus":"<p>Welche Sequenz haben Sie als natürlicher empfunden?</p>","button_pressed":"1","test_part":"response","test_stimulus":{"position":1,"left":"bvh/vr_prediction_models/model(tmp)-dataset(pass-bottle)-numprim(5)-hold(0)/final-lines.txt","right":"bvh/pass-bottle-training0-lines.txt","att_check":false},"trial_type":"html-button-response","trial_index":90,"time_elapsed":186933,"internal_node_id":"0.0-8.0-3.20","subject":"kpz4nzms9z915s2"},{"rt":270,"stimulus":"<p>Bereit?</p>","button_pressed":"0","trial_type":"html-button-response","trial_index":91,"time_elapsed":187206,"internal_node_id":"0.0-8.0-0.21","subject":"kpz4nzms9z915s2"},{"rt":null,"stimulus":"<div style=\"font-size:60px;\">+</div>","key_press":null,"trial_type":"html-keyboard-response","trial_index":92,"time_elapsed":189209,"internal_node_id":"0.0-8.0-1.21","subject":"kpz4nzms9z915s2"},{"trial_type":"turing-test","trial_index":93,"time_elapsed":192361,"internal_node_id":"0.0-8.0-2.21","subject":"kpz4nzms9z915s2"},{"rt":796,"stimulus":"<p>Welche Sequenz haben Sie als natürlicher empfunden?</p>","button_pressed":"1","test_part":"response","test_stimulus":{"position":1,"left":"bvh/vr_prediction_models/model(tmp)-dataset(pass-bottle-hold)-numprim(6)-hold(1)/final-lines.txt","right":"bvh/pass-bottle-hold-training1-lines.txt","att_check":false},"trial_type":"html-button-response","trial_index":94,"time_elapsed":193161,"internal_node_id":"0.0-8.0-3.21","subject":"kpz4nzms9z915s2"},{"rt":252,"stimulus":"<p>Bereit?</p>","button_pressed":"0","trial_type":"html-button-response","trial_index":95,"time_elapsed":193416,"internal_node_id":"0.0-8.0-0.22","subject":"kpz4nzms9z915s2"},{"rt":null,"stimulus":"<div style=\"font-size:60px;\">+</div>","key_press":null,"trial_type":"html-keyboard-response","trial_index":96,"time_elapsed":195421,"internal_node_id":"0.0-8.0-1.22","subject":"kpz4nzms9z915s2"},{"trial_type":"turing-test","trial_index":97,"time_elapsed":201554,"internal_node_id":"0.0-8.0-2.22","subject":"kpz4nzms9z915s2"},{"rt":1534,"stimulus":"<p>Welche Sequenz haben Sie als natürlicher empfunden?</p>","button_pressed":"1","test_part":"response","test_stimulus":{"position":0,"left":"bvh/pass-bottle-training2-lines.txt","right":"bvh/vr_prediction_models/model(vcgpdm)-dataset(pass-bottle)-mode(ELBO)-parts(3)-dyn(20)-lvm(15)-hold(2)/final-lines.txt","att_check":false},"trial_type":"html-button-response","trial_index":98,"time_elapsed":203092,"internal_node_id":"0.0-8.0-3.22","subject":"kpz4nzms9z915s2"},{"rt":507.9999999999709,"stimulus":"<p>Bereit?</p>","button_pressed":"0","trial_type":"html-button-response","trial_index":99,"time_elapsed":203604,"internal_node_id":"0.0-8.0-0.23","subject":"kpz4nzms9z915s2"},{"rt":null,"stimulus":"<div style=\"font-size:60px;\">+</div>","key_press":null,"trial_type":"html-keyboard-response","trial_index":100,"time_elapsed":205608,"internal_node_id":"0.0-8.0-1.23","subject":"kpz4nzms9z915s2"},{"trial_type":"turing-test","trial_index":101,"time_elapsed":211435,"internal_node_id":"0.0-8.0-2.23","subject":"kpz4nzms9z915s2"},{"rt":797,"stimulus":"<p>Welche Sequenz haben Sie als natürlicher empfunden?</p>","button_pressed":"0","test_part":"response","test_stimulus":{"position":0,"left":"bvh/return-bottle-training4-lines.txt","right":"bvh/vr_prediction_models/model(vcgpdm)-dataset(return-bottle)-mode(ELBO)-parts(3)-dyn(25)-lvm(30)-hold(4)/final-lines.txt","att_check":false},"trial_type":"html-button-response","trial_index":102,"time_elapsed":212236,"internal_node_id":"0.0-8.0-3.23","subject":"kpz4nzms9z915s2"},{"rt":227,"stimulus":"<p>Bereit?</p>","button_pressed":"0","trial_type":"html-button-response","trial_index":103,"time_elapsed":212467,"internal_node_id":"0.0-8.0-0.24","subject":"kpz4nzms9z915s2"},{"rt":null,"stimulus":"<div style=\"font-size:60px;\">+</div>","key_press":null,"trial_type":"html-keyboard-response","trial_index":104,"time_elapsed":214471,"internal_node_id":"0.0-8.0-1.24","subject":"kpz4nzms9z915s2"},{"trial_type":"turing-test","trial_index":105,"time_elapsed":220472,"internal_node_id":"0.0-8.0-2.24","subject":"kpz4nzms9z915s2"},{"rt":593.9999999999709,"stimulus":"<p>Welche Sequenz haben Sie als natürlicher empfunden?</p>","button_pressed":"0","test_part":"response","test_stimulus":{"position":0,"left":"bvh/return-bottle-training1-lines.txt","right":"bvh/vr_prediction_models/model(dmp)-dataset(return-bottle)-npsi(20)-hold(1)/final-lines.txt","att_check":true},"trial_type":"html-button-response","trial_index":106,"time_elapsed":221071,"internal_node_id":"0.0-8.0-3.24","subject":"kpz4nzms9z915s2"},{"rt":437,"stimulus":"<p>Bereit?</p>","button_pressed":"0","trial_type":"html-button-response","trial_index":107,"time_elapsed":221512,"internal_node_id":"0.0-8.0-0.25","subject":"kpz4nzms9z915s2"},{"rt":null,"stimulus":"<div style=\"font-size:60px;\">+</div>","key_press":null,"trial_type":"html-keyboard-response","trial_index":108,"time_elapsed":223515,"internal_node_id":"0.0-8.0-1.25","subject":"kpz4nzms9z915s2"},{"trial_type":"turing-test","trial_index":109,"time_elapsed":229210,"internal_node_id":"0.0-8.0-2.25","subject":"kpz4nzms9z915s2"},{"rt":538.9999999999709,"stimulus":"<p>Welche Sequenz haben Sie als natürlicher empfunden?</p>","button_pressed":"0","test_part":"response","test_stimulus":{"position":0,"left":"bvh/return-bottle-training3-lines.txt","right":"bvh/vr_prediction_models/model(dmp)-dataset(return-bottle)-npsi(90)-hold(3)/final-lines.txt","att_check":false},"trial_type":"html-button-response","trial_index":110,"time_elapsed":229754,"internal_node_id":"0.0-8.0-3.25","subject":"kpz4nzms9z915s2"},{"rt":303.9999999999709,"stimulus":"<p>Bereit?</p>","button_pressed":"0","trial_type":"html-button-response","trial_index":111,"time_elapsed":230061,"internal_node_id":"0.0-8.0-0.26","subject":"kpz4nzms9z915s2"},{"rt":null,"stimulus":"<div style=\"font-size:60px;\">+</div>","key_press":null,"trial_type":"html-keyboard-response","trial_index":112,"time_elapsed":232064,"internal_node_id":"0.0-8.0-1.26","subject":"kpz4nzms9z915s2"},{"trial_type":"turing-test","trial_index":113,"time_elapsed":235342,"internal_node_id":"0.0-8.0-2.26","subject":"kpz4nzms9z915s2"},{"rt":799.9999999999709,"stimulus":"<p>Welche Sequenz haben Sie als natürlicher empfunden?</p>","button_pressed":"0","test_part":"response","test_stimulus":{"position":0,"left":"bvh/pass-bottle-hold-training2-lines.txt","right":"bvh/vr_prediction_models/model(tmp)-dataset(pass-bottle-hold)-numprim(10)-hold(2)/final-lines.txt","att_check":false},"trial_type":"html-button-response","trial_index":114,"time_elapsed":236146,"internal_node_id":"0.0-8.0-3.26","subject":"kpz4nzms9z915s2"},{"rt":289,"stimulus":"<p>Bereit?</p>","button_pressed":"0","trial_type":"html-button-response","trial_index":115,"time_elapsed":236438,"internal_node_id":"0.0-8.0-0.27","subject":"kpz4nzms9z915s2"},{"rt":null,"stimulus":"<div style=\"font-size:60px;\">+</div>","key_press":null,"trial_type":"html-keyboard-response","trial_index":116,"time_elapsed":238441,"internal_node_id":"0.0-8.0-1.27","subject":"kpz4nzms9z915s2"},{"trial_type":"turing-test","trial_index":117,"time_elapsed":244598,"internal_node_id":"0.0-8.0-2.27","subject":"kpz4nzms9z915s2"},{"rt":735.9999999999709,"stimulus":"<p>Welche Sequenz haben Sie als natürlicher empfunden?</p>","button_pressed":"0","test_part":"response","test_stimulus":{"position":0,"left":"bvh/pass-bottle-training2-lines.txt","right":"bvh/vr_prediction_models/model(vcgpdm)-dataset(pass-bottle)-mode(ELBO)-parts(3)-dyn(25)-lvm(30)-hold(2)/final-lines.txt","att_check":false},"trial_type":"html-button-response","trial_index":118,"time_elapsed":245338,"internal_node_id":"0.0-8.0-3.27","subject":"kpz4nzms9z915s2"},{"rt":253,"stimulus":"<p>Bereit?</p>","button_pressed":"0","trial_type":"html-button-response","trial_index":119,"time_elapsed":245595,"internal_node_id":"0.0-8.0-0.28","subject":"kpz4nzms9z915s2"},{"rt":null,"stimulus":"<div style=\"font-size:60px;\">+</div>","key_press":null,"trial_type":"html-keyboard-response","trial_index":120,"time_elapsed":247598,"internal_node_id":"0.0-8.0-1.28","subject":"kpz4nzms9z915s2"},{"trial_type":"turing-test","trial_index":121,"time_elapsed":252946,"internal_node_id":"0.0-8.0-2.28","subject":"kpz4nzms9z915s2"},{"rt":1002,"stimulus":"<p>Welche Sequenz haben Sie als natürlicher empfunden?</p>","button_pressed":"1","test_part":"response","test_stimulus":{"position":0,"left":"bvh/return-bottle-training0-lines.txt","right":"bvh/vr_prediction_models/model(tmp)-dataset(return-bottle)-numprim(6)-hold(0)/final-lines.txt","att_check":false},"trial_type":"html-button-response","trial_index":122,"time_elapsed":253952,"internal_node_id":"0.0-8.0-3.28","subject":"kpz4nzms9z915s2"},{"rt":285,"stimulus":"<p>Bereit?</p>","button_pressed":"0","trial_type":"html-button-response","trial_index":123,"time_elapsed":254241,"internal_node_id":"0.0-8.0-0.29","subject":"kpz4nzms9z915s2"},{"rt":null,"stimulus":"<div style=\"font-size:60px;\">+</div>","key_press":null,"trial_type":"html-keyboard-response","trial_index":124,"time_elapsed":256244,"internal_node_id":"0.0-8.0-1.29","subject":"kpz4nzms9z915s2"},{"trial_type":"turing-test","trial_index":125,"time_elapsed":263288,"internal_node_id":"0.0-8.0-2.29","subject":"kpz4nzms9z915s2"},{"rt":516.0000000000582,"stimulus":"<p>Welche Sequenz haben Sie als natürlicher empfunden?</p>","button_pressed":"1","test_part":"response","test_stimulus":{"position":1,"left":"bvh/vr_prediction_models/model(dmp)-dataset(return-bottle)-npsi(10)-hold(2)/final-lines.txt","right":"bvh/return-bottle-training2-lines.txt","att_check":false},"trial_type":"html-button-response","trial_index":126,"time_elapsed":263811,"internal_node_id":"0.0-8.0-3.29","subject":"kpz4nzms9z915s2"},{"rt":347,"stimulus":"<p>Bereit?</p>","button_pressed":"0","trial_type":"html-button-response","trial_index":127,"time_elapsed":264161,"internal_node_id":"0.0-8.0-0.30","subject":"kpz4nzms9z915s2"},{"rt":null,"stimulus":"<div style=\"font-size:60px;\">+</div>","key_press":null,"trial_type":"html-keyboard-response","trial_index":128,"time_elapsed":266165,"internal_node_id":"0.0-8.0-1.30","subject":"kpz4nzms9z915s2"},{"trial_type":"turing-test","trial_index":129,"time_elapsed":269371,"internal_node_id":"0.0-8.0-2.30","subject":"kpz4nzms9z915s2"},{"rt":633,"stimulus":"<p>Welche Sequenz haben Sie als natürlicher empfunden?</p>","button_pressed":"1","test_part":"response","test_stimulus":{"position":1,"left":"bvh/vr_prediction_models/model(vcgpdm)-dataset(return-bottle-hold)-mode(ELBO)-parts(1)-dyn(15)-lvm(35)-hold(1)/final-lines.txt","right":"bvh/return-bottle-hold-training1-lines.txt","att_check":false},"trial_type":"html-button-response","trial_index":130,"time_elapsed":270009,"internal_node_id":"0.0-8.0-3.30","subject":"kpz4nzms9z915s2"},{"rt":334,"stimulus":"<p>Bereit?</p>","button_pressed":"0","trial_type":"html-button-response","trial_index":131,"time_elapsed":270346,"internal_node_id":"0.0-8.0-0.31","subject":"kpz4nzms9z915s2"},{"rt":null,"stimulus":"<div style=\"font-size:60px;\">+</div>","key_press":null,"trial_type":"html-keyboard-response","trial_index":132,"time_elapsed":272350,"internal_node_id":"0.0-8.0-1.31","subject":"kpz4nzms9z915s2"},{"trial_type":"turing-test","trial_index":133,"time_elapsed":277829,"internal_node_id":"0.0-8.0-2.31","subject":"kpz4nzms9z915s2"},{"rt":382,"stimulus":"<p>Welche Sequenz haben Sie als natürlicher empfunden?</p>","button_pressed":"1","test_part":"response","test_stimulus":{"position":1,"left":"bvh/vr_prediction_models/model(vcgpdm)-dataset(return-bottle)-mode(ELBO)-parts(1)-dyn(10)-lvm(5)-hold(0)/final-lines.txt","right":"bvh/return-bottle-training0-lines.txt","att_check":false},"trial_type":"html-button-response","trial_index":134,"time_elapsed":278215,"internal_node_id":"0.0-8.0-3.31","subject":"kpz4nzms9z915s2"},{"rt":325,"stimulus":"<p>Bereit?</p>","button_pressed":"0","trial_type":"html-button-response","trial_index":135,"time_elapsed":278543,"internal_node_id":"0.0-8.0-0.32","subject":"kpz4nzms9z915s2"},{"rt":null,"stimulus":"<div style=\"font-size:60px;\">+</div>","key_press":null,"trial_type":"html-keyboard-response","trial_index":136,"time_elapsed":280547,"internal_node_id":"0.0-8.0-1.32","subject":"kpz4nzms9z915s2"},{"trial_type":"turing-test","trial_index":137,"time_elapsed":284161,"internal_node_id":"0.0-8.0-2.32","subject":"kpz4nzms9z915s2"},{"rt":371.0000000000582,"stimulus":"<p>Welche Sequenz haben Sie als natürlicher empfunden?</p>","button_pressed":"1","test_part":"response","test_stimulus":{"position":0,"left":"bvh/return-bottle-hold-training3-lines.txt","right":"bvh/vr_prediction_models/model(tmp)-dataset(return-bottle-hold)-numprim(7)-hold(3)/final-lines.txt","att_check":false},"trial_type":"html-button-response","trial_index":138,"time_elapsed":284535,"internal_node_id":"0.0-8.0-3.32","subject":"kpz4nzms9z915s2"},{"rt":305,"stimulus":"<p>Bereit?</p>","button_pressed":"0","trial_type":"html-button-response","trial_index":139,"time_elapsed":284843,"internal_node_id":"0.0-8.0-0.33","subject":"kpz4nzms9z915s2"},{"rt":null,"stimulus":"<div style=\"font-size:60px;\">+</div>","key_press":null,"trial_type":"html-keyboard-response","trial_index":140,"time_elapsed":286847,"internal_node_id":"0.0-8.0-1.33","subject":"kpz4nzms9z915s2"},{"trial_type":"turing-test","trial_index":141,"time_elapsed":293540,"internal_node_id":"0.0-8.0-2.33","subject":"kpz4nzms9z915s2"},{"rt":457,"stimulus":"<p>Welche Sequenz haben Sie als natürlicher empfunden?</p>","button_pressed":"1","test_part":"response","test_stimulus":{"position":1,"left":"bvh/vr_prediction_models/model(vcgpdm)-dataset(return-bottle)-mode(ELBO)-parts(3)-dyn(35)-lvm(20)-hold(2)/final-lines.txt","right":"bvh/return-bottle-training2-lines.txt","att_check":false},"trial_type":"html-button-response","trial_index":142,"time_elapsed":294001,"internal_node_id":"0.0-8.0-3.33","subject":"kpz4nzms9z915s2"},{"rt":321,"stimulus":"<p>Bereit?</p>","button_pressed":"0","trial_type":"html-button-response","trial_index":143,"time_elapsed":294326,"internal_node_id":"0.0-8.0-0.34","subject":"kpz4nzms9z915s2"},{"rt":null,"stimulus":"<div style=\"font-size:60px;\">+</div>","key_press":null,"trial_type":"html-keyboard-response","trial_index":144,"time_elapsed":296328,"internal_node_id":"0.0-8.0-1.34","subject":"kpz4nzms9z915s2"},{"trial_type":"turing-test","trial_index":145,"time_elapsed":302398,"internal_node_id":"0.0-8.0-2.34","subject":"kpz4nzms9z915s2"},{"rt":347,"stimulus":"<p>Welche Sequenz haben Sie als natürlicher empfunden?</p>","button_pressed":"1","test_part":"response","test_stimulus":{"position":0,"left":"bvh/return-bottle-training1-lines.txt","right":"bvh/vr_prediction_models/model(tmp)-dataset(return-bottle)-numprim(8)-hold(1)/final-lines.txt","att_check":false},"trial_type":"html-button-response","trial_index":146,"time_elapsed":302749,"internal_node_id":"0.0-8.0-3.34","subject":"kpz4nzms9z915s2"},{"rt":333,"stimulus":"<p>Bereit?</p>","button_pressed":"0","trial_type":"html-button-response","trial_index":147,"time_elapsed":303086,"internal_node_id":"0.0-8.0-0.35","subject":"kpz4nzms9z915s2"},{"rt":null,"stimulus":"<div style=\"font-size:60px;\">+</div>","key_press":null,"trial_type":"html-keyboard-response","trial_index":148,"time_elapsed":305090,"internal_node_id":"0.0-8.0-1.35","subject":"kpz4nzms9z915s2"},{"trial_type":"turing-test","trial_index":149,"time_elapsed":308174,"internal_node_id":"0.0-8.0-2.35","subject":"kpz4nzms9z915s2"},{"rt":886,"stimulus":"<p>Welche Sequenz haben Sie als natürlicher empfunden?</p>","button_pressed":"0","test_part":"response","test_stimulus":{"position":0,"left":"bvh/pass-bottle-hold-training1-lines.txt","right":"bvh/vr_prediction_models/model(vcgpdm)-dataset(pass-bottle-hold)-mode(ELBO)-parts(1)-dyn(35)-lvm(30)-hold(1)/final-lines.txt","att_check":false},"trial_type":"html-button-response","trial_index":150,"time_elapsed":309065,"internal_node_id":"0.0-8.0-3.35","subject":"kpz4nzms9z915s2"},{"rt":600,"stimulus":"<p>Bereit?</p>","button_pressed":"0","trial_type":"html-button-response","trial_index":151,"time_elapsed":309668,"internal_node_id":"0.0-8.0-0.36","subject":"kpz4nzms9z915s2"},{"rt":null,"stimulus":"<div style=\"font-size:60px;\">+</div>","key_press":null,"trial_type":"html-keyboard-response","trial_index":152,"time_elapsed":311671,"internal_node_id":"0.0-8.0-1.36","subject":"kpz4nzms9z915s2"},{"trial_type":"turing-test","trial_index":153,"time_elapsed":316766,"internal_node_id":"0.0-8.0-2.36","subject":"kpz4nzms9z915s2"},{"rt":1935,"stimulus":"<p>Welche Sequenz haben Sie als natürlicher empfunden?</p>","button_pressed":"1","test_part":"response","test_stimulus":{"position":1,"left":"bvh/vr_prediction_models/model(tmp)-dataset(return-bottle-hold)-numprim(8)-hold(0)/final-lines.txt","right":"bvh/return-bottle-hold-training0-lines.txt","att_check":false},"trial_type":"html-button-response","trial_index":154,"time_elapsed":318705,"internal_node_id":"0.0-8.0-3.36","subject":"kpz4nzms9z915s2"},{"rt":382,"stimulus":"<p>Bereit?</p>","button_pressed":"0","trial_type":"html-button-response","trial_index":155,"time_elapsed":319090,"internal_node_id":"0.0-8.0-0.37","subject":"kpz4nzms9z915s2"},{"rt":null,"stimulus":"<div style=\"font-size:60px;\">+</div>","key_press":null,"trial_type":"html-keyboard-response","trial_index":156,"time_elapsed":321094,"internal_node_id":"0.0-8.0-1.37","subject":"kpz4nzms9z915s2"},{"trial_type":"turing-test","trial_index":157,"time_elapsed":324286,"internal_node_id":"0.0-8.0-2.37","subject":"kpz4nzms9z915s2"},{"rt":527,"stimulus":"<p>Welche Sequenz haben Sie als natürlicher empfunden?</p>","button_pressed":"1","test_part":"response","test_stimulus":{"position":1,"left":"bvh/vr_prediction_models/model(dmp)-dataset(pass-bottle-hold)-npsi(70)-hold(2)/final-lines.txt","right":"bvh/pass-bottle-hold-training2-lines.txt","att_check":true},"trial_type":"html-button-response","trial_index":158,"time_elapsed":324818,"internal_node_id":"0.0-8.0-3.37","subject":"kpz4nzms9z915s2"},{"rt":348,"stimulus":"<p>Bereit?</p>","button_pressed":"0","trial_type":"html-button-response","trial_index":159,"time_elapsed":325169,"internal_node_id":"0.0-8.0-0.38","subject":"kpz4nzms9z915s2"},{"rt":null,"stimulus":"<div style=\"font-size:60px;\">+</div>","key_press":null,"trial_type":"html-keyboard-response","trial_index":160,"time_elapsed":327175,"internal_node_id":"0.0-8.0-1.38","subject":"kpz4nzms9z915s2"},{"trial_type":"turing-test","trial_index":161,"time_elapsed":332961,"internal_node_id":"0.0-8.0-2.38","subject":"kpz4nzms9z915s2"},{"rt":1178,"stimulus":"<p>Welche Sequenz haben Sie als natürlicher empfunden?</p>","button_pressed":"0","test_part":"response","test_stimulus":{"position":0,"left":"bvh/return-bottle-training4-lines.txt","right":"bvh/vr_prediction_models/model(vcgpdm)-dataset(return-bottle)-mode(ELBO)-parts(3)-dyn(10)-lvm(10)-hold(4)/final-lines.txt","att_check":false},"trial_type":"html-button-response","trial_index":162,"time_elapsed":334144,"internal_node_id":"0.0-8.0-3.38","subject":"kpz4nzms9z915s2"},{"rt":1166,"stimulus":"<p>Bereit?</p>","button_pressed":"0","trial_type":"html-button-response","trial_index":163,"time_elapsed":335314,"internal_node_id":"0.0-8.0-0.39","subject":"kpz4nzms9z915s2"},{"rt":null,"stimulus":"<div style=\"font-size:60px;\">+</div>","key_press":null,"trial_type":"html-keyboard-response","trial_index":164,"time_elapsed":337317,"internal_node_id":"0.0-8.0-1.39","subject":"kpz4nzms9z915s2"},{"trial_type":"turing-test","trial_index":165,"time_elapsed":343041,"internal_node_id":"0.0-8.0-2.39","subject":"kpz4nzms9z915s2"},{"rt":1393,"stimulus":"<p>Welche Sequenz haben Sie als natürlicher empfunden?</p>","button_pressed":"0","test_part":"response","test_stimulus":{"position":0,"left":"bvh/return-bottle-training4-lines.txt","right":"bvh/vr_prediction_models/model(tmp)-dataset(return-bottle)-numprim(8)-hold(4)/final-lines.txt","att_check":false},"trial_type":"html-button-response","trial_index":166,"time_elapsed":344439,"internal_node_id":"0.0-8.0-3.39","subject":"kpz4nzms9z915s2"},{"rt":884,"stimulus":"<p>Bereit?</p>","button_pressed":"0","trial_type":"html-button-response","trial_index":167,"time_elapsed":345327,"internal_node_id":"0.0-8.0-0.40","subject":"kpz4nzms9z915s2"},{"rt":null,"stimulus":"<div style=\"font-size:60px;\">+</div>","key_press":null,"trial_type":"html-keyboard-response","trial_index":168,"time_elapsed":347331,"internal_node_id":"0.0-8.0-1.40","subject":"kpz4nzms9z915s2"},{"trial_type":"turing-test","trial_index":169,"time_elapsed":353511,"internal_node_id":"0.0-8.0-2.40","subject":"kpz4nzms9z915s2"},{"rt":934,"stimulus":"<p>Welche Sequenz haben Sie als natürlicher empfunden?</p>","button_pressed":"0","test_part":"response","test_stimulus":{"position":0,"left":"bvh/pass-bottle-training2-lines.txt","right":"bvh/vr_prediction_models/model(vcgpdm)-dataset(pass-bottle)-mode(ELBO)-parts(1)-dyn(30)-lvm(30)-hold(2)/final-lines.txt","att_check":false},"trial_type":"html-button-response","trial_index":170,"time_elapsed":354449,"internal_node_id":"0.0-8.0-3.40","subject":"kpz4nzms9z915s2"},{"rt":286,"stimulus":"<p>Bereit?</p>","button_pressed":"0","trial_type":"html-button-response","trial_index":171,"time_elapsed":354739,"internal_node_id":"0.0-8.0-0.41","subject":"kpz4nzms9z915s2"},{"rt":null,"stimulus":"<div style=\"font-size:60px;\">+</div>","key_press":null,"trial_type":"html-keyboard-response","trial_index":172,"time_elapsed":356742,"internal_node_id":"0.0-8.0-1.41","subject":"kpz4nzms9z915s2"},{"trial_type":"turing-test","trial_index":173,"time_elapsed":362466,"internal_node_id":"0.0-8.0-2.41","subject":"kpz4nzms9z915s2"},{"rt":633,"stimulus":"<p>Welche Sequenz haben Sie als natürlicher empfunden?</p>","button_pressed":"1","test_part":"response","test_stimulus":{"position":1,"left":"bvh/vr_prediction_models/model(tmp)-dataset(pass-bottle)-numprim(5)-hold(4)/final-lines.txt","right":"bvh/pass-bottle-training4-lines.txt","att_check":false},"trial_type":"html-button-response","trial_index":174,"time_elapsed":363104,"internal_node_id":"0.0-8.0-3.41","subject":"kpz4nzms9z915s2"},{"rt":251,"stimulus":"<p>Bereit?</p>","button_pressed":"0","trial_type":"html-button-response","trial_index":175,"time_elapsed":363359,"internal_node_id":"0.0-8.0-0.42","subject":"kpz4nzms9z915s2"},{"rt":null,"stimulus":"<div style=\"font-size:60px;\">+</div>","key_press":null,"trial_type":"html-keyboard-response","trial_index":176,"time_elapsed":365362,"internal_node_id":"0.0-8.0-1.42","subject":"kpz4nzms9z915s2"},{"trial_type":"turing-test","trial_index":177,"time_elapsed":369038,"internal_node_id":"0.0-8.0-2.42","subject":"kpz4nzms9z915s2"},{"rt":1582,"stimulus":"<p>Welche Sequenz haben Sie als natürlicher empfunden?</p>","button_pressed":"0","test_part":"response","test_stimulus":{"position":0,"left":"bvh/return-bottle-hold-training4-lines.txt","right":"bvh/vr_prediction_models/model(dmp)-dataset(return-bottle-hold)-npsi(30)-hold(4)/final-lines.txt","att_check":true},"trial_type":"html-button-response","trial_index":178,"time_elapsed":370625,"internal_node_id":"0.0-8.0-3.42","subject":"kpz4nzms9z915s2"},{"rt":549,"stimulus":"<p>Bereit?</p>","button_pressed":"0","trial_type":"html-button-response","trial_index":179,"time_elapsed":371177,"internal_node_id":"0.0-8.0-0.43","subject":"kpz4nzms9z915s2"},{"rt":null,"stimulus":"<div style=\"font-size:60px;\">+</div>","key_press":null,"trial_type":"html-keyboard-response","trial_index":180,"time_elapsed":373181,"internal_node_id":"0.0-8.0-1.43","subject":"kpz4nzms9z915s2"},{"trial_type":"turing-test","trial_index":181,"time_elapsed":376750,"internal_node_id":"0.0-8.0-2.43","subject":"kpz4nzms9z915s2"},{"rt":617.0000000000582,"stimulus":"<p>Welche Sequenz haben Sie als natürlicher empfunden?</p>","button_pressed":"0","test_part":"response","test_stimulus":{"position":1,"left":"bvh/vr_prediction_models/model(tmp)-dataset(return-bottle-hold)-numprim(5)-hold(4)/final-lines.txt","right":"bvh/return-bottle-hold-training4-lines.txt","att_check":false},"trial_type":"html-button-response","trial_index":182,"time_elapsed":377372,"internal_node_id":"0.0-8.0-3.43","subject":"kpz4nzms9z915s2"},{"rt":532,"stimulus":"<p>Bereit?</p>","button_pressed":"0","trial_type":"html-button-response","trial_index":183,"time_elapsed":377908,"internal_node_id":"0.0-8.0-0.44","subject":"kpz4nzms9z915s2"},{"rt":null,"stimulus":"<div style=\"font-size:60px;\">+</div>","key_press":null,"trial_type":"html-keyboard-response","trial_index":184,"time_elapsed":379913,"internal_node_id":"0.0-8.0-1.44","subject":"kpz4nzms9z915s2"},{"trial_type":"turing-test","trial_index":185,"time_elapsed":385539,"internal_node_id":"0.0-8.0-2.44","subject":"kpz4nzms9z915s2"}]