[{"rt":1764,"stimulus":"<p>Welcome!<br> Please choose your language to start the experiment in the chosen language.</p><p>Willkommen!<br> Bitte wählen Sie eine Sprache, um das Experiment in der ausgewählten Sprache zu starten</p>","button_pressed":"1","trial_type":"html-button-response","trial_index":0,"time_elapsed":1779,"internal_node_id":"0.0-0.0","subject":"ymw64fxhae2rj9k","sona":"9643"},{"view_history":"[{\"page_index\":0,\"viewing_time\":13989},{\"page_index\":1,\"viewing_time\":2431},{\"page_index\":2,\"viewing_time\":2183},{\"page_index\":3,\"viewing_time\":2633},{\"page_index\":4,\"viewing_time\":2048}]","rt":23285,"trial_type":"instructions","trial_index":1,"time_elapsed":25068,"internal_node_id":"0.0-1.0-0.0","subject":"ymw64fxhae2rj9k","sona":"9643"},{"rt":2231,"stimulus":"<p>Bereit?</p>","key_press":32,"trial_type":"html-keyboard-response","trial_index":2,"time_elapsed":27302,"internal_node_id":"0.0-3.0","subject":"ymw64fxhae2rj9k","sona":"9643"},{"rt":null,"stimulus":"<div style=\"font-size:60px;\">+</div>","key_press":null,"trial_type":"html-keyboard-response","trial_index":3,"time_elapsed":29317,"internal_node_id":"0.0-4.0","subject":"ymw64fxhae2rj9k","sona":"9643"},{"trial_type":"training","trial_index":4,"time_elapsed":32624,"internal_node_id":"0.0-5.0","subject":"ymw64fxhae2rj9k","sona":"9643"},{"rt":726,"stimulus":"<p>Welche Sequenz haben Sie als natürlicher empfunden?</p>","key_press":70,"trial_type":"html-keyboard-response","trial_index":5,"time_elapsed":33352,"internal_node_id":"0.0-6.0","subject":"ymw64fxhae2rj9k","sona":"9643"},{"rt":1663,"stimulus":"<p>Das Experiment startet nun.</p><p><small>Bitte drücken Sie den Knopf, wenn Sie bereit sind.</small></p>","button_pressed":"0","trial_type":"html-button-response","trial_index":6,"time_elapsed":35018,"internal_node_id":"0.0-7.0","subject":"ymw64fxhae2rj9k","sona":"9643"},{"rt":1967,"stimulus":"<p>Bereit?</p>","key_press":32,"trial_type":"html-keyboard-response","trial_index":7,"time_elapsed":36988,"internal_node_id":"0.0-8.0-0.0","subject":"ymw64fxhae2rj9k","sona":"9643"},{"rt":null,"stimulus":"<div style=\"font-size:60px;\">+</div>","key_press":null,"trial_type":"html-keyboard-response","trial_index":8,"time_elapsed":39007,"internal_node_id":"0.0-8.0-1.0","subject":"ymw64fxhae2rj9k","sona":"9643"},{"trial_type":"turing-test","trial_index":9,"time_elapsed":42515,"internal_node_id":"0.0-8.0-2.0","subject":"ymw64fxhae2rj9k","sona":"9643"},{"rt":1601,"stimulus":"<p>Welche Sequenz haben Sie als natürlicher empfunden?</p>","key_press":70,"test_part":"response","test_stimulus":{"position":1,"left":"bvh/vr_prediction_models/model(vcgpdm)-dataset(pass-bottle-hold)-mode(ELBO)-parts(1)-dyn(10)-lvm(5)-hold(2)/final-lines.txt","right":"bvh/pass-bottle-hold-training2-lines.txt","att_check":false},"trial_type":"html-keyboard-response","trial_index":10,"time_elapsed":44121,"internal_node_id":"0.0-8.0-3.0","subject":"ymw64fxhae2rj9k","sona":"9643"},{"rt":307,"stimulus":"<p>Bereit?</p>","key_press":32,"trial_type":"html-keyboard-response","trial_index":11,"time_elapsed":44433,"internal_node_id":"0.0-8.0-0.1","subject":"ymw64fxhae2rj9k","sona":"9643"},{"rt":null,"stimulus":"<div style=\"font-size:60px;\">+</div>","key_press":null,"trial_type":"html-keyboard-response","trial_index":12,"time_elapsed":46446,"internal_node_id":"0.0-8.0-1.1","subject":"ymw64fxhae2rj9k","sona":"9643"},{"trial_type":"turing-test","trial_index":13,"time_elapsed":52281,"internal_node_id":"0.0-8.0-2.1","subject":"ymw64fxhae2rj9k","sona":"9643"},{"rt":315,"stimulus":"<p>Welche Sequenz haben Sie als natürlicher empfunden?</p>","key_press":70,"test_part":"response","test_stimulus":{"position":1,"left":"bvh/vr_prediction_models/model(tmp)-dataset(pass-bottle)-numprim(6)-hold(4)/final-lines.txt","right":"bvh/pass-bottle-training4-lines.txt","att_check":false},"trial_type":"html-keyboard-response","trial_index":14,"time_elapsed":52598,"internal_node_id":"0.0-8.0-3.1","subject":"ymw64fxhae2rj9k","sona":"9643"},{"rt":410,"stimulus":"<p>Bereit?</p>","key_press":32,"trial_type":"html-keyboard-response","trial_index":15,"time_elapsed":53012,"internal_node_id":"0.0-8.0-0.2","subject":"ymw64fxhae2rj9k","sona":"9643"},{"rt":null,"stimulus":"<div style=\"font-size:60px;\">+</div>","key_press":null,"trial_type":"html-keyboard-response","trial_index":16,"time_elapsed":55027,"internal_node_id":"0.0-8.0-1.2","subject":"ymw64fxhae2rj9k","sona":"9643"},{"trial_type":"turing-test","trial_index":17,"time_elapsed":58600,"internal_node_id":"0.0-8.0-2.2","subject":"ymw64fxhae2rj9k","sona":"9643"},{"rt":1468,"stimulus":"<p>Welche Sequenz haben Sie als natürlicher empfunden?</p>","key_press":70,"test_part":"response","test_stimulus":{"position":0,"left":"bvh/pass-bottle-hold-training2-lines.txt","right":"bvh/vr_prediction_models/model(vcgpdm)-dataset(pass-bottle-hold)-mode(ELBO)-parts(3)-dyn(25)-lvm(30)-hold(2)/final-lines.txt","att_check":false},"trial_type":"html-keyboard-response","trial_index":18,"time_elapsed":60071,"internal_node_id":"0.0-8.0-3.2","subject":"ymw64fxhae2rj9k","sona":"9643"},{"rt":271,"stimulus":"<p>Bereit?</p>","key_press":32,"trial_type":"html-keyboard-response","trial_index":19,"time_elapsed":60343,"internal_node_id":"0.0-8.0-0.3","subject":"ymw64fxhae2rj9k","sona":"9643"},{"rt":null,"stimulus":"<div style=\"font-size:60px;\">+</div>","key_press":null,"trial_type":"html-keyboard-response","trial_index":20,"time_elapsed":62364,"internal_node_id":"0.0-8.0-1.3","subject":"ymw64fxhae2rj9k","sona":"9643"},{"trial_type":"turing-test","trial_index":21,"time_elapsed":66607,"internal_node_id":"0.0-8.0-2.3","subject":"ymw64fxhae2rj9k","sona":"9643"},{"rt":467,"stimulus":"<p>Welche Sequenz haben Sie als natürlicher empfunden?</p>","key_press":70,"test_part":"response","test_stimulus":{"position":1,"left":"bvh/vr_prediction_models/model(vcgpdm)-dataset(pass-bottle-hold)-mode(ELBO)-parts(3)-dyn(15)-lvm(30)-hold(0)/final-lines.txt","right":"bvh/pass-bottle-hold-training0-lines.txt","att_check":false},"trial_type":"html-keyboard-response","trial_index":22,"time_elapsed":67079,"internal_node_id":"0.0-8.0-3.3","subject":"ymw64fxhae2rj9k","sona":"9643"},{"rt":185,"stimulus":"<p>Bereit?</p>","key_press":32,"trial_type":"html-keyboard-response","trial_index":23,"time_elapsed":67270,"internal_node_id":"0.0-8.0-0.4","subject":"ymw64fxhae2rj9k","sona":"9643"},{"rt":null,"stimulus":"<div style=\"font-size:60px;\">+</div>","key_press":null,"trial_type":"html-keyboard-response","trial_index":24,"time_elapsed":69284,"internal_node_id":"0.0-8.0-1.4","subject":"ymw64fxhae2rj9k","sona":"9643"},{"trial_type":"turing-test","trial_index":25,"time_elapsed":72901,"internal_node_id":"0.0-8.0-2.4","subject":"ymw64fxhae2rj9k","sona":"9643"},{"rt":273,"stimulus":"<p>Welche Sequenz haben Sie als natürlicher empfunden?</p>","key_press":70,"test_part":"response","test_stimulus":{"position":0,"left":"bvh/return-bottle-hold-training2-lines.txt","right":"bvh/vr_prediction_models/model(tmp)-dataset(return-bottle-hold)-numprim(6)-hold(2)/final-lines.txt","att_check":false},"trial_type":"html-keyboard-response","trial_index":26,"time_elapsed":73177,"internal_node_id":"0.0-8.0-3.4","subject":"ymw64fxhae2rj9k","sona":"9643"},{"rt":213,"stimulus":"<p>Bereit?</p>","key_press":32,"trial_type":"html-keyboard-response","trial_index":27,"time_elapsed":73393,"internal_node_id":"0.0-8.0-0.5","subject":"ymw64fxhae2rj9k","sona":"9643"},{"rt":null,"stimulus":"<div style=\"font-size:60px;\">+</div>","key_press":null,"trial_type":"html-keyboard-response","trial_index":28,"time_elapsed":75398,"internal_node_id":"0.0-8.0-1.5","subject":"ymw64fxhae2rj9k","sona":"9643"},{"trial_type":"turing-test","trial_index":29,"time_elapsed":78769,"internal_node_id":"0.0-8.0-2.5","subject":"ymw64fxhae2rj9k","sona":"9643"},{"rt":447,"stimulus":"<p>Welche Sequenz haben Sie als natürlicher empfunden?</p>","key_press":70,"test_part":"response","test_stimulus":{"position":0,"left":"bvh/pass-bottle-hold-training2-lines.txt","right":"bvh/vr_prediction_models/model(tmp)-dataset(pass-bottle-hold)-numprim(5)-hold(2)/final-lines.txt","att_check":false},"trial_type":"html-keyboard-response","trial_index":30,"time_elapsed":79223,"internal_node_id":"0.0-8.0-3.5","subject":"ymw64fxhae2rj9k","sona":"9643"},{"rt":372,"stimulus":"<p>Bereit?</p>","key_press":32,"trial_type":"html-keyboard-response","trial_index":31,"time_elapsed":79598,"internal_node_id":"0.0-8.0-0.6","subject":"ymw64fxhae2rj9k","sona":"9643"},{"rt":null,"stimulus":"<div style=\"font-size:60px;\">+</div>","key_press":null,"trial_type":"html-keyboard-response","trial_index":32,"time_elapsed":81606,"internal_node_id":"0.0-8.0-1.6","subject":"ymw64fxhae2rj9k","sona":"9643"},{"trial_type":"turing-test","trial_index":33,"time_elapsed":85342,"internal_node_id":"0.0-8.0-2.6","subject":"ymw64fxhae2rj9k","sona":"9643"},{"rt":758,"stimulus":"<p>Welche Sequenz haben Sie als natürlicher empfunden?</p>","key_press":70,"test_part":"response","test_stimulus":{"position":1,"left":"bvh/vr_prediction_models/model(vcgpdm)-dataset(pass-bottle-hold)-mode(ELBO)-parts(3)-dyn(25)-lvm(15)-hold(0)/final-lines.txt","right":"bvh/pass-bottle-hold-training0-lines.txt","att_check":false},"trial_type":"html-keyboard-response","trial_index":34,"time_elapsed":86104,"internal_node_id":"0.0-8.0-3.6","subject":"ymw64fxhae2rj9k","sona":"9643"},{"rt":651,"stimulus":"<p>Bereit?</p>","key_press":32,"trial_type":"html-keyboard-response","trial_index":35,"time_elapsed":86756,"internal_node_id":"0.0-8.0-0.7","subject":"ymw64fxhae2rj9k","sona":"9643"},{"rt":null,"stimulus":"<div style=\"font-size:60px;\">+</div>","key_press":null,"trial_type":"html-keyboard-response","trial_index":36,"time_elapsed":88768,"internal_node_id":"0.0-8.0-1.7","subject":"ymw64fxhae2rj9k","sona":"9643"},{"trial_type":"turing-test","trial_index":37,"time_elapsed":92562,"internal_node_id":"0.0-8.0-2.7","subject":"ymw64fxhae2rj9k","sona":"9643"},{"rt":282,"stimulus":"<p>Welche Sequenz haben Sie als natürlicher empfunden?</p>","key_press":70,"test_part":"response","test_stimulus":{"position":0,"left":"bvh/pass-bottle-hold-training3-lines.txt","right":"bvh/vr_prediction_models/model(vcgpdm)-dataset(pass-bottle-hold)-mode(ELBO)-parts(1)-dyn(30)-lvm(20)-hold(3)/final-lines.txt","att_check":false},"trial_type":"html-keyboard-response","trial_index":38,"time_elapsed":92848,"internal_node_id":"0.0-8.0-3.7","subject":"ymw64fxhae2rj9k","sona":"9643"},{"rt":254,"stimulus":"<p>Bereit?</p>","key_press":32,"trial_type":"html-keyboard-response","trial_index":39,"time_elapsed":93108,"internal_node_id":"0.0-8.0-0.8","subject":"ymw64fxhae2rj9k","sona":"9643"},{"rt":null,"stimulus":"<div style=\"font-size:60px;\">+</div>","key_press":null,"trial_type":"html-keyboard-response","trial_index":40,"time_elapsed":95126,"internal_node_id":"0.0-8.0-1.8","subject":"ymw64fxhae2rj9k","sona":"9643"},{"trial_type":"turing-test","trial_index":41,"time_elapsed":98745,"internal_node_id":"0.0-8.0-2.8","subject":"ymw64fxhae2rj9k","sona":"9643"},{"rt":264,"stimulus":"<p>Welche Sequenz haben Sie als natürlicher empfunden?</p>","key_press":74,"test_part":"response","test_stimulus":{"position":1,"left":"bvh/vr_prediction_models/model(tmp)-dataset(pass-bottle-hold)-numprim(11)-hold(3)/final-lines.txt","right":"bvh/pass-bottle-hold-training3-lines.txt","att_check":false},"trial_type":"html-keyboard-response","trial_index":42,"time_elapsed":99011,"internal_node_id":"0.0-8.0-3.8","subject":"ymw64fxhae2rj9k","sona":"9643"},{"rt":217,"stimulus":"<p>Bereit?</p>","key_press":32,"trial_type":"html-keyboard-response","trial_index":43,"time_elapsed":99231,"internal_node_id":"0.0-8.0-0.9","subject":"ymw64fxhae2rj9k","sona":"9643"},{"rt":null,"stimulus":"<div style=\"font-size:60px;\">+</div>","key_press":null,"trial_type":"html-keyboard-response","trial_index":44,"time_elapsed":101233,"internal_node_id":"0.0-8.0-1.9","subject":"ymw64fxhae2rj9k","sona":"9643"},{"trial_type":"turing-test","trial_index":45,"time_elapsed":107023,"internal_node_id":"0.0-8.0-2.9","subject":"ymw64fxhae2rj9k","sona":"9643"},{"rt":1204,"stimulus":"<p>Welche Sequenz haben Sie als natürlicher empfunden?</p>","key_press":74,"test_part":"response","test_stimulus":{"position":1,"left":"bvh/vr_prediction_models/model(dmp)-dataset(return-bottle)-npsi(70)-hold(3)/final-lines.txt","right":"bvh/return-bottle-training3-lines.txt","att_check":false},"trial_type":"html-keyboard-response","trial_index":46,"time_elapsed":108230,"internal_node_id":"0.0-8.0-3.9","subject":"ymw64fxhae2rj9k","sona":"9643"},{"rt":161,"stimulus":"<p>Bereit?</p>","key_press":32,"trial_type":"html-keyboard-response","trial_index":47,"time_elapsed":108393,"internal_node_id":"0.0-8.0-0.10","subject":"ymw64fxhae2rj9k","sona":"9643"},{"rt":null,"stimulus":"<div style=\"font-size:60px;\">+</div>","key_press":null,"trial_type":"html-keyboard-response","trial_index":48,"time_elapsed":110413,"internal_node_id":"0.0-8.0-1.10","subject":"ymw64fxhae2rj9k","sona":"9643"},{"trial_type":"turing-test","trial_index":49,"time_elapsed":114393,"internal_node_id":"0.0-8.0-2.10","subject":"ymw64fxhae2rj9k","sona":"9643"},{"rt":225,"stimulus":"<p>Welche Sequenz haben Sie als natürlicher empfunden?</p>","key_press":70,"test_part":"response","test_stimulus":{"position":1,"left":"bvh/vr_prediction_models/model(vcgpdm)-dataset(return-bottle-hold)-mode(MAP)-parts(1)-hold(3)/final-lines.txt","right":"bvh/return-bottle-hold-training3-lines.txt","att_check":false},"trial_type":"html-keyboard-response","trial_index":50,"time_elapsed":114622,"internal_node_id":"0.0-8.0-3.10","subject":"ymw64fxhae2rj9k","sona":"9643"},{"rt":216,"stimulus":"<p>Bereit?</p>","key_press":32,"trial_type":"html-keyboard-response","trial_index":51,"time_elapsed":114839,"internal_node_id":"0.0-8.0-0.11","subject":"ymw64fxhae2rj9k","sona":"9643"},{"rt":null,"stimulus":"<div style=\"font-size:60px;\">+</div>","key_press":null,"trial_type":"html-keyboard-response","trial_index":52,"time_elapsed":116859,"internal_node_id":"0.0-8.0-1.11","subject":"ymw64fxhae2rj9k","sona":"9643"},{"trial_type":"turing-test","trial_index":53,"time_elapsed":120636,"internal_node_id":"0.0-8.0-2.11","subject":"ymw64fxhae2rj9k","sona":"9643"}]