[{"rt":2205,"stimulus":"<p>Welcome!<br> Please choose your language to start the experiment in the chosen language.</p><p>Willkommen!<br> Bitte wählen Sie eine Sprache, um das Experiment in der ausgewählten Sprache zu starten</p>","button_pressed":"1","trial_type":"html-button-response","trial_index":0,"time_elapsed":2219,"internal_node_id":"0.0-0.0","subject":"qdwgtquv6xxako2","sona":"9160"},{"view_history":"[{\"page_index\":0,\"viewing_time\":9},{\"page_index\":1,\"viewing_time\":1546},{\"page_index\":2,\"viewing_time\":824},{\"page_index\":3,\"viewing_time\":904},{\"page_index\":4,\"viewing_time\":1639}]","rt":4923,"trial_type":"instructions","trial_index":1,"time_elapsed":7145,"internal_node_id":"0.0-1.0-0.0","subject":"qdwgtquv6xxako2","sona":"9160"},{"rt":2759,"stimulus":"<p>Bereit?</p>","key_press":32,"trial_type":"html-keyboard-response","trial_index":2,"time_elapsed":9909,"internal_node_id":"0.0-3.0","subject":"qdwgtquv6xxako2","sona":"9160"},{"rt":null,"stimulus":"<div style=\"font-size:60px;\">+</div>","key_press":null,"trial_type":"html-keyboard-response","trial_index":3,"time_elapsed":11924,"internal_node_id":"0.0-4.0","subject":"qdwgtquv6xxako2","sona":"9160"},{"trial_type":"training","trial_index":4,"time_elapsed":15489,"internal_node_id":"0.0-5.0","subject":"qdwgtquv6xxako2","sona":"9160"},{"rt":290,"stimulus":"<p>Welche Sequenz haben Sie als natürlicher empfunden?</p>","key_press":70,"trial_type":"html-keyboard-response","trial_index":5,"time_elapsed":15785,"internal_node_id":"0.0-6.0","subject":"qdwgtquv6xxako2","sona":"9160"},{"rt":1733,"stimulus":"<p>Das Experiment startet nun.</p><p><small>Bitte drücken Sie den Knopf, wenn Sie bereit sind.</small></p>","button_pressed":"0","trial_type":"html-button-response","trial_index":6,"time_elapsed":17521,"internal_node_id":"0.0-7.0","subject":"qdwgtquv6xxako2","sona":"9160"},{"rt":1034,"stimulus":"<p>Bereit?</p>","key_press":32,"trial_type":"html-keyboard-response","trial_index":7,"time_elapsed":18558,"internal_node_id":"0.0-8.0-0.0","subject":"qdwgtquv6xxako2","sona":"9160"},{"rt":null,"stimulus":"<div style=\"font-size:60px;\">+</div>","key_press":null,"trial_type":"html-keyboard-response","trial_index":8,"time_elapsed":20580,"internal_node_id":"0.0-8.0-1.0","subject":"qdwgtquv6xxako2","sona":"9160"},{"trial_type":"turing-test","trial_index":9,"time_elapsed":24400,"internal_node_id":"0.0-8.0-2.0","subject":"qdwgtquv6xxako2","sona":"9160"},{"rt":304,"stimulus":"<p>Welche Sequenz haben Sie als natürlicher empfunden?</p>","key_press":74,"test_part":"response","test_stimulus":{"position":1,"left":"bvh/vr_prediction_models/model(vcgpdm)-dataset(return-bottle-hold)-mode(ELBO)-parts(3)-dyn(20)-lvm(20)-hold(2)/final-lines.txt","right":"bvh/return-bottle-hold-training2-lines.txt","att_check":false},"trial_type":"html-keyboard-response","trial_index":10,"time_elapsed":24706,"internal_node_id":"0.0-8.0-3.0","subject":"qdwgtquv6xxako2","sona":"9160"},{"rt":148,"stimulus":"<p>Bereit?</p>","key_press":32,"trial_type":"html-keyboard-response","trial_index":11,"time_elapsed":24858,"internal_node_id":"0.0-8.0-0.1","subject":"qdwgtquv6xxako2","sona":"9160"},{"rt":null,"stimulus":"<div style=\"font-size:60px;\">+</div>","key_press":null,"trial_type":"html-keyboard-response","trial_index":12,"time_elapsed":26881,"internal_node_id":"0.0-8.0-1.1","subject":"qdwgtquv6xxako2","sona":"9160"},{"trial_type":"turing-test","trial_index":13,"time_elapsed":30836,"internal_node_id":"0.0-8.0-2.1","subject":"qdwgtquv6xxako2","sona":"9160"},{"rt":638,"stimulus":"<p>Welche Sequenz haben Sie als natürlicher empfunden?</p>","key_press":70,"test_part":"response","test_stimulus":{"position":1,"left":"bvh/vr_prediction_models/model(tmp)-dataset(return-bottle-hold)-numprim(7)-hold(4)/final-lines.txt","right":"bvh/return-bottle-hold-training4-lines.txt","att_check":false},"trial_type":"html-keyboard-response","trial_index":14,"time_elapsed":31480,"internal_node_id":"0.0-8.0-3.1","subject":"qdwgtquv6xxako2","sona":"9160"},{"rt":164,"stimulus":"<p>Bereit?</p>","key_press":32,"trial_type":"html-keyboard-response","trial_index":15,"time_elapsed":31649,"internal_node_id":"0.0-8.0-0.2","subject":"qdwgtquv6xxako2","sona":"9160"},{"rt":null,"stimulus":"<div style=\"font-size:60px;\">+</div>","key_press":null,"trial_type":"html-keyboard-response","trial_index":16,"time_elapsed":33678,"internal_node_id":"0.0-8.0-1.2","subject":"qdwgtquv6xxako2","sona":"9160"},{"trial_type":"turing-test","trial_index":17,"time_elapsed":37658,"internal_node_id":"0.0-8.0-2.2","subject":"qdwgtquv6xxako2","sona":"9160"},{"rt":673,"stimulus":"<p>Welche Sequenz haben Sie als natürlicher empfunden?</p>","key_press":70,"test_part":"response","test_stimulus":{"position":1,"left":"bvh/vr_prediction_models/model(vcgpdm)-dataset(return-bottle-hold)-mode(ELBO)-parts(3)-dyn(35)-lvm(20)-hold(4)/final-lines.txt","right":"bvh/return-bottle-hold-training4-lines.txt","att_check":false},"trial_type":"html-keyboard-response","trial_index":18,"time_elapsed":38336,"internal_node_id":"0.0-8.0-3.2","subject":"qdwgtquv6xxako2","sona":"9160"},{"rt":295,"stimulus":"<p>Bereit?</p>","key_press":32,"trial_type":"html-keyboard-response","trial_index":19,"time_elapsed":38634,"internal_node_id":"0.0-8.0-0.3","subject":"qdwgtquv6xxako2","sona":"9160"},{"rt":null,"stimulus":"<div style=\"font-size:60px;\">+</div>","key_press":null,"trial_type":"html-keyboard-response","trial_index":20,"time_elapsed":40652,"internal_node_id":"0.0-8.0-1.3","subject":"qdwgtquv6xxako2","sona":"9160"},{"trial_type":"turing-test","trial_index":21,"time_elapsed":44080,"internal_node_id":"0.0-8.0-2.3","subject":"qdwgtquv6xxako2","sona":"9160"},{"rt":423,"stimulus":"<p>Welche Sequenz haben Sie als natürlicher empfunden?</p>","key_press":70,"test_part":"response","test_stimulus":{"position":0,"left":"bvh/pass-bottle-hold-training2-lines.txt","right":"bvh/vr_prediction_models/model(tmp)-dataset(pass-bottle-hold)-numprim(12)-hold(2)/final-lines.txt","att_check":false},"trial_type":"html-keyboard-response","trial_index":22,"time_elapsed":44511,"internal_node_id":"0.0-8.0-3.3","subject":"qdwgtquv6xxako2","sona":"9160"},{"rt":177,"stimulus":"<p>Bereit?</p>","key_press":32,"trial_type":"html-keyboard-response","trial_index":23,"time_elapsed":44693,"internal_node_id":"0.0-8.0-0.4","subject":"qdwgtquv6xxako2","sona":"9160"},{"rt":null,"stimulus":"<div style=\"font-size:60px;\">+</div>","key_press":null,"trial_type":"html-keyboard-response","trial_index":24,"time_elapsed":46730,"internal_node_id":"0.0-8.0-1.4","subject":"qdwgtquv6xxako2","sona":"9160"},{"trial_type":"turing-test","trial_index":25,"time_elapsed":52273,"internal_node_id":"0.0-8.0-2.4","subject":"qdwgtquv6xxako2","sona":"9160"},{"rt":311,"stimulus":"<p>Welche Sequenz haben Sie als natürlicher empfunden?</p>","key_press":74,"test_part":"response","test_stimulus":{"position":1,"left":"bvh/vr_prediction_models/model(tmp)-dataset(pass-bottle)-numprim(12)-hold(1)/final-lines.txt","right":"bvh/pass-bottle-training1-lines.txt","att_check":false},"trial_type":"html-keyboard-response","trial_index":26,"time_elapsed":52585,"internal_node_id":"0.0-8.0-3.4","subject":"qdwgtquv6xxako2","sona":"9160"},{"rt":211,"stimulus":"<p>Bereit?</p>","key_press":32,"trial_type":"html-keyboard-response","trial_index":27,"time_elapsed":52798,"internal_node_id":"0.0-8.0-0.5","subject":"qdwgtquv6xxako2","sona":"9160"},{"rt":null,"stimulus":"<div style=\"font-size:60px;\">+</div>","key_press":null,"trial_type":"html-keyboard-response","trial_index":28,"time_elapsed":54823,"internal_node_id":"0.0-8.0-1.5","subject":"qdwgtquv6xxako2","sona":"9160"},{"trial_type":"turing-test","trial_index":29,"time_elapsed":60742,"internal_node_id":"0.0-8.0-2.5","subject":"qdwgtquv6xxako2","sona":"9160"},{"rt":267,"stimulus":"<p>Welche Sequenz haben Sie als natürlicher empfunden?</p>","key_press":70,"test_part":"response","test_stimulus":{"position":0,"left":"bvh/return-bottle-training4-lines.txt","right":"bvh/vr_prediction_models/model(dmp)-dataset(return-bottle)-npsi(30)-hold(4)/final-lines.txt","att_check":false},"trial_type":"html-keyboard-response","trial_index":30,"time_elapsed":61015,"internal_node_id":"0.0-8.0-3.5","subject":"qdwgtquv6xxako2","sona":"9160"},{"rt":217,"stimulus":"<p>Bereit?</p>","key_press":32,"trial_type":"html-keyboard-response","trial_index":31,"time_elapsed":61238,"internal_node_id":"0.0-8.0-0.6","subject":"qdwgtquv6xxako2","sona":"9160"},{"rt":null,"stimulus":"<div style=\"font-size:60px;\">+</div>","key_press":null,"trial_type":"html-keyboard-response","trial_index":32,"time_elapsed":63257,"internal_node_id":"0.0-8.0-1.6","subject":"qdwgtquv6xxako2","sona":"9160"},{"trial_type":"turing-test","trial_index":33,"time_elapsed":67121,"internal_node_id":"0.0-8.0-2.6","subject":"qdwgtquv6xxako2","sona":"9160"},{"rt":261,"stimulus":"<p>Welche Sequenz haben Sie als natürlicher empfunden?</p>","key_press":74,"test_part":"response","test_stimulus":{"position":1,"left":"bvh/vr_prediction_models/model(vcgpdm)-dataset(return-bottle-hold)-mode(ELBO)-parts(1)-dyn(10)-lvm(30)-hold(3)/final-lines.txt","right":"bvh/return-bottle-hold-training3-lines.txt","att_check":false},"trial_type":"html-keyboard-response","trial_index":34,"time_elapsed":67386,"internal_node_id":"0.0-8.0-3.6","subject":"qdwgtquv6xxako2","sona":"9160"},{"rt":126,"stimulus":"<p>Bereit?</p>","key_press":32,"trial_type":"html-keyboard-response","trial_index":35,"time_elapsed":67517,"internal_node_id":"0.0-8.0-0.7","subject":"qdwgtquv6xxako2","sona":"9160"},{"rt":null,"stimulus":"<div style=\"font-size:60px;\">+</div>","key_press":null,"trial_type":"html-keyboard-response","trial_index":36,"time_elapsed":69526,"internal_node_id":"0.0-8.0-1.7","subject":"qdwgtquv6xxako2","sona":"9160"},{"trial_type":"turing-test","trial_index":37,"time_elapsed":73492,"internal_node_id":"0.0-8.0-2.7","subject":"qdwgtquv6xxako2","sona":"9160"},{"rt":2416,"stimulus":"<p>Welche Sequenz haben Sie als natürlicher empfunden?</p>","key_press":70,"test_part":"response","test_stimulus":{"position":0,"left":"bvh/return-bottle-hold-training4-lines.txt","right":"bvh/vr_prediction_models/model(vcgpdm)-dataset(return-bottle-hold)-mode(ELBO)-parts(3)-dyn(15)-lvm(30)-hold(4)/final-lines.txt","att_check":false},"trial_type":"html-keyboard-response","trial_index":38,"time_elapsed":75918,"internal_node_id":"0.0-8.0-3.7","subject":"qdwgtquv6xxako2","sona":"9160"},{"rt":206,"stimulus":"<p>Bereit?</p>","key_press":32,"trial_type":"html-keyboard-response","trial_index":39,"time_elapsed":76130,"internal_node_id":"0.0-8.0-0.8","subject":"qdwgtquv6xxako2","sona":"9160"},{"rt":null,"stimulus":"<div style=\"font-size:60px;\">+</div>","key_press":null,"trial_type":"html-keyboard-response","trial_index":40,"time_elapsed":78146,"internal_node_id":"0.0-8.0-1.8","subject":"qdwgtquv6xxako2","sona":"9160"},{"trial_type":"turing-test","trial_index":41,"time_elapsed":82397,"internal_node_id":"0.0-8.0-2.8","subject":"qdwgtquv6xxako2","sona":"9160"},{"rt":404,"stimulus":"<p>Welche Sequenz haben Sie als natürlicher empfunden?</p>","key_press":70,"test_part":"response","test_stimulus":{"position":1,"left":"bvh/vr_prediction_models/model(vcgpdm)-dataset(return-bottle-hold)-mode(MAP)-parts(1)-hold(4)/final-lines.txt","right":"bvh/return-bottle-hold-training4-lines.txt","att_check":false},"trial_type":"html-keyboard-response","trial_index":42,"time_elapsed":82807,"internal_node_id":"0.0-8.0-3.8","subject":"qdwgtquv6xxako2","sona":"9160"},{"rt":225,"stimulus":"<p>Bereit?</p>","key_press":32,"trial_type":"html-keyboard-response","trial_index":43,"time_elapsed":83038,"internal_node_id":"0.0-8.0-0.9","subject":"qdwgtquv6xxako2","sona":"9160"},{"rt":null,"stimulus":"<div style=\"font-size:60px;\">+</div>","key_press":null,"trial_type":"html-keyboard-response","trial_index":44,"time_elapsed":85061,"internal_node_id":"0.0-8.0-1.9","subject":"qdwgtquv6xxako2","sona":"9160"},{"trial_type":"turing-test","trial_index":45,"time_elapsed":90706,"internal_node_id":"0.0-8.0-2.9","subject":"qdwgtquv6xxako2","sona":"9160"},{"rt":299,"stimulus":"<p>Welche Sequenz haben Sie als natürlicher empfunden?</p>","key_press":74,"test_part":"response","test_stimulus":{"position":1,"left":"bvh/vr_prediction_models/model(vcgpdm)-dataset(pass-bottle)-mode(ELBO)-parts(3)-dyn(25)-lvm(15)-hold(1)/final-lines.txt","right":"bvh/pass-bottle-training1-lines.txt","att_check":false},"trial_type":"html-keyboard-response","trial_index":46,"time_elapsed":91011,"internal_node_id":"0.0-8.0-3.9","subject":"qdwgtquv6xxako2","sona":"9160"},{"rt":115,"stimulus":"<p>Bereit?</p>","key_press":32,"trial_type":"html-keyboard-response","trial_index":47,"time_elapsed":91132,"internal_node_id":"0.0-8.0-0.10","subject":"qdwgtquv6xxako2","sona":"9160"},{"rt":null,"stimulus":"<div style=\"font-size:60px;\">+</div>","key_press":null,"trial_type":"html-keyboard-response","trial_index":48,"time_elapsed":93146,"internal_node_id":"0.0-8.0-1.10","subject":"qdwgtquv6xxako2","sona":"9160"},{"trial_type":"turing-test","trial_index":49,"time_elapsed":101976,"internal_node_id":"0.0-8.0-2.10","subject":"qdwgtquv6xxako2","sona":"9160"},{"rt":3136,"stimulus":"<p>Welche Sequenz haben Sie als natürlicher empfunden?</p>","key_press":70,"test_part":"response","test_stimulus":{"position":1,"left":"bvh/vr_prediction_models/model(vcgpdm)-dataset(pass-bottle-hold)-mode(ELBO)-parts(1)-dyn(20)-lvm(30)-hold(4)/final-lines.txt","right":"bvh/pass-bottle-hold-training4-lines.txt","att_check":false},"trial_type":"html-keyboard-response","trial_index":50,"time_elapsed":105120,"internal_node_id":"0.0-8.0-3.10","subject":"qdwgtquv6xxako2","sona":"9160"},{"rt":460,"stimulus":"<p>Bereit?</p>","key_press":32,"trial_type":"html-keyboard-response","trial_index":51,"time_elapsed":105584,"internal_node_id":"0.0-8.0-0.11","subject":"qdwgtquv6xxako2","sona":"9160"},{"rt":null,"stimulus":"<div style=\"font-size:60px;\">+</div>","key_press":null,"trial_type":"html-keyboard-response","trial_index":52,"time_elapsed":107616,"internal_node_id":"0.0-8.0-1.11","subject":"qdwgtquv6xxako2","sona":"9160"},{"trial_type":"turing-test","trial_index":53,"time_elapsed":111359,"internal_node_id":"0.0-8.0-2.11","subject":"qdwgtquv6xxako2","sona":"9160"},{"rt":321,"stimulus":"<p>Welche Sequenz haben Sie als natürlicher empfunden?</p>","key_press":70,"test_part":"response","test_stimulus":{"position":0,"left":"bvh/return-bottle-hold-training2-lines.txt","right":"bvh/vr_prediction_models/model(vcgpdm)-dataset(return-bottle-hold)-mode(ELBO)-parts(1)-dyn(15)-lvm(35)-hold(2)/final-lines.txt","att_check":false},"trial_type":"html-keyboard-response","trial_index":54,"time_elapsed":111689,"internal_node_id":"0.0-8.0-3.11","subject":"qdwgtquv6xxako2","sona":"9160"},{"rt":252,"stimulus":"<p>Bereit?</p>","key_press":32,"trial_type":"html-keyboard-response","trial_index":55,"time_elapsed":111943,"internal_node_id":"0.0-8.0-0.12","subject":"qdwgtquv6xxako2","sona":"9160"},{"rt":null,"stimulus":"<div style=\"font-size:60px;\">+</div>","key_press":null,"trial_type":"html-keyboard-response","trial_index":56,"time_elapsed":113969,"internal_node_id":"0.0-8.0-1.12","subject":"qdwgtquv6xxako2","sona":"9160"},{"trial_type":"turing-test","trial_index":57,"time_elapsed":117876,"internal_node_id":"0.0-8.0-2.12","subject":"qdwgtquv6xxako2","sona":"9160"},{"rt":326,"stimulus":"<p>Welche Sequenz haben Sie als natürlicher empfunden?</p>","key_press":70,"test_part":"response","test_stimulus":{"position":0,"left":"bvh/return-bottle-hold-training4-lines.txt","right":"bvh/vr_prediction_models/model(vcgpdm)-dataset(return-bottle-hold)-mode(ELBO)-parts(1)-dyn(15)-lvm(35)-hold(4)/final-lines.txt","att_check":false},"trial_type":"html-keyboard-response","trial_index":58,"time_elapsed":118209,"internal_node_id":"0.0-8.0-3.12","subject":"qdwgtquv6xxako2","sona":"9160"},{"rt":3146,"stimulus":"<p>Bereit?</p>","key_press":32,"trial_type":"html-keyboard-response","trial_index":59,"time_elapsed":121361,"internal_node_id":"0.0-8.0-0.13","subject":"qdwgtquv6xxako2","sona":"9160"},{"rt":null,"stimulus":"<div style=\"font-size:60px;\">+</div>","key_press":null,"trial_type":"html-keyboard-response","trial_index":60,"time_elapsed":123387,"internal_node_id":"0.0-8.0-1.13","subject":"qdwgtquv6xxako2","sona":"9160"},{"trial_type":"turing-test","trial_index":61,"time_elapsed":129543,"internal_node_id":"0.0-8.0-2.13","subject":"qdwgtquv6xxako2","sona":"9160"},{"rt":399,"stimulus":"<p>Welche Sequenz haben Sie als natürlicher empfunden?</p>","key_press":70,"test_part":"response","test_stimulus":{"position":1,"left":"bvh/vr_prediction_models/model(vcgpdm)-dataset(return-bottle)-mode(ELBO)-parts(1)-dyn(20)-lvm(20)-hold(3)/final-lines.txt","right":"bvh/return-bottle-training3-lines.txt","att_check":false},"trial_type":"html-keyboard-response","trial_index":62,"time_elapsed":129948,"internal_node_id":"0.0-8.0-3.13","subject":"qdwgtquv6xxako2","sona":"9160"},{"rt":340,"stimulus":"<p>Bereit?</p>","key_press":32,"trial_type":"html-keyboard-response","trial_index":63,"time_elapsed":130293,"internal_node_id":"0.0-8.0-0.14","subject":"qdwgtquv6xxako2","sona":"9160"},{"rt":null,"stimulus":"<div style=\"font-size:60px;\">+</div>","key_press":null,"trial_type":"html-keyboard-response","trial_index":64,"time_elapsed":132313,"internal_node_id":"0.0-8.0-1.14","subject":"qdwgtquv6xxako2","sona":"9160"},{"trial_type":"turing-test","trial_index":65,"time_elapsed":139241,"internal_node_id":"0.0-8.0-2.14","subject":"qdwgtquv6xxako2","sona":"9160"},{"rt":280,"stimulus":"<p>Welche Sequenz haben Sie als natürlicher empfunden?</p>","key_press":74,"test_part":"response","test_stimulus":{"position":1,"left":"bvh/vr_prediction_models/model(dmp)-dataset(pass-bottle)-npsi(80)-hold(0)/final-lines.txt","right":"bvh/pass-bottle-training0-lines.txt","att_check":false},"trial_type":"html-keyboard-response","trial_index":66,"time_elapsed":139527,"internal_node_id":"0.0-8.0-3.14","subject":"qdwgtquv6xxako2","sona":"9160"},{"rt":181,"stimulus":"<p>Bereit?</p>","key_press":32,"trial_type":"html-keyboard-response","trial_index":67,"time_elapsed":139713,"internal_node_id":"0.0-8.0-0.15","subject":"qdwgtquv6xxako2","sona":"9160"},{"rt":null,"stimulus":"<div style=\"font-size:60px;\">+</div>","key_press":null,"trial_type":"html-keyboard-response","trial_index":68,"time_elapsed":141742,"internal_node_id":"0.0-8.0-1.15","subject":"qdwgtquv6xxako2","sona":"9160"},{"trial_type":"turing-test","trial_index":69,"time_elapsed":145521,"internal_node_id":"0.0-8.0-2.15","subject":"qdwgtquv6xxako2","sona":"9160"},{"rt":322,"stimulus":"<p>Welche Sequenz haben Sie als natürlicher empfunden?</p>","key_press":74,"test_part":"response","test_stimulus":{"position":1,"left":"bvh/vr_prediction_models/model(dmp)-dataset(pass-bottle-hold)-npsi(80)-hold(3)/final-lines.txt","right":"bvh/pass-bottle-hold-training3-lines.txt","att_check":false},"trial_type":"html-keyboard-response","trial_index":70,"time_elapsed":145851,"internal_node_id":"0.0-8.0-3.15","subject":"qdwgtquv6xxako2","sona":"9160"},{"rt":132,"stimulus":"<p>Bereit?</p>","key_press":32,"trial_type":"html-keyboard-response","trial_index":71,"time_elapsed":145990,"internal_node_id":"0.0-8.0-0.16","subject":"qdwgtquv6xxako2","sona":"9160"},{"rt":null,"stimulus":"<div style=\"font-size:60px;\">+</div>","key_press":null,"trial_type":"html-keyboard-response","trial_index":72,"time_elapsed":148012,"internal_node_id":"0.0-8.0-1.16","subject":"qdwgtquv6xxako2","sona":"9160"},{"trial_type":"turing-test","trial_index":73,"time_elapsed":151690,"internal_node_id":"0.0-8.0-2.16","subject":"qdwgtquv6xxako2","sona":"9160"},{"rt":302,"stimulus":"<p>Welche Sequenz haben Sie als natürlicher empfunden?</p>","key_press":70,"test_part":"response","test_stimulus":{"position":0,"left":"bvh/pass-bottle-hold-training3-lines.txt","right":"bvh/vr_prediction_models/model(tmp)-dataset(pass-bottle-hold)-numprim(8)-hold(3)/final-lines.txt","att_check":false},"trial_type":"html-keyboard-response","trial_index":74,"time_elapsed":151998,"internal_node_id":"0.0-8.0-3.16","subject":"qdwgtquv6xxako2","sona":"9160"},{"rt":285,"stimulus":"<p>Bereit?</p>","key_press":32,"trial_type":"html-keyboard-response","trial_index":75,"time_elapsed":152289,"internal_node_id":"0.0-8.0-0.17","subject":"qdwgtquv6xxako2","sona":"9160"},{"rt":null,"stimulus":"<div style=\"font-size:60px;\">+</div>","key_press":null,"trial_type":"html-keyboard-response","trial_index":76,"time_elapsed":154319,"internal_node_id":"0.0-8.0-1.17","subject":"qdwgtquv6xxako2","sona":"9160"},{"trial_type":"turing-test","trial_index":77,"time_elapsed":160774,"internal_node_id":"0.0-8.0-2.17","subject":"qdwgtquv6xxako2","sona":"9160"},{"rt":335,"stimulus":"<p>Welche Sequenz haben Sie als natürlicher empfunden?</p>","key_press":74,"test_part":"response","test_stimulus":{"position":1,"left":"bvh/vr_prediction_models/model(vcgpdm)-dataset(pass-bottle)-mode(ELBO)-parts(3)-dyn(15)-lvm(30)-hold(2)/final-lines.txt","right":"bvh/pass-bottle-training2-lines.txt","att_check":false},"trial_type":"html-keyboard-response","trial_index":78,"time_elapsed":161117,"internal_node_id":"0.0-8.0-3.17","subject":"qdwgtquv6xxako2","sona":"9160"},{"rt":153,"stimulus":"<p>Bereit?</p>","key_press":32,"trial_type":"html-keyboard-response","trial_index":79,"time_elapsed":161275,"internal_node_id":"0.0-8.0-0.18","subject":"qdwgtquv6xxako2","sona":"9160"},{"rt":null,"stimulus":"<div style=\"font-size:60px;\">+</div>","key_press":null,"trial_type":"html-keyboard-response","trial_index":80,"time_elapsed":163304,"internal_node_id":"0.0-8.0-1.18","subject":"qdwgtquv6xxako2","sona":"9160"},{"trial_type":"turing-test","trial_index":81,"time_elapsed":166956,"internal_node_id":"0.0-8.0-2.18","subject":"qdwgtquv6xxako2","sona":"9160"},{"rt":385,"stimulus":"<p>Welche Sequenz haben Sie als natürlicher empfunden?</p>","key_press":70,"test_part":"response","test_stimulus":{"position":0,"left":"bvh/pass-bottle-hold-training3-lines.txt","right":"bvh/vr_prediction_models/model(tmp)-dataset(pass-bottle-hold)-numprim(6)-hold(3)/final-lines.txt","att_check":false},"trial_type":"html-keyboard-response","trial_index":82,"time_elapsed":167350,"internal_node_id":"0.0-8.0-3.18","subject":"qdwgtquv6xxako2","sona":"9160"},{"rt":258,"stimulus":"<p>Bereit?</p>","key_press":32,"trial_type":"html-keyboard-response","trial_index":83,"time_elapsed":167617,"internal_node_id":"0.0-8.0-0.19","subject":"qdwgtquv6xxako2","sona":"9160"},{"rt":null,"stimulus":"<div style=\"font-size:60px;\">+</div>","key_press":null,"trial_type":"html-keyboard-response","trial_index":84,"time_elapsed":169636,"internal_node_id":"0.0-8.0-1.19","subject":"qdwgtquv6xxako2","sona":"9160"},{"trial_type":"turing-test","trial_index":85,"time_elapsed":173362,"internal_node_id":"0.0-8.0-2.19","subject":"qdwgtquv6xxako2","sona":"9160"},{"rt":625,"stimulus":"<p>Welche Sequenz haben Sie als natürlicher empfunden?</p>","key_press":74,"test_part":"response","test_stimulus":{"position":1,"left":"bvh/vr_prediction_models/model(vcgpdm)-dataset(return-bottle-hold)-mode(ELBO)-parts(3)-dyn(20)-lvm(15)-hold(1)/final-lines.txt","right":"bvh/return-bottle-hold-training1-lines.txt","att_check":false},"trial_type":"html-keyboard-response","trial_index":86,"time_elapsed":173995,"internal_node_id":"0.0-8.0-3.19","subject":"qdwgtquv6xxako2","sona":"9160"},{"rt":188,"stimulus":"<p>Bereit?</p>","key_press":32,"trial_type":"html-keyboard-response","trial_index":87,"time_elapsed":174189,"internal_node_id":"0.0-8.0-0.20","subject":"qdwgtquv6xxako2","sona":"9160"},{"rt":null,"stimulus":"<div style=\"font-size:60px;\">+</div>","key_press":null,"trial_type":"html-keyboard-response","trial_index":88,"time_elapsed":176212,"internal_node_id":"0.0-8.0-1.20","subject":"qdwgtquv6xxako2","sona":"9160"},{"trial_type":"turing-test","trial_index":89,"time_elapsed":182294,"internal_node_id":"0.0-8.0-2.20","subject":"qdwgtquv6xxako2","sona":"9160"},{"rt":275,"stimulus":"<p>Welche Sequenz haben Sie als natürlicher empfunden?</p>","key_press":74,"test_part":"response","test_stimulus":{"position":1,"left":"bvh/vr_prediction_models/model(dmp)-dataset(pass-bottle)-npsi(70)-hold(4)/final-lines.txt","right":"bvh/pass-bottle-training4-lines.txt","att_check":false},"trial_type":"html-keyboard-response","trial_index":90,"time_elapsed":182576,"internal_node_id":"0.0-8.0-3.20","subject":"qdwgtquv6xxako2","sona":"9160"},{"rt":143,"stimulus":"<p>Bereit?</p>","key_press":32,"trial_type":"html-keyboard-response","trial_index":91,"time_elapsed":182727,"internal_node_id":"0.0-8.0-0.21","subject":"qdwgtquv6xxako2","sona":"9160"},{"rt":null,"stimulus":"<div style=\"font-size:60px;\">+</div>","key_press":null,"trial_type":"html-keyboard-response","trial_index":92,"time_elapsed":184764,"internal_node_id":"0.0-8.0-1.21","subject":"qdwgtquv6xxako2","sona":"9160"},{"trial_type":"turing-test","trial_index":93,"time_elapsed":188590,"internal_node_id":"0.0-8.0-2.21","subject":"qdwgtquv6xxako2","sona":"9160"},{"rt":301,"stimulus":"<p>Welche Sequenz haben Sie als natürlicher empfunden?</p>","key_press":74,"test_part":"response","test_stimulus":{"position":1,"left":"bvh/vr_prediction_models/model(vcgpdm)-dataset(return-bottle-hold)-mode(ELBO)-parts(1)-dyn(35)-lvm(30)-hold(2)/final-lines.txt","right":"bvh/return-bottle-hold-training2-lines.txt","att_check":false},"trial_type":"html-keyboard-response","trial_index":94,"time_elapsed":188898,"internal_node_id":"0.0-8.0-3.21","subject":"qdwgtquv6xxako2","sona":"9160"},{"rt":88,"stimulus":"<p>Bereit?</p>","key_press":32,"trial_type":"html-keyboard-response","trial_index":95,"time_elapsed":188995,"internal_node_id":"0.0-8.0-0.22","subject":"qdwgtquv6xxako2","sona":"9160"},{"rt":null,"stimulus":"<div style=\"font-size:60px;\">+</div>","key_press":null,"trial_type":"html-keyboard-response","trial_index":96,"time_elapsed":191021,"internal_node_id":"0.0-8.0-1.22","subject":"qdwgtquv6xxako2","sona":"9160"},{"trial_type":"turing-test","trial_index":97,"time_elapsed":194749,"internal_node_id":"0.0-8.0-2.22","subject":"qdwgtquv6xxako2","sona":"9160"},{"rt":998,"stimulus":"<p>Welche Sequenz haben Sie als natürlicher empfunden?</p>","key_press":74,"test_part":"response","test_stimulus":{"position":1,"left":"bvh/vr_prediction_models/model(dmp)-dataset(pass-bottle-hold)-npsi(40)-hold(3)/final-lines.txt","right":"bvh/pass-bottle-hold-training3-lines.txt","att_check":false},"trial_type":"html-keyboard-response","trial_index":98,"time_elapsed":195755,"internal_node_id":"0.0-8.0-3.22","subject":"qdwgtquv6xxako2","sona":"9160"},{"rt":69,"stimulus":"<p>Bereit?</p>","key_press":32,"trial_type":"html-keyboard-response","trial_index":99,"time_elapsed":195832,"internal_node_id":"0.0-8.0-0.23","subject":"qdwgtquv6xxako2","sona":"9160"},{"rt":null,"stimulus":"<div style=\"font-size:60px;\">+</div>","key_press":null,"trial_type":"html-keyboard-response","trial_index":100,"time_elapsed":197858,"internal_node_id":"0.0-8.0-1.23","subject":"qdwgtquv6xxako2","sona":"9160"},{"trial_type":"turing-test","trial_index":101,"time_elapsed":204233,"internal_node_id":"0.0-8.0-2.23","subject":"qdwgtquv6xxako2","sona":"9160"},{"rt":371,"stimulus":"<p>Welche Sequenz haben Sie als natürlicher empfunden?</p>","key_press":74,"test_part":"response","test_stimulus":{"position":1,"left":"bvh/vr_prediction_models/model(vcgpdm)-dataset(pass-bottle)-mode(ELBO)-parts(3)-dyn(10)-lvm(25)-hold(2)/final-lines.txt","right":"bvh/pass-bottle-training2-lines.txt","att_check":false},"trial_type":"html-keyboard-response","trial_index":102,"time_elapsed":204614,"internal_node_id":"0.0-8.0-3.23","subject":"qdwgtquv6xxako2","sona":"9160"},{"rt":252,"stimulus":"<p>Bereit?</p>","key_press":32,"trial_type":"html-keyboard-response","trial_index":103,"time_elapsed":204874,"internal_node_id":"0.0-8.0-0.24","subject":"qdwgtquv6xxako2","sona":"9160"},{"rt":null,"stimulus":"<div style=\"font-size:60px;\">+</div>","key_press":null,"trial_type":"html-keyboard-response","trial_index":104,"time_elapsed":206911,"internal_node_id":"0.0-8.0-1.24","subject":"qdwgtquv6xxako2","sona":"9160"},{"trial_type":"turing-test","trial_index":105,"time_elapsed":210778,"internal_node_id":"0.0-8.0-2.24","subject":"qdwgtquv6xxako2","sona":"9160"},{"rt":223,"stimulus":"<p>Welche Sequenz haben Sie als natürlicher empfunden?</p>","key_press":74,"test_part":"response","test_stimulus":{"position":1,"left":"bvh/vr_prediction_models/model(vcgpdm)-dataset(pass-bottle-hold)-mode(MAP)-parts(1)-hold(3)/final-lines.txt","right":"bvh/pass-bottle-hold-training3-lines.txt","att_check":false},"trial_type":"html-keyboard-response","trial_index":106,"time_elapsed":211010,"internal_node_id":"0.0-8.0-3.24","subject":"qdwgtquv6xxako2","sona":"9160"},{"rt":113,"stimulus":"<p>Bereit?</p>","key_press":32,"trial_type":"html-keyboard-response","trial_index":107,"time_elapsed":211133,"internal_node_id":"0.0-8.0-0.25","subject":"qdwgtquv6xxako2","sona":"9160"},{"rt":null,"stimulus":"<div style=\"font-size:60px;\">+</div>","key_press":null,"trial_type":"html-keyboard-response","trial_index":108,"time_elapsed":213145,"internal_node_id":"0.0-8.0-1.25","subject":"qdwgtquv6xxako2","sona":"9160"},{"trial_type":"turing-test","trial_index":109,"time_elapsed":219550,"internal_node_id":"0.0-8.0-2.25","subject":"qdwgtquv6xxako2","sona":"9160"},{"rt":266,"stimulus":"<p>Welche Sequenz haben Sie als natürlicher empfunden?</p>","key_press":70,"test_part":"response","test_stimulus":{"position":0,"left":"bvh/return-bottle-training1-lines.txt","right":"bvh/vr_prediction_models/model(dmp)-dataset(return-bottle)-npsi(10)-hold(1)/final-lines.txt","att_check":true},"trial_type":"html-keyboard-response","trial_index":110,"time_elapsed":219826,"internal_node_id":"0.0-8.0-3.25","subject":"qdwgtquv6xxako2","sona":"9160"},{"rt":221,"stimulus":"<p>Bereit?</p>","key_press":32,"trial_type":"html-keyboard-response","trial_index":111,"time_elapsed":220057,"internal_node_id":"0.0-8.0-0.26","subject":"qdwgtquv6xxako2","sona":"9160"},{"rt":null,"stimulus":"<div style=\"font-size:60px;\">+</div>","key_press":null,"trial_type":"html-keyboard-response","trial_index":112,"time_elapsed":222087,"internal_node_id":"0.0-8.0-1.26","subject":"qdwgtquv6xxako2","sona":"9160"},{"trial_type":"turing-test","trial_index":113,"time_elapsed":228036,"internal_node_id":"0.0-8.0-2.26","subject":"qdwgtquv6xxako2","sona":"9160"},{"rt":310,"stimulus":"<p>Welche Sequenz haben Sie als natürlicher empfunden?</p>","key_press":74,"test_part":"response","test_stimulus":{"position":1,"left":"bvh/vr_prediction_models/model(tmp)-dataset(return-bottle)-numprim(12)-hold(3)/final-lines.txt","right":"bvh/return-bottle-training3-lines.txt","att_check":false},"trial_type":"html-keyboard-response","trial_index":114,"time_elapsed":228356,"internal_node_id":"0.0-8.0-3.26","subject":"qdwgtquv6xxako2","sona":"9160"},{"rt":84,"stimulus":"<p>Bereit?</p>","key_press":32,"trial_type":"html-keyboard-response","trial_index":115,"time_elapsed":228449,"internal_node_id":"0.0-8.0-0.27","subject":"qdwgtquv6xxako2","sona":"9160"},{"rt":null,"stimulus":"<div style=\"font-size:60px;\">+</div>","key_press":null,"trial_type":"html-keyboard-response","trial_index":116,"time_elapsed":230476,"internal_node_id":"0.0-8.0-1.27","subject":"qdwgtquv6xxako2","sona":"9160"},{"trial_type":"turing-test","trial_index":117,"time_elapsed":236632,"internal_node_id":"0.0-8.0-2.27","subject":"qdwgtquv6xxako2","sona":"9160"},{"rt":522,"stimulus":"<p>Welche Sequenz haben Sie als natürlicher empfunden?</p>","key_press":70,"test_part":"response","test_stimulus":{"position":0,"left":"bvh/return-bottle-training1-lines.txt","right":"bvh/vr_prediction_models/model(dmp)-dataset(return-bottle)-npsi(100)-hold(1)/final-lines.txt","att_check":false},"trial_type":"html-keyboard-response","trial_index":118,"time_elapsed":237167,"internal_node_id":"0.0-8.0-3.27","subject":"qdwgtquv6xxako2","sona":"9160"},{"rt":576,"stimulus":"<p>Bereit?</p>","key_press":32,"trial_type":"html-keyboard-response","trial_index":119,"time_elapsed":237752,"internal_node_id":"0.0-8.0-0.28","subject":"qdwgtquv6xxako2","sona":"9160"},{"rt":null,"stimulus":"<div style=\"font-size:60px;\">+</div>","key_press":null,"trial_type":"html-keyboard-response","trial_index":120,"time_elapsed":239770,"internal_node_id":"0.0-8.0-1.28","subject":"qdwgtquv6xxako2","sona":"9160"},{"trial_type":"turing-test","trial_index":121,"time_elapsed":245947,"internal_node_id":"0.0-8.0-2.28","subject":"qdwgtquv6xxako2","sona":"9160"},{"rt":258,"stimulus":"<p>Welche Sequenz haben Sie als natürlicher empfunden?</p>","key_press":70,"test_part":"response","test_stimulus":{"position":0,"left":"bvh/return-bottle-training1-lines.txt","right":"bvh/vr_prediction_models/model(tmp)-dataset(return-bottle)-numprim(12)-hold(1)/final-lines.txt","att_check":false},"trial_type":"html-keyboard-response","trial_index":122,"time_elapsed":246215,"internal_node_id":"0.0-8.0-3.28","subject":"qdwgtquv6xxako2","sona":"9160"},{"rt":152,"stimulus":"<p>Bereit?</p>","key_press":32,"trial_type":"html-keyboard-response","trial_index":123,"time_elapsed":246376,"internal_node_id":"0.0-8.0-0.29","subject":"qdwgtquv6xxako2","sona":"9160"},{"rt":null,"stimulus":"<div style=\"font-size:60px;\">+</div>","key_press":null,"trial_type":"html-keyboard-response","trial_index":124,"time_elapsed":248398,"internal_node_id":"0.0-8.0-1.29","subject":"qdwgtquv6xxako2","sona":"9160"},{"trial_type":"turing-test","trial_index":125,"time_elapsed":251895,"internal_node_id":"0.0-8.0-2.29","subject":"qdwgtquv6xxako2","sona":"9160"},{"rt":280,"stimulus":"<p>Welche Sequenz haben Sie als natürlicher empfunden?</p>","key_press":74,"test_part":"response","test_stimulus":{"position":1,"left":"bvh/vr_prediction_models/model(tmp)-dataset(pass-bottle-hold)-numprim(4)-hold(0)/final-lines.txt","right":"bvh/pass-bottle-hold-training0-lines.txt","att_check":false},"trial_type":"html-keyboard-response","trial_index":126,"time_elapsed":252177,"internal_node_id":"0.0-8.0-3.29","subject":"qdwgtquv6xxako2","sona":"9160"},{"rt":130,"stimulus":"<p>Bereit?</p>","key_press":32,"trial_type":"html-keyboard-response","trial_index":127,"time_elapsed":252310,"internal_node_id":"0.0-8.0-0.30","subject":"qdwgtquv6xxako2","sona":"9160"},{"rt":null,"stimulus":"<div style=\"font-size:60px;\">+</div>","key_press":null,"trial_type":"html-keyboard-response","trial_index":128,"time_elapsed":254325,"internal_node_id":"0.0-8.0-1.30","subject":"qdwgtquv6xxako2","sona":"9160"},{"trial_type":"turing-test","trial_index":129,"time_elapsed":260127,"internal_node_id":"0.0-8.0-2.30","subject":"qdwgtquv6xxako2","sona":"9160"},{"rt":331,"stimulus":"<p>Welche Sequenz haben Sie als natürlicher empfunden?</p>","key_press":70,"test_part":"response","test_stimulus":{"position":0,"left":"bvh/pass-bottle-training4-lines.txt","right":"bvh/vr_prediction_models/model(tmp)-dataset(pass-bottle)-numprim(12)-hold(4)/final-lines.txt","att_check":false},"trial_type":"html-keyboard-response","trial_index":130,"time_elapsed":260466,"internal_node_id":"0.0-8.0-3.30","subject":"qdwgtquv6xxako2","sona":"9160"},{"rt":210,"stimulus":"<p>Bereit?</p>","key_press":32,"trial_type":"html-keyboard-response","trial_index":131,"time_elapsed":260685,"internal_node_id":"0.0-8.0-0.31","subject":"qdwgtquv6xxako2","sona":"9160"},{"rt":null,"stimulus":"<div style=\"font-size:60px;\">+</div>","key_press":null,"trial_type":"html-keyboard-response","trial_index":132,"time_elapsed":262698,"internal_node_id":"0.0-8.0-1.31","subject":"qdwgtquv6xxako2","sona":"9160"},{"trial_type":"turing-test","trial_index":133,"time_elapsed":268443,"internal_node_id":"0.0-8.0-2.31","subject":"qdwgtquv6xxako2","sona":"9160"},{"rt":386,"stimulus":"<p>Welche Sequenz haben Sie als natürlicher empfunden?</p>","key_press":74,"test_part":"response","test_stimulus":{"position":1,"left":"bvh/vr_prediction_models/model(vcgpdm)-dataset(return-bottle)-mode(ELBO)-parts(3)-dyn(10)-lvm(10)-hold(0)/final-lines.txt","right":"bvh/return-bottle-training0-lines.txt","att_check":false},"trial_type":"html-keyboard-response","trial_index":134,"time_elapsed":268838,"internal_node_id":"0.0-8.0-3.31","subject":"qdwgtquv6xxako2","sona":"9160"},{"rt":172,"stimulus":"<p>Bereit?</p>","key_press":32,"trial_type":"html-keyboard-response","trial_index":135,"time_elapsed":269020,"internal_node_id":"0.0-8.0-0.32","subject":"qdwgtquv6xxako2","sona":"9160"},{"rt":null,"stimulus":"<div style=\"font-size:60px;\">+</div>","key_press":null,"trial_type":"html-keyboard-response","trial_index":136,"time_elapsed":271043,"internal_node_id":"0.0-8.0-1.32","subject":"qdwgtquv6xxako2","sona":"9160"},{"trial_type":"turing-test","trial_index":137,"time_elapsed":276872,"internal_node_id":"0.0-8.0-2.32","subject":"qdwgtquv6xxako2","sona":"9160"},{"rt":415,"stimulus":"<p>Welche Sequenz haben Sie als natürlicher empfunden?</p>","key_press":70,"test_part":"response","test_stimulus":{"position":0,"left":"bvh/pass-bottle-training4-lines.txt","right":"bvh/vr_prediction_models/model(dmp)-dataset(pass-bottle)-npsi(50)-hold(4)/final-lines.txt","att_check":false},"trial_type":"html-keyboard-response","trial_index":138,"time_elapsed":277296,"internal_node_id":"0.0-8.0-3.32","subject":"qdwgtquv6xxako2","sona":"9160"},{"rt":298,"stimulus":"<p>Bereit?</p>","key_press":32,"trial_type":"html-keyboard-response","trial_index":139,"time_elapsed":277605,"internal_node_id":"0.0-8.0-0.33","subject":"qdwgtquv6xxako2","sona":"9160"},{"rt":null,"stimulus":"<div style=\"font-size:60px;\">+</div>","key_press":null,"trial_type":"html-keyboard-response","trial_index":140,"time_elapsed":279633,"internal_node_id":"0.0-8.0-1.33","subject":"qdwgtquv6xxako2","sona":"9160"},{"trial_type":"turing-test","trial_index":141,"time_elapsed":285751,"internal_node_id":"0.0-8.0-2.33","subject":"qdwgtquv6xxako2","sona":"9160"},{"rt":371,"stimulus":"<p>Welche Sequenz haben Sie als natürlicher empfunden?</p>","key_press":74,"test_part":"response","test_stimulus":{"position":1,"left":"bvh/vr_prediction_models/model(vcgpdm)-dataset(pass-bottle)-mode(ELBO)-parts(3)-dyn(30)-lvm(15)-hold(3)/final-lines.txt","right":"bvh/pass-bottle-training3-lines.txt","att_check":false},"trial_type":"html-keyboard-response","trial_index":142,"time_elapsed":286132,"internal_node_id":"0.0-8.0-3.33","subject":"qdwgtquv6xxako2","sona":"9160"},{"rt":135,"stimulus":"<p>Bereit?</p>","key_press":32,"trial_type":"html-keyboard-response","trial_index":143,"time_elapsed":286277,"internal_node_id":"0.0-8.0-0.34","subject":"qdwgtquv6xxako2","sona":"9160"},{"rt":null,"stimulus":"<div style=\"font-size:60px;\">+</div>","key_press":null,"trial_type":"html-keyboard-response","trial_index":144,"time_elapsed":288302,"internal_node_id":"0.0-8.0-1.34","subject":"qdwgtquv6xxako2","sona":"9160"},{"trial_type":"turing-test","trial_index":145,"time_elapsed":292167,"internal_node_id":"0.0-8.0-2.34","subject":"qdwgtquv6xxako2","sona":"9160"},{"rt":284,"stimulus":"<p>Welche Sequenz haben Sie als natürlicher empfunden?</p>","key_press":74,"test_part":"response","test_stimulus":{"position":0,"left":"bvh/pass-bottle-hold-training4-lines.txt","right":"bvh/vr_prediction_models/model(vcgpdm)-dataset(pass-bottle-hold)-mode(ELBO)-parts(1)-dyn(35)-lvm(10)-hold(4)/final-lines.txt","att_check":false},"trial_type":"html-keyboard-response","trial_index":146,"time_elapsed":292453,"internal_node_id":"0.0-8.0-3.34","subject":"qdwgtquv6xxako2","sona":"9160"},{"rt":103,"stimulus":"<p>Bereit?</p>","key_press":32,"trial_type":"html-keyboard-response","trial_index":147,"time_elapsed":292559,"internal_node_id":"0.0-8.0-0.35","subject":"qdwgtquv6xxako2","sona":"9160"},{"rt":null,"stimulus":"<div style=\"font-size:60px;\">+</div>","key_press":null,"trial_type":"html-keyboard-response","trial_index":148,"time_elapsed":294577,"internal_node_id":"0.0-8.0-1.35","subject":"qdwgtquv6xxako2","sona":"9160"},{"trial_type":"turing-test","trial_index":149,"time_elapsed":300826,"internal_node_id":"0.0-8.0-2.35","subject":"qdwgtquv6xxako2","sona":"9160"},{"rt":370,"stimulus":"<p>Welche Sequenz haben Sie als natürlicher empfunden?</p>","key_press":70,"test_part":"response","test_stimulus":{"position":0,"left":"bvh/return-bottle-training1-lines.txt","right":"bvh/vr_prediction_models/model(dmp)-dataset(return-bottle)-npsi(90)-hold(1)/final-lines.txt","att_check":false},"trial_type":"html-keyboard-response","trial_index":150,"time_elapsed":301210,"internal_node_id":"0.0-8.0-3.35","subject":"qdwgtquv6xxako2","sona":"9160"},{"rt":522,"stimulus":"<p>Bereit?</p>","key_press":32,"trial_type":"html-keyboard-response","trial_index":151,"time_elapsed":301741,"internal_node_id":"0.0-8.0-0.36","subject":"qdwgtquv6xxako2","sona":"9160"},{"rt":null,"stimulus":"<div style=\"font-size:60px;\">+</div>","key_press":null,"trial_type":"html-keyboard-response","trial_index":152,"time_elapsed":303769,"internal_node_id":"0.0-8.0-1.36","subject":"qdwgtquv6xxako2","sona":"9160"},{"trial_type":"turing-test","trial_index":153,"time_elapsed":310050,"internal_node_id":"0.0-8.0-2.36","subject":"qdwgtquv6xxako2","sona":"9160"},{"rt":321,"stimulus":"<p>Welche Sequenz haben Sie als natürlicher empfunden?</p>","key_press":70,"test_part":"response","test_stimulus":{"position":0,"left":"bvh/return-bottle-training1-lines.txt","right":"bvh/vr_prediction_models/model(tmp)-dataset(return-bottle)-numprim(15)-hold(1)/final-lines.txt","att_check":false},"trial_type":"html-keyboard-response","trial_index":154,"time_elapsed":310383,"internal_node_id":"0.0-8.0-3.36","subject":"qdwgtquv6xxako2","sona":"9160"},{"rt":363,"stimulus":"<p>Bereit?</p>","key_press":32,"trial_type":"html-keyboard-response","trial_index":155,"time_elapsed":310756,"internal_node_id":"0.0-8.0-0.37","subject":"qdwgtquv6xxako2","sona":"9160"},{"rt":null,"stimulus":"<div style=\"font-size:60px;\">+</div>","key_press":null,"trial_type":"html-keyboard-response","trial_index":156,"time_elapsed":312774,"internal_node_id":"0.0-8.0-1.37","subject":"qdwgtquv6xxako2","sona":"9160"},{"trial_type":"turing-test","trial_index":157,"time_elapsed":319087,"internal_node_id":"0.0-8.0-2.37","subject":"qdwgtquv6xxako2","sona":"9160"},{"rt":764,"stimulus":"<p>Welche Sequenz haben Sie als natürlicher empfunden?</p>","key_press":74,"test_part":"response","test_stimulus":{"position":1,"left":"bvh/vr_prediction_models/model(vcgpdm)-dataset(return-bottle)-mode(ELBO)-parts(1)-dyn(30)-lvm(30)-hold(1)/final-lines.txt","right":"bvh/return-bottle-training1-lines.txt","att_check":false},"trial_type":"html-keyboard-response","trial_index":158,"time_elapsed":319854,"internal_node_id":"0.0-8.0-3.37","subject":"qdwgtquv6xxako2","sona":"9160"},{"rt":2006,"stimulus":"<p>Bereit?</p>","key_press":32,"trial_type":"html-keyboard-response","trial_index":159,"time_elapsed":321861,"internal_node_id":"0.0-8.0-0.38","subject":"qdwgtquv6xxako2","sona":"9160"},{"rt":null,"stimulus":"<div style=\"font-size:60px;\">+</div>","key_press":null,"trial_type":"html-keyboard-response","trial_index":160,"time_elapsed":323886,"internal_node_id":"0.0-8.0-1.38","subject":"qdwgtquv6xxako2","sona":"9160"},{"trial_type":"turing-test","trial_index":161,"time_elapsed":327681,"internal_node_id":"0.0-8.0-2.38","subject":"qdwgtquv6xxako2","sona":"9160"},{"rt":266,"stimulus":"<p>Welche Sequenz haben Sie als natürlicher empfunden?</p>","key_press":74,"test_part":"response","test_stimulus":{"position":0,"left":"bvh/pass-bottle-hold-training4-lines.txt","right":"bvh/vr_prediction_models/model(vcgpdm)-dataset(pass-bottle-hold)-mode(ELBO)-parts(1)-dyn(30)-lvm(35)-hold(4)/final-lines.txt","att_check":false},"trial_type":"html-keyboard-response","trial_index":162,"time_elapsed":327950,"internal_node_id":"0.0-8.0-3.38","subject":"qdwgtquv6xxako2","sona":"9160"},{"rt":201,"stimulus":"<p>Bereit?</p>","key_press":32,"trial_type":"html-keyboard-response","trial_index":163,"time_elapsed":328152,"internal_node_id":"0.0-8.0-0.39","subject":"qdwgtquv6xxako2","sona":"9160"},{"rt":null,"stimulus":"<div style=\"font-size:60px;\">+</div>","key_press":null,"trial_type":"html-keyboard-response","trial_index":164,"time_elapsed":330158,"internal_node_id":"0.0-8.0-1.39","subject":"qdwgtquv6xxako2","sona":"9160"},{"trial_type":"turing-test","trial_index":165,"time_elapsed":333620,"internal_node_id":"0.0-8.0-2.39","subject":"qdwgtquv6xxako2","sona":"9160"},{"rt":328,"stimulus":"<p>Welche Sequenz haben Sie als natürlicher empfunden?</p>","key_press":70,"test_part":"response","test_stimulus":{"position":1,"left":"bvh/vr_prediction_models/model(vcgpdm)-dataset(pass-bottle-hold)-mode(ELBO)-parts(1)-dyn(10)-lvm(25)-hold(1)/final-lines.txt","right":"bvh/pass-bottle-hold-training1-lines.txt","att_check":false},"trial_type":"html-keyboard-response","trial_index":166,"time_elapsed":333955,"internal_node_id":"0.0-8.0-3.39","subject":"qdwgtquv6xxako2","sona":"9160"},{"rt":358,"stimulus":"<p>Bereit?</p>","key_press":32,"trial_type":"html-keyboard-response","trial_index":167,"time_elapsed":334319,"internal_node_id":"0.0-8.0-0.40","subject":"qdwgtquv6xxako2","sona":"9160"},{"rt":null,"stimulus":"<div style=\"font-size:60px;\">+</div>","key_press":null,"trial_type":"html-keyboard-response","trial_index":168,"time_elapsed":336340,"internal_node_id":"0.0-8.0-1.40","subject":"qdwgtquv6xxako2","sona":"9160"},{"trial_type":"turing-test","trial_index":169,"time_elapsed":341836,"internal_node_id":"0.0-8.0-2.40","subject":"qdwgtquv6xxako2","sona":"9160"},{"rt":291,"stimulus":"<p>Welche Sequenz haben Sie als natürlicher empfunden?</p>","key_press":74,"test_part":"response","test_stimulus":{"position":1,"left":"bvh/vr_prediction_models/model(vcgpdm)-dataset(return-bottle-hold)-mode(ELBO)-parts(3)-dyn(20)-lvm(15)-hold(0)/final-lines.txt","right":"bvh/return-bottle-hold-training0-lines.txt","att_check":false},"trial_type":"html-keyboard-response","trial_index":170,"time_elapsed":342135,"internal_node_id":"0.0-8.0-3.40","subject":"qdwgtquv6xxako2","sona":"9160"},{"rt":333,"stimulus":"<p>Bereit?</p>","key_press":32,"trial_type":"html-keyboard-response","trial_index":171,"time_elapsed":342478,"internal_node_id":"0.0-8.0-0.41","subject":"qdwgtquv6xxako2","sona":"9160"},{"rt":null,"stimulus":"<div style=\"font-size:60px;\">+</div>","key_press":null,"trial_type":"html-keyboard-response","trial_index":172,"time_elapsed":344506,"internal_node_id":"0.0-8.0-1.41","subject":"qdwgtquv6xxako2","sona":"9160"},{"trial_type":"turing-test","trial_index":173,"time_elapsed":349796,"internal_node_id":"0.0-8.0-2.41","subject":"qdwgtquv6xxako2","sona":"9160"},{"rt":625,"stimulus":"<p>Welche Sequenz haben Sie als natürlicher empfunden?</p>","key_press":74,"test_part":"response","test_stimulus":{"position":0,"left":"bvh/return-bottle-hold-training0-lines.txt","right":"bvh/vr_prediction_models/model(dmp)-dataset(return-bottle-hold)-npsi(10)-hold(0)/final-lines.txt","att_check":true},"trial_type":"html-keyboard-response","trial_index":174,"time_elapsed":350430,"internal_node_id":"0.0-8.0-3.41","subject":"qdwgtquv6xxako2","sona":"9160"},{"rt":1302,"stimulus":"<p>Bereit?</p>","key_press":32,"trial_type":"html-keyboard-response","trial_index":175,"time_elapsed":351741,"internal_node_id":"0.0-8.0-0.42","subject":"qdwgtquv6xxako2","sona":"9160"},{"rt":null,"stimulus":"<div style=\"font-size:60px;\">+</div>","key_press":null,"trial_type":"html-keyboard-response","trial_index":176,"time_elapsed":353768,"internal_node_id":"0.0-8.0-1.42","subject":"qdwgtquv6xxako2","sona":"9160"},{"trial_type":"turing-test","trial_index":177,"time_elapsed":359699,"internal_node_id":"0.0-8.0-2.42","subject":"qdwgtquv6xxako2","sona":"9160"},{"rt":369,"stimulus":"<p>Welche Sequenz haben Sie als natürlicher empfunden?</p>","key_press":74,"test_part":"response","test_stimulus":{"position":1,"left":"bvh/vr_prediction_models/model(vcgpdm)-dataset(return-bottle)-mode(ELBO)-parts(3)-dyn(10)-lvm(25)-hold(4)/final-lines.txt","right":"bvh/return-bottle-training4-lines.txt","att_check":false},"trial_type":"html-keyboard-response","trial_index":178,"time_elapsed":360075,"internal_node_id":"0.0-8.0-3.42","subject":"qdwgtquv6xxako2","sona":"9160"},{"rt":363,"stimulus":"<p>Bereit?</p>","key_press":32,"trial_type":"html-keyboard-response","trial_index":179,"time_elapsed":360450,"internal_node_id":"0.0-8.0-0.43","subject":"qdwgtquv6xxako2","sona":"9160"},{"rt":null,"stimulus":"<div style=\"font-size:60px;\">+</div>","key_press":null,"trial_type":"html-keyboard-response","trial_index":180,"time_elapsed":362470,"internal_node_id":"0.0-8.0-1.43","subject":"qdwgtquv6xxako2","sona":"9160"},{"trial_type":"turing-test","trial_index":181,"time_elapsed":369429,"internal_node_id":"0.0-8.0-2.43","subject":"qdwgtquv6xxako2","sona":"9160"},{"rt":714,"stimulus":"<p>Welche Sequenz haben Sie als natürlicher empfunden?</p>","key_press":70,"test_part":"response","test_stimulus":{"position":0,"left":"bvh/pass-bottle-training0-lines.txt","right":"bvh/vr_prediction_models/model(vcgpdm)-dataset(pass-bottle)-mode(MAP)-parts(3)-hold(0)/final-lines.txt","att_check":false},"trial_type":"html-keyboard-response","trial_index":182,"time_elapsed":370151,"internal_node_id":"0.0-8.0-3.43","subject":"qdwgtquv6xxako2","sona":"9160"},{"rt":296,"stimulus":"<p>Bereit?</p>","key_press":32,"trial_type":"html-keyboard-response","trial_index":183,"time_elapsed":370457,"internal_node_id":"0.0-8.0-0.44","subject":"qdwgtquv6xxako2","sona":"9160"},{"rt":null,"stimulus":"<div style=\"font-size:60px;\">+</div>","key_press":null,"trial_type":"html-keyboard-response","trial_index":184,"time_elapsed":372479,"internal_node_id":"0.0-8.0-1.44","subject":"qdwgtquv6xxako2","sona":"9160"},{"trial_type":"turing-test","trial_index":185,"time_elapsed":378408,"internal_node_id":"0.0-8.0-2.44","subject":"qdwgtquv6xxako2","sona":"9160"},{"rt":233,"stimulus":"<p>Welche Sequenz haben Sie als natürlicher empfunden?</p>","key_press":70,"test_part":"response","test_stimulus":{"position":0,"left":"bvh/pass-bottle-training4-lines.txt","right":"bvh/vr_prediction_models/model(vcgpdm)-dataset(pass-bottle)-mode(ELBO)-parts(1)-dyn(10)-lvm(5)-hold(4)/final-lines.txt","att_check":false},"trial_type":"html-keyboard-response","trial_index":186,"time_elapsed":378645,"internal_node_id":"0.0-8.0-3.44","subject":"qdwgtquv6xxako2","sona":"9160"},{"rt":331,"stimulus":"<p>Bereit?</p>","key_press":32,"trial_type":"html-keyboard-response","trial_index":187,"time_elapsed":378983,"internal_node_id":"0.0-8.0-0.45","subject":"qdwgtquv6xxako2","sona":"9160"},{"rt":null,"stimulus":"<div style=\"font-size:60px;\">+</div>","key_press":null,"trial_type":"html-keyboard-response","trial_index":188,"time_elapsed":381003,"internal_node_id":"0.0-8.0-1.45","subject":"qdwgtquv6xxako2","sona":"9160"},{"trial_type":"turing-test","trial_index":189,"time_elapsed":384776,"internal_node_id":"0.0-8.0-2.45","subject":"qdwgtquv6xxako2","sona":"9160"},{"rt":1373,"stimulus":"<p>Welche Sequenz haben Sie als natürlicher empfunden?</p>","key_press":70,"test_part":"response","test_stimulus":{"position":0,"left":"bvh/return-bottle-hold-training2-lines.txt","right":"bvh/vr_prediction_models/model(vcgpdm)-dataset(return-bottle-hold)-mode(ELBO)-parts(1)-dyn(20)-lvm(5)-hold(2)/final-lines.txt","att_check":false},"trial_type":"html-keyboard-response","trial_index":190,"time_elapsed":386167,"internal_node_id":"0.0-8.0-3.45","subject":"qdwgtquv6xxako2","sona":"9160"},{"rt":295,"stimulus":"<p>Bereit?</p>","key_press":32,"trial_type":"html-keyboard-response","trial_index":191,"time_elapsed":386465,"internal_node_id":"0.0-8.0-0.46","subject":"qdwgtquv6xxako2","sona":"9160"},{"rt":null,"stimulus":"<div style=\"font-size:60px;\">+</div>","key_press":null,"trial_type":"html-keyboard-response","trial_index":192,"time_elapsed":388492,"internal_node_id":"0.0-8.0-1.46","subject":"qdwgtquv6xxako2","sona":"9160"},{"trial_type":"turing-test","trial_index":193,"time_elapsed":392323,"internal_node_id":"0.0-8.0-2.46","subject":"qdwgtquv6xxako2","sona":"9160"},{"rt":353,"stimulus":"<p>Welche Sequenz haben Sie als natürlicher empfunden?</p>","key_press":70,"test_part":"response","test_stimulus":{"position":0,"left":"bvh/return-bottle-hold-training3-lines.txt","right":"bvh/vr_prediction_models/model(tmp)-dataset(return-bottle-hold)-numprim(3)-hold(3)/final-lines.txt","att_check":false},"trial_type":"html-keyboard-response","trial_index":194,"time_elapsed":392685,"internal_node_id":"0.0-8.0-3.46","subject":"qdwgtquv6xxako2","sona":"9160"},{"rt":274,"stimulus":"<p>Bereit?</p>","key_press":32,"trial_type":"html-keyboard-response","trial_index":195,"time_elapsed":392969,"internal_node_id":"0.0-8.0-0.47","subject":"qdwgtquv6xxako2","sona":"9160"},{"rt":null,"stimulus":"<div style=\"font-size:60px;\">+</div>","key_press":null,"trial_type":"html-keyboard-response","trial_index":196,"time_elapsed":394980,"internal_node_id":"0.0-8.0-1.47","subject":"qdwgtquv6xxako2","sona":"9160"},{"trial_type":"turing-test","trial_index":197,"time_elapsed":398896,"internal_node_id":"0.0-8.0-2.47","subject":"qdwgtquv6xxako2","sona":"9160"},{"rt":293,"stimulus":"<p>Welche Sequenz haben Sie als natürlicher empfunden?</p>","key_press":74,"test_part":"response","test_stimulus":{"position":1,"left":"bvh/vr_prediction_models/model(dmp)-dataset(return-bottle-hold)-npsi(70)-hold(4)/final-lines.txt","right":"bvh/return-bottle-hold-training4-lines.txt","att_check":false},"trial_type":"html-keyboard-response","trial_index":198,"time_elapsed":399197,"internal_node_id":"0.0-8.0-3.47","subject":"qdwgtquv6xxako2","sona":"9160"},{"rt":209,"stimulus":"<p>Bereit?</p>","key_press":32,"trial_type":"html-keyboard-response","trial_index":199,"time_elapsed":399417,"internal_node_id":"0.0-8.0-0.48","subject":"qdwgtquv6xxako2","sona":"9160"},{"rt":null,"stimulus":"<div style=\"font-size:60px;\">+</div>","key_press":null,"trial_type":"html-keyboard-response","trial_index":200,"time_elapsed":401426,"internal_node_id":"0.0-8.0-1.48","subject":"qdwgtquv6xxako2","sona":"9160"},{"trial_type":"turing-test","trial_index":201,"time_elapsed":407568,"internal_node_id":"0.0-8.0-2.48","subject":"qdwgtquv6xxako2","sona":"9160"},{"rt":229,"stimulus":"<p>Welche Sequenz haben Sie als natürlicher empfunden?</p>","key_press":74,"test_part":"response","test_stimulus":{"position":1,"left":"bvh/vr_prediction_models/model(dmp)-dataset(return-bottle)-npsi(30)-hold(1)/final-lines.txt","right":"bvh/return-bottle-training1-lines.txt","att_check":false},"trial_type":"html-keyboard-response","trial_index":202,"time_elapsed":407813,"internal_node_id":"0.0-8.0-3.48","subject":"qdwgtquv6xxako2","sona":"9160"},{"rt":196,"stimulus":"<p>Bereit?</p>","key_press":32,"trial_type":"html-keyboard-response","trial_index":203,"time_elapsed":408018,"internal_node_id":"0.0-8.0-0.49","subject":"qdwgtquv6xxako2","sona":"9160"},{"rt":null,"stimulus":"<div style=\"font-size:60px;\">+</div>","key_press":null,"trial_type":"html-keyboard-response","trial_index":204,"time_elapsed":410038,"internal_node_id":"0.0-8.0-1.49","subject":"qdwgtquv6xxako2","sona":"9160"},{"trial_type":"turing-test","trial_index":205,"time_elapsed":413713,"internal_node_id":"0.0-8.0-2.49","subject":"qdwgtquv6xxako2","sona":"9160"},{"rt":189,"stimulus":"<p>Welche Sequenz haben Sie als natürlicher empfunden?</p>","key_press":70,"test_part":"response","test_stimulus":{"position":0,"left":"bvh/return-bottle-hold-training2-lines.txt","right":"bvh/vr_prediction_models/model(vcgpdm)-dataset(return-bottle-hold)-mode(ELBO)-parts(3)-dyn(35)-lvm(20)-hold(2)/final-lines.txt","att_check":false},"trial_type":"html-keyboard-response","trial_index":206,"time_elapsed":413911,"internal_node_id":"0.0-8.0-3.49","subject":"qdwgtquv6xxako2","sona":"9160"},{"rt":182,"stimulus":"<p>Bereit?</p>","key_press":32,"trial_type":"html-keyboard-response","trial_index":207,"time_elapsed":414101,"internal_node_id":"0.0-8.0-0.50","subject":"qdwgtquv6xxako2","sona":"9160"},{"rt":null,"stimulus":"<div style=\"font-size:60px;\">+</div>","key_press":null,"trial_type":"html-keyboard-response","trial_index":208,"time_elapsed":416122,"internal_node_id":"0.0-8.0-1.50","subject":"qdwgtquv6xxako2","sona":"9160"},{"trial_type":"turing-test","trial_index":209,"time_elapsed":419495,"internal_node_id":"0.0-8.0-2.50","subject":"qdwgtquv6xxako2","sona":"9160"},{"rt":399,"stimulus":"<p>Welche Sequenz haben Sie als natürlicher empfunden?</p>","key_press":70,"test_part":"response","test_stimulus":{"position":1,"left":"bvh/vr_prediction_models/model(tmp)-dataset(pass-bottle-hold)-numprim(13)-hold(1)/final-lines.txt","right":"bvh/pass-bottle-hold-training1-lines.txt","att_check":false},"trial_type":"html-keyboard-response","trial_index":210,"time_elapsed":419900,"internal_node_id":"0.0-8.0-3.50","subject":"qdwgtquv6xxako2","sona":"9160"},{"rt":346,"stimulus":"<p>Bereit?</p>","key_press":32,"trial_type":"html-keyboard-response","trial_index":211,"time_elapsed":420256,"internal_node_id":"0.0-8.0-0.51","subject":"qdwgtquv6xxako2","sona":"9160"},{"rt":null,"stimulus":"<div style=\"font-size:60px;\">+</div>","key_press":null,"trial_type":"html-keyboard-response","trial_index":212,"time_elapsed":422295,"internal_node_id":"0.0-8.0-1.51","subject":"qdwgtquv6xxako2","sona":"9160"},{"trial_type":"turing-test","trial_index":213,"time_elapsed":426149,"internal_node_id":"0.0-8.0-2.51","subject":"qdwgtquv6xxako2","sona":"9160"},{"rt":554,"stimulus":"<p>Welche Sequenz haben Sie als natürlicher empfunden?</p>","key_press":74,"test_part":"response","test_stimulus":{"position":0,"left":"bvh/pass-bottle-hold-training4-lines.txt","right":"bvh/vr_prediction_models/model(vcgpdm)-dataset(pass-bottle-hold)-mode(ELBO)-parts(3)-dyn(20)-lvm(35)-hold(4)/final-lines.txt","att_check":false},"trial_type":"html-keyboard-response","trial_index":214,"time_elapsed":426706,"internal_node_id":"0.0-8.0-3.51","subject":"qdwgtquv6xxako2","sona":"9160"},{"rt":152,"stimulus":"<p>Bereit?</p>","key_press":32,"trial_type":"html-keyboard-response","trial_index":215,"time_elapsed":426867,"internal_node_id":"0.0-8.0-0.52","subject":"qdwgtquv6xxako2","sona":"9160"},{"rt":null,"stimulus":"<div style=\"font-size:60px;\">+</div>","key_press":null,"trial_type":"html-keyboard-response","trial_index":216,"time_elapsed":428872,"internal_node_id":"0.0-8.0-1.52","subject":"qdwgtquv6xxako2","sona":"9160"},{"trial_type":"turing-test","trial_index":217,"time_elapsed":432507,"internal_node_id":"0.0-8.0-2.52","subject":"qdwgtquv6xxako2","sona":"9160"},{"rt":250,"stimulus":"<p>Welche Sequenz haben Sie als natürlicher empfunden?</p>","key_press":70,"test_part":"response","test_stimulus":{"position":0,"left":"bvh/pass-bottle-hold-training2-lines.txt","right":"bvh/vr_prediction_models/model(vcgpdm)-dataset(pass-bottle-hold)-mode(ELBO)-parts(3)-dyn(35)-lvm(20)-hold(2)/final-lines.txt","att_check":false},"trial_type":"html-keyboard-response","trial_index":218,"time_elapsed":432761,"internal_node_id":"0.0-8.0-3.52","subject":"qdwgtquv6xxako2","sona":"9160"},{"rt":142,"stimulus":"<p>Bereit?</p>","key_press":32,"trial_type":"html-keyboard-response","trial_index":219,"time_elapsed":432913,"internal_node_id":"0.0-8.0-0.53","subject":"qdwgtquv6xxako2","sona":"9160"},{"rt":null,"stimulus":"<div style=\"font-size:60px;\">+</div>","key_press":null,"trial_type":"html-keyboard-response","trial_index":220,"time_elapsed":434937,"internal_node_id":"0.0-8.0-1.53","subject":"qdwgtquv6xxako2","sona":"9160"},{"trial_type":"turing-test","trial_index":221,"time_elapsed":441861,"internal_node_id":"0.0-8.0-2.53","subject":"qdwgtquv6xxako2","sona":"9160"},{"rt":285,"stimulus":"<p>Welche Sequenz haben Sie als natürlicher empfunden?</p>","key_press":70,"test_part":"response","test_stimulus":{"position":0,"left":"bvh/pass-bottle-training0-lines.txt","right":"bvh/vr_prediction_models/model(vcgpdm)-dataset(pass-bottle)-mode(ELBO)-parts(3)-dyn(10)-lvm(25)-hold(0)/final-lines.txt","att_check":false},"trial_type":"html-keyboard-response","trial_index":222,"time_elapsed":442157,"internal_node_id":"0.0-8.0-3.53","subject":"qdwgtquv6xxako2","sona":"9160"},{"rt":426,"stimulus":"<p>Bereit?</p>","key_press":32,"trial_type":"html-keyboard-response","trial_index":223,"time_elapsed":442591,"internal_node_id":"0.0-8.0-0.54","subject":"qdwgtquv6xxako2","sona":"9160"},{"rt":null,"stimulus":"<div style=\"font-size:60px;\">+</div>","key_press":null,"trial_type":"html-keyboard-response","trial_index":224,"time_elapsed":444602,"internal_node_id":"0.0-8.0-1.54","subject":"qdwgtquv6xxako2","sona":"9160"},{"trial_type":"turing-test","trial_index":225,"time_elapsed":448060,"internal_node_id":"0.0-8.0-2.54","subject":"qdwgtquv6xxako2","sona":"9160"},{"rt":258,"stimulus":"<p>Welche Sequenz haben Sie als natürlicher empfunden?</p>","key_press":70,"test_part":"response","test_stimulus":{"position":0,"left":"bvh/pass-bottle-hold-training0-lines.txt","right":"bvh/vr_prediction_models/model(tmp)-dataset(pass-bottle-hold)-numprim(11)-hold(0)/final-lines.txt","att_check":false},"trial_type":"html-keyboard-response","trial_index":226,"time_elapsed":448328,"internal_node_id":"0.0-8.0-3.54","subject":"qdwgtquv6xxako2","sona":"9160"},{"rt":328,"stimulus":"<p>Bereit?</p>","key_press":32,"trial_type":"html-keyboard-response","trial_index":227,"time_elapsed":448664,"internal_node_id":"0.0-8.0-0.55","subject":"qdwgtquv6xxako2","sona":"9160"},{"rt":null,"stimulus":"<div style=\"font-size:60px;\">+</div>","key_press":null,"trial_type":"html-keyboard-response","trial_index":228,"time_elapsed":450681,"internal_node_id":"0.0-8.0-1.55","subject":"qdwgtquv6xxako2","sona":"9160"},{"trial_type":"turing-test","trial_index":229,"time_elapsed":456274,"internal_node_id":"0.0-8.0-2.55","subject":"qdwgtquv6xxako2","sona":"9160"},{"rt":323,"stimulus":"<p>Welche Sequenz haben Sie als natürlicher empfunden?</p>","key_press":74,"test_part":"response","test_stimulus":{"position":1,"left":"bvh/vr_prediction_models/model(vcgpdm)-dataset(return-bottle)-mode(ELBO)-parts(1)-dyn(10)-lvm(25)-hold(0)/final-lines.txt","right":"bvh/return-bottle-training0-lines.txt","att_check":false},"trial_type":"html-keyboard-response","trial_index":230,"time_elapsed":456607,"internal_node_id":"0.0-8.0-3.55","subject":"qdwgtquv6xxako2","sona":"9160"},{"rt":151,"stimulus":"<p>Bereit?</p>","key_press":32,"trial_type":"html-keyboard-response","trial_index":231,"time_elapsed":456768,"internal_node_id":"0.0-8.0-0.56","subject":"qdwgtquv6xxako2","sona":"9160"},{"rt":null,"stimulus":"<div style=\"font-size:60px;\">+</div>","key_press":null,"trial_type":"html-keyboard-response","trial_index":232,"time_elapsed":458783,"internal_node_id":"0.0-8.0-1.56","subject":"qdwgtquv6xxako2","sona":"9160"},{"trial_type":"turing-test","trial_index":233,"time_elapsed":462124,"internal_node_id":"0.0-8.0-2.56","subject":"qdwgtquv6xxako2","sona":"9160"},{"rt":235,"stimulus":"<p>Welche Sequenz haben Sie als natürlicher empfunden?</p>","key_press":70,"test_part":"response","test_stimulus":{"position":1,"left":"bvh/vr_prediction_models/model(tmp)-dataset(pass-bottle-hold)-numprim(11)-hold(1)/final-lines.txt","right":"bvh/pass-bottle-hold-training1-lines.txt","att_check":false},"trial_type":"html-keyboard-response","trial_index":234,"time_elapsed":462370,"internal_node_id":"0.0-8.0-3.56","subject":"qdwgtquv6xxako2","sona":"9160"},{"rt":194,"stimulus":"<p>Bereit?</p>","key_press":32,"trial_type":"html-keyboard-response","trial_index":235,"time_elapsed":462572,"internal_node_id":"0.0-8.0-0.57","subject":"qdwgtquv6xxako2","sona":"9160"},{"rt":null,"stimulus":"<div style=\"font-size:60px;\">+</div>","key_press":null,"trial_type":"html-keyboard-response","trial_index":236,"time_elapsed":464598,"internal_node_id":"0.0-8.0-1.57","subject":"qdwgtquv6xxako2","sona":"9160"},{"trial_type":"turing-test","trial_index":237,"time_elapsed":470228,"internal_node_id":"0.0-8.0-2.57","subject":"qdwgtquv6xxako2","sona":"9160"},{"rt":322,"stimulus":"<p>Welche Sequenz haben Sie als natürlicher empfunden?</p>","key_press":74,"test_part":"response","test_stimulus":{"position":1,"left":"bvh/vr_prediction_models/model(tmp)-dataset(pass-bottle)-numprim(3)-hold(1)/final-lines.txt","right":"bvh/pass-bottle-training1-lines.txt","att_check":false},"trial_type":"html-keyboard-response","trial_index":238,"time_elapsed":470562,"internal_node_id":"0.0-8.0-3.57","subject":"qdwgtquv6xxako2","sona":"9160"},{"rt":194,"stimulus":"<p>Bereit?</p>","key_press":32,"trial_type":"html-keyboard-response","trial_index":239,"time_elapsed":470763,"internal_node_id":"0.0-8.0-0.58","subject":"qdwgtquv6xxako2","sona":"9160"},{"rt":null,"stimulus":"<div style=\"font-size:60px;\">+</div>","key_press":null,"trial_type":"html-keyboard-response","trial_index":240,"time_elapsed":472778,"internal_node_id":"0.0-8.0-1.58","subject":"qdwgtquv6xxako2","sona":"9160"},{"trial_type":"turing-test","trial_index":241,"time_elapsed":478067,"internal_node_id":"0.0-8.0-2.58","subject":"qdwgtquv6xxako2","sona":"9160"},{"rt":108,"stimulus":"<p>Welche Sequenz haben Sie als natürlicher empfunden?</p>","key_press":74,"test_part":"response","test_stimulus":{"position":1,"left":"bvh/vr_prediction_models/model(vcgpdm)-dataset(return-bottle-hold)-mode(ELBO)-parts(1)-dyn(15)-lvm(35)-hold(0)/final-lines.txt","right":"bvh/return-bottle-hold-training0-lines.txt","att_check":false},"trial_type":"html-keyboard-response","trial_index":242,"time_elapsed":478184,"internal_node_id":"0.0-8.0-3.58","subject":"qdwgtquv6xxako2","sona":"9160"},{"rt":174,"stimulus":"<p>Bereit?</p>","key_press":32,"trial_type":"html-keyboard-response","trial_index":243,"time_elapsed":478372,"internal_node_id":"0.0-8.0-0.59","subject":"qdwgtquv6xxako2","sona":"9160"},{"rt":null,"stimulus":"<div style=\"font-size:60px;\">+</div>","key_press":null,"trial_type":"html-keyboard-response","trial_index":244,"time_elapsed":480397,"internal_node_id":"0.0-8.0-1.59","subject":"qdwgtquv6xxako2","sona":"9160"},{"trial_type":"turing-test","trial_index":245,"time_elapsed":487303,"internal_node_id":"0.0-8.0-2.59","subject":"qdwgtquv6xxako2","sona":"9160"},{"rt":321,"stimulus":"<p>Welche Sequenz haben Sie als natürlicher empfunden?</p>","key_press":74,"test_part":"response","test_stimulus":{"position":0,"left":"bvh/return-bottle-training2-lines.txt","right":"bvh/vr_prediction_models/model(vcgpdm)-dataset(return-bottle)-mode(ELBO)-parts(3)-dyn(35)-lvm(20)-hold(2)/final-lines.txt","att_check":false},"trial_type":"html-keyboard-response","trial_index":246,"time_elapsed":487636,"internal_node_id":"0.0-8.0-3.59","subject":"qdwgtquv6xxako2","sona":"9160"},{"rt":131,"stimulus":"<p>Bereit?</p>","key_press":32,"trial_type":"html-keyboard-response","trial_index":247,"time_elapsed":487776,"internal_node_id":"0.0-8.0-0.60","subject":"qdwgtquv6xxako2","sona":"9160"},{"rt":null,"stimulus":"<div style=\"font-size:60px;\">+</div>","key_press":null,"trial_type":"html-keyboard-response","trial_index":248,"time_elapsed":489804,"internal_node_id":"0.0-8.0-1.60","subject":"qdwgtquv6xxako2","sona":"9160"},{"trial_type":"turing-test","trial_index":249,"time_elapsed":493148,"internal_node_id":"0.0-8.0-2.60","subject":"qdwgtquv6xxako2","sona":"9160"},{"rt":226,"stimulus":"<p>Welche Sequenz haben Sie als natürlicher empfunden?</p>","key_press":70,"test_part":"response","test_stimulus":{"position":1,"left":"bvh/vr_prediction_models/model(dmp)-dataset(pass-bottle-hold)-npsi(50)-hold(1)/final-lines.txt","right":"bvh/pass-bottle-hold-training1-lines.txt","att_check":true},"trial_type":"html-keyboard-response","trial_index":250,"time_elapsed":493386,"internal_node_id":"0.0-8.0-3.60","subject":"qdwgtquv6xxako2","sona":"9160"},{"rt":160,"stimulus":"<p>Bereit?</p>","key_press":32,"trial_type":"html-keyboard-response","trial_index":251,"time_elapsed":493556,"internal_node_id":"0.0-8.0-0.61","subject":"qdwgtquv6xxako2","sona":"9160"},{"rt":null,"stimulus":"<div style=\"font-size:60px;\">+</div>","key_press":null,"trial_type":"html-keyboard-response","trial_index":252,"time_elapsed":495574,"internal_node_id":"0.0-8.0-1.61","subject":"qdwgtquv6xxako2","sona":"9160"},{"trial_type":"turing-test","trial_index":253,"time_elapsed":499583,"internal_node_id":"0.0-8.0-2.61","subject":"qdwgtquv6xxako2","sona":"9160"},{"rt":249,"stimulus":"<p>Welche Sequenz haben Sie als natürlicher empfunden?</p>","key_press":70,"test_part":"response","test_stimulus":{"position":1,"left":"bvh/vr_prediction_models/model(vcgpdm)-dataset(return-bottle-hold)-mode(ELBO)-parts(1)-dyn(30)-lvm(20)-hold(4)/final-lines.txt","right":"bvh/return-bottle-hold-training4-lines.txt","att_check":false},"trial_type":"html-keyboard-response","trial_index":254,"time_elapsed":499844,"internal_node_id":"0.0-8.0-3.61","subject":"qdwgtquv6xxako2","sona":"9160"},{"rt":172,"stimulus":"<p>Bereit?</p>","key_press":32,"trial_type":"html-keyboard-response","trial_index":255,"time_elapsed":500026,"internal_node_id":"0.0-8.0-0.62","subject":"qdwgtquv6xxako2","sona":"9160"},{"rt":null,"stimulus":"<div style=\"font-size:60px;\">+</div>","key_press":null,"trial_type":"html-keyboard-response","trial_index":256,"time_elapsed":502045,"internal_node_id":"0.0-8.0-1.62","subject":"qdwgtquv6xxako2","sona":"9160"},{"trial_type":"turing-test","trial_index":257,"time_elapsed":505856,"internal_node_id":"0.0-8.0-2.62","subject":"qdwgtquv6xxako2","sona":"9160"},{"rt":761,"stimulus":"<p>Welche Sequenz haben Sie als natürlicher empfunden?</p>","key_press":70,"test_part":"response","test_stimulus":{"position":0,"left":"bvh/pass-bottle-hold-training3-lines.txt","right":"bvh/vr_prediction_models/model(vcgpdm)-dataset(pass-bottle-hold)-mode(ELBO)-parts(1)-dyn(30)-lvm(20)-hold(3)/final-lines.txt","att_check":false},"trial_type":"html-keyboard-response","trial_index":258,"time_elapsed":506628,"internal_node_id":"0.0-8.0-3.62","subject":"qdwgtquv6xxako2","sona":"9160"},{"rt":168,"stimulus":"<p>Bereit?</p>","key_press":32,"trial_type":"html-keyboard-response","trial_index":259,"time_elapsed":506807,"internal_node_id":"0.0-8.0-0.63","subject":"qdwgtquv6xxako2","sona":"9160"},{"rt":null,"stimulus":"<div style=\"font-size:60px;\">+</div>","key_press":null,"trial_type":"html-keyboard-response","trial_index":260,"time_elapsed":508832,"internal_node_id":"0.0-8.0-1.63","subject":"qdwgtquv6xxako2","sona":"9160"},{"trial_type":"turing-test","trial_index":261,"time_elapsed":512751,"internal_node_id":"0.0-8.0-2.63","subject":"qdwgtquv6xxako2","sona":"9160"},{"rt":651,"stimulus":"<p>Welche Sequenz haben Sie als natürlicher empfunden?</p>","key_press":74,"test_part":"response","test_stimulus":{"position":1,"left":"bvh/vr_prediction_models/model(vcgpdm)-dataset(return-bottle-hold)-mode(ELBO)-parts(1)-dyn(35)-lvm(10)-hold(4)/final-lines.txt","right":"bvh/return-bottle-hold-training4-lines.txt","att_check":false},"trial_type":"html-keyboard-response","trial_index":262,"time_elapsed":513415,"internal_node_id":"0.0-8.0-3.63","subject":"qdwgtquv6xxako2","sona":"9160"},{"rt":7985,"stimulus":"<p>Bereit?</p>","key_press":32,"trial_type":"html-keyboard-response","trial_index":263,"time_elapsed":521408,"internal_node_id":"0.0-8.0-0.64","subject":"qdwgtquv6xxako2","sona":"9160"},{"rt":null,"stimulus":"<div style=\"font-size:60px;\">+</div>","key_press":null,"trial_type":"html-keyboard-response","trial_index":264,"time_elapsed":523426,"internal_node_id":"0.0-8.0-1.64","subject":"qdwgtquv6xxako2","sona":"9160"},{"trial_type":"turing-test","trial_index":265,"time_elapsed":527254,"internal_node_id":"0.0-8.0-2.64","subject":"qdwgtquv6xxako2","sona":"9160"},{"rt":310,"stimulus":"<p>Welche Sequenz haben Sie als natürlicher empfunden?</p>","key_press":74,"test_part":"response","test_stimulus":{"position":1,"left":"bvh/vr_prediction_models/model(vcgpdm)-dataset(pass-bottle-hold)-mode(ELBO)-parts(1)-dyn(10)-lvm(25)-hold(4)/final-lines.txt","right":"bvh/pass-bottle-hold-training4-lines.txt","att_check":false},"trial_type":"html-keyboard-response","trial_index":266,"time_elapsed":527575,"internal_node_id":"0.0-8.0-3.64","subject":"qdwgtquv6xxako2","sona":"9160"},{"rt":161,"stimulus":"<p>Bereit?</p>","key_press":32,"trial_type":"html-keyboard-response","trial_index":267,"time_elapsed":527745,"internal_node_id":"0.0-8.0-0.65","subject":"qdwgtquv6xxako2","sona":"9160"},{"rt":null,"stimulus":"<div style=\"font-size:60px;\">+</div>","key_press":null,"trial_type":"html-keyboard-response","trial_index":268,"time_elapsed":529765,"internal_node_id":"0.0-8.0-1.65","subject":"qdwgtquv6xxako2","sona":"9160"},{"trial_type":"turing-test","trial_index":269,"time_elapsed":535732,"internal_node_id":"0.0-8.0-2.65","subject":"qdwgtquv6xxako2","sona":"9160"},{"rt":334,"stimulus":"<p>Welche Sequenz haben Sie als natürlicher empfunden?</p>","key_press":74,"test_part":"response","test_stimulus":{"position":1,"left":"bvh/vr_prediction_models/model(vcgpdm)-dataset(return-bottle)-mode(ELBO)-parts(1)-dyn(35)-lvm(30)-hold(3)/final-lines.txt","right":"bvh/return-bottle-training3-lines.txt","att_check":false},"trial_type":"html-keyboard-response","trial_index":270,"time_elapsed":536076,"internal_node_id":"0.0-8.0-3.65","subject":"qdwgtquv6xxako2","sona":"9160"},{"rt":195,"stimulus":"<p>Bereit?</p>","key_press":32,"trial_type":"html-keyboard-response","trial_index":271,"time_elapsed":536280,"internal_node_id":"0.0-8.0-0.66","subject":"qdwgtquv6xxako2","sona":"9160"},{"rt":null,"stimulus":"<div style=\"font-size:60px;\">+</div>","key_press":null,"trial_type":"html-keyboard-response","trial_index":272,"time_elapsed":538312,"internal_node_id":"0.0-8.0-1.66","subject":"qdwgtquv6xxako2","sona":"9160"},{"trial_type":"turing-test","trial_index":273,"time_elapsed":544240,"internal_node_id":"0.0-8.0-2.66","subject":"qdwgtquv6xxako2","sona":"9160"},{"rt":197,"stimulus":"<p>Welche Sequenz haben Sie als natürlicher empfunden?</p>","key_press":74,"test_part":"response","test_stimulus":{"position":1,"left":"bvh/vr_prediction_models/model(dmp)-dataset(pass-bottle)-npsi(90)-hold(4)/final-lines.txt","right":"bvh/pass-bottle-training4-lines.txt","att_check":false},"trial_type":"html-keyboard-response","trial_index":274,"time_elapsed":544447,"internal_node_id":"0.0-8.0-3.66","subject":"qdwgtquv6xxako2","sona":"9160"},{"rt":151,"stimulus":"<p>Bereit?</p>","key_press":32,"trial_type":"html-keyboard-response","trial_index":275,"time_elapsed":544606,"internal_node_id":"0.0-8.0-0.67","subject":"qdwgtquv6xxako2","sona":"9160"},{"rt":null,"stimulus":"<div style=\"font-size:60px;\">+</div>","key_press":null,"trial_type":"html-keyboard-response","trial_index":276,"time_elapsed":546640,"internal_node_id":"0.0-8.0-1.67","subject":"qdwgtquv6xxako2","sona":"9160"},{"trial_type":"turing-test","trial_index":277,"time_elapsed":550403,"internal_node_id":"0.0-8.0-2.67","subject":"qdwgtquv6xxako2","sona":"9160"},{"rt":58,"stimulus":"<p>Welche Sequenz haben Sie als natürlicher empfunden?</p>","key_press":70,"test_part":"response","test_stimulus":{"position":1,"left":"bvh/vr_prediction_models/model(tmp)-dataset(pass-bottle-hold)-numprim(12)-hold(4)/final-lines.txt","right":"bvh/pass-bottle-hold-training4-lines.txt","att_check":false},"trial_type":"html-keyboard-response","trial_index":278,"time_elapsed":550471,"internal_node_id":"0.0-8.0-3.67","subject":"qdwgtquv6xxako2","sona":"9160"},{"rt":407,"stimulus":"<p>Bereit?</p>","key_press":32,"trial_type":"html-keyboard-response","trial_index":279,"time_elapsed":550886,"internal_node_id":"0.0-8.0-0.68","subject":"qdwgtquv6xxako2","sona":"9160"},{"rt":null,"stimulus":"<div style=\"font-size:60px;\">+</div>","key_press":null,"trial_type":"html-keyboard-response","trial_index":280,"time_elapsed":552901,"internal_node_id":"0.0-8.0-1.68","subject":"qdwgtquv6xxako2","sona":"9160"},{"trial_type":"turing-test","trial_index":281,"time_elapsed":556493,"internal_node_id":"0.0-8.0-2.68","subject":"qdwgtquv6xxako2","sona":"9160"},{"rt":816,"stimulus":"<p>Welche Sequenz haben Sie als natürlicher empfunden?</p>","key_press":70,"test_part":"response","test_stimulus":{"position":1,"left":"bvh/vr_prediction_models/model(vcgpdm)-dataset(pass-bottle-hold)-mode(ELBO)-parts(1)-dyn(25)-lvm(35)-hold(2)/final-lines.txt","right":"bvh/pass-bottle-hold-training2-lines.txt","att_check":false},"trial_type":"html-keyboard-response","trial_index":282,"time_elapsed":557320,"internal_node_id":"0.0-8.0-3.68","subject":"qdwgtquv6xxako2","sona":"9160"},{"rt":238,"stimulus":"<p>Bereit?</p>","key_press":32,"trial_type":"html-keyboard-response","trial_index":283,"time_elapsed":557568,"internal_node_id":"0.0-8.0-0.69","subject":"qdwgtquv6xxako2","sona":"9160"},{"rt":null,"stimulus":"<div style=\"font-size:60px;\">+</div>","key_press":null,"trial_type":"html-keyboard-response","trial_index":284,"time_elapsed":559593,"internal_node_id":"0.0-8.0-1.69","subject":"qdwgtquv6xxako2","sona":"9160"},{"trial_type":"turing-test","trial_index":285,"time_elapsed":565425,"internal_node_id":"0.0-8.0-2.69","subject":"qdwgtquv6xxako2","sona":"9160"},{"rt":442,"stimulus":"<p>Welche Sequenz haben Sie als natürlicher empfunden?</p>","key_press":74,"test_part":"response","test_stimulus":{"position":0,"left":"bvh/return-bottle-hold-training0-lines.txt","right":"bvh/vr_prediction_models/model(vcgpdm)-dataset(return-bottle-hold)-mode(ELBO)-parts(1)-dyn(35)-lvm(30)-hold(0)/final-lines.txt","att_check":false},"trial_type":"html-keyboard-response","trial_index":286,"time_elapsed":565879,"internal_node_id":"0.0-8.0-3.69","subject":"qdwgtquv6xxako2","sona":"9160"},{"rt":190,"stimulus":"<p>Bereit?</p>","key_press":32,"trial_type":"html-keyboard-response","trial_index":287,"time_elapsed":566080,"internal_node_id":"0.0-8.0-0.70","subject":"qdwgtquv6xxako2","sona":"9160"},{"rt":null,"stimulus":"<div style=\"font-size:60px;\">+</div>","key_press":null,"trial_type":"html-keyboard-response","trial_index":288,"time_elapsed":568095,"internal_node_id":"0.0-8.0-1.70","subject":"qdwgtquv6xxako2","sona":"9160"},{"trial_type":"turing-test","trial_index":289,"time_elapsed":573542,"internal_node_id":"0.0-8.0-2.70","subject":"qdwgtquv6xxako2","sona":"9160"},{"rt":320,"stimulus":"<p>Welche Sequenz haben Sie als natürlicher empfunden?</p>","key_press":70,"test_part":"response","test_stimulus":{"position":0,"left":"bvh/pass-bottle-training1-lines.txt","right":"bvh/vr_prediction_models/model(tmp)-dataset(pass-bottle)-numprim(3)-hold(1)/final-lines.txt","att_check":false},"trial_type":"html-keyboard-response","trial_index":290,"time_elapsed":573873,"internal_node_id":"0.0-8.0-3.70","subject":"qdwgtquv6xxako2","sona":"9160"},{"rt":129,"stimulus":"<p>Bereit?</p>","key_press":32,"trial_type":"html-keyboard-response","trial_index":291,"time_elapsed":574014,"internal_node_id":"0.0-8.0-0.71","subject":"qdwgtquv6xxako2","sona":"9160"},{"rt":null,"stimulus":"<div style=\"font-size:60px;\">+</div>","key_press":null,"trial_type":"html-keyboard-response","trial_index":292,"time_elapsed":576046,"internal_node_id":"0.0-8.0-1.71","subject":"qdwgtquv6xxako2","sona":"9160"},{"trial_type":"turing-test","trial_index":293,"time_elapsed":581883,"internal_node_id":"0.0-8.0-2.71","subject":"qdwgtquv6xxako2","sona":"9160"},{"rt":267,"stimulus":"<p>Welche Sequenz haben Sie als natürlicher empfunden?</p>","key_press":74,"test_part":"response","test_stimulus":{"position":1,"left":"bvh/vr_prediction_models/model(tmp)-dataset(return-bottle)-numprim(6)-hold(4)/final-lines.txt","right":"bvh/return-bottle-training4-lines.txt","att_check":false},"trial_type":"html-keyboard-response","trial_index":294,"time_elapsed":582161,"internal_node_id":"0.0-8.0-3.71","subject":"qdwgtquv6xxako2","sona":"9160"},{"rt":66,"stimulus":"<p>Bereit?</p>","key_press":32,"trial_type":"html-keyboard-response","trial_index":295,"time_elapsed":582237,"internal_node_id":"0.0-8.0-0.72","subject":"qdwgtquv6xxako2","sona":"9160"},{"rt":null,"stimulus":"<div style=\"font-size:60px;\">+</div>","key_press":null,"trial_type":"html-keyboard-response","trial_index":296,"time_elapsed":584254,"internal_node_id":"0.0-8.0-1.72","subject":"qdwgtquv6xxako2","sona":"9160"},{"trial_type":"turing-test","trial_index":297,"time_elapsed":590753,"internal_node_id":"0.0-8.0-2.72","subject":"qdwgtquv6xxako2","sona":"9160"},{"rt":388,"stimulus":"<p>Welche Sequenz haben Sie als natürlicher empfunden?</p>","key_press":74,"test_part":"response","test_stimulus":{"position":1,"left":"bvh/vr_prediction_models/model(vcgpdm)-dataset(return-bottle)-mode(ELBO)-parts(3)-dyn(35)-lvm(20)-hold(2)/final-lines.txt","right":"bvh/return-bottle-training2-lines.txt","att_check":false},"trial_type":"html-keyboard-response","trial_index":298,"time_elapsed":591150,"internal_node_id":"0.0-8.0-3.72","subject":"qdwgtquv6xxako2","sona":"9160"},{"rt":89,"stimulus":"<p>Bereit?</p>","key_press":32,"trial_type":"html-keyboard-response","trial_index":299,"time_elapsed":591251,"internal_node_id":"0.0-8.0-0.73","subject":"qdwgtquv6xxako2","sona":"9160"},{"rt":null,"stimulus":"<div style=\"font-size:60px;\">+</div>","key_press":null,"trial_type":"html-keyboard-response","trial_index":300,"time_elapsed":593269,"internal_node_id":"0.0-8.0-1.73","subject":"qdwgtquv6xxako2","sona":"9160"},{"trial_type":"turing-test","trial_index":301,"time_elapsed":597060,"internal_node_id":"0.0-8.0-2.73","subject":"qdwgtquv6xxako2","sona":"9160"},{"rt":185,"stimulus":"<p>Welche Sequenz haben Sie als natürlicher empfunden?</p>","key_press":74,"test_part":"response","test_stimulus":{"position":1,"left":"bvh/vr_prediction_models/model(tmp)-dataset(return-bottle-hold)-numprim(15)-hold(3)/final-lines.txt","right":"bvh/return-bottle-hold-training3-lines.txt","att_check":false},"trial_type":"html-keyboard-response","trial_index":302,"time_elapsed":597257,"internal_node_id":"0.0-8.0-3.73","subject":"qdwgtquv6xxako2","sona":"9160"},{"rt":110,"stimulus":"<p>Bereit?</p>","key_press":32,"trial_type":"html-keyboard-response","trial_index":303,"time_elapsed":597378,"internal_node_id":"0.0-8.0-0.74","subject":"qdwgtquv6xxako2","sona":"9160"},{"rt":null,"stimulus":"<div style=\"font-size:60px;\">+</div>","key_press":null,"trial_type":"html-keyboard-response","trial_index":304,"time_elapsed":599390,"internal_node_id":"0.0-8.0-1.74","subject":"qdwgtquv6xxako2","sona":"9160"},{"trial_type":"turing-test","trial_index":305,"time_elapsed":606329,"internal_node_id":"0.0-8.0-2.74","subject":"qdwgtquv6xxako2","sona":"9160"},{"rt":646,"stimulus":"<p>Welche Sequenz haben Sie als natürlicher empfunden?</p>","key_press":70,"test_part":"response","test_stimulus":{"position":0,"left":"bvh/pass-bottle-training0-lines.txt","right":"bvh/vr_prediction_models/model(vcgpdm)-dataset(pass-bottle)-mode(ELBO)-parts(1)-dyn(10)-lvm(30)-hold(0)/final-lines.txt","att_check":false},"trial_type":"html-keyboard-response","trial_index":306,"time_elapsed":606986,"internal_node_id":"0.0-8.0-3.74","subject":"qdwgtquv6xxako2","sona":"9160"},{"rt":122,"stimulus":"<p>Bereit?</p>","key_press":32,"trial_type":"html-keyboard-response","trial_index":307,"time_elapsed":607116,"internal_node_id":"0.0-8.0-0.75","subject":"qdwgtquv6xxako2","sona":"9160"},{"rt":null,"stimulus":"<div style=\"font-size:60px;\">+</div>","key_press":null,"trial_type":"html-keyboard-response","trial_index":308,"time_elapsed":609139,"internal_node_id":"0.0-8.0-1.75","subject":"qdwgtquv6xxako2","sona":"9160"},{"trial_type":"turing-test","trial_index":309,"time_elapsed":612835,"internal_node_id":"0.0-8.0-2.75","subject":"qdwgtquv6xxako2","sona":"9160"},{"rt":218,"stimulus":"<p>Welche Sequenz haben Sie als natürlicher empfunden?</p>","key_press":70,"test_part":"response","test_stimulus":{"position":0,"left":"bvh/pass-bottle-hold-training4-lines.txt","right":"bvh/vr_prediction_models/model(tmp)-dataset(pass-bottle-hold)-numprim(5)-hold(4)/final-lines.txt","att_check":false},"trial_type":"html-keyboard-response","trial_index":310,"time_elapsed":613065,"internal_node_id":"0.0-8.0-3.75","subject":"qdwgtquv6xxako2","sona":"9160"},{"rt":113,"stimulus":"<p>Bereit?</p>","key_press":32,"trial_type":"html-keyboard-response","trial_index":311,"time_elapsed":613188,"internal_node_id":"0.0-8.0-0.76","subject":"qdwgtquv6xxako2","sona":"9160"},{"rt":null,"stimulus":"<div style=\"font-size:60px;\">+</div>","key_press":null,"trial_type":"html-keyboard-response","trial_index":312,"time_elapsed":615214,"internal_node_id":"0.0-8.0-1.76","subject":"qdwgtquv6xxako2","sona":"9160"},{"trial_type":"turing-test","trial_index":313,"time_elapsed":621256,"internal_node_id":"0.0-8.0-2.76","subject":"qdwgtquv6xxako2","sona":"9160"},{"rt":250,"stimulus":"<p>Welche Sequenz haben Sie als natürlicher empfunden?</p>","key_press":70,"test_part":"response","test_stimulus":{"position":1,"left":"bvh/vr_prediction_models/model(vcgpdm)-dataset(return-bottle)-mode(ELBO)-parts(1)-dyn(20)-lvm(5)-hold(3)/final-lines.txt","right":"bvh/return-bottle-training3-lines.txt","att_check":false},"trial_type":"html-keyboard-response","trial_index":314,"time_elapsed":621520,"internal_node_id":"0.0-8.0-3.76","subject":"qdwgtquv6xxako2","sona":"9160"},{"rt":139,"stimulus":"<p>Bereit?</p>","key_press":32,"trial_type":"html-keyboard-response","trial_index":315,"time_elapsed":621670,"internal_node_id":"0.0-8.0-0.77","subject":"qdwgtquv6xxako2","sona":"9160"},{"rt":null,"stimulus":"<div style=\"font-size:60px;\">+</div>","key_press":null,"trial_type":"html-keyboard-response","trial_index":316,"time_elapsed":623709,"internal_node_id":"0.0-8.0-1.77","subject":"qdwgtquv6xxako2","sona":"9160"},{"trial_type":"turing-test","trial_index":317,"time_elapsed":627431,"internal_node_id":"0.0-8.0-2.77","subject":"qdwgtquv6xxako2","sona":"9160"},{"rt":462,"stimulus":"<p>Welche Sequenz haben Sie als natürlicher empfunden?</p>","key_press":70,"test_part":"response","test_stimulus":{"position":0,"left":"bvh/return-bottle-hold-training2-lines.txt","right":"bvh/vr_prediction_models/model(vcgpdm)-dataset(return-bottle-hold)-mode(ELBO)-parts(1)-dyn(30)-lvm(35)-hold(2)/final-lines.txt","att_check":false},"trial_type":"html-keyboard-response","trial_index":318,"time_elapsed":627907,"internal_node_id":"0.0-8.0-3.77","subject":"qdwgtquv6xxako2","sona":"9160"},{"rt":169,"stimulus":"<p>Bereit?</p>","key_press":32,"trial_type":"html-keyboard-response","trial_index":319,"time_elapsed":628092,"internal_node_id":"0.0-8.0-0.78","subject":"qdwgtquv6xxako2","sona":"9160"},{"rt":null,"stimulus":"<div style=\"font-size:60px;\">+</div>","key_press":null,"trial_type":"html-keyboard-response","trial_index":320,"time_elapsed":630106,"internal_node_id":"0.0-8.0-1.78","subject":"qdwgtquv6xxako2","sona":"9160"},{"trial_type":"turing-test","trial_index":321,"time_elapsed":633747,"internal_node_id":"0.0-8.0-2.78","subject":"qdwgtquv6xxako2","sona":"9160"},{"rt":1012,"stimulus":"<p>Welche Sequenz haben Sie als natürlicher empfunden?</p>","key_press":70,"test_part":"response","test_stimulus":{"position":1,"left":"bvh/vr_prediction_models/model(vcgpdm)-dataset(pass-bottle-hold)-mode(ELBO)-parts(1)-dyn(35)-lvm(30)-hold(0)/final-lines.txt","right":"bvh/pass-bottle-hold-training0-lines.txt","att_check":false},"trial_type":"html-keyboard-response","trial_index":322,"time_elapsed":634765,"internal_node_id":"0.0-8.0-3.78","subject":"qdwgtquv6xxako2","sona":"9160"},{"rt":127,"stimulus":"<p>Bereit?</p>","key_press":32,"trial_type":"html-keyboard-response","trial_index":323,"time_elapsed":634901,"internal_node_id":"0.0-8.0-0.79","subject":"qdwgtquv6xxako2","sona":"9160"},{"rt":null,"stimulus":"<div style=\"font-size:60px;\">+</div>","key_press":null,"trial_type":"html-keyboard-response","trial_index":324,"time_elapsed":636917,"internal_node_id":"0.0-8.0-1.79","subject":"qdwgtquv6xxako2","sona":"9160"},{"trial_type":"turing-test","trial_index":325,"time_elapsed":640509,"internal_node_id":"0.0-8.0-2.79","subject":"qdwgtquv6xxako2","sona":"9160"},{"rt":278,"stimulus":"<p>Welche Sequenz haben Sie als natürlicher empfunden?</p>","key_press":70,"test_part":"response","test_stimulus":{"position":0,"left":"bvh/return-bottle-hold-training2-lines.txt","right":"bvh/vr_prediction_models/model(tmp)-dataset(return-bottle-hold)-numprim(3)-hold(2)/final-lines.txt","att_check":false},"trial_type":"html-keyboard-response","trial_index":326,"time_elapsed":640798,"internal_node_id":"0.0-8.0-3.79","subject":"qdwgtquv6xxako2","sona":"9160"},{"rt":9181,"responses":"{\"age\":\" 21\",\"gender\":\"weiblich\"}","trial_type":"survey-text","trial_index":327,"time_elapsed":650030,"internal_node_id":"0.0-10.0-0.0","subject":"qdwgtquv6xxako2","sona":"9160"},{"rt":80908,"responses":"{\"area\":\"Arme und Wirbelsäule\",\"Q1\":\"Arm- und Wirbelsäulenbewegungen haben nicht zusammengepasst\",\"Q2\":\"Drehungen des Strichmännchens\"}","trial_type":"survey-text","trial_index":328,"time_elapsed":730948,"internal_node_id":"0.0-10.0-1.0","subject":"qdwgtquv6xxako2","sona":"9160"}]