[{"rt":2935,"stimulus":"<p>Welcome!<br> Please choose your language to start the experiment in the chosen language.</p><p>Willkommen!<br> Bitte wählen Sie eine Sprache, um das Experiment in der ausgewählten Sprache zu starten</p>","button_pressed":"1","trial_type":"html-button-response","trial_index":0,"time_elapsed":2938,"internal_node_id":"0.0-0.0","subject":"cc6yb7r68wj4407","sona":"7540"},{"view_history":"[{\"page_index\":0,\"viewing_time\":17286},{\"page_index\":1,\"viewing_time\":2088},{\"page_index\":2,\"viewing_time\":3688},{\"page_index\":3,\"viewing_time\":2240},{\"page_index\":4,\"viewing_time\":1584}]","rt":26886,"trial_type":"instructions","trial_index":1,"time_elapsed":29826,"internal_node_id":"0.0-1.0-0.0","subject":"cc6yb7r68wj4407","sona":"7540"},{"rt":1759,"stimulus":"<p>Bereit?</p>","key_press":32,"trial_type":"html-keyboard-response","trial_index":2,"time_elapsed":31587,"internal_node_id":"0.0-3.0","subject":"cc6yb7r68wj4407","sona":"7540"},{"rt":null,"stimulus":"<div style=\"font-size:60px;\">+</div>","key_press":null,"trial_type":"html-keyboard-response","trial_index":3,"time_elapsed":33622,"internal_node_id":"0.0-4.0","subject":"cc6yb7r68wj4407","sona":"7540"},{"trial_type":"training","trial_index":4,"time_elapsed":37260,"internal_node_id":"0.0-5.0","subject":"cc6yb7r68wj4407","sona":"7540"},{"rt":4731,"stimulus":"<p>Welche Sequenz haben Sie als natürlicher empfunden?</p>","key_press":70,"trial_type":"html-keyboard-response","trial_index":5,"time_elapsed":41993,"internal_node_id":"0.0-6.0","subject":"cc6yb7r68wj4407","sona":"7540"},{"rt":8840,"stimulus":"<p>Das Experiment startet nun.</p><p><small>Bitte drücken Sie den Knopf, wenn Sie bereit sind.</small></p>","button_pressed":"0","trial_type":"html-button-response","trial_index":6,"time_elapsed":50834,"internal_node_id":"0.0-7.0","subject":"cc6yb7r68wj4407","sona":"7540"},{"rt":1385,"stimulus":"<p>Bereit?</p>","key_press":32,"trial_type":"html-keyboard-response","trial_index":7,"time_elapsed":52222,"internal_node_id":"0.0-8.0-0.0","subject":"cc6yb7r68wj4407","sona":"7540"},{"rt":null,"stimulus":"<div style=\"font-size:60px;\">+</div>","key_press":null,"trial_type":"html-keyboard-response","trial_index":8,"time_elapsed":54258,"internal_node_id":"0.0-8.0-1.0","subject":"cc6yb7r68wj4407","sona":"7540"},{"trial_type":"turing-test","trial_index":9,"time_elapsed":58064,"internal_node_id":"0.0-8.0-2.0","subject":"cc6yb7r68wj4407","sona":"7540"},{"rt":924,"stimulus":"<p>Welche Sequenz haben Sie als natürlicher empfunden?</p>","key_press":70,"test_part":"response","test_stimulus":{"position":1,"left":"bvh/vr_prediction_models/model(dmp)-dataset(return-bottle-hold)-npsi(20)-hold(3)/final-lines.txt","right":"bvh/return-bottle-hold-training3-lines.txt","att_check":true},"trial_type":"html-keyboard-response","trial_index":10,"time_elapsed":58990,"internal_node_id":"0.0-8.0-3.0","subject":"cc6yb7r68wj4407","sona":"7540"},{"rt":3846,"stimulus":"<p>Bereit?</p>","key_press":32,"trial_type":"html-keyboard-response","trial_index":11,"time_elapsed":62840,"internal_node_id":"0.0-8.0-0.1","subject":"cc6yb7r68wj4407","sona":"7540"},{"rt":null,"stimulus":"<div style=\"font-size:60px;\">+</div>","key_press":null,"trial_type":"html-keyboard-response","trial_index":12,"time_elapsed":64863,"internal_node_id":"0.0-8.0-1.1","subject":"cc6yb7r68wj4407","sona":"7540"},{"trial_type":"turing-test","trial_index":13,"time_elapsed":68361,"internal_node_id":"0.0-8.0-2.1","subject":"cc6yb7r68wj4407","sona":"7540"},{"rt":702,"stimulus":"<p>Welche Sequenz haben Sie als natürlicher empfunden?</p>","key_press":70,"test_part":"response","test_stimulus":{"position":1,"left":"bvh/vr_prediction_models/model(tmp)-dataset(pass-bottle-hold)-numprim(15)-hold(2)/final-lines.txt","right":"bvh/pass-bottle-hold-training2-lines.txt","att_check":false},"trial_type":"html-keyboard-response","trial_index":14,"time_elapsed":69067,"internal_node_id":"0.0-8.0-3.1","subject":"cc6yb7r68wj4407","sona":"7540"},{"rt":3607,"stimulus":"<p>Bereit?</p>","key_press":32,"trial_type":"html-keyboard-response","trial_index":15,"time_elapsed":72678,"internal_node_id":"0.0-8.0-0.2","subject":"cc6yb7r68wj4407","sona":"7540"},{"rt":null,"stimulus":"<div style=\"font-size:60px;\">+</div>","key_press":null,"trial_type":"html-keyboard-response","trial_index":16,"time_elapsed":74701,"internal_node_id":"0.0-8.0-1.2","subject":"cc6yb7r68wj4407","sona":"7540"},{"trial_type":"turing-test","trial_index":17,"time_elapsed":78400,"internal_node_id":"0.0-8.0-2.2","subject":"cc6yb7r68wj4407","sona":"7540"},{"rt":1101,"stimulus":"<p>Welche Sequenz haben Sie als natürlicher empfunden?</p>","key_press":74,"test_part":"response","test_stimulus":{"position":0,"left":"bvh/return-bottle-hold-training3-lines.txt","right":"bvh/vr_prediction_models/model(tmp)-dataset(return-bottle-hold)-numprim(10)-hold(3)/final-lines.txt","att_check":false},"trial_type":"html-keyboard-response","trial_index":18,"time_elapsed":79506,"internal_node_id":"0.0-8.0-3.2","subject":"cc6yb7r68wj4407","sona":"7540"},{"rt":4086,"stimulus":"<p>Bereit?</p>","key_press":32,"trial_type":"html-keyboard-response","trial_index":19,"time_elapsed":83597,"internal_node_id":"0.0-8.0-0.3","subject":"cc6yb7r68wj4407","sona":"7540"},{"rt":null,"stimulus":"<div style=\"font-size:60px;\">+</div>","key_press":null,"trial_type":"html-keyboard-response","trial_index":20,"time_elapsed":85621,"internal_node_id":"0.0-8.0-1.3","subject":"cc6yb7r68wj4407","sona":"7540"},{"trial_type":"turing-test","trial_index":21,"time_elapsed":93624,"internal_node_id":"0.0-8.0-2.3","subject":"cc6yb7r68wj4407","sona":"7540"},{"rt":679,"stimulus":"<p>Welche Sequenz haben Sie als natürlicher empfunden?</p>","key_press":70,"test_part":"response","test_stimulus":{"position":1,"left":"bvh/vr_prediction_models/model(vcgpdm)-dataset(return-bottle)-mode(ELBO)-parts(3)-dyn(10)-lvm(10)-hold(2)/final-lines.txt","right":"bvh/return-bottle-training2-lines.txt","att_check":false},"trial_type":"html-keyboard-response","trial_index":22,"time_elapsed":94308,"internal_node_id":"0.0-8.0-3.3","subject":"cc6yb7r68wj4407","sona":"7540"},{"rt":386,"stimulus":"<p>Bereit?</p>","key_press":32,"trial_type":"html-keyboard-response","trial_index":23,"time_elapsed":94695,"internal_node_id":"0.0-8.0-0.4","subject":"cc6yb7r68wj4407","sona":"7540"},{"rt":null,"stimulus":"<div style=\"font-size:60px;\">+</div>","key_press":null,"trial_type":"html-keyboard-response","trial_index":24,"time_elapsed":96714,"internal_node_id":"0.0-8.0-1.4","subject":"cc6yb7r68wj4407","sona":"7540"},{"trial_type":"turing-test","trial_index":25,"time_elapsed":102086,"internal_node_id":"0.0-8.0-2.4","subject":"cc6yb7r68wj4407","sona":"7540"},{"rt":669,"stimulus":"<p>Welche Sequenz haben Sie als natürlicher empfunden?</p>","key_press":74,"test_part":"response","test_stimulus":{"position":0,"left":"bvh/return-bottle-hold-training0-lines.txt","right":"bvh/vr_prediction_models/model(tmp)-dataset(return-bottle-hold)-numprim(12)-hold(0)/final-lines.txt","att_check":false},"trial_type":"html-keyboard-response","trial_index":26,"time_elapsed":102761,"internal_node_id":"0.0-8.0-3.4","subject":"cc6yb7r68wj4407","sona":"7540"},{"rt":327,"stimulus":"<p>Bereit?</p>","key_press":32,"trial_type":"html-keyboard-response","trial_index":27,"time_elapsed":103091,"internal_node_id":"0.0-8.0-0.5","subject":"cc6yb7r68wj4407","sona":"7540"},{"rt":null,"stimulus":"<div style=\"font-size:60px;\">+</div>","key_press":null,"trial_type":"html-keyboard-response","trial_index":28,"time_elapsed":105116,"internal_node_id":"0.0-8.0-1.5","subject":"cc6yb7r68wj4407","sona":"7540"},{"trial_type":"turing-test","trial_index":29,"time_elapsed":108805,"internal_node_id":"0.0-8.0-2.5","subject":"cc6yb7r68wj4407","sona":"7540"},{"rt":480,"stimulus":"<p>Welche Sequenz haben Sie als natürlicher empfunden?</p>","key_press":70,"test_part":"response","test_stimulus":{"position":1,"left":"bvh/vr_prediction_models/model(tmp)-dataset(return-bottle-hold)-numprim(15)-hold(3)/final-lines.txt","right":"bvh/return-bottle-hold-training3-lines.txt","att_check":false},"trial_type":"html-keyboard-response","trial_index":30,"time_elapsed":109288,"internal_node_id":"0.0-8.0-3.5","subject":"cc6yb7r68wj4407","sona":"7540"},{"rt":323,"stimulus":"<p>Bereit?</p>","key_press":32,"trial_type":"html-keyboard-response","trial_index":31,"time_elapsed":109615,"internal_node_id":"0.0-8.0-0.6","subject":"cc6yb7r68wj4407","sona":"7540"},{"rt":null,"stimulus":"<div style=\"font-size:60px;\">+</div>","key_press":null,"trial_type":"html-keyboard-response","trial_index":32,"time_elapsed":111646,"internal_node_id":"0.0-8.0-1.6","subject":"cc6yb7r68wj4407","sona":"7540"},{"trial_type":"turing-test","trial_index":33,"time_elapsed":116162,"internal_node_id":"0.0-8.0-2.6","subject":"cc6yb7r68wj4407","sona":"7540"},{"rt":721,"stimulus":"<p>Welche Sequenz haben Sie als natürlicher empfunden?</p>","key_press":70,"test_part":"response","test_stimulus":{"position":1,"left":"bvh/vr_prediction_models/model(vcgpdm)-dataset(pass-bottle-hold)-mode(ELBO)-parts(3)-dyn(10)-lvm(30)-hold(0)/final-lines.txt","right":"bvh/pass-bottle-hold-training0-lines.txt","att_check":false},"trial_type":"html-keyboard-response","trial_index":34,"time_elapsed":116886,"internal_node_id":"0.0-8.0-3.6","subject":"cc6yb7r68wj4407","sona":"7540"},{"rt":328,"stimulus":"<p>Bereit?</p>","key_press":32,"trial_type":"html-keyboard-response","trial_index":35,"time_elapsed":117217,"internal_node_id":"0.0-8.0-0.7","subject":"cc6yb7r68wj4407","sona":"7540"},{"rt":null,"stimulus":"<div style=\"font-size:60px;\">+</div>","key_press":null,"trial_type":"html-keyboard-response","trial_index":36,"time_elapsed":119242,"internal_node_id":"0.0-8.0-1.7","subject":"cc6yb7r68wj4407","sona":"7540"},{"trial_type":"turing-test","trial_index":37,"time_elapsed":123794,"internal_node_id":"0.0-8.0-2.7","subject":"cc6yb7r68wj4407","sona":"7540"},{"rt":2206,"stimulus":"<p>Welche Sequenz haben Sie als natürlicher empfunden?</p>","key_press":70,"test_part":"response","test_stimulus":{"position":0,"left":"bvh/pass-bottle-hold-training2-lines.txt","right":"bvh/vr_prediction_models/model(vcgpdm)-dataset(pass-bottle-hold)-mode(ELBO)-parts(1)-dyn(10)-lvm(30)-hold(2)/final-lines.txt","att_check":false},"trial_type":"html-keyboard-response","trial_index":38,"time_elapsed":126004,"internal_node_id":"0.0-8.0-3.7","subject":"cc6yb7r68wj4407","sona":"7540"},{"rt":298,"stimulus":"<p>Bereit?</p>","key_press":32,"trial_type":"html-keyboard-response","trial_index":39,"time_elapsed":126305,"internal_node_id":"0.0-8.0-0.8","subject":"cc6yb7r68wj4407","sona":"7540"},{"rt":null,"stimulus":"<div style=\"font-size:60px;\">+</div>","key_press":null,"trial_type":"html-keyboard-response","trial_index":40,"time_elapsed":128344,"internal_node_id":"0.0-8.0-1.8","subject":"cc6yb7r68wj4407","sona":"7540"},{"trial_type":"turing-test","trial_index":41,"time_elapsed":135927,"internal_node_id":"0.0-8.0-2.8","subject":"cc6yb7r68wj4407","sona":"7540"},{"rt":541,"stimulus":"<p>Welche Sequenz haben Sie als natürlicher empfunden?</p>","key_press":70,"test_part":"response","test_stimulus":{"position":0,"left":"bvh/pass-bottle-training2-lines.txt","right":"bvh/vr_prediction_models/model(vcgpdm)-dataset(pass-bottle)-mode(ELBO)-parts(1)-dyn(20)-lvm(20)-hold(2)/final-lines.txt","att_check":false},"trial_type":"html-keyboard-response","trial_index":42,"time_elapsed":136471,"internal_node_id":"0.0-8.0-3.8","subject":"cc6yb7r68wj4407","sona":"7540"},{"rt":2976,"stimulus":"<p>Bereit?</p>","key_press":32,"trial_type":"html-keyboard-response","trial_index":43,"time_elapsed":139447,"internal_node_id":"0.0-8.0-0.9","subject":"cc6yb7r68wj4407","sona":"7540"},{"rt":null,"stimulus":"<div style=\"font-size:60px;\">+</div>","key_press":null,"trial_type":"html-keyboard-response","trial_index":44,"time_elapsed":141487,"internal_node_id":"0.0-8.0-1.9","subject":"cc6yb7r68wj4407","sona":"7540"},{"trial_type":"turing-test","trial_index":45,"time_elapsed":146377,"internal_node_id":"0.0-8.0-2.9","subject":"cc6yb7r68wj4407","sona":"7540"},{"rt":618,"stimulus":"<p>Welche Sequenz haben Sie als natürlicher empfunden?</p>","key_press":70,"test_part":"response","test_stimulus":{"position":1,"left":"bvh/vr_prediction_models/model(vcgpdm)-dataset(pass-bottle-hold)-mode(ELBO)-parts(1)-dyn(10)-lvm(5)-hold(3)/final-lines.txt","right":"bvh/pass-bottle-hold-training3-lines.txt","att_check":false},"trial_type":"html-keyboard-response","trial_index":46,"time_elapsed":146999,"internal_node_id":"0.0-8.0-3.9","subject":"cc6yb7r68wj4407","sona":"7540"},{"rt":5410,"stimulus":"<p>Bereit?</p>","key_press":32,"trial_type":"html-keyboard-response","trial_index":47,"time_elapsed":152413,"internal_node_id":"0.0-8.0-0.10","subject":"cc6yb7r68wj4407","sona":"7540"},{"rt":null,"stimulus":"<div style=\"font-size:60px;\">+</div>","key_press":null,"trial_type":"html-keyboard-response","trial_index":48,"time_elapsed":154437,"internal_node_id":"0.0-8.0-1.10","subject":"cc6yb7r68wj4407","sona":"7540"},{"trial_type":"turing-test","trial_index":49,"time_elapsed":157812,"internal_node_id":"0.0-8.0-2.10","subject":"cc6yb7r68wj4407","sona":"7540"},{"rt":493,"stimulus":"<p>Welche Sequenz haben Sie als natürlicher empfunden?</p>","key_press":70,"test_part":"response","test_stimulus":{"position":1,"left":"bvh/vr_prediction_models/model(dmp)-dataset(pass-bottle-hold)-npsi(70)-hold(0)/final-lines.txt","right":"bvh/pass-bottle-hold-training0-lines.txt","att_check":false},"trial_type":"html-keyboard-response","trial_index":50,"time_elapsed":158310,"internal_node_id":"0.0-8.0-3.10","subject":"cc6yb7r68wj4407","sona":"7540"},{"rt":387,"stimulus":"<p>Bereit?</p>","key_press":32,"trial_type":"html-keyboard-response","trial_index":51,"time_elapsed":158700,"internal_node_id":"0.0-8.0-0.11","subject":"cc6yb7r68wj4407","sona":"7540"},{"rt":null,"stimulus":"<div style=\"font-size:60px;\">+</div>","key_press":null,"trial_type":"html-keyboard-response","trial_index":52,"time_elapsed":160731,"internal_node_id":"0.0-8.0-1.11","subject":"cc6yb7r68wj4407","sona":"7540"},{"trial_type":"turing-test","trial_index":53,"time_elapsed":167390,"internal_node_id":"0.0-8.0-2.11","subject":"cc6yb7r68wj4407","sona":"7540"},{"rt":333,"stimulus":"<p>Welche Sequenz haben Sie als natürlicher empfunden?</p>","key_press":70,"test_part":"response","test_stimulus":{"position":0,"left":"bvh/return-bottle-training2-lines.txt","right":"bvh/vr_prediction_models/model(tmp)-dataset(return-bottle)-numprim(3)-hold(2)/final-lines.txt","att_check":false},"trial_type":"html-keyboard-response","trial_index":54,"time_elapsed":167726,"internal_node_id":"0.0-8.0-3.11","subject":"cc6yb7r68wj4407","sona":"7540"},{"rt":197,"stimulus":"<p>Bereit?</p>","key_press":32,"trial_type":"html-keyboard-response","trial_index":55,"time_elapsed":167926,"internal_node_id":"0.0-8.0-0.12","subject":"cc6yb7r68wj4407","sona":"7540"},{"rt":null,"stimulus":"<div style=\"font-size:60px;\">+</div>","key_press":null,"trial_type":"html-keyboard-response","trial_index":56,"time_elapsed":169941,"internal_node_id":"0.0-8.0-1.12","subject":"cc6yb7r68wj4407","sona":"7540"},{"trial_type":"turing-test","trial_index":57,"time_elapsed":176051,"internal_node_id":"0.0-8.0-2.12","subject":"cc6yb7r68wj4407","sona":"7540"},{"rt":440,"stimulus":"<p>Welche Sequenz haben Sie als natürlicher empfunden?</p>","key_press":74,"test_part":"response","test_stimulus":{"position":0,"left":"bvh/pass-bottle-training3-lines.txt","right":"bvh/vr_prediction_models/model(tmp)-dataset(pass-bottle)-numprim(9)-hold(3)/final-lines.txt","att_check":false},"trial_type":"html-keyboard-response","trial_index":58,"time_elapsed":176495,"internal_node_id":"0.0-8.0-3.12","subject":"cc6yb7r68wj4407","sona":"7540"},{"rt":238,"stimulus":"<p>Bereit?</p>","key_press":32,"trial_type":"html-keyboard-response","trial_index":59,"time_elapsed":176736,"internal_node_id":"0.0-8.0-0.13","subject":"cc6yb7r68wj4407","sona":"7540"},{"rt":null,"stimulus":"<div style=\"font-size:60px;\">+</div>","key_press":null,"trial_type":"html-keyboard-response","trial_index":60,"time_elapsed":178771,"internal_node_id":"0.0-8.0-1.13","subject":"cc6yb7r68wj4407","sona":"7540"},{"trial_type":"turing-test","trial_index":61,"time_elapsed":184486,"internal_node_id":"0.0-8.0-2.13","subject":"cc6yb7r68wj4407","sona":"7540"},{"rt":356,"stimulus":"<p>Welche Sequenz haben Sie als natürlicher empfunden?</p>","key_press":74,"test_part":"response","test_stimulus":{"position":1,"left":"bvh/vr_prediction_models/model(dmp)-dataset(return-bottle)-npsi(10)-hold(0)/final-lines.txt","right":"bvh/return-bottle-training0-lines.txt","att_check":false},"trial_type":"html-keyboard-response","trial_index":62,"time_elapsed":184846,"internal_node_id":"0.0-8.0-3.13","subject":"cc6yb7r68wj4407","sona":"7540"},{"rt":180,"stimulus":"<p>Bereit?</p>","key_press":32,"trial_type":"html-keyboard-response","trial_index":63,"time_elapsed":185030,"internal_node_id":"0.0-8.0-0.14","subject":"cc6yb7r68wj4407","sona":"7540"},{"rt":null,"stimulus":"<div style=\"font-size:60px;\">+</div>","key_press":null,"trial_type":"html-keyboard-response","trial_index":64,"time_elapsed":187067,"internal_node_id":"0.0-8.0-1.14","subject":"cc6yb7r68wj4407","sona":"7540"},{"trial_type":"turing-test","trial_index":65,"time_elapsed":192769,"internal_node_id":"0.0-8.0-2.14","subject":"cc6yb7r68wj4407","sona":"7540"},{"rt":1161,"stimulus":"<p>Welche Sequenz haben Sie als natürlicher empfunden?</p>","key_press":74,"test_part":"response","test_stimulus":{"position":0,"left":"bvh/pass-bottle-training1-lines.txt","right":"bvh/vr_prediction_models/model(tmp)-dataset(pass-bottle)-numprim(4)-hold(1)/final-lines.txt","att_check":false},"trial_type":"html-keyboard-response","trial_index":66,"time_elapsed":193933,"internal_node_id":"0.0-8.0-3.14","subject":"cc6yb7r68wj4407","sona":"7540"},{"rt":124,"stimulus":"<p>Bereit?</p>","key_press":32,"trial_type":"html-keyboard-response","trial_index":67,"time_elapsed":194058,"internal_node_id":"0.0-8.0-0.15","subject":"cc6yb7r68wj4407","sona":"7540"},{"rt":null,"stimulus":"<div style=\"font-size:60px;\">+</div>","key_press":null,"trial_type":"html-keyboard-response","trial_index":68,"time_elapsed":196090,"internal_node_id":"0.0-8.0-1.15","subject":"cc6yb7r68wj4407","sona":"7540"},{"trial_type":"turing-test","trial_index":69,"time_elapsed":200793,"internal_node_id":"0.0-8.0-2.15","subject":"cc6yb7r68wj4407","sona":"7540"},{"rt":422,"stimulus":"<p>Welche Sequenz haben Sie als natürlicher empfunden?</p>","key_press":70,"test_part":"response","test_stimulus":{"position":0,"left":"bvh/return-bottle-hold-training1-lines.txt","right":"bvh/vr_prediction_models/model(vcgpdm)-dataset(return-bottle-hold)-mode(ELBO)-parts(3)-dyn(25)-lvm(15)-hold(1)/final-lines.txt","att_check":false},"trial_type":"html-keyboard-response","trial_index":70,"time_elapsed":201219,"internal_node_id":"0.0-8.0-3.15","subject":"cc6yb7r68wj4407","sona":"7540"},{"rt":179,"stimulus":"<p>Bereit?</p>","key_press":32,"trial_type":"html-keyboard-response","trial_index":71,"time_elapsed":201402,"internal_node_id":"0.0-8.0-0.16","subject":"cc6yb7r68wj4407","sona":"7540"},{"rt":null,"stimulus":"<div style=\"font-size:60px;\">+</div>","key_press":null,"trial_type":"html-keyboard-response","trial_index":72,"time_elapsed":203434,"internal_node_id":"0.0-8.0-1.16","subject":"cc6yb7r68wj4407","sona":"7540"},{"trial_type":"turing-test","trial_index":73,"time_elapsed":206790,"internal_node_id":"0.0-8.0-2.16","subject":"cc6yb7r68wj4407","sona":"7540"},{"rt":686,"stimulus":"<p>Welche Sequenz haben Sie als natürlicher empfunden?</p>","key_press":70,"test_part":"response","test_stimulus":{"position":0,"left":"bvh/pass-bottle-hold-training2-lines.txt","right":"bvh/vr_prediction_models/model(tmp)-dataset(pass-bottle-hold)-numprim(5)-hold(2)/final-lines.txt","att_check":false},"trial_type":"html-keyboard-response","trial_index":74,"time_elapsed":207480,"internal_node_id":"0.0-8.0-3.16","subject":"cc6yb7r68wj4407","sona":"7540"},{"rt":269,"stimulus":"<p>Bereit?</p>","key_press":32,"trial_type":"html-keyboard-response","trial_index":75,"time_elapsed":207751,"internal_node_id":"0.0-8.0-0.17","subject":"cc6yb7r68wj4407","sona":"7540"},{"rt":null,"stimulus":"<div style=\"font-size:60px;\">+</div>","key_press":null,"trial_type":"html-keyboard-response","trial_index":76,"time_elapsed":209790,"internal_node_id":"0.0-8.0-1.17","subject":"cc6yb7r68wj4407","sona":"7540"},{"trial_type":"turing-test","trial_index":77,"time_elapsed":213756,"internal_node_id":"0.0-8.0-2.17","subject":"cc6yb7r68wj4407","sona":"7540"},{"rt":341,"stimulus":"<p>Welche Sequenz haben Sie als natürlicher empfunden?</p>","key_press":74,"test_part":"response","test_stimulus":{"position":1,"left":"bvh/vr_prediction_models/model(tmp)-dataset(return-bottle-hold)-numprim(3)-hold(4)/final-lines.txt","right":"bvh/return-bottle-hold-training4-lines.txt","att_check":false},"trial_type":"html-keyboard-response","trial_index":78,"time_elapsed":214101,"internal_node_id":"0.0-8.0-3.17","subject":"cc6yb7r68wj4407","sona":"7540"},{"rt":91,"stimulus":"<p>Bereit?</p>","key_press":32,"trial_type":"html-keyboard-response","trial_index":79,"time_elapsed":214194,"internal_node_id":"0.0-8.0-0.18","subject":"cc6yb7r68wj4407","sona":"7540"},{"rt":null,"stimulus":"<div style=\"font-size:60px;\">+</div>","key_press":null,"trial_type":"html-keyboard-response","trial_index":80,"time_elapsed":216206,"internal_node_id":"0.0-8.0-1.18","subject":"cc6yb7r68wj4407","sona":"7540"},{"trial_type":"turing-test","trial_index":81,"time_elapsed":222110,"internal_node_id":"0.0-8.0-2.18","subject":"cc6yb7r68wj4407","sona":"7540"},{"rt":1348,"stimulus":"<p>Welche Sequenz haben Sie als natürlicher empfunden?</p>","key_press":74,"test_part":"response","test_stimulus":{"position":0,"left":"bvh/pass-bottle-training3-lines.txt","right":"bvh/vr_prediction_models/model(tmp)-dataset(pass-bottle)-numprim(10)-hold(3)/final-lines.txt","att_check":false},"trial_type":"html-keyboard-response","trial_index":82,"time_elapsed":223462,"internal_node_id":"0.0-8.0-3.18","subject":"cc6yb7r68wj4407","sona":"7540"},{"rt":357,"stimulus":"<p>Bereit?</p>","key_press":32,"trial_type":"html-keyboard-response","trial_index":83,"time_elapsed":223822,"internal_node_id":"0.0-8.0-0.19","subject":"cc6yb7r68wj4407","sona":"7540"},{"rt":null,"stimulus":"<div style=\"font-size:60px;\">+</div>","key_press":null,"trial_type":"html-keyboard-response","trial_index":84,"time_elapsed":225850,"internal_node_id":"0.0-8.0-1.19","subject":"cc6yb7r68wj4407","sona":"7540"},{"trial_type":"turing-test","trial_index":85,"time_elapsed":233011,"internal_node_id":"0.0-8.0-2.19","subject":"cc6yb7r68wj4407","sona":"7540"},{"rt":905,"stimulus":"<p>Welche Sequenz haben Sie als natürlicher empfunden?</p>","key_press":74,"test_part":"response","test_stimulus":{"position":1,"left":"bvh/vr_prediction_models/model(vcgpdm)-dataset(return-bottle)-mode(ELBO)-parts(1)-dyn(20)-lvm(20)-hold(4)/final-lines.txt","right":"bvh/return-bottle-training4-lines.txt","att_check":false},"trial_type":"html-keyboard-response","trial_index":86,"time_elapsed":233920,"internal_node_id":"0.0-8.0-3.19","subject":"cc6yb7r68wj4407","sona":"7540"},{"rt":421,"stimulus":"<p>Bereit?</p>","key_press":32,"trial_type":"html-keyboard-response","trial_index":87,"time_elapsed":234343,"internal_node_id":"0.0-8.0-0.20","subject":"cc6yb7r68wj4407","sona":"7540"},{"rt":null,"stimulus":"<div style=\"font-size:60px;\">+</div>","key_press":null,"trial_type":"html-keyboard-response","trial_index":88,"time_elapsed":236373,"internal_node_id":"0.0-8.0-1.20","subject":"cc6yb7r68wj4407","sona":"7540"},{"trial_type":"turing-test","trial_index":89,"time_elapsed":240918,"internal_node_id":"0.0-8.0-2.20","subject":"cc6yb7r68wj4407","sona":"7540"},{"rt":1240,"stimulus":"<p>Welche Sequenz haben Sie als natürlicher empfunden?</p>","key_press":70,"test_part":"response","test_stimulus":{"position":0,"left":"bvh/return-bottle-hold-training1-lines.txt","right":"bvh/vr_prediction_models/model(vcgpdm)-dataset(return-bottle-hold)-mode(ELBO)-parts(1)-dyn(35)-lvm(30)-hold(1)/final-lines.txt","att_check":false},"trial_type":"html-keyboard-response","trial_index":90,"time_elapsed":242163,"internal_node_id":"0.0-8.0-3.20","subject":"cc6yb7r68wj4407","sona":"7540"},{"rt":179,"stimulus":"<p>Bereit?</p>","key_press":32,"trial_type":"html-keyboard-response","trial_index":91,"time_elapsed":242345,"internal_node_id":"0.0-8.0-0.21","subject":"cc6yb7r68wj4407","sona":"7540"},{"rt":null,"stimulus":"<div style=\"font-size:60px;\">+</div>","key_press":null,"trial_type":"html-keyboard-response","trial_index":92,"time_elapsed":244378,"internal_node_id":"0.0-8.0-1.21","subject":"cc6yb7r68wj4407","sona":"7540"},{"trial_type":"turing-test","trial_index":93,"time_elapsed":251815,"internal_node_id":"0.0-8.0-2.21","subject":"cc6yb7r68wj4407","sona":"7540"},{"rt":936,"stimulus":"<p>Welche Sequenz haben Sie als natürlicher empfunden?</p>","key_press":70,"test_part":"response","test_stimulus":{"position":0,"left":"bvh/return-bottle-training1-lines.txt","right":"bvh/vr_prediction_models/model(vcgpdm)-dataset(return-bottle)-mode(ELBO)-parts(3)-dyn(10)-lvm(10)-hold(1)/final-lines.txt","att_check":false},"trial_type":"html-keyboard-response","trial_index":94,"time_elapsed":252757,"internal_node_id":"0.0-8.0-3.21","subject":"cc6yb7r68wj4407","sona":"7540"},{"rt":416,"stimulus":"<p>Bereit?</p>","key_press":32,"trial_type":"html-keyboard-response","trial_index":95,"time_elapsed":253177,"internal_node_id":"0.0-8.0-0.22","subject":"cc6yb7r68wj4407","sona":"7540"},{"rt":null,"stimulus":"<div style=\"font-size:60px;\">+</div>","key_press":null,"trial_type":"html-keyboard-response","trial_index":96,"time_elapsed":255215,"internal_node_id":"0.0-8.0-1.22","subject":"cc6yb7r68wj4407","sona":"7540"},{"trial_type":"turing-test","trial_index":97,"time_elapsed":261836,"internal_node_id":"0.0-8.0-2.22","subject":"cc6yb7r68wj4407","sona":"7540"},{"rt":392,"stimulus":"<p>Welche Sequenz haben Sie als natürlicher empfunden?</p>","key_press":70,"test_part":"response","test_stimulus":{"position":0,"left":"bvh/pass-bottle-training1-lines.txt","right":"bvh/vr_prediction_models/model(vcgpdm)-dataset(pass-bottle)-mode(ELBO)-parts(3)-dyn(25)-lvm(25)-hold(1)/final-lines.txt","att_check":false},"trial_type":"html-keyboard-response","trial_index":98,"time_elapsed":262232,"internal_node_id":"0.0-8.0-3.22","subject":"cc6yb7r68wj4407","sona":"7540"},{"rt":239,"stimulus":"<p>Bereit?</p>","key_press":32,"trial_type":"html-keyboard-response","trial_index":99,"time_elapsed":262476,"internal_node_id":"0.0-8.0-0.23","subject":"cc6yb7r68wj4407","sona":"7540"},{"rt":null,"stimulus":"<div style=\"font-size:60px;\">+</div>","key_press":null,"trial_type":"html-keyboard-response","trial_index":100,"time_elapsed":264497,"internal_node_id":"0.0-8.0-1.23","subject":"cc6yb7r68wj4407","sona":"7540"},{"trial_type":"turing-test","trial_index":101,"time_elapsed":268269,"internal_node_id":"0.0-8.0-2.23","subject":"cc6yb7r68wj4407","sona":"7540"},{"rt":339,"stimulus":"<p>Welche Sequenz haben Sie als natürlicher empfunden?</p>","key_press":74,"test_part":"response","test_stimulus":{"position":1,"left":"bvh/vr_prediction_models/model(tmp)-dataset(return-bottle-hold)-numprim(14)-hold(4)/final-lines.txt","right":"bvh/return-bottle-hold-training4-lines.txt","att_check":false},"trial_type":"html-keyboard-response","trial_index":102,"time_elapsed":268612,"internal_node_id":"0.0-8.0-3.23","subject":"cc6yb7r68wj4407","sona":"7540"},{"rt":87,"stimulus":"<p>Bereit?</p>","key_press":32,"trial_type":"html-keyboard-response","trial_index":103,"time_elapsed":268702,"internal_node_id":"0.0-8.0-0.24","subject":"cc6yb7r68wj4407","sona":"7540"},{"rt":null,"stimulus":"<div style=\"font-size:60px;\">+</div>","key_press":null,"trial_type":"html-keyboard-response","trial_index":104,"time_elapsed":270738,"internal_node_id":"0.0-8.0-1.24","subject":"cc6yb7r68wj4407","sona":"7540"},{"trial_type":"turing-test","trial_index":105,"time_elapsed":275266,"internal_node_id":"0.0-8.0-2.24","subject":"cc6yb7r68wj4407","sona":"7540"},{"rt":355,"stimulus":"<p>Welche Sequenz haben Sie als natürlicher empfunden?</p>","key_press":70,"test_part":"response","test_stimulus":{"position":0,"left":"bvh/return-bottle-hold-training1-lines.txt","right":"bvh/vr_prediction_models/model(vcgpdm)-dataset(return-bottle-hold)-mode(ELBO)-parts(1)-dyn(35)-lvm(10)-hold(1)/final-lines.txt","att_check":false},"trial_type":"html-keyboard-response","trial_index":106,"time_elapsed":275625,"internal_node_id":"0.0-8.0-3.24","subject":"cc6yb7r68wj4407","sona":"7540"},{"rt":183,"stimulus":"<p>Bereit?</p>","key_press":32,"trial_type":"html-keyboard-response","trial_index":107,"time_elapsed":275810,"internal_node_id":"0.0-8.0-0.25","subject":"cc6yb7r68wj4407","sona":"7540"},{"rt":null,"stimulus":"<div style=\"font-size:60px;\">+</div>","key_press":null,"trial_type":"html-keyboard-response","trial_index":108,"time_elapsed":277846,"internal_node_id":"0.0-8.0-1.25","subject":"cc6yb7r68wj4407","sona":"7540"},{"trial_type":"turing-test","trial_index":109,"time_elapsed":282384,"internal_node_id":"0.0-8.0-2.25","subject":"cc6yb7r68wj4407","sona":"7540"},{"rt":372,"stimulus":"<p>Welche Sequenz haben Sie als natürlicher empfunden?</p>","key_press":74,"test_part":"response","test_stimulus":{"position":1,"left":"bvh/vr_prediction_models/model(vcgpdm)-dataset(pass-bottle-hold)-mode(ELBO)-parts(3)-dyn(20)-lvm(35)-hold(2)/final-lines.txt","right":"bvh/pass-bottle-hold-training2-lines.txt","att_check":false},"trial_type":"html-keyboard-response","trial_index":110,"time_elapsed":282761,"internal_node_id":"0.0-8.0-3.25","subject":"cc6yb7r68wj4407","sona":"7540"},{"rt":179,"stimulus":"<p>Bereit?</p>","key_press":32,"trial_type":"html-keyboard-response","trial_index":111,"time_elapsed":282944,"internal_node_id":"0.0-8.0-0.26","subject":"cc6yb7r68wj4407","sona":"7540"},{"rt":null,"stimulus":"<div style=\"font-size:60px;\">+</div>","key_press":null,"trial_type":"html-keyboard-response","trial_index":112,"time_elapsed":284983,"internal_node_id":"0.0-8.0-1.26","subject":"cc6yb7r68wj4407","sona":"7540"},{"trial_type":"turing-test","trial_index":113,"time_elapsed":290165,"internal_node_id":"0.0-8.0-2.26","subject":"cc6yb7r68wj4407","sona":"7540"},{"rt":373,"stimulus":"<p>Welche Sequenz haben Sie als natürlicher empfunden?</p>","key_press":74,"test_part":"response","test_stimulus":{"position":1,"left":"bvh/vr_prediction_models/model(tmp)-dataset(return-bottle-hold)-numprim(15)-hold(0)/final-lines.txt","right":"bvh/return-bottle-hold-training0-lines.txt","att_check":false},"trial_type":"html-keyboard-response","trial_index":114,"time_elapsed":290543,"internal_node_id":"0.0-8.0-3.26","subject":"cc6yb7r68wj4407","sona":"7540"},{"rt":297,"stimulus":"<p>Bereit?</p>","key_press":32,"trial_type":"html-keyboard-response","trial_index":115,"time_elapsed":290844,"internal_node_id":"0.0-8.0-0.27","subject":"cc6yb7r68wj4407","sona":"7540"},{"rt":null,"stimulus":"<div style=\"font-size:60px;\">+</div>","key_press":null,"trial_type":"html-keyboard-response","trial_index":116,"time_elapsed":292865,"internal_node_id":"0.0-8.0-1.27","subject":"cc6yb7r68wj4407","sona":"7540"},{"trial_type":"turing-test","trial_index":117,"time_elapsed":299538,"internal_node_id":"0.0-8.0-2.27","subject":"cc6yb7r68wj4407","sona":"7540"},{"rt":869,"stimulus":"<p>Welche Sequenz haben Sie als natürlicher empfunden?</p>","key_press":70,"test_part":"response","test_stimulus":{"position":0,"left":"bvh/return-bottle-training2-lines.txt","right":"bvh/vr_prediction_models/model(dmp)-dataset(return-bottle)-npsi(20)-hold(2)/final-lines.txt","att_check":false},"trial_type":"html-keyboard-response","trial_index":118,"time_elapsed":300412,"internal_node_id":"0.0-8.0-3.27","subject":"cc6yb7r68wj4407","sona":"7540"},{"rt":3365,"stimulus":"<p>Bereit?</p>","key_press":32,"trial_type":"html-keyboard-response","trial_index":119,"time_elapsed":303780,"internal_node_id":"0.0-8.0-0.28","subject":"cc6yb7r68wj4407","sona":"7540"},{"rt":null,"stimulus":"<div style=\"font-size:60px;\">+</div>","key_press":null,"trial_type":"html-keyboard-response","trial_index":120,"time_elapsed":305799,"internal_node_id":"0.0-8.0-1.28","subject":"cc6yb7r68wj4407","sona":"7540"},{"trial_type":"turing-test","trial_index":121,"time_elapsed":309560,"internal_node_id":"0.0-8.0-2.28","subject":"cc6yb7r68wj4407","sona":"7540"},{"rt":894,"stimulus":"<p>Welche Sequenz haben Sie als natürlicher empfunden?</p>","key_press":70,"test_part":"response","test_stimulus":{"position":0,"left":"bvh/pass-bottle-hold-training4-lines.txt","right":"bvh/vr_prediction_models/model(tmp)-dataset(pass-bottle-hold)-numprim(10)-hold(4)/final-lines.txt","att_check":false},"trial_type":"html-keyboard-response","trial_index":122,"time_elapsed":310459,"internal_node_id":"0.0-8.0-3.28","subject":"cc6yb7r68wj4407","sona":"7540"},{"rt":357,"stimulus":"<p>Bereit?</p>","key_press":32,"trial_type":"html-keyboard-response","trial_index":123,"time_elapsed":310820,"internal_node_id":"0.0-8.0-0.29","subject":"cc6yb7r68wj4407","sona":"7540"},{"rt":null,"stimulus":"<div style=\"font-size:60px;\">+</div>","key_press":null,"trial_type":"html-keyboard-response","trial_index":124,"time_elapsed":312851,"internal_node_id":"0.0-8.0-1.29","subject":"cc6yb7r68wj4407","sona":"7540"},{"trial_type":"turing-test","trial_index":125,"time_elapsed":316487,"internal_node_id":"0.0-8.0-2.29","subject":"cc6yb7r68wj4407","sona":"7540"},{"rt":422,"stimulus":"<p>Welche Sequenz haben Sie als natürlicher empfunden?</p>","key_press":74,"test_part":"response","test_stimulus":{"position":1,"left":"bvh/vr_prediction_models/model(dmp)-dataset(pass-bottle-hold)-npsi(10)-hold(4)/final-lines.txt","right":"bvh/pass-bottle-hold-training4-lines.txt","att_check":false},"trial_type":"html-keyboard-response","trial_index":126,"time_elapsed":316912,"internal_node_id":"0.0-8.0-3.29","subject":"cc6yb7r68wj4407","sona":"7540"},{"rt":243,"stimulus":"<p>Bereit?</p>","key_press":32,"trial_type":"html-keyboard-response","trial_index":127,"time_elapsed":317156,"internal_node_id":"0.0-8.0-0.30","subject":"cc6yb7r68wj4407","sona":"7540"},{"rt":null,"stimulus":"<div style=\"font-size:60px;\">+</div>","key_press":null,"trial_type":"html-keyboard-response","trial_index":128,"time_elapsed":319187,"internal_node_id":"0.0-8.0-1.30","subject":"cc6yb7r68wj4407","sona":"7540"},{"trial_type":"turing-test","trial_index":129,"time_elapsed":325568,"internal_node_id":"0.0-8.0-2.30","subject":"cc6yb7r68wj4407","sona":"7540"},{"rt":552,"stimulus":"<p>Welche Sequenz haben Sie als natürlicher empfunden?</p>","key_press":70,"test_part":"response","test_stimulus":{"position":1,"left":"bvh/vr_prediction_models/model(vcgpdm)-dataset(return-bottle-hold)-mode(ELBO)-parts(1)-dyn(10)-lvm(5)-hold(0)/final-lines.txt","right":"bvh/return-bottle-hold-training0-lines.txt","att_check":false},"trial_type":"html-keyboard-response","trial_index":130,"time_elapsed":326123,"internal_node_id":"0.0-8.0-3.30","subject":"cc6yb7r68wj4407","sona":"7540"},{"rt":439,"stimulus":"<p>Bereit?</p>","key_press":32,"trial_type":"html-keyboard-response","trial_index":131,"time_elapsed":326566,"internal_node_id":"0.0-8.0-0.31","subject":"cc6yb7r68wj4407","sona":"7540"},{"rt":null,"stimulus":"<div style=\"font-size:60px;\">+</div>","key_press":null,"trial_type":"html-keyboard-response","trial_index":132,"time_elapsed":328598,"internal_node_id":"0.0-8.0-1.31","subject":"cc6yb7r68wj4407","sona":"7540"},{"trial_type":"turing-test","trial_index":133,"time_elapsed":334070,"internal_node_id":"0.0-8.0-2.31","subject":"cc6yb7r68wj4407","sona":"7540"},{"rt":434,"stimulus":"<p>Welche Sequenz haben Sie als natürlicher empfunden?</p>","key_press":74,"test_part":"response","test_stimulus":{"position":1,"left":"bvh/vr_prediction_models/model(tmp)-dataset(return-bottle)-numprim(13)-hold(0)/final-lines.txt","right":"bvh/return-bottle-training0-lines.txt","att_check":false},"trial_type":"html-keyboard-response","trial_index":134,"time_elapsed":334509,"internal_node_id":"0.0-8.0-3.31","subject":"cc6yb7r68wj4407","sona":"7540"},{"rt":209,"stimulus":"<p>Bereit?</p>","key_press":32,"trial_type":"html-keyboard-response","trial_index":135,"time_elapsed":334723,"internal_node_id":"0.0-8.0-0.32","subject":"cc6yb7r68wj4407","sona":"7540"},{"rt":null,"stimulus":"<div style=\"font-size:60px;\">+</div>","key_press":null,"trial_type":"html-keyboard-response","trial_index":136,"time_elapsed":336750,"internal_node_id":"0.0-8.0-1.32","subject":"cc6yb7r68wj4407","sona":"7540"},{"trial_type":"turing-test","trial_index":137,"time_elapsed":342774,"internal_node_id":"0.0-8.0-2.32","subject":"cc6yb7r68wj4407","sona":"7540"},{"rt":1330,"stimulus":"<p>Welche Sequenz haben Sie als natürlicher empfunden?</p>","key_press":74,"test_part":"response","test_stimulus":{"position":1,"left":"bvh/vr_prediction_models/model(tmp)-dataset(pass-bottle)-numprim(13)-hold(4)/final-lines.txt","right":"bvh/pass-bottle-training4-lines.txt","att_check":false},"trial_type":"html-keyboard-response","trial_index":138,"time_elapsed":344110,"internal_node_id":"0.0-8.0-3.32","subject":"cc6yb7r68wj4407","sona":"7540"},{"rt":2100,"stimulus":"<p>Bereit?</p>","key_press":32,"trial_type":"html-keyboard-response","trial_index":139,"time_elapsed":346215,"internal_node_id":"0.0-8.0-0.33","subject":"cc6yb7r68wj4407","sona":"7540"},{"rt":null,"stimulus":"<div style=\"font-size:60px;\">+</div>","key_press":null,"trial_type":"html-keyboard-response","trial_index":140,"time_elapsed":348245,"internal_node_id":"0.0-8.0-1.33","subject":"cc6yb7r68wj4407","sona":"7540"},{"trial_type":"turing-test","trial_index":141,"time_elapsed":355352,"internal_node_id":"0.0-8.0-2.33","subject":"cc6yb7r68wj4407","sona":"7540"},{"rt":368,"stimulus":"<p>Welche Sequenz haben Sie als natürlicher empfunden?</p>","key_press":74,"test_part":"response","test_stimulus":{"position":1,"left":"bvh/vr_prediction_models/model(vcgpdm)-dataset(return-bottle)-mode(ELBO)-parts(3)-dyn(10)-lvm(30)-hold(3)/final-lines.txt","right":"bvh/return-bottle-training3-lines.txt","att_check":false},"trial_type":"html-keyboard-response","trial_index":142,"time_elapsed":355722,"internal_node_id":"0.0-8.0-3.33","subject":"cc6yb7r68wj4407","sona":"7540"},{"rt":238,"stimulus":"<p>Bereit?</p>","key_press":32,"trial_type":"html-keyboard-response","trial_index":143,"time_elapsed":355964,"internal_node_id":"0.0-8.0-0.34","subject":"cc6yb7r68wj4407","sona":"7540"},{"rt":null,"stimulus":"<div style=\"font-size:60px;\">+</div>","key_press":null,"trial_type":"html-keyboard-response","trial_index":144,"time_elapsed":357992,"internal_node_id":"0.0-8.0-1.34","subject":"cc6yb7r68wj4407","sona":"7540"},{"trial_type":"turing-test","trial_index":145,"time_elapsed":362500,"internal_node_id":"0.0-8.0-2.34","subject":"cc6yb7r68wj4407","sona":"7540"},{"rt":400,"stimulus":"<p>Welche Sequenz haben Sie als natürlicher empfunden?</p>","key_press":70,"test_part":"response","test_stimulus":{"position":0,"left":"bvh/return-bottle-hold-training1-lines.txt","right":"bvh/vr_prediction_models/model(vcgpdm)-dataset(return-bottle-hold)-mode(ELBO)-parts(3)-dyn(10)-lvm(10)-hold(1)/final-lines.txt","att_check":false},"trial_type":"html-keyboard-response","trial_index":146,"time_elapsed":362904,"internal_node_id":"0.0-8.0-3.34","subject":"cc6yb7r68wj4407","sona":"7540"},{"rt":238,"stimulus":"<p>Bereit?</p>","key_press":32,"trial_type":"html-keyboard-response","trial_index":147,"time_elapsed":363148,"internal_node_id":"0.0-8.0-0.35","subject":"cc6yb7r68wj4407","sona":"7540"},{"rt":null,"stimulus":"<div style=\"font-size:60px;\">+</div>","key_press":null,"trial_type":"html-keyboard-response","trial_index":148,"time_elapsed":365181,"internal_node_id":"0.0-8.0-1.35","subject":"cc6yb7r68wj4407","sona":"7540"},{"trial_type":"turing-test","trial_index":149,"time_elapsed":373041,"internal_node_id":"0.0-8.0-2.35","subject":"cc6yb7r68wj4407","sona":"7540"},{"rt":361,"stimulus":"<p>Welche Sequenz haben Sie als natürlicher empfunden?</p>","key_press":74,"test_part":"response","test_stimulus":{"position":1,"left":"bvh/vr_prediction_models/model(vcgpdm)-dataset(return-bottle)-mode(ELBO)-parts(1)-dyn(35)-lvm(10)-hold(2)/final-lines.txt","right":"bvh/return-bottle-training2-lines.txt","att_check":false},"trial_type":"html-keyboard-response","trial_index":150,"time_elapsed":373407,"internal_node_id":"0.0-8.0-3.35","subject":"cc6yb7r68wj4407","sona":"7540"},{"rt":120,"stimulus":"<p>Bereit?</p>","key_press":32,"trial_type":"html-keyboard-response","trial_index":151,"time_elapsed":373531,"internal_node_id":"0.0-8.0-0.36","subject":"cc6yb7r68wj4407","sona":"7540"},{"rt":null,"stimulus":"<div style=\"font-size:60px;\">+</div>","key_press":null,"trial_type":"html-keyboard-response","trial_index":152,"time_elapsed":375560,"internal_node_id":"0.0-8.0-1.36","subject":"cc6yb7r68wj4407","sona":"7540"},{"trial_type":"turing-test","trial_index":153,"time_elapsed":382497,"internal_node_id":"0.0-8.0-2.36","subject":"cc6yb7r68wj4407","sona":"7540"},{"rt":297,"stimulus":"<p>Welche Sequenz haben Sie als natürlicher empfunden?</p>","key_press":74,"test_part":"response","test_stimulus":{"position":0,"left":"bvh/pass-bottle-training4-lines.txt","right":"bvh/vr_prediction_models/model(vcgpdm)-dataset(pass-bottle)-mode(ELBO)-parts(3)-dyn(35)-lvm(20)-hold(4)/final-lines.txt","att_check":false},"trial_type":"html-keyboard-response","trial_index":154,"time_elapsed":382798,"internal_node_id":"0.0-8.0-3.36","subject":"cc6yb7r68wj4407","sona":"7540"},{"rt":89,"stimulus":"<p>Bereit?</p>","key_press":32,"trial_type":"html-keyboard-response","trial_index":155,"time_elapsed":382891,"internal_node_id":"0.0-8.0-0.37","subject":"cc6yb7r68wj4407","sona":"7540"},{"rt":null,"stimulus":"<div style=\"font-size:60px;\">+</div>","key_press":null,"trial_type":"html-keyboard-response","trial_index":156,"time_elapsed":384917,"internal_node_id":"0.0-8.0-1.37","subject":"cc6yb7r68wj4407","sona":"7540"},{"trial_type":"turing-test","trial_index":157,"time_elapsed":388287,"internal_node_id":"0.0-8.0-2.37","subject":"cc6yb7r68wj4407","sona":"7540"},{"rt":4764,"stimulus":"<p>Welche Sequenz haben Sie als natürlicher empfunden?</p>","key_press":70,"test_part":"response","test_stimulus":{"position":1,"left":"bvh/vr_prediction_models/model(dmp)-dataset(pass-bottle-hold)-npsi(50)-hold(2)/final-lines.txt","right":"bvh/pass-bottle-hold-training2-lines.txt","att_check":false},"trial_type":"html-keyboard-response","trial_index":158,"time_elapsed":393057,"internal_node_id":"0.0-8.0-3.37","subject":"cc6yb7r68wj4407","sona":"7540"},{"rt":116,"stimulus":"<p>Bereit?</p>","key_press":32,"trial_type":"html-keyboard-response","trial_index":159,"time_elapsed":393177,"internal_node_id":"0.0-8.0-0.38","subject":"cc6yb7r68wj4407","sona":"7540"},{"rt":null,"stimulus":"<div style=\"font-size:60px;\">+</div>","key_press":null,"trial_type":"html-keyboard-response","trial_index":160,"time_elapsed":395187,"internal_node_id":"0.0-8.0-1.38","subject":"cc6yb7r68wj4407","sona":"7540"},{"trial_type":"turing-test","trial_index":161,"time_elapsed":401755,"internal_node_id":"0.0-8.0-2.38","subject":"cc6yb7r68wj4407","sona":"7540"},{"rt":327,"stimulus":"<p>Welche Sequenz haben Sie als natürlicher empfunden?</p>","key_press":74,"test_part":"response","test_stimulus":{"position":1,"left":"bvh/vr_prediction_models/model(vcgpdm)-dataset(return-bottle)-mode(ELBO)-parts(3)-dyn(10)-lvm(30)-hold(0)/final-lines.txt","right":"bvh/return-bottle-training0-lines.txt","att_check":false},"trial_type":"html-keyboard-response","trial_index":162,"time_elapsed":402087,"internal_node_id":"0.0-8.0-3.38","subject":"cc6yb7r68wj4407","sona":"7540"},{"rt":122,"stimulus":"<p>Bereit?</p>","key_press":32,"trial_type":"html-keyboard-response","trial_index":163,"time_elapsed":402214,"internal_node_id":"0.0-8.0-0.39","subject":"cc6yb7r68wj4407","sona":"7540"},{"rt":null,"stimulus":"<div style=\"font-size:60px;\">+</div>","key_press":null,"trial_type":"html-keyboard-response","trial_index":164,"time_elapsed":404235,"internal_node_id":"0.0-8.0-1.39","subject":"cc6yb7r68wj4407","sona":"7540"},{"trial_type":"turing-test","trial_index":165,"time_elapsed":408764,"internal_node_id":"0.0-8.0-2.39","subject":"cc6yb7r68wj4407","sona":"7540"},{"rt":392,"stimulus":"<p>Welche Sequenz haben Sie als natürlicher empfunden?</p>","key_press":70,"test_part":"response","test_stimulus":{"position":0,"left":"bvh/pass-bottle-hold-training0-lines.txt","right":"bvh/vr_prediction_models/model(vcgpdm)-dataset(pass-bottle-hold)-mode(ELBO)-parts(1)-dyn(20)-lvm(5)-hold(0)/final-lines.txt","att_check":false},"trial_type":"html-keyboard-response","trial_index":166,"time_elapsed":409161,"internal_node_id":"0.0-8.0-3.39","subject":"cc6yb7r68wj4407","sona":"7540"},{"rt":146,"stimulus":"<p>Bereit?</p>","key_press":32,"trial_type":"html-keyboard-response","trial_index":167,"time_elapsed":409311,"internal_node_id":"0.0-8.0-0.40","subject":"cc6yb7r68wj4407","sona":"7540"},{"rt":null,"stimulus":"<div style=\"font-size:60px;\">+</div>","key_press":null,"trial_type":"html-keyboard-response","trial_index":168,"time_elapsed":411325,"internal_node_id":"0.0-8.0-1.40","subject":"cc6yb7r68wj4407","sona":"7540"},{"trial_type":"turing-test","trial_index":169,"time_elapsed":417144,"internal_node_id":"0.0-8.0-2.40","subject":"cc6yb7r68wj4407","sona":"7540"},{"rt":1122,"stimulus":"<p>Welche Sequenz haben Sie als natürlicher empfunden?</p>","key_press":70,"test_part":"response","test_stimulus":{"position":0,"left":"bvh/return-bottle-training3-lines.txt","right":"bvh/vr_prediction_models/model(dmp)-dataset(return-bottle)-npsi(100)-hold(3)/final-lines.txt","att_check":false},"trial_type":"html-keyboard-response","trial_index":170,"time_elapsed":418270,"internal_node_id":"0.0-8.0-3.40","subject":"cc6yb7r68wj4407","sona":"7540"},{"rt":209,"stimulus":"<p>Bereit?</p>","key_press":32,"trial_type":"html-keyboard-response","trial_index":171,"time_elapsed":418484,"internal_node_id":"0.0-8.0-0.41","subject":"cc6yb7r68wj4407","sona":"7540"},{"rt":null,"stimulus":"<div style=\"font-size:60px;\">+</div>","key_press":null,"trial_type":"html-keyboard-response","trial_index":172,"time_elapsed":420524,"internal_node_id":"0.0-8.0-1.41","subject":"cc6yb7r68wj4407","sona":"7540"},{"trial_type":"turing-test","trial_index":173,"time_elapsed":427451,"internal_node_id":"0.0-8.0-2.41","subject":"cc6yb7r68wj4407","sona":"7540"},{"rt":385,"stimulus":"<p>Welche Sequenz haben Sie als natürlicher empfunden?</p>","key_press":70,"test_part":"response","test_stimulus":{"position":1,"left":"bvh/vr_prediction_models/model(vcgpdm)-dataset(return-bottle)-mode(ELBO)-parts(1)-dyn(20)-lvm(5)-hold(3)/final-lines.txt","right":"bvh/return-bottle-training3-lines.txt","att_check":false},"trial_type":"html-keyboard-response","trial_index":174,"time_elapsed":427840,"internal_node_id":"0.0-8.0-3.41","subject":"cc6yb7r68wj4407","sona":"7540"},{"rt":86,"stimulus":"<p>Bereit?</p>","key_press":32,"trial_type":"html-keyboard-response","trial_index":175,"time_elapsed":427930,"internal_node_id":"0.0-8.0-0.42","subject":"cc6yb7r68wj4407","sona":"7540"},{"rt":null,"stimulus":"<div style=\"font-size:60px;\">+</div>","key_press":null,"trial_type":"html-keyboard-response","trial_index":176,"time_elapsed":429932,"internal_node_id":"0.0-8.0-1.42","subject":"cc6yb7r68wj4407","sona":"7540"},{"trial_type":"turing-test","trial_index":177,"time_elapsed":436567,"internal_node_id":"0.0-8.0-2.42","subject":"cc6yb7r68wj4407","sona":"7540"},{"rt":390,"stimulus":"<p>Welche Sequenz haben Sie als natürlicher empfunden?</p>","key_press":70,"test_part":"response","test_stimulus":{"position":0,"left":"bvh/pass-bottle-training1-lines.txt","right":"bvh/vr_prediction_models/model(vcgpdm)-dataset(pass-bottle)-mode(ELBO)-parts(3)-dyn(30)-lvm(15)-hold(1)/final-lines.txt","att_check":false},"trial_type":"html-keyboard-response","trial_index":178,"time_elapsed":436961,"internal_node_id":"0.0-8.0-3.42","subject":"cc6yb7r68wj4407","sona":"7540"},{"rt":146,"stimulus":"<p>Bereit?</p>","key_press":32,"trial_type":"html-keyboard-response","trial_index":179,"time_elapsed":437111,"internal_node_id":"0.0-8.0-0.43","subject":"cc6yb7r68wj4407","sona":"7540"},{"rt":null,"stimulus":"<div style=\"font-size:60px;\">+</div>","key_press":null,"trial_type":"html-keyboard-response","trial_index":180,"time_elapsed":439147,"internal_node_id":"0.0-8.0-1.43","subject":"cc6yb7r68wj4407","sona":"7540"},{"trial_type":"turing-test","trial_index":181,"time_elapsed":446072,"internal_node_id":"0.0-8.0-2.43","subject":"cc6yb7r68wj4407","sona":"7540"},{"rt":1149,"stimulus":"<p>Welche Sequenz haben Sie als natürlicher empfunden?</p>","key_press":70,"test_part":"response","test_stimulus":{"position":1,"left":"bvh/vr_prediction_models/model(vcgpdm)-dataset(pass-bottle)-mode(ELBO)-parts(3)-dyn(25)-lvm(15)-hold(4)/final-lines.txt","right":"bvh/pass-bottle-training4-lines.txt","att_check":false},"trial_type":"html-keyboard-response","trial_index":182,"time_elapsed":447224,"internal_node_id":"0.0-8.0-3.43","subject":"cc6yb7r68wj4407","sona":"7540"},{"rt":85,"stimulus":"<p>Bereit?</p>","key_press":32,"trial_type":"html-keyboard-response","trial_index":183,"time_elapsed":447313,"internal_node_id":"0.0-8.0-0.44","subject":"cc6yb7r68wj4407","sona":"7540"},{"rt":null,"stimulus":"<div style=\"font-size:60px;\">+</div>","key_press":null,"trial_type":"html-keyboard-response","trial_index":184,"time_elapsed":449352,"internal_node_id":"0.0-8.0-1.44","subject":"cc6yb7r68wj4407","sona":"7540"},{"trial_type":"turing-test","trial_index":185,"time_elapsed":456035,"internal_node_id":"0.0-8.0-2.44","subject":"cc6yb7r68wj4407","sona":"7540"},{"rt":241,"stimulus":"<p>Welche Sequenz haben Sie als natürlicher empfunden?</p>","key_press":70,"test_part":"response","test_stimulus":{"position":0,"left":"bvh/return-bottle-training2-lines.txt","right":"bvh/vr_prediction_models/model(tmp)-dataset(return-bottle)-numprim(12)-hold(2)/final-lines.txt","att_check":false},"trial_type":"html-keyboard-response","trial_index":186,"time_elapsed":456281,"internal_node_id":"0.0-8.0-3.44","subject":"cc6yb7r68wj4407","sona":"7540"},{"rt":104,"stimulus":"<p>Bereit?</p>","key_press":32,"trial_type":"html-keyboard-response","trial_index":187,"time_elapsed":456389,"internal_node_id":"0.0-8.0-0.45","subject":"cc6yb7r68wj4407","sona":"7540"},{"rt":null,"stimulus":"<div style=\"font-size:60px;\">+</div>","key_press":null,"trial_type":"html-keyboard-response","trial_index":188,"time_elapsed":458416,"internal_node_id":"0.0-8.0-1.45","subject":"cc6yb7r68wj4407","sona":"7540"},{"trial_type":"turing-test","trial_index":189,"time_elapsed":462045,"internal_node_id":"0.0-8.0-2.45","subject":"cc6yb7r68wj4407","sona":"7540"},{"rt":542,"stimulus":"<p>Welche Sequenz haben Sie als natürlicher empfunden?</p>","key_press":74,"test_part":"response","test_stimulus":{"position":1,"left":"bvh/vr_prediction_models/model(dmp)-dataset(return-bottle-hold)-npsi(40)-hold(2)/final-lines.txt","right":"bvh/return-bottle-hold-training2-lines.txt","att_check":false},"trial_type":"html-keyboard-response","trial_index":190,"time_elapsed":462592,"internal_node_id":"0.0-8.0-3.45","subject":"cc6yb7r68wj4407","sona":"7540"},{"rt":180,"stimulus":"<p>Bereit?</p>","key_press":32,"trial_type":"html-keyboard-response","trial_index":191,"time_elapsed":462776,"internal_node_id":"0.0-8.0-0.46","subject":"cc6yb7r68wj4407","sona":"7540"},{"rt":null,"stimulus":"<div style=\"font-size:60px;\">+</div>","key_press":null,"trial_type":"html-keyboard-response","trial_index":192,"time_elapsed":464795,"internal_node_id":"0.0-8.0-1.46","subject":"cc6yb7r68wj4407","sona":"7540"},{"trial_type":"turing-test","trial_index":193,"time_elapsed":472095,"internal_node_id":"0.0-8.0-2.46","subject":"cc6yb7r68wj4407","sona":"7540"},{"rt":457,"stimulus":"<p>Welche Sequenz haben Sie als natürlicher empfunden?</p>","key_press":70,"test_part":"response","test_stimulus":{"position":0,"left":"bvh/pass-bottle-training2-lines.txt","right":"bvh/vr_prediction_models/model(vcgpdm)-dataset(pass-bottle)-mode(ELBO)-parts(1)-dyn(30)-lvm(35)-hold(2)/final-lines.txt","att_check":false},"trial_type":"html-keyboard-response","trial_index":194,"time_elapsed":472554,"internal_node_id":"0.0-8.0-3.46","subject":"cc6yb7r68wj4407","sona":"7540"},{"rt":146,"stimulus":"<p>Bereit?</p>","key_press":32,"trial_type":"html-keyboard-response","trial_index":195,"time_elapsed":472703,"internal_node_id":"0.0-8.0-0.47","subject":"cc6yb7r68wj4407","sona":"7540"},{"rt":null,"stimulus":"<div style=\"font-size:60px;\">+</div>","key_press":null,"trial_type":"html-keyboard-response","trial_index":196,"time_elapsed":474736,"internal_node_id":"0.0-8.0-1.47","subject":"cc6yb7r68wj4407","sona":"7540"},{"trial_type":"turing-test","trial_index":197,"time_elapsed":481672,"internal_node_id":"0.0-8.0-2.47","subject":"cc6yb7r68wj4407","sona":"7540"},{"rt":446,"stimulus":"<p>Welche Sequenz haben Sie als natürlicher empfunden?</p>","key_press":70,"test_part":"response","test_stimulus":{"position":0,"left":"bvh/return-bottle-training4-lines.txt","right":"bvh/vr_prediction_models/model(vcgpdm)-dataset(return-bottle)-mode(ELBO)-parts(3)-dyn(25)-lvm(15)-hold(4)/final-lines.txt","att_check":false},"trial_type":"html-keyboard-response","trial_index":198,"time_elapsed":482125,"internal_node_id":"0.0-8.0-3.47","subject":"cc6yb7r68wj4407","sona":"7540"},{"rt":85,"stimulus":"<p>Bereit?</p>","key_press":32,"trial_type":"html-keyboard-response","trial_index":199,"time_elapsed":482214,"internal_node_id":"0.0-8.0-0.48","subject":"cc6yb7r68wj4407","sona":"7540"},{"rt":null,"stimulus":"<div style=\"font-size:60px;\">+</div>","key_press":null,"trial_type":"html-keyboard-response","trial_index":200,"time_elapsed":484253,"internal_node_id":"0.0-8.0-1.48","subject":"cc6yb7r68wj4407","sona":"7540"},{"trial_type":"turing-test","trial_index":201,"time_elapsed":491201,"internal_node_id":"0.0-8.0-2.48","subject":"cc6yb7r68wj4407","sona":"7540"},{"rt":459,"stimulus":"<p>Welche Sequenz haben Sie als natürlicher empfunden?</p>","key_press":74,"test_part":"response","test_stimulus":{"position":1,"left":"bvh/vr_prediction_models/model(vcgpdm)-dataset(return-bottle)-mode(MAP)-parts(1)-hold(3)/final-lines.txt","right":"bvh/return-bottle-training3-lines.txt","att_check":false},"trial_type":"html-keyboard-response","trial_index":202,"time_elapsed":491665,"internal_node_id":"0.0-8.0-3.48","subject":"cc6yb7r68wj4407","sona":"7540"},{"rt":152,"stimulus":"<p>Bereit?</p>","key_press":32,"trial_type":"html-keyboard-response","trial_index":203,"time_elapsed":491819,"internal_node_id":"0.0-8.0-0.49","subject":"cc6yb7r68wj4407","sona":"7540"},{"rt":null,"stimulus":"<div style=\"font-size:60px;\">+</div>","key_press":null,"trial_type":"html-keyboard-response","trial_index":204,"time_elapsed":493831,"internal_node_id":"0.0-8.0-1.49","subject":"cc6yb7r68wj4407","sona":"7540"},{"trial_type":"turing-test","trial_index":205,"time_elapsed":500128,"internal_node_id":"0.0-8.0-2.49","subject":"cc6yb7r68wj4407","sona":"7540"},{"rt":383,"stimulus":"<p>Welche Sequenz haben Sie als natürlicher empfunden?</p>","key_press":70,"test_part":"response","test_stimulus":{"position":0,"left":"bvh/pass-bottle-training2-lines.txt","right":"bvh/vr_prediction_models/model(dmp)-dataset(pass-bottle)-npsi(70)-hold(2)/final-lines.txt","att_check":false},"trial_type":"html-keyboard-response","trial_index":206,"time_elapsed":500515,"internal_node_id":"0.0-8.0-3.49","subject":"cc6yb7r68wj4407","sona":"7540"},{"rt":115,"stimulus":"<p>Bereit?</p>","key_press":32,"trial_type":"html-keyboard-response","trial_index":207,"time_elapsed":500635,"internal_node_id":"0.0-8.0-0.50","subject":"cc6yb7r68wj4407","sona":"7540"},{"rt":null,"stimulus":"<div style=\"font-size:60px;\">+</div>","key_press":null,"trial_type":"html-keyboard-response","trial_index":208,"time_elapsed":502668,"internal_node_id":"0.0-8.0-1.50","subject":"cc6yb7r68wj4407","sona":"7540"},{"trial_type":"turing-test","trial_index":209,"time_elapsed":506097,"internal_node_id":"0.0-8.0-2.50","subject":"cc6yb7r68wj4407","sona":"7540"},{"rt":1547,"stimulus":"<p>Welche Sequenz haben Sie als natürlicher empfunden?</p>","key_press":74,"test_part":"response","test_stimulus":{"position":1,"left":"bvh/vr_prediction_models/model(tmp)-dataset(pass-bottle-hold)-numprim(8)-hold(0)/final-lines.txt","right":"bvh/pass-bottle-hold-training0-lines.txt","att_check":false},"trial_type":"html-keyboard-response","trial_index":210,"time_elapsed":507649,"internal_node_id":"0.0-8.0-3.50","subject":"cc6yb7r68wj4407","sona":"7540"},{"rt":178,"stimulus":"<p>Bereit?</p>","key_press":32,"trial_type":"html-keyboard-response","trial_index":211,"time_elapsed":507832,"internal_node_id":"0.0-8.0-0.51","subject":"cc6yb7r68wj4407","sona":"7540"},{"rt":null,"stimulus":"<div style=\"font-size:60px;\">+</div>","key_press":null,"trial_type":"html-keyboard-response","trial_index":212,"time_elapsed":509858,"internal_node_id":"0.0-8.0-1.51","subject":"cc6yb7r68wj4407","sona":"7540"},{"trial_type":"turing-test","trial_index":213,"time_elapsed":517159,"internal_node_id":"0.0-8.0-2.51","subject":"cc6yb7r68wj4407","sona":"7540"},{"rt":350,"stimulus":"<p>Welche Sequenz haben Sie als natürlicher empfunden?</p>","key_press":70,"test_part":"response","test_stimulus":{"position":0,"left":"bvh/return-bottle-training1-lines.txt","right":"bvh/vr_prediction_models/model(vcgpdm)-dataset(return-bottle)-mode(ELBO)-parts(1)-dyn(20)-lvm(5)-hold(1)/final-lines.txt","att_check":false},"trial_type":"html-keyboard-response","trial_index":214,"time_elapsed":517511,"internal_node_id":"0.0-8.0-3.51","subject":"cc6yb7r68wj4407","sona":"7540"},{"rt":297,"stimulus":"<p>Bereit?</p>","key_press":32,"trial_type":"html-keyboard-response","trial_index":215,"time_elapsed":517813,"internal_node_id":"0.0-8.0-0.52","subject":"cc6yb7r68wj4407","sona":"7540"},{"rt":null,"stimulus":"<div style=\"font-size:60px;\">+</div>","key_press":null,"trial_type":"html-keyboard-response","trial_index":216,"time_elapsed":519839,"internal_node_id":"0.0-8.0-1.52","subject":"cc6yb7r68wj4407","sona":"7540"},{"trial_type":"turing-test","trial_index":217,"time_elapsed":526148,"internal_node_id":"0.0-8.0-2.52","subject":"cc6yb7r68wj4407","sona":"7540"},{"rt":1637,"stimulus":"<p>Welche Sequenz haben Sie als natürlicher empfunden?</p>","key_press":70,"test_part":"response","test_stimulus":{"position":1,"left":"bvh/vr_prediction_models/model(vcgpdm)-dataset(return-bottle-hold)-mode(ELBO)-parts(1)-dyn(35)-lvm(10)-hold(0)/final-lines.txt","right":"bvh/return-bottle-hold-training0-lines.txt","att_check":false},"trial_type":"html-keyboard-response","trial_index":218,"time_elapsed":527791,"internal_node_id":"0.0-8.0-3.52","subject":"cc6yb7r68wj4407","sona":"7540"},{"rt":244,"stimulus":"<p>Bereit?</p>","key_press":32,"trial_type":"html-keyboard-response","trial_index":219,"time_elapsed":528035,"internal_node_id":"0.0-8.0-0.53","subject":"cc6yb7r68wj4407","sona":"7540"},{"rt":null,"stimulus":"<div style=\"font-size:60px;\">+</div>","key_press":null,"trial_type":"html-keyboard-response","trial_index":220,"time_elapsed":530069,"internal_node_id":"0.0-8.0-1.53","subject":"cc6yb7r68wj4407","sona":"7540"},{"trial_type":"turing-test","trial_index":221,"time_elapsed":535912,"internal_node_id":"0.0-8.0-2.53","subject":"cc6yb7r68wj4407","sona":"7540"},{"rt":963,"stimulus":"<p>Welche Sequenz haben Sie als natürlicher empfunden?</p>","key_press":70,"test_part":"response","test_stimulus":{"position":0,"left":"bvh/return-bottle-training3-lines.txt","right":"bvh/vr_prediction_models/model(dmp)-dataset(return-bottle)-npsi(40)-hold(3)/final-lines.txt","att_check":false},"trial_type":"html-keyboard-response","trial_index":222,"time_elapsed":536880,"internal_node_id":"0.0-8.0-3.53","subject":"cc6yb7r68wj4407","sona":"7540"},{"rt":443,"stimulus":"<p>Bereit?</p>","key_press":32,"trial_type":"html-keyboard-response","trial_index":223,"time_elapsed":537329,"internal_node_id":"0.0-8.0-0.54","subject":"cc6yb7r68wj4407","sona":"7540"},{"rt":null,"stimulus":"<div style=\"font-size:60px;\">+</div>","key_press":null,"trial_type":"html-keyboard-response","trial_index":224,"time_elapsed":539332,"internal_node_id":"0.0-8.0-1.54","subject":"cc6yb7r68wj4407","sona":"7540"},{"trial_type":"turing-test","trial_index":225,"time_elapsed":545154,"internal_node_id":"0.0-8.0-2.54","subject":"cc6yb7r68wj4407","sona":"7540"},{"rt":687,"stimulus":"<p>Welche Sequenz haben Sie als natürlicher empfunden?</p>","key_press":70,"test_part":"response","test_stimulus":{"position":0,"left":"bvh/pass-bottle-training4-lines.txt","right":"bvh/vr_prediction_models/model(dmp)-dataset(pass-bottle)-npsi(100)-hold(4)/final-lines.txt","att_check":false},"trial_type":"html-keyboard-response","trial_index":226,"time_elapsed":545842,"internal_node_id":"0.0-8.0-3.54","subject":"cc6yb7r68wj4407","sona":"7540"},{"rt":119,"stimulus":"<p>Bereit?</p>","key_press":32,"trial_type":"html-keyboard-response","trial_index":227,"time_elapsed":545965,"internal_node_id":"0.0-8.0-0.55","subject":"cc6yb7r68wj4407","sona":"7540"},{"rt":null,"stimulus":"<div style=\"font-size:60px;\">+</div>","key_press":null,"trial_type":"html-keyboard-response","trial_index":228,"time_elapsed":547994,"internal_node_id":"0.0-8.0-1.55","subject":"cc6yb7r68wj4407","sona":"7540"},{"trial_type":"turing-test","trial_index":229,"time_elapsed":551389,"internal_node_id":"0.0-8.0-2.55","subject":"cc6yb7r68wj4407","sona":"7540"},{"rt":443,"stimulus":"<p>Welche Sequenz haben Sie als natürlicher empfunden?</p>","key_press":70,"test_part":"response","test_stimulus":{"position":0,"left":"bvh/pass-bottle-hold-training0-lines.txt","right":"bvh/vr_prediction_models/model(dmp)-dataset(pass-bottle-hold)-npsi(40)-hold(0)/final-lines.txt","att_check":false},"trial_type":"html-keyboard-response","trial_index":230,"time_elapsed":551833,"internal_node_id":"0.0-8.0-3.55","subject":"cc6yb7r68wj4407","sona":"7540"},{"rt":209,"stimulus":"<p>Bereit?</p>","key_press":32,"trial_type":"html-keyboard-response","trial_index":231,"time_elapsed":552047,"internal_node_id":"0.0-8.0-0.56","subject":"cc6yb7r68wj4407","sona":"7540"},{"rt":null,"stimulus":"<div style=\"font-size:60px;\">+</div>","key_press":null,"trial_type":"html-keyboard-response","trial_index":232,"time_elapsed":554069,"internal_node_id":"0.0-8.0-1.56","subject":"cc6yb7r68wj4407","sona":"7540"},{"trial_type":"turing-test","trial_index":233,"time_elapsed":560335,"internal_node_id":"0.0-8.0-2.56","subject":"cc6yb7r68wj4407","sona":"7540"},{"rt":118,"stimulus":"<p>Welche Sequenz haben Sie als natürlicher empfunden?</p>","key_press":70,"test_part":"response","test_stimulus":{"position":0,"left":"bvh/return-bottle-training1-lines.txt","right":"bvh/vr_prediction_models/model(dmp)-dataset(return-bottle)-npsi(90)-hold(1)/final-lines.txt","att_check":false},"trial_type":"html-keyboard-response","trial_index":234,"time_elapsed":560458,"internal_node_id":"0.0-8.0-3.56","subject":"cc6yb7r68wj4407","sona":"7540"},{"rt":261,"stimulus":"<p>Bereit?</p>","key_press":32,"trial_type":"html-keyboard-response","trial_index":235,"time_elapsed":560723,"internal_node_id":"0.0-8.0-0.57","subject":"cc6yb7r68wj4407","sona":"7540"},{"rt":null,"stimulus":"<div style=\"font-size:60px;\">+</div>","key_press":null,"trial_type":"html-keyboard-response","trial_index":236,"time_elapsed":562755,"internal_node_id":"0.0-8.0-1.57","subject":"cc6yb7r68wj4407","sona":"7540"},{"trial_type":"turing-test","trial_index":237,"time_elapsed":569687,"internal_node_id":"0.0-8.0-2.57","subject":"cc6yb7r68wj4407","sona":"7540"},{"rt":783,"stimulus":"<p>Welche Sequenz haben Sie als natürlicher empfunden?</p>","key_press":74,"test_part":"response","test_stimulus":{"position":1,"left":"bvh/vr_prediction_models/model(vcgpdm)-dataset(pass-bottle)-mode(ELBO)-parts(3)-dyn(10)-lvm(10)-hold(4)/final-lines.txt","right":"bvh/pass-bottle-training4-lines.txt","att_check":false},"trial_type":"html-keyboard-response","trial_index":238,"time_elapsed":570476,"internal_node_id":"0.0-8.0-3.57","subject":"cc6yb7r68wj4407","sona":"7540"},{"rt":1654,"stimulus":"<p>Bereit?</p>","key_press":32,"trial_type":"html-keyboard-response","trial_index":239,"time_elapsed":572135,"internal_node_id":"0.0-8.0-0.58","subject":"cc6yb7r68wj4407","sona":"7540"},{"rt":null,"stimulus":"<div style=\"font-size:60px;\">+</div>","key_press":null,"trial_type":"html-keyboard-response","trial_index":240,"time_elapsed":574158,"internal_node_id":"0.0-8.0-1.58","subject":"cc6yb7r68wj4407","sona":"7540"},{"trial_type":"turing-test","trial_index":241,"time_elapsed":577786,"internal_node_id":"0.0-8.0-2.58","subject":"cc6yb7r68wj4407","sona":"7540"},{"rt":1101,"stimulus":"<p>Welche Sequenz haben Sie als natürlicher empfunden?</p>","key_press":74,"test_part":"response","test_stimulus":{"position":1,"left":"bvh/vr_prediction_models/model(dmp)-dataset(pass-bottle-hold)-npsi(70)-hold(4)/final-lines.txt","right":"bvh/pass-bottle-hold-training4-lines.txt","att_check":false},"trial_type":"html-keyboard-response","trial_index":242,"time_elapsed":578892,"internal_node_id":"0.0-8.0-3.58","subject":"cc6yb7r68wj4407","sona":"7540"},{"rt":179,"stimulus":"<p>Bereit?</p>","key_press":32,"trial_type":"html-keyboard-response","trial_index":243,"time_elapsed":579075,"internal_node_id":"0.0-8.0-0.59","subject":"cc6yb7r68wj4407","sona":"7540"},{"rt":null,"stimulus":"<div style=\"font-size:60px;\">+</div>","key_press":null,"trial_type":"html-keyboard-response","trial_index":244,"time_elapsed":581106,"internal_node_id":"0.0-8.0-1.59","subject":"cc6yb7r68wj4407","sona":"7540"},{"trial_type":"turing-test","trial_index":245,"time_elapsed":585870,"internal_node_id":"0.0-8.0-2.59","subject":"cc6yb7r68wj4407","sona":"7540"},{"rt":330,"stimulus":"<p>Welche Sequenz haben Sie als natürlicher empfunden?</p>","key_press":70,"test_part":"response","test_stimulus":{"position":0,"left":"bvh/pass-bottle-hold-training3-lines.txt","right":"bvh/vr_prediction_models/model(vcgpdm)-dataset(pass-bottle-hold)-mode(ELBO)-parts(1)-dyn(35)-lvm(10)-hold(3)/final-lines.txt","att_check":false},"trial_type":"html-keyboard-response","trial_index":246,"time_elapsed":586205,"internal_node_id":"0.0-8.0-3.59","subject":"cc6yb7r68wj4407","sona":"7540"},{"rt":113,"stimulus":"<p>Bereit?</p>","key_press":32,"trial_type":"html-keyboard-response","trial_index":247,"time_elapsed":586325,"internal_node_id":"0.0-8.0-0.60","subject":"cc6yb7r68wj4407","sona":"7540"},{"rt":null,"stimulus":"<div style=\"font-size:60px;\">+</div>","key_press":null,"trial_type":"html-keyboard-response","trial_index":248,"time_elapsed":588330,"internal_node_id":"0.0-8.0-1.60","subject":"cc6yb7r68wj4407","sona":"7540"},{"trial_type":"turing-test","trial_index":249,"time_elapsed":591728,"internal_node_id":"0.0-8.0-2.60","subject":"cc6yb7r68wj4407","sona":"7540"},{"rt":403,"stimulus":"<p>Welche Sequenz haben Sie als natürlicher empfunden?</p>","key_press":74,"test_part":"response","test_stimulus":{"position":0,"left":"bvh/pass-bottle-hold-training2-lines.txt","right":"bvh/vr_prediction_models/model(tmp)-dataset(pass-bottle-hold)-numprim(4)-hold(2)/final-lines.txt","att_check":false},"trial_type":"html-keyboard-response","trial_index":250,"time_elapsed":592136,"internal_node_id":"0.0-8.0-3.60","subject":"cc6yb7r68wj4407","sona":"7540"},{"rt":110,"stimulus":"<p>Bereit?</p>","key_press":32,"trial_type":"html-keyboard-response","trial_index":251,"time_elapsed":592251,"internal_node_id":"0.0-8.0-0.61","subject":"cc6yb7r68wj4407","sona":"7540"},{"rt":null,"stimulus":"<div style=\"font-size:60px;\">+</div>","key_press":null,"trial_type":"html-keyboard-response","trial_index":252,"time_elapsed":594289,"internal_node_id":"0.0-8.0-1.61","subject":"cc6yb7r68wj4407","sona":"7540"},{"trial_type":"turing-test","trial_index":253,"time_elapsed":597681,"internal_node_id":"0.0-8.0-2.61","subject":"cc6yb7r68wj4407","sona":"7540"},{"rt":487,"stimulus":"<p>Welche Sequenz haben Sie als natürlicher empfunden?</p>","key_press":74,"test_part":"response","test_stimulus":{"position":0,"left":"bvh/pass-bottle-hold-training1-lines.txt","right":"bvh/vr_prediction_models/model(dmp)-dataset(pass-bottle-hold)-npsi(40)-hold(1)/final-lines.txt","att_check":true},"trial_type":"html-keyboard-response","trial_index":254,"time_elapsed":598172,"internal_node_id":"0.0-8.0-3.61","subject":"cc6yb7r68wj4407","sona":"7540"},{"rt":123,"stimulus":"<p>Bereit?</p>","key_press":32,"trial_type":"html-keyboard-response","trial_index":255,"time_elapsed":598297,"internal_node_id":"0.0-8.0-0.62","subject":"cc6yb7r68wj4407","sona":"7540"},{"rt":null,"stimulus":"<div style=\"font-size:60px;\">+</div>","key_press":null,"trial_type":"html-keyboard-response","trial_index":256,"time_elapsed":600320,"internal_node_id":"0.0-8.0-1.62","subject":"cc6yb7r68wj4407","sona":"7540"},{"trial_type":"turing-test","trial_index":257,"time_elapsed":607606,"internal_node_id":"0.0-8.0-2.62","subject":"cc6yb7r68wj4407","sona":"7540"},{"rt":451,"stimulus":"<p>Welche Sequenz haben Sie als natürlicher empfunden?</p>","key_press":74,"test_part":"response","test_stimulus":{"position":1,"left":"bvh/vr_prediction_models/model(vcgpdm)-dataset(pass-bottle)-mode(ELBO)-parts(1)-dyn(10)-lvm(5)-hold(2)/final-lines.txt","right":"bvh/pass-bottle-training2-lines.txt","att_check":false},"trial_type":"html-keyboard-response","trial_index":258,"time_elapsed":608063,"internal_node_id":"0.0-8.0-3.62","subject":"cc6yb7r68wj4407","sona":"7540"},{"rt":147,"stimulus":"<p>Bereit?</p>","key_press":32,"trial_type":"html-keyboard-response","trial_index":259,"time_elapsed":608216,"internal_node_id":"0.0-8.0-0.63","subject":"cc6yb7r68wj4407","sona":"7540"},{"rt":null,"stimulus":"<div style=\"font-size:60px;\">+</div>","key_press":null,"trial_type":"html-keyboard-response","trial_index":260,"time_elapsed":610246,"internal_node_id":"0.0-8.0-1.63","subject":"cc6yb7r68wj4407","sona":"7540"},{"trial_type":"turing-test","trial_index":261,"time_elapsed":613773,"internal_node_id":"0.0-8.0-2.63","subject":"cc6yb7r68wj4407","sona":"7540"},{"rt":665,"stimulus":"<p>Welche Sequenz haben Sie als natürlicher empfunden?</p>","key_press":70,"test_part":"response","test_stimulus":{"position":0,"left":"bvh/return-bottle-hold-training2-lines.txt","right":"bvh/vr_prediction_models/model(tmp)-dataset(return-bottle-hold)-numprim(9)-hold(2)/final-lines.txt","att_check":false},"trial_type":"html-keyboard-response","trial_index":262,"time_elapsed":614444,"internal_node_id":"0.0-8.0-3.63","subject":"cc6yb7r68wj4407","sona":"7540"},{"rt":177,"stimulus":"<p>Bereit?</p>","key_press":32,"trial_type":"html-keyboard-response","trial_index":263,"time_elapsed":614625,"internal_node_id":"0.0-8.0-0.64","subject":"cc6yb7r68wj4407","sona":"7540"},{"rt":null,"stimulus":"<div style=\"font-size:60px;\">+</div>","key_press":null,"trial_type":"html-keyboard-response","trial_index":264,"time_elapsed":616634,"internal_node_id":"0.0-8.0-1.64","subject":"cc6yb7r68wj4407","sona":"7540"},{"trial_type":"turing-test","trial_index":265,"time_elapsed":623539,"internal_node_id":"0.0-8.0-2.64","subject":"cc6yb7r68wj4407","sona":"7540"},{"rt":109,"stimulus":"<p>Welche Sequenz haben Sie als natürlicher empfunden?</p>","key_press":74,"test_part":"response","test_stimulus":{"position":1,"left":"bvh/vr_prediction_models/model(vcgpdm)-dataset(pass-bottle)-mode(ELBO)-parts(1)-dyn(10)-lvm(5)-hold(4)/final-lines.txt","right":"bvh/pass-bottle-training4-lines.txt","att_check":false},"trial_type":"html-keyboard-response","trial_index":266,"time_elapsed":623654,"internal_node_id":"0.0-8.0-3.64","subject":"cc6yb7r68wj4407","sona":"7540"},{"rt":391,"stimulus":"<p>Bereit?</p>","key_press":32,"trial_type":"html-keyboard-response","trial_index":267,"time_elapsed":624049,"internal_node_id":"0.0-8.0-0.65","subject":"cc6yb7r68wj4407","sona":"7540"},{"rt":null,"stimulus":"<div style=\"font-size:60px;\">+</div>","key_press":null,"trial_type":"html-keyboard-response","trial_index":268,"time_elapsed":626077,"internal_node_id":"0.0-8.0-1.65","subject":"cc6yb7r68wj4407","sona":"7540"},{"trial_type":"turing-test","trial_index":269,"time_elapsed":633059,"internal_node_id":"0.0-8.0-2.65","subject":"cc6yb7r68wj4407","sona":"7540"},{"rt":342,"stimulus":"<p>Welche Sequenz haben Sie als natürlicher empfunden?</p>","key_press":70,"test_part":"response","test_stimulus":{"position":0,"left":"bvh/pass-bottle-training3-lines.txt","right":"bvh/vr_prediction_models/model(vcgpdm)-dataset(pass-bottle)-mode(ELBO)-parts(3)-dyn(35)-lvm(20)-hold(3)/final-lines.txt","att_check":false},"trial_type":"html-keyboard-response","trial_index":270,"time_elapsed":633408,"internal_node_id":"0.0-8.0-3.65","subject":"cc6yb7r68wj4407","sona":"7540"},{"rt":86,"stimulus":"<p>Bereit?</p>","key_press":32,"trial_type":"html-keyboard-response","trial_index":271,"time_elapsed":633498,"internal_node_id":"0.0-8.0-0.66","subject":"cc6yb7r68wj4407","sona":"7540"},{"rt":null,"stimulus":"<div style=\"font-size:60px;\">+</div>","key_press":null,"trial_type":"html-keyboard-response","trial_index":272,"time_elapsed":635519,"internal_node_id":"0.0-8.0-1.66","subject":"cc6yb7r68wj4407","sona":"7540"},{"trial_type":"turing-test","trial_index":273,"time_elapsed":639894,"internal_node_id":"0.0-8.0-2.66","subject":"cc6yb7r68wj4407","sona":"7540"},{"rt":551,"stimulus":"<p>Welche Sequenz haben Sie als natürlicher empfunden?</p>","key_press":74,"test_part":"response","test_stimulus":{"position":1,"left":"bvh/vr_prediction_models/model(vcgpdm)-dataset(pass-bottle-hold)-mode(ELBO)-parts(3)-dyn(35)-lvm(20)-hold(1)/final-lines.txt","right":"bvh/pass-bottle-hold-training1-lines.txt","att_check":false},"trial_type":"html-keyboard-response","trial_index":274,"time_elapsed":640452,"internal_node_id":"0.0-8.0-3.66","subject":"cc6yb7r68wj4407","sona":"7540"},{"rt":25,"stimulus":"<p>Bereit?</p>","key_press":32,"trial_type":"html-keyboard-response","trial_index":275,"time_elapsed":640482,"internal_node_id":"0.0-8.0-0.67","subject":"cc6yb7r68wj4407","sona":"7540"},{"rt":null,"stimulus":"<div style=\"font-size:60px;\">+</div>","key_press":null,"trial_type":"html-keyboard-response","trial_index":276,"time_elapsed":642514,"internal_node_id":"0.0-8.0-1.67","subject":"cc6yb7r68wj4407","sona":"7540"},{"trial_type":"turing-test","trial_index":277,"time_elapsed":646219,"internal_node_id":"0.0-8.0-2.67","subject":"cc6yb7r68wj4407","sona":"7540"},{"rt":605,"stimulus":"<p>Welche Sequenz haben Sie als natürlicher empfunden?</p>","key_press":70,"test_part":"response","test_stimulus":{"position":0,"left":"bvh/return-bottle-hold-training3-lines.txt","right":"bvh/vr_prediction_models/model(tmp)-dataset(return-bottle-hold)-numprim(8)-hold(3)/final-lines.txt","att_check":false},"trial_type":"html-keyboard-response","trial_index":278,"time_elapsed":646830,"internal_node_id":"0.0-8.0-3.67","subject":"cc6yb7r68wj4407","sona":"7540"},{"rt":145,"stimulus":"<p>Bereit?</p>","key_press":32,"trial_type":"html-keyboard-response","trial_index":279,"time_elapsed":646979,"internal_node_id":"0.0-8.0-0.68","subject":"cc6yb7r68wj4407","sona":"7540"},{"rt":null,"stimulus":"<div style=\"font-size:60px;\">+</div>","key_press":null,"trial_type":"html-keyboard-response","trial_index":280,"time_elapsed":649009,"internal_node_id":"0.0-8.0-1.68","subject":"cc6yb7r68wj4407","sona":"7540"},{"trial_type":"turing-test","trial_index":281,"time_elapsed":655191,"internal_node_id":"0.0-8.0-2.68","subject":"cc6yb7r68wj4407","sona":"7540"},{"rt":159,"stimulus":"<p>Welche Sequenz haben Sie als natürlicher empfunden?</p>","key_press":74,"test_part":"response","test_stimulus":{"position":1,"left":"bvh/vr_prediction_models/model(dmp)-dataset(return-bottle)-npsi(10)-hold(1)/final-lines.txt","right":"bvh/return-bottle-training1-lines.txt","att_check":false},"trial_type":"html-keyboard-response","trial_index":282,"time_elapsed":655355,"internal_node_id":"0.0-8.0-3.68","subject":"cc6yb7r68wj4407","sona":"7540"},{"rt":200,"stimulus":"<p>Bereit?</p>","key_press":32,"trial_type":"html-keyboard-response","trial_index":283,"time_elapsed":655557,"internal_node_id":"0.0-8.0-0.69","subject":"cc6yb7r68wj4407","sona":"7540"},{"rt":null,"stimulus":"<div style=\"font-size:60px;\">+</div>","key_press":null,"trial_type":"html-keyboard-response","trial_index":284,"time_elapsed":657591,"internal_node_id":"0.0-8.0-1.69","subject":"cc6yb7r68wj4407","sona":"7540"},{"trial_type":"turing-test","trial_index":285,"time_elapsed":663196,"internal_node_id":"0.0-8.0-2.69","subject":"cc6yb7r68wj4407","sona":"7540"},{"rt":1140,"stimulus":"<p>Welche Sequenz haben Sie als natürlicher empfunden?</p>","key_press":74,"test_part":"response","test_stimulus":{"position":0,"left":"bvh/return-bottle-training3-lines.txt","right":"bvh/vr_prediction_models/model(vcgpdm)-dataset(return-bottle)-mode(ELBO)-parts(1)-dyn(20)-lvm(5)-hold(3)/final-lines.txt","att_check":false},"trial_type":"html-keyboard-response","trial_index":286,"time_elapsed":664342,"internal_node_id":"0.0-8.0-3.69","subject":"cc6yb7r68wj4407","sona":"7540"},{"rt":179,"stimulus":"<p>Bereit?</p>","key_press":32,"trial_type":"html-keyboard-response","trial_index":287,"time_elapsed":664525,"internal_node_id":"0.0-8.0-0.70","subject":"cc6yb7r68wj4407","sona":"7540"},{"rt":null,"stimulus":"<div style=\"font-size:60px;\">+</div>","key_press":null,"trial_type":"html-keyboard-response","trial_index":288,"time_elapsed":666537,"internal_node_id":"0.0-8.0-1.70","subject":"cc6yb7r68wj4407","sona":"7540"},{"trial_type":"turing-test","trial_index":289,"time_elapsed":672369,"internal_node_id":"0.0-8.0-2.70","subject":"cc6yb7r68wj4407","sona":"7540"},{"rt":214,"stimulus":"<p>Welche Sequenz haben Sie als natürlicher empfunden?</p>","key_press":74,"test_part":"response","test_stimulus":{"position":1,"left":"bvh/vr_prediction_models/model(tmp)-dataset(return-bottle)-numprim(5)-hold(3)/final-lines.txt","right":"bvh/return-bottle-training3-lines.txt","att_check":false},"trial_type":"html-keyboard-response","trial_index":290,"time_elapsed":672588,"internal_node_id":"0.0-8.0-3.70","subject":"cc6yb7r68wj4407","sona":"7540"},{"rt":143,"stimulus":"<p>Bereit?</p>","key_press":32,"trial_type":"html-keyboard-response","trial_index":291,"time_elapsed":672737,"internal_node_id":"0.0-8.0-0.71","subject":"cc6yb7r68wj4407","sona":"7540"},{"rt":null,"stimulus":"<div style=\"font-size:60px;\">+</div>","key_press":null,"trial_type":"html-keyboard-response","trial_index":292,"time_elapsed":674768,"internal_node_id":"0.0-8.0-1.71","subject":"cc6yb7r68wj4407","sona":"7540"},{"trial_type":"turing-test","trial_index":293,"time_elapsed":681003,"internal_node_id":"0.0-8.0-2.71","subject":"cc6yb7r68wj4407","sona":"7540"},{"rt":147,"stimulus":"<p>Welche Sequenz haben Sie als natürlicher empfunden?</p>","key_press":70,"test_part":"response","test_stimulus":{"position":0,"left":"bvh/pass-bottle-training2-lines.txt","right":"bvh/vr_prediction_models/model(tmp)-dataset(pass-bottle)-numprim(9)-hold(2)/final-lines.txt","att_check":false},"trial_type":"html-keyboard-response","trial_index":294,"time_elapsed":681155,"internal_node_id":"0.0-8.0-3.71","subject":"cc6yb7r68wj4407","sona":"7540"},{"rt":150,"stimulus":"<p>Bereit?</p>","key_press":32,"trial_type":"html-keyboard-response","trial_index":295,"time_elapsed":681307,"internal_node_id":"0.0-8.0-0.72","subject":"cc6yb7r68wj4407","sona":"7540"},{"rt":null,"stimulus":"<div style=\"font-size:60px;\">+</div>","key_press":null,"trial_type":"html-keyboard-response","trial_index":296,"time_elapsed":683334,"internal_node_id":"0.0-8.0-1.72","subject":"cc6yb7r68wj4407","sona":"7540"},{"trial_type":"turing-test","trial_index":297,"time_elapsed":687126,"internal_node_id":"0.0-8.0-2.72","subject":"cc6yb7r68wj4407","sona":"7540"},{"rt":407,"stimulus":"<p>Welche Sequenz haben Sie als natürlicher empfunden?</p>","key_press":74,"test_part":"response","test_stimulus":{"position":0,"left":"bvh/return-bottle-hold-training4-lines.txt","right":"bvh/vr_prediction_models/model(tmp)-dataset(return-bottle-hold)-numprim(12)-hold(4)/final-lines.txt","att_check":false},"trial_type":"html-keyboard-response","trial_index":298,"time_elapsed":687539,"internal_node_id":"0.0-8.0-3.72","subject":"cc6yb7r68wj4407","sona":"7540"},{"rt":90,"stimulus":"<p>Bereit?</p>","key_press":32,"trial_type":"html-keyboard-response","trial_index":299,"time_elapsed":687634,"internal_node_id":"0.0-8.0-0.73","subject":"cc6yb7r68wj4407","sona":"7540"},{"rt":null,"stimulus":"<div style=\"font-size:60px;\">+</div>","key_press":null,"trial_type":"html-keyboard-response","trial_index":300,"time_elapsed":689666,"internal_node_id":"0.0-8.0-1.73","subject":"cc6yb7r68wj4407","sona":"7540"},{"trial_type":"turing-test","trial_index":301,"time_elapsed":696795,"internal_node_id":"0.0-8.0-2.73","subject":"cc6yb7r68wj4407","sona":"7540"},{"rt":135,"stimulus":"<p>Welche Sequenz haben Sie als natürlicher empfunden?</p>","key_press":74,"test_part":"response","test_stimulus":{"position":0,"left":"bvh/pass-bottle-training3-lines.txt","right":"bvh/vr_prediction_models/model(vcgpdm)-dataset(pass-bottle)-mode(ELBO)-parts(3)-dyn(25)-lvm(30)-hold(3)/final-lines.txt","att_check":false},"trial_type":"html-keyboard-response","trial_index":302,"time_elapsed":696935,"internal_node_id":"0.0-8.0-3.73","subject":"cc6yb7r68wj4407","sona":"7540"},{"rt":360,"stimulus":"<p>Bereit?</p>","key_press":32,"trial_type":"html-keyboard-response","trial_index":303,"time_elapsed":697296,"internal_node_id":"0.0-8.0-0.74","subject":"cc6yb7r68wj4407","sona":"7540"},{"rt":null,"stimulus":"<div style=\"font-size:60px;\">+</div>","key_press":null,"trial_type":"html-keyboard-response","trial_index":304,"time_elapsed":699335,"internal_node_id":"0.0-8.0-1.74","subject":"cc6yb7r68wj4407","sona":"7540"},{"trial_type":"turing-test","trial_index":305,"time_elapsed":702949,"internal_node_id":"0.0-8.0-2.74","subject":"cc6yb7r68wj4407","sona":"7540"},{"rt":902,"stimulus":"<p>Welche Sequenz haben Sie als natürlicher empfunden?</p>","key_press":70,"test_part":"response","test_stimulus":{"position":1,"left":"bvh/vr_prediction_models/model(tmp)-dataset(pass-bottle-hold)-numprim(7)-hold(3)/final-lines.txt","right":"bvh/pass-bottle-hold-training3-lines.txt","att_check":false},"trial_type":"html-keyboard-response","trial_index":306,"time_elapsed":703856,"internal_node_id":"0.0-8.0-3.74","subject":"cc6yb7r68wj4407","sona":"7540"},{"rt":237,"stimulus":"<p>Bereit?</p>","key_press":32,"trial_type":"html-keyboard-response","trial_index":307,"time_elapsed":704099,"internal_node_id":"0.0-8.0-0.75","subject":"cc6yb7r68wj4407","sona":"7540"},{"rt":null,"stimulus":"<div style=\"font-size:60px;\">+</div>","key_press":null,"trial_type":"html-keyboard-response","trial_index":308,"time_elapsed":706139,"internal_node_id":"0.0-8.0-1.75","subject":"cc6yb7r68wj4407","sona":"7540"},{"trial_type":"turing-test","trial_index":309,"time_elapsed":710926,"internal_node_id":"0.0-8.0-2.75","subject":"cc6yb7r68wj4407","sona":"7540"},{"rt":659,"stimulus":"<p>Welche Sequenz haben Sie als natürlicher empfunden?</p>","key_press":74,"test_part":"response","test_stimulus":{"position":1,"left":"bvh/vr_prediction_models/model(vcgpdm)-dataset(pass-bottle-hold)-mode(ELBO)-parts(1)-dyn(35)-lvm(30)-hold(3)/final-lines.txt","right":"bvh/pass-bottle-hold-training3-lines.txt","att_check":false},"trial_type":"html-keyboard-response","trial_index":310,"time_elapsed":711591,"internal_node_id":"0.0-8.0-3.75","subject":"cc6yb7r68wj4407","sona":"7540"},{"rt":118,"stimulus":"<p>Bereit?</p>","key_press":32,"trial_type":"html-keyboard-response","trial_index":311,"time_elapsed":711710,"internal_node_id":"0.0-8.0-0.76","subject":"cc6yb7r68wj4407","sona":"7540"},{"rt":null,"stimulus":"<div style=\"font-size:60px;\">+</div>","key_press":null,"trial_type":"html-keyboard-response","trial_index":312,"time_elapsed":713746,"internal_node_id":"0.0-8.0-1.76","subject":"cc6yb7r68wj4407","sona":"7540"},{"trial_type":"turing-test","trial_index":313,"time_elapsed":718250,"internal_node_id":"0.0-8.0-2.76","subject":"cc6yb7r68wj4407","sona":"7540"},{"rt":410,"stimulus":"<p>Welche Sequenz haben Sie als natürlicher empfunden?</p>","key_press":74,"test_part":"response","test_stimulus":{"position":1,"left":"bvh/vr_prediction_models/model(vcgpdm)-dataset(pass-bottle-hold)-mode(ELBO)-parts(3)-dyn(25)-lvm(15)-hold(0)/final-lines.txt","right":"bvh/pass-bottle-hold-training0-lines.txt","att_check":false},"trial_type":"html-keyboard-response","trial_index":314,"time_elapsed":718664,"internal_node_id":"0.0-8.0-3.76","subject":"cc6yb7r68wj4407","sona":"7540"},{"rt":208,"stimulus":"<p>Bereit?</p>","key_press":32,"trial_type":"html-keyboard-response","trial_index":315,"time_elapsed":718878,"internal_node_id":"0.0-8.0-0.77","subject":"cc6yb7r68wj4407","sona":"7540"},{"rt":null,"stimulus":"<div style=\"font-size:60px;\">+</div>","key_press":null,"trial_type":"html-keyboard-response","trial_index":316,"time_elapsed":720899,"internal_node_id":"0.0-8.0-1.77","subject":"cc6yb7r68wj4407","sona":"7540"},{"trial_type":"turing-test","trial_index":317,"time_elapsed":724282,"internal_node_id":"0.0-8.0-2.77","subject":"cc6yb7r68wj4407","sona":"7540"},{"rt":455,"stimulus":"<p>Welche Sequenz haben Sie als natürlicher empfunden?</p>","key_press":74,"test_part":"response","test_stimulus":{"position":1,"left":"bvh/vr_prediction_models/model(dmp)-dataset(return-bottle-hold)-npsi(30)-hold(1)/final-lines.txt","right":"bvh/return-bottle-hold-training1-lines.txt","att_check":false},"trial_type":"html-keyboard-response","trial_index":318,"time_elapsed":724744,"internal_node_id":"0.0-8.0-3.77","subject":"cc6yb7r68wj4407","sona":"7540"},{"rt":115,"stimulus":"<p>Bereit?</p>","key_press":32,"trial_type":"html-keyboard-response","trial_index":319,"time_elapsed":724864,"internal_node_id":"0.0-8.0-0.78","subject":"cc6yb7r68wj4407","sona":"7540"},{"rt":null,"stimulus":"<div style=\"font-size:60px;\">+</div>","key_press":null,"trial_type":"html-keyboard-response","trial_index":320,"time_elapsed":726903,"internal_node_id":"0.0-8.0-1.78","subject":"cc6yb7r68wj4407","sona":"7540"},{"trial_type":"turing-test","trial_index":321,"time_elapsed":732756,"internal_node_id":"0.0-8.0-2.78","subject":"cc6yb7r68wj4407","sona":"7540"},{"rt":470,"stimulus":"<p>Welche Sequenz haben Sie als natürlicher empfunden?</p>","key_press":70,"test_part":"response","test_stimulus":{"position":0,"left":"bvh/pass-bottle-training4-lines.txt","right":"bvh/vr_prediction_models/model(dmp)-dataset(pass-bottle)-npsi(90)-hold(4)/final-lines.txt","att_check":false},"trial_type":"html-keyboard-response","trial_index":322,"time_elapsed":733232,"internal_node_id":"0.0-8.0-3.78","subject":"cc6yb7r68wj4407","sona":"7540"},{"rt":114,"stimulus":"<p>Bereit?</p>","key_press":32,"trial_type":"html-keyboard-response","trial_index":323,"time_elapsed":733352,"internal_node_id":"0.0-8.0-0.79","subject":"cc6yb7r68wj4407","sona":"7540"},{"rt":null,"stimulus":"<div style=\"font-size:60px;\">+</div>","key_press":null,"trial_type":"html-keyboard-response","trial_index":324,"time_elapsed":735367,"internal_node_id":"0.0-8.0-1.79","subject":"cc6yb7r68wj4407","sona":"7540"},{"trial_type":"turing-test","trial_index":325,"time_elapsed":741300,"internal_node_id":"0.0-8.0-2.79","subject":"cc6yb7r68wj4407","sona":"7540"},{"rt":415,"stimulus":"<p>Welche Sequenz haben Sie als natürlicher empfunden?</p>","key_press":70,"test_part":"response","test_stimulus":{"position":0,"left":"bvh/pass-bottle-training3-lines.txt","right":"bvh/vr_prediction_models/model(dmp)-dataset(pass-bottle)-npsi(70)-hold(3)/final-lines.txt","att_check":true},"trial_type":"html-keyboard-response","trial_index":326,"time_elapsed":741721,"internal_node_id":"0.0-8.0-3.79","subject":"cc6yb7r68wj4407","sona":"7540"},{"rt":9121,"responses":"{\"age\":\"19\",\"gender\":\"männlich\"}","trial_type":"survey-text","trial_index":327,"time_elapsed":750849,"internal_node_id":"0.0-10.0-0.0","subject":"cc6yb7r68wj4407","sona":"7540"},{"rt":85141,"responses":"{\"area\":\"Arme, Beine\",\"Q1\":\"Wenn seltsame Rotationen vorkamen\",\"Q2\":\"Beinbewegungen\"}","trial_type":"survey-text","trial_index":328,"time_elapsed":835995,"internal_node_id":"0.0-10.0-1.0","subject":"cc6yb7r68wj4407","sona":"7540"}]