[{"rt":2107.584999874234,"stimulus":"<p>Welcome!<br> Please choose your language to start the experiment in the chosen language.</p><p>Willkommen!<br> Bitte wählen Sie eine Sprache, um das Experiment in der ausgewählten Sprache zu starten</p>","button_pressed":"1","trial_type":"html-button-response","trial_index":0,"time_elapsed":2176,"internal_node_id":"0.0-0.0","subject":"utwwwd2qftuq2d0","sona":"8794"},{"view_history":"[{\"page_index\":0,\"viewing_time\":6855.444999877363},{\"page_index\":1,\"viewing_time\":5100.540000014007},{\"page_index\":2,\"viewing_time\":7760.679999832064},{\"page_index\":3,\"viewing_time\":9144.070000387728},{\"page_index\":4,\"viewing_time\":3431.3649996183813}]","rt":32294.319999869913,"trial_type":"instructions","trial_index":1,"time_elapsed":34472,"internal_node_id":"0.0-1.0-0.0","subject":"utwwwd2qftuq2d0","sona":"8794"},{"rt":1697.9950000531971,"stimulus":"<p>Bereit?</p>","key_press":32,"trial_type":"html-keyboard-response","trial_index":2,"time_elapsed":36174,"internal_node_id":"0.0-3.0","subject":"utwwwd2qftuq2d0","sona":"8794"},{"rt":null,"stimulus":"<div style=\"font-size:60px;\">+</div>","key_press":null,"trial_type":"html-keyboard-response","trial_index":3,"time_elapsed":38194,"internal_node_id":"0.0-4.0","subject":"utwwwd2qftuq2d0","sona":"8794"},{"trial_type":"training","trial_index":4,"time_elapsed":41647,"internal_node_id":"0.0-5.0","subject":"utwwwd2qftuq2d0","sona":"8794"},{"rt":2556.1150000430644,"stimulus":"<p>Welche Sequenz haben Sie als natürlicher empfunden?</p>","key_press":70,"trial_type":"html-keyboard-response","trial_index":5,"time_elapsed":44205,"internal_node_id":"0.0-6.0","subject":"utwwwd2qftuq2d0","sona":"8794"},{"rt":3298.794999718666,"stimulus":"<p>Das Experiment startet nun.</p><p><small>Bitte drücken Sie den Knopf, wenn Sie bereit sind.</small></p>","button_pressed":"0","trial_type":"html-button-response","trial_index":6,"time_elapsed":47507,"internal_node_id":"0.0-7.0","subject":"utwwwd2qftuq2d0","sona":"8794"},{"rt":1807.7050000429153,"stimulus":"<p>Bereit?</p>","key_press":32,"trial_type":"html-keyboard-response","trial_index":7,"time_elapsed":49317,"internal_node_id":"0.0-8.0-0.0","subject":"utwwwd2qftuq2d0","sona":"8794"},{"rt":null,"stimulus":"<div style=\"font-size:60px;\">+</div>","key_press":null,"trial_type":"html-keyboard-response","trial_index":8,"time_elapsed":51334,"internal_node_id":"0.0-8.0-1.0","subject":"utwwwd2qftuq2d0","sona":"8794"},{"trial_type":"turing-test","trial_index":9,"time_elapsed":57308,"internal_node_id":"0.0-8.0-2.0","subject":"utwwwd2qftuq2d0","sona":"8794"},{"rt":631.264999974519,"stimulus":"<p>Welche Sequenz haben Sie als natürlicher empfunden?</p>","key_press":74,"test_part":"response","test_stimulus":{"position":1,"left":"bvh/vr_prediction_models/model(vcgpdm)-dataset(pass-bottle)-mode(ELBO)-parts(1)-dyn(10)-lvm(30)-hold(4)/final-lines.txt","right":"bvh/pass-bottle-training4-lines.txt","att_check":false},"trial_type":"html-keyboard-response","trial_index":10,"time_elapsed":57946,"internal_node_id":"0.0-8.0-3.0","subject":"utwwwd2qftuq2d0","sona":"8794"},{"rt":1484.9550002254546,"stimulus":"<p>Bereit?</p>","key_press":32,"trial_type":"html-keyboard-response","trial_index":11,"time_elapsed":59435,"internal_node_id":"0.0-8.0-0.1","subject":"utwwwd2qftuq2d0","sona":"8794"},{"rt":null,"stimulus":"<div style=\"font-size:60px;\">+</div>","key_press":null,"trial_type":"html-keyboard-response","trial_index":12,"time_elapsed":61447,"internal_node_id":"0.0-8.0-1.1","subject":"utwwwd2qftuq2d0","sona":"8794"},{"trial_type":"turing-test","trial_index":13,"time_elapsed":67304,"internal_node_id":"0.0-8.0-2.1","subject":"utwwwd2qftuq2d0","sona":"8794"},{"rt":665.5850000679493,"stimulus":"<p>Welche Sequenz haben Sie als natürlicher empfunden?</p>","key_press":74,"test_part":"response","test_stimulus":{"position":1,"left":"bvh/vr_prediction_models/model(tmp)-dataset(return-bottle)-numprim(14)-hold(4)/final-lines.txt","right":"bvh/return-bottle-training4-lines.txt","att_check":false},"trial_type":"html-keyboard-response","trial_index":14,"time_elapsed":67975,"internal_node_id":"0.0-8.0-3.1","subject":"utwwwd2qftuq2d0","sona":"8794"},{"rt":1887.650000397116,"stimulus":"<p>Bereit?</p>","key_press":32,"trial_type":"html-keyboard-response","trial_index":15,"time_elapsed":69866,"internal_node_id":"0.0-8.0-0.2","subject":"utwwwd2qftuq2d0","sona":"8794"},{"rt":null,"stimulus":"<div style=\"font-size:60px;\">+</div>","key_press":null,"trial_type":"html-keyboard-response","trial_index":16,"time_elapsed":71878,"internal_node_id":"0.0-8.0-1.2","subject":"utwwwd2qftuq2d0","sona":"8794"},{"trial_type":"turing-test","trial_index":17,"time_elapsed":75286,"internal_node_id":"0.0-8.0-2.2","subject":"utwwwd2qftuq2d0","sona":"8794"},{"rt":538.8749996200204,"stimulus":"<p>Welche Sequenz haben Sie als natürlicher empfunden?</p>","key_press":74,"test_part":"response","test_stimulus":{"position":1,"left":"bvh/vr_prediction_models/model(tmp)-dataset(pass-bottle-hold)-numprim(8)-hold(2)/final-lines.txt","right":"bvh/pass-bottle-hold-training2-lines.txt","att_check":false},"trial_type":"html-keyboard-response","trial_index":18,"time_elapsed":75830,"internal_node_id":"0.0-8.0-3.2","subject":"utwwwd2qftuq2d0","sona":"8794"},{"rt":503.87499993667006,"stimulus":"<p>Bereit?</p>","key_press":32,"trial_type":"html-keyboard-response","trial_index":19,"time_elapsed":76337,"internal_node_id":"0.0-8.0-0.3","subject":"utwwwd2qftuq2d0","sona":"8794"},{"rt":null,"stimulus":"<div style=\"font-size:60px;\">+</div>","key_press":null,"trial_type":"html-keyboard-response","trial_index":20,"time_elapsed":78350,"internal_node_id":"0.0-8.0-1.3","subject":"utwwwd2qftuq2d0","sona":"8794"},{"trial_type":"turing-test","trial_index":21,"time_elapsed":85006,"internal_node_id":"0.0-8.0-2.3","subject":"utwwwd2qftuq2d0","sona":"8794"},{"rt":612.2599998489022,"stimulus":"<p>Welche Sequenz haben Sie als natürlicher empfunden?</p>","key_press":74,"test_part":"response","test_stimulus":{"position":0,"left":"bvh/return-bottle-training2-lines.txt","right":"bvh/vr_prediction_models/model(tmp)-dataset(return-bottle)-numprim(7)-hold(2)/final-lines.txt","att_check":false},"trial_type":"html-keyboard-response","trial_index":22,"time_elapsed":85627,"internal_node_id":"0.0-8.0-3.3","subject":"utwwwd2qftuq2d0","sona":"8794"},{"rt":188.1450000219047,"stimulus":"<p>Bereit?</p>","key_press":32,"trial_type":"html-keyboard-response","trial_index":23,"time_elapsed":85836,"internal_node_id":"0.0-8.0-0.4","subject":"utwwwd2qftuq2d0","sona":"8794"},{"rt":null,"stimulus":"<div style=\"font-size:60px;\">+</div>","key_press":null,"trial_type":"html-keyboard-response","trial_index":24,"time_elapsed":87855,"internal_node_id":"0.0-8.0-1.4","subject":"utwwwd2qftuq2d0","sona":"8794"},{"trial_type":"turing-test","trial_index":25,"time_elapsed":94233,"internal_node_id":"0.0-8.0-2.4","subject":"utwwwd2qftuq2d0","sona":"8794"},{"rt":558.9600000530481,"stimulus":"<p>Welche Sequenz haben Sie als natürlicher empfunden?</p>","key_press":70,"test_part":"response","test_stimulus":{"position":0,"left":"bvh/pass-bottle-training2-lines.txt","right":"bvh/vr_prediction_models/model(vcgpdm)-dataset(pass-bottle)-mode(ELBO)-parts(1)-dyn(25)-lvm(35)-hold(2)/final-lines.txt","att_check":false},"trial_type":"html-keyboard-response","trial_index":26,"time_elapsed":94800,"internal_node_id":"0.0-8.0-3.4","subject":"utwwwd2qftuq2d0","sona":"8794"},{"rt":359.42000010982156,"stimulus":"<p>Bereit?</p>","key_press":32,"trial_type":"html-keyboard-response","trial_index":27,"time_elapsed":95167,"internal_node_id":"0.0-8.0-0.5","subject":"utwwwd2qftuq2d0","sona":"8794"},{"rt":null,"stimulus":"<div style=\"font-size:60px;\">+</div>","key_press":null,"trial_type":"html-keyboard-response","trial_index":28,"time_elapsed":97182,"internal_node_id":"0.0-8.0-1.5","subject":"utwwwd2qftuq2d0","sona":"8794"},{"trial_type":"turing-test","trial_index":29,"time_elapsed":103482,"internal_node_id":"0.0-8.0-2.5","subject":"utwwwd2qftuq2d0","sona":"8794"},{"rt":1195.2450000680983,"stimulus":"<p>Welche Sequenz haben Sie als natürlicher empfunden?</p>","key_press":70,"test_part":"response","test_stimulus":{"position":0,"left":"bvh/return-bottle-training1-lines.txt","right":"bvh/vr_prediction_models/model(vcgpdm)-dataset(return-bottle)-mode(ELBO)-parts(3)-dyn(20)-lvm(35)-hold(1)/final-lines.txt","att_check":false},"trial_type":"html-keyboard-response","trial_index":30,"time_elapsed":104687,"internal_node_id":"0.0-8.0-3.5","subject":"utwwwd2qftuq2d0","sona":"8794"},{"rt":254.15499974042177,"stimulus":"<p>Bereit?</p>","key_press":32,"trial_type":"html-keyboard-response","trial_index":31,"time_elapsed":104950,"internal_node_id":"0.0-8.0-0.6","subject":"utwwwd2qftuq2d0","sona":"8794"},{"rt":null,"stimulus":"<div style=\"font-size:60px;\">+</div>","key_press":null,"trial_type":"html-keyboard-response","trial_index":32,"time_elapsed":106961,"internal_node_id":"0.0-8.0-1.6","subject":"utwwwd2qftuq2d0","sona":"8794"},{"trial_type":"turing-test","trial_index":33,"time_elapsed":112451,"internal_node_id":"0.0-8.0-2.6","subject":"utwwwd2qftuq2d0","sona":"8794"},{"rt":836.9450001046062,"stimulus":"<p>Welche Sequenz haben Sie als natürlicher empfunden?</p>","key_press":74,"test_part":"response","test_stimulus":{"position":1,"left":"bvh/vr_prediction_models/model(tmp)-dataset(return-bottle)-numprim(7)-hold(0)/final-lines.txt","right":"bvh/return-bottle-training0-lines.txt","att_check":false},"trial_type":"html-keyboard-response","trial_index":34,"time_elapsed":113297,"internal_node_id":"0.0-8.0-3.6","subject":"utwwwd2qftuq2d0","sona":"8794"},{"rt":1069.5250001735985,"stimulus":"<p>Bereit?</p>","key_press":32,"trial_type":"html-keyboard-response","trial_index":35,"time_elapsed":114375,"internal_node_id":"0.0-8.0-0.7","subject":"utwwwd2qftuq2d0","sona":"8794"},{"rt":null,"stimulus":"<div style=\"font-size:60px;\">+</div>","key_press":null,"trial_type":"html-keyboard-response","trial_index":36,"time_elapsed":116397,"internal_node_id":"0.0-8.0-1.7","subject":"utwwwd2qftuq2d0","sona":"8794"},{"trial_type":"turing-test","trial_index":37,"time_elapsed":122354,"internal_node_id":"0.0-8.0-2.7","subject":"utwwwd2qftuq2d0","sona":"8794"},{"rt":768.794999923557,"stimulus":"<p>Welche Sequenz haben Sie als natürlicher empfunden?</p>","key_press":74,"test_part":"response","test_stimulus":{"position":1,"left":"bvh/vr_prediction_models/model(vcgpdm)-dataset(return-bottle)-mode(ELBO)-parts(3)-dyn(25)-lvm(15)-hold(3)/final-lines.txt","right":"bvh/return-bottle-training3-lines.txt","att_check":false},"trial_type":"html-keyboard-response","trial_index":38,"time_elapsed":123132,"internal_node_id":"0.0-8.0-3.7","subject":"utwwwd2qftuq2d0","sona":"8794"},{"rt":535.1100000552833,"stimulus":"<p>Bereit?</p>","key_press":32,"trial_type":"html-keyboard-response","trial_index":39,"time_elapsed":123676,"internal_node_id":"0.0-8.0-0.8","subject":"utwwwd2qftuq2d0","sona":"8794"},{"rt":null,"stimulus":"<div style=\"font-size:60px;\">+</div>","key_press":null,"trial_type":"html-keyboard-response","trial_index":40,"time_elapsed":125684,"internal_node_id":"0.0-8.0-1.8","subject":"utwwwd2qftuq2d0","sona":"8794"},{"trial_type":"turing-test","trial_index":41,"time_elapsed":132520,"internal_node_id":"0.0-8.0-2.8","subject":"utwwwd2qftuq2d0","sona":"8794"},{"rt":861.6200000979006,"stimulus":"<p>Welche Sequenz haben Sie als natürlicher empfunden?</p>","key_press":70,"test_part":"response","test_stimulus":{"position":0,"left":"bvh/pass-bottle-training0-lines.txt","right":"bvh/vr_prediction_models/model(dmp)-dataset(pass-bottle)-npsi(10)-hold(0)/final-lines.txt","att_check":true},"trial_type":"html-keyboard-response","trial_index":42,"time_elapsed":133390,"internal_node_id":"0.0-8.0-3.8","subject":"utwwwd2qftuq2d0","sona":"8794"},{"rt":196.26500038430095,"stimulus":"<p>Bereit?</p>","key_press":32,"trial_type":"html-keyboard-response","trial_index":43,"time_elapsed":133596,"internal_node_id":"0.0-8.0-0.9","subject":"utwwwd2qftuq2d0","sona":"8794"},{"rt":null,"stimulus":"<div style=\"font-size:60px;\">+</div>","key_press":null,"trial_type":"html-keyboard-response","trial_index":44,"time_elapsed":135611,"internal_node_id":"0.0-8.0-1.9","subject":"utwwwd2qftuq2d0","sona":"8794"},{"trial_type":"turing-test","trial_index":45,"time_elapsed":141179,"internal_node_id":"0.0-8.0-2.9","subject":"utwwwd2qftuq2d0","sona":"8794"},{"rt":379.1299997828901,"stimulus":"<p>Welche Sequenz haben Sie als natürlicher empfunden?</p>","key_press":74,"test_part":"response","test_stimulus":{"position":1,"left":"bvh/vr_prediction_models/model(dmp)-dataset(pass-bottle)-npsi(50)-hold(1)/final-lines.txt","right":"bvh/pass-bottle-training1-lines.txt","att_check":false},"trial_type":"html-keyboard-response","trial_index":46,"time_elapsed":141567,"internal_node_id":"0.0-8.0-3.9","subject":"utwwwd2qftuq2d0","sona":"8794"},{"rt":179.3700000271201,"stimulus":"<p>Bereit?</p>","key_press":32,"trial_type":"html-keyboard-response","trial_index":47,"time_elapsed":141756,"internal_node_id":"0.0-8.0-0.10","subject":"utwwwd2qftuq2d0","sona":"8794"},{"rt":null,"stimulus":"<div style=\"font-size:60px;\">+</div>","key_press":null,"trial_type":"html-keyboard-response","trial_index":48,"time_elapsed":143770,"internal_node_id":"0.0-8.0-1.10","subject":"utwwwd2qftuq2d0","sona":"8794"},{"trial_type":"turing-test","trial_index":49,"time_elapsed":149721,"internal_node_id":"0.0-8.0-2.10","subject":"utwwwd2qftuq2d0","sona":"8794"},{"rt":831.0699998401105,"stimulus":"<p>Welche Sequenz haben Sie als natürlicher empfunden?</p>","key_press":74,"test_part":"response","test_stimulus":{"position":0,"left":"bvh/return-bottle-training3-lines.txt","right":"bvh/vr_prediction_models/model(vcgpdm)-dataset(return-bottle)-mode(ELBO)-parts(1)-dyn(30)-lvm(20)-hold(3)/final-lines.txt","att_check":false},"trial_type":"html-keyboard-response","trial_index":50,"time_elapsed":150566,"internal_node_id":"0.0-8.0-3.10","subject":"utwwwd2qftuq2d0","sona":"8794"},{"rt":475.0900003127754,"stimulus":"<p>Bereit?</p>","key_press":32,"trial_type":"html-keyboard-response","trial_index":51,"time_elapsed":151046,"internal_node_id":"0.0-8.0-0.11","subject":"utwwwd2qftuq2d0","sona":"8794"},{"rt":null,"stimulus":"<div style=\"font-size:60px;\">+</div>","key_press":null,"trial_type":"html-keyboard-response","trial_index":52,"time_elapsed":153064,"internal_node_id":"0.0-8.0-1.11","subject":"utwwwd2qftuq2d0","sona":"8794"}]