[{"rt":2681.730000069365,"stimulus":"<p>Welcome!<br> Please choose your language to start the experiment in the chosen language.</p><p>Willkommen!<br> Bitte wählen Sie eine Sprache, um das Experiment in der ausgewählten Sprache zu starten</p>","button_pressed":"1","trial_type":"html-button-response","trial_index":0,"time_elapsed":2706,"internal_node_id":"0.0-0.0","subject":"8ed7ouxxtsh15as","sona":"8665"},{"view_history":"[{\"page_index\":0,\"viewing_time\":1168.345000129193},{\"page_index\":1,\"viewing_time\":550.8200000040233},{\"page_index\":2,\"viewing_time\":262.94499984942377},{\"page_index\":3,\"viewing_time\":628.084999974817},{\"page_index\":4,\"viewing_time\":532.98500017263}]","rt":3143.3999999426305,"trial_type":"instructions","trial_index":1,"time_elapsed":5850,"internal_node_id":"0.0-1.0-0.0","subject":"8ed7ouxxtsh15as","sona":"8665"},{"rt":2456.8799999542534,"stimulus":"<p>Bereit?</p>","key_press":32,"trial_type":"html-keyboard-response","trial_index":2,"time_elapsed":8307,"internal_node_id":"0.0-3.0","subject":"8ed7ouxxtsh15as","sona":"8665"},{"rt":null,"stimulus":"<div style=\"font-size:60px;\">+</div>","key_press":null,"trial_type":"html-keyboard-response","trial_index":3,"time_elapsed":10318,"internal_node_id":"0.0-4.0","subject":"8ed7ouxxtsh15as","sona":"8665"},{"trial_type":"training","trial_index":4,"time_elapsed":13521,"internal_node_id":"0.0-5.0","subject":"8ed7ouxxtsh15as","sona":"8665"},{"rt":337.13999995961785,"stimulus":"<p>Welche Sequenz haben Sie als natürlicher empfunden?</p>","key_press":70,"trial_type":"html-keyboard-response","trial_index":5,"time_elapsed":13859,"internal_node_id":"0.0-6.0","subject":"8ed7ouxxtsh15as","sona":"8665"},{"rt":1846.4999999850988,"stimulus":"<p>Das Experiment startet nun.</p><p><small>Bitte drücken Sie den Knopf, wenn Sie bereit sind.</small></p>","button_pressed":"0","trial_type":"html-button-response","trial_index":6,"time_elapsed":15706,"internal_node_id":"0.0-7.0","subject":"8ed7ouxxtsh15as","sona":"8665"},{"rt":823.6350000370294,"stimulus":"<p>Bereit?</p>","key_press":32,"trial_type":"html-keyboard-response","trial_index":7,"time_elapsed":16530,"internal_node_id":"0.0-8.0-0.0","subject":"8ed7ouxxtsh15as","sona":"8665"},{"rt":null,"stimulus":"<div style=\"font-size:60px;\">+</div>","key_press":null,"trial_type":"html-keyboard-response","trial_index":8,"time_elapsed":18542,"internal_node_id":"0.0-8.0-1.0","subject":"8ed7ouxxtsh15as","sona":"8665"},{"trial_type":"turing-test","trial_index":9,"time_elapsed":24141,"internal_node_id":"0.0-8.0-2.0","subject":"8ed7ouxxtsh15as","sona":"8665"},{"rt":796.1799998302013,"stimulus":"<p>Welche Sequenz haben Sie als natürlicher empfunden?</p>","key_press":74,"test_part":"response","test_stimulus":{"position":1,"left":"bvh/vr_prediction_models/model(vcgpdm)-dataset(pass-bottle)-mode(ELBO)-parts(1)-dyn(10)-lvm(25)-hold(4)/final-lines.txt","right":"bvh/pass-bottle-training4-lines.txt","att_check":false},"trial_type":"html-keyboard-response","trial_index":10,"time_elapsed":24939,"internal_node_id":"0.0-8.0-3.0","subject":"8ed7ouxxtsh15as","sona":"8665"},{"rt":198.4699999447912,"stimulus":"<p>Bereit?</p>","key_press":32,"trial_type":"html-keyboard-response","trial_index":11,"time_elapsed":25138,"internal_node_id":"0.0-8.0-0.1","subject":"8ed7ouxxtsh15as","sona":"8665"},{"rt":null,"stimulus":"<div style=\"font-size:60px;\">+</div>","key_press":null,"trial_type":"html-keyboard-response","trial_index":12,"time_elapsed":27148,"internal_node_id":"0.0-8.0-1.1","subject":"8ed7ouxxtsh15as","sona":"8665"},{"trial_type":"turing-test","trial_index":13,"time_elapsed":33622,"internal_node_id":"0.0-8.0-2.1","subject":"8ed7ouxxtsh15as","sona":"8665"},{"rt":451.50000019930303,"stimulus":"<p>Welche Sequenz haben Sie als natürlicher empfunden?</p>","key_press":74,"test_part":"response","test_stimulus":{"position":0,"left":"bvh/return-bottle-training2-lines.txt","right":"bvh/vr_prediction_models/model(dmp)-dataset(return-bottle)-npsi(100)-hold(2)/final-lines.txt","att_check":false},"trial_type":"html-keyboard-response","trial_index":14,"time_elapsed":34074,"internal_node_id":"0.0-8.0-3.1","subject":"8ed7ouxxtsh15as","sona":"8665"},{"rt":303.17500000819564,"stimulus":"<p>Bereit?</p>","key_press":32,"trial_type":"html-keyboard-response","trial_index":15,"time_elapsed":34378,"internal_node_id":"0.0-8.0-0.2","subject":"8ed7ouxxtsh15as","sona":"8665"},{"rt":null,"stimulus":"<div style=\"font-size:60px;\">+</div>","key_press":null,"trial_type":"html-keyboard-response","trial_index":16,"time_elapsed":36393,"internal_node_id":"0.0-8.0-1.2","subject":"8ed7ouxxtsh15as","sona":"8665"},{"trial_type":"turing-test","trial_index":17,"time_elapsed":39734,"internal_node_id":"0.0-8.0-2.2","subject":"8ed7ouxxtsh15as","sona":"8665"},{"rt":388.5599998757243,"stimulus":"<p>Welche Sequenz haben Sie als natürlicher empfunden?</p>","key_press":70,"test_part":"response","test_stimulus":{"position":0,"left":"bvh/return-bottle-hold-training1-lines.txt","right":"bvh/vr_prediction_models/model(vcgpdm)-dataset(return-bottle-hold)-mode(ELBO)-parts(1)-dyn(30)-lvm(20)-hold(1)/final-lines.txt","att_check":false},"trial_type":"html-keyboard-response","trial_index":18,"time_elapsed":40123,"internal_node_id":"0.0-8.0-3.2","subject":"8ed7ouxxtsh15as","sona":"8665"},{"rt":238.64000011235476,"stimulus":"<p>Bereit?</p>","key_press":32,"trial_type":"html-keyboard-response","trial_index":19,"time_elapsed":40362,"internal_node_id":"0.0-8.0-0.3","subject":"8ed7ouxxtsh15as","sona":"8665"},{"rt":null,"stimulus":"<div style=\"font-size:60px;\">+</div>","key_press":null,"trial_type":"html-keyboard-response","trial_index":20,"time_elapsed":42376,"internal_node_id":"0.0-8.0-1.3","subject":"8ed7ouxxtsh15as","sona":"8665"},{"trial_type":"turing-test","trial_index":21,"time_elapsed":48011,"internal_node_id":"0.0-8.0-2.3","subject":"8ed7ouxxtsh15as","sona":"8665"},{"rt":182.18500004149973,"stimulus":"<p>Welche Sequenz haben Sie als natürlicher empfunden?</p>","key_press":74,"test_part":"response","test_stimulus":{"position":1,"left":"bvh/vr_prediction_models/model(tmp)-dataset(pass-bottle)-numprim(11)-hold(4)/final-lines.txt","right":"bvh/pass-bottle-training4-lines.txt","att_check":false},"trial_type":"html-keyboard-response","trial_index":22,"time_elapsed":48194,"internal_node_id":"0.0-8.0-3.3","subject":"8ed7ouxxtsh15as","sona":"8665"},{"rt":295.12999998405576,"stimulus":"<p>Bereit?</p>","key_press":32,"trial_type":"html-keyboard-response","trial_index":23,"time_elapsed":48490,"internal_node_id":"0.0-8.0-0.4","subject":"8ed7ouxxtsh15as","sona":"8665"},{"rt":null,"stimulus":"<div style=\"font-size:60px;\">+</div>","key_press":null,"trial_type":"html-keyboard-response","trial_index":24,"time_elapsed":50505,"internal_node_id":"0.0-8.0-1.4","subject":"8ed7ouxxtsh15as","sona":"8665"},{"trial_type":"turing-test","trial_index":25,"time_elapsed":53967,"internal_node_id":"0.0-8.0-2.4","subject":"8ed7ouxxtsh15as","sona":"8665"},{"rt":98.3899999409914,"stimulus":"<p>Welche Sequenz haben Sie als natürlicher empfunden?</p>","key_press":70,"test_part":"response","test_stimulus":{"position":0,"left":"bvh/pass-bottle-hold-training3-lines.txt","right":"bvh/vr_prediction_models/model(tmp)-dataset(pass-bottle-hold)-numprim(4)-hold(3)/final-lines.txt","att_check":false},"trial_type":"html-keyboard-response","trial_index":26,"time_elapsed":54067,"internal_node_id":"0.0-8.0-3.4","subject":"8ed7ouxxtsh15as","sona":"8665"},{"rt":246.60499999299645,"stimulus":"<p>Bereit?</p>","key_press":32,"trial_type":"html-keyboard-response","trial_index":27,"time_elapsed":54314,"internal_node_id":"0.0-8.0-0.5","subject":"8ed7ouxxtsh15as","sona":"8665"},{"rt":null,"stimulus":"<div style=\"font-size:60px;\">+</div>","key_press":null,"trial_type":"html-keyboard-response","trial_index":28,"time_elapsed":56337,"internal_node_id":"0.0-8.0-1.5","subject":"8ed7ouxxtsh15as","sona":"8665"},{"trial_type":"turing-test","trial_index":29,"time_elapsed":61966,"internal_node_id":"0.0-8.0-2.5","subject":"8ed7ouxxtsh15as","sona":"8665"},{"rt":259.2549999244511,"stimulus":"<p>Welche Sequenz haben Sie als natürlicher empfunden?</p>","key_press":70,"test_part":"response","test_stimulus":{"position":0,"left":"bvh/pass-bottle-training4-lines.txt","right":"bvh/vr_prediction_models/model(dmp)-dataset(pass-bottle)-npsi(20)-hold(4)/final-lines.txt","att_check":true},"trial_type":"html-keyboard-response","trial_index":30,"time_elapsed":62226,"internal_node_id":"0.0-8.0-3.5","subject":"8ed7ouxxtsh15as","sona":"8665"},{"rt":334.10999993793666,"stimulus":"<p>Bereit?</p>","key_press":32,"trial_type":"html-keyboard-response","trial_index":31,"time_elapsed":62562,"internal_node_id":"0.0-8.0-0.6","subject":"8ed7ouxxtsh15as","sona":"8665"},{"rt":null,"stimulus":"<div style=\"font-size:60px;\">+</div>","key_press":null,"trial_type":"html-keyboard-response","trial_index":32,"time_elapsed":64580,"internal_node_id":"0.0-8.0-1.6","subject":"8ed7ouxxtsh15as","sona":"8665"},{"trial_type":"turing-test","trial_index":33,"time_elapsed":68165,"internal_node_id":"0.0-8.0-2.6","subject":"8ed7ouxxtsh15as","sona":"8665"},{"rt":195.54500002413988,"stimulus":"<p>Welche Sequenz haben Sie als natürlicher empfunden?</p>","key_press":74,"test_part":"response","test_stimulus":{"position":1,"left":"bvh/vr_prediction_models/model(vcgpdm)-dataset(pass-bottle-hold)-mode(ELBO)-parts(1)-dyn(25)-lvm(35)-hold(4)/final-lines.txt","right":"bvh/pass-bottle-hold-training4-lines.txt","att_check":false},"trial_type":"html-keyboard-response","trial_index":34,"time_elapsed":68362,"internal_node_id":"0.0-8.0-3.6","subject":"8ed7ouxxtsh15as","sona":"8665"},{"rt":326.8349999561906,"stimulus":"<p>Bereit?</p>","key_press":32,"trial_type":"html-keyboard-response","trial_index":35,"time_elapsed":68690,"internal_node_id":"0.0-8.0-0.7","subject":"8ed7ouxxtsh15as","sona":"8665"},{"rt":null,"stimulus":"<div style=\"font-size:60px;\">+</div>","key_press":null,"trial_type":"html-keyboard-response","trial_index":36,"time_elapsed":70703,"internal_node_id":"0.0-8.0-1.7","subject":"8ed7ouxxtsh15as","sona":"8665"},{"trial_type":"turing-test","trial_index":37,"time_elapsed":74291,"internal_node_id":"0.0-8.0-2.7","subject":"8ed7ouxxtsh15as","sona":"8665"},{"rt":270.16999991610646,"stimulus":"<p>Welche Sequenz haben Sie als natürlicher empfunden?</p>","key_press":74,"test_part":"response","test_stimulus":{"position":1,"left":"bvh/vr_prediction_models/model(dmp)-dataset(return-bottle-hold)-npsi(50)-hold(3)/final-lines.txt","right":"bvh/return-bottle-hold-training3-lines.txt","att_check":false},"trial_type":"html-keyboard-response","trial_index":38,"time_elapsed":74563,"internal_node_id":"0.0-8.0-3.7","subject":"8ed7ouxxtsh15as","sona":"8665"},{"rt":262.7950001042336,"stimulus":"<p>Bereit?</p>","key_press":32,"trial_type":"html-keyboard-response","trial_index":39,"time_elapsed":74826,"internal_node_id":"0.0-8.0-0.8","subject":"8ed7ouxxtsh15as","sona":"8665"},{"rt":null,"stimulus":"<div style=\"font-size:60px;\">+</div>","key_press":null,"trial_type":"html-keyboard-response","trial_index":40,"time_elapsed":76843,"internal_node_id":"0.0-8.0-1.8","subject":"8ed7ouxxtsh15as","sona":"8665"},{"trial_type":"turing-test","trial_index":41,"time_elapsed":82274,"internal_node_id":"0.0-8.0-2.8","subject":"8ed7ouxxtsh15as","sona":"8665"},{"rt":336.0450000036508,"stimulus":"<p>Welche Sequenz haben Sie als natürlicher empfunden?</p>","key_press":70,"test_part":"response","test_stimulus":{"position":0,"left":"bvh/pass-bottle-training1-lines.txt","right":"bvh/vr_prediction_models/model(vcgpdm)-dataset(pass-bottle)-mode(ELBO)-parts(3)-dyn(10)-lvm(25)-hold(1)/final-lines.txt","att_check":false},"trial_type":"html-keyboard-response","trial_index":42,"time_elapsed":82611,"internal_node_id":"0.0-8.0-3.8","subject":"8ed7ouxxtsh15as","sona":"8665"},{"rt":798.685000045225,"stimulus":"<p>Bereit?</p>","key_press":32,"trial_type":"html-keyboard-response","trial_index":43,"time_elapsed":83410,"internal_node_id":"0.0-8.0-0.9","subject":"8ed7ouxxtsh15as","sona":"8665"},{"rt":null,"stimulus":"<div style=\"font-size:60px;\">+</div>","key_press":null,"trial_type":"html-keyboard-response","trial_index":44,"time_elapsed":85413,"internal_node_id":"0.0-8.0-1.9","subject":"8ed7ouxxtsh15as","sona":"8665"},{"trial_type":"turing-test","trial_index":45,"time_elapsed":92064,"internal_node_id":"0.0-8.0-2.9","subject":"8ed7ouxxtsh15as","sona":"8665"},{"rt":393.0500000715256,"stimulus":"<p>Welche Sequenz haben Sie als natürlicher empfunden?</p>","key_press":70,"test_part":"response","test_stimulus":{"position":0,"left":"bvh/pass-bottle-training0-lines.txt","right":"bvh/vr_prediction_models/model(dmp)-dataset(pass-bottle)-npsi(80)-hold(0)/final-lines.txt","att_check":false},"trial_type":"html-keyboard-response","trial_index":46,"time_elapsed":92458,"internal_node_id":"0.0-8.0-3.9","subject":"8ed7ouxxtsh15as","sona":"8665"},{"rt":7791.495000012219,"stimulus":"<p>Bereit?</p>","key_press":32,"trial_type":"html-keyboard-response","trial_index":47,"time_elapsed":100250,"internal_node_id":"0.0-8.0-0.10","subject":"8ed7ouxxtsh15as","sona":"8665"},{"rt":null,"stimulus":"<div style=\"font-size:60px;\">+</div>","key_press":null,"trial_type":"html-keyboard-response","trial_index":48,"time_elapsed":102263,"internal_node_id":"0.0-8.0-1.10","subject":"8ed7ouxxtsh15as","sona":"8665"},{"trial_type":"turing-test","trial_index":49,"time_elapsed":105598,"internal_node_id":"0.0-8.0-2.10","subject":"8ed7ouxxtsh15as","sona":"8665"},{"rt":594.5999999530613,"stimulus":"<p>Welche Sequenz haben Sie als natürlicher empfunden?</p>","key_press":74,"test_part":"response","test_stimulus":{"position":0,"left":"bvh/return-bottle-hold-training1-lines.txt","right":"bvh/vr_prediction_models/model(vcgpdm)-dataset(return-bottle-hold)-mode(ELBO)-parts(1)-dyn(10)-lvm(30)-hold(1)/final-lines.txt","att_check":false},"trial_type":"html-keyboard-response","trial_index":50,"time_elapsed":106193,"internal_node_id":"0.0-8.0-3.10","subject":"8ed7ouxxtsh15as","sona":"8665"},{"rt":295.285000000149,"stimulus":"<p>Bereit?</p>","key_press":32,"trial_type":"html-keyboard-response","trial_index":51,"time_elapsed":106490,"internal_node_id":"0.0-8.0-0.11","subject":"8ed7ouxxtsh15as","sona":"8665"},{"rt":null,"stimulus":"<div style=\"font-size:60px;\">+</div>","key_press":null,"trial_type":"html-keyboard-response","trial_index":52,"time_elapsed":108511,"internal_node_id":"0.0-8.0-1.11","subject":"8ed7ouxxtsh15as","sona":"8665"}]