[{"rt":1464,"stimulus":"<p>Welcome!<br> Please choose your language to start the experiment in the chosen language.</p><p>Willkommen!<br> Bitte wählen Sie eine Sprache, um das Experiment in der ausgewählten Sprache zu starten</p>","button_pressed":"1","trial_type":"html-button-response","trial_index":0,"time_elapsed":1484,"internal_node_id":"0.0-0.0","subject":"zvngfhz9s3o4xpe","sona":"7429"},{"view_history":"[{\"page_index\":0,\"viewing_time\":1438},{\"page_index\":1,\"viewing_time\":1490},{\"page_index\":2,\"viewing_time\":2606},{\"page_index\":3,\"viewing_time\":3259},{\"page_index\":4,\"viewing_time\":6900}]","rt":15695,"trial_type":"instructions","trial_index":1,"time_elapsed":17185,"internal_node_id":"0.0-1.0-0.0","subject":"zvngfhz9s3o4xpe","sona":"7429"},{"rt":1497,"stimulus":"<p>Bereit?</p>","key_press":32,"trial_type":"html-keyboard-response","trial_index":2,"time_elapsed":18687,"internal_node_id":"0.0-3.0","subject":"zvngfhz9s3o4xpe","sona":"7429"},{"rt":null,"stimulus":"<div style=\"font-size:60px;\">+</div>","key_press":null,"trial_type":"html-keyboard-response","trial_index":3,"time_elapsed":20716,"internal_node_id":"0.0-4.0","subject":"zvngfhz9s3o4xpe","sona":"7429"},{"trial_type":"training","trial_index":4,"time_elapsed":24514,"internal_node_id":"0.0-5.0","subject":"zvngfhz9s3o4xpe","sona":"7429"},{"rt":152,"stimulus":"<p>Welche Sequenz haben Sie als natürlicher empfunden?</p>","key_press":70,"trial_type":"html-keyboard-response","trial_index":5,"time_elapsed":24670,"internal_node_id":"0.0-6.0","subject":"zvngfhz9s3o4xpe","sona":"7429"},{"rt":2523,"stimulus":"<p>Das Experiment startet nun.</p><p><small>Bitte drücken Sie den Knopf, wenn Sie bereit sind.</small></p>","button_pressed":"0","trial_type":"html-button-response","trial_index":6,"time_elapsed":27197,"internal_node_id":"0.0-7.0","subject":"zvngfhz9s3o4xpe","sona":"7429"},{"rt":1678,"stimulus":"<p>Bereit?</p>","key_press":32,"trial_type":"html-keyboard-response","trial_index":7,"time_elapsed":28880,"internal_node_id":"0.0-8.0-0.0","subject":"zvngfhz9s3o4xpe","sona":"7429"},{"rt":null,"stimulus":"<div style=\"font-size:60px;\">+</div>","key_press":null,"trial_type":"html-keyboard-response","trial_index":8,"time_elapsed":30909,"internal_node_id":"0.0-8.0-1.0","subject":"zvngfhz9s3o4xpe","sona":"7429"},{"trial_type":"turing-test","trial_index":9,"time_elapsed":34533,"internal_node_id":"0.0-8.0-2.0","subject":"zvngfhz9s3o4xpe","sona":"7429"},{"rt":244,"stimulus":"<p>Welche Sequenz haben Sie als natürlicher empfunden?</p>","key_press":74,"test_part":"response","test_stimulus":{"position":1,"left":"bvh/vr_prediction_models/model(vcgpdm)-dataset(pass-bottle-hold)-mode(ELBO)-parts(3)-dyn(20)-lvm(20)-hold(2)/final-lines.txt","right":"bvh/pass-bottle-hold-training2-lines.txt","att_check":false},"trial_type":"html-keyboard-response","trial_index":10,"time_elapsed":34783,"internal_node_id":"0.0-8.0-3.0","subject":"zvngfhz9s3o4xpe","sona":"7429"},{"rt":663,"stimulus":"<p>Bereit?</p>","key_press":32,"trial_type":"html-keyboard-response","trial_index":11,"time_elapsed":35449,"internal_node_id":"0.0-8.0-0.1","subject":"zvngfhz9s3o4xpe","sona":"7429"},{"rt":null,"stimulus":"<div style=\"font-size:60px;\">+</div>","key_press":null,"trial_type":"html-keyboard-response","trial_index":12,"time_elapsed":37470,"internal_node_id":"0.0-8.0-1.1","subject":"zvngfhz9s3o4xpe","sona":"7429"},{"trial_type":"turing-test","trial_index":13,"time_elapsed":40832,"internal_node_id":"0.0-8.0-2.1","subject":"zvngfhz9s3o4xpe","sona":"7429"},{"rt":352,"stimulus":"<p>Welche Sequenz haben Sie als natürlicher empfunden?</p>","key_press":70,"test_part":"response","test_stimulus":{"position":0,"left":"bvh/pass-bottle-hold-training0-lines.txt","right":"bvh/vr_prediction_models/model(tmp)-dataset(pass-bottle-hold)-numprim(8)-hold(0)/final-lines.txt","att_check":false},"trial_type":"html-keyboard-response","trial_index":14,"time_elapsed":41187,"internal_node_id":"0.0-8.0-3.1","subject":"zvngfhz9s3o4xpe","sona":"7429"},{"rt":413,"stimulus":"<p>Bereit?</p>","key_press":32,"trial_type":"html-keyboard-response","trial_index":15,"time_elapsed":41602,"internal_node_id":"0.0-8.0-0.2","subject":"zvngfhz9s3o4xpe","sona":"7429"},{"rt":null,"stimulus":"<div style=\"font-size:60px;\">+</div>","key_press":null,"trial_type":"html-keyboard-response","trial_index":16,"time_elapsed":43629,"internal_node_id":"0.0-8.0-1.2","subject":"zvngfhz9s3o4xpe","sona":"7429"},{"trial_type":"turing-test","trial_index":17,"time_elapsed":50539,"internal_node_id":"0.0-8.0-2.2","subject":"zvngfhz9s3o4xpe","sona":"7429"},{"rt":2424,"stimulus":"<p>Welche Sequenz haben Sie als natürlicher empfunden?</p>","key_press":70,"test_part":"response","test_stimulus":{"position":0,"left":"bvh/pass-bottle-training0-lines.txt","right":"bvh/vr_prediction_models/model(tmp)-dataset(pass-bottle)-numprim(11)-hold(0)/final-lines.txt","att_check":false},"trial_type":"html-keyboard-response","trial_index":18,"time_elapsed":52967,"internal_node_id":"0.0-8.0-3.2","subject":"zvngfhz9s3o4xpe","sona":"7429"},{"rt":689,"stimulus":"<p>Bereit?</p>","key_press":32,"trial_type":"html-keyboard-response","trial_index":19,"time_elapsed":53661,"internal_node_id":"0.0-8.0-0.3","subject":"zvngfhz9s3o4xpe","sona":"7429"},{"rt":null,"stimulus":"<div style=\"font-size:60px;\">+</div>","key_press":null,"trial_type":"html-keyboard-response","trial_index":20,"time_elapsed":55682,"internal_node_id":"0.0-8.0-1.3","subject":"zvngfhz9s3o4xpe","sona":"7429"},{"trial_type":"turing-test","trial_index":21,"time_elapsed":59229,"internal_node_id":"0.0-8.0-2.3","subject":"zvngfhz9s3o4xpe","sona":"7429"},{"rt":182,"stimulus":"<p>Welche Sequenz haben Sie als natürlicher empfunden?</p>","key_press":70,"test_part":"response","test_stimulus":{"position":0,"left":"bvh/return-bottle-hold-training1-lines.txt","right":"bvh/vr_prediction_models/model(vcgpdm)-dataset(return-bottle-hold)-mode(ELBO)-parts(3)-dyn(10)-lvm(30)-hold(1)/final-lines.txt","att_check":false},"trial_type":"html-keyboard-response","trial_index":22,"time_elapsed":59418,"internal_node_id":"0.0-8.0-3.3","subject":"zvngfhz9s3o4xpe","sona":"7429"},{"rt":541,"stimulus":"<p>Bereit?</p>","key_press":32,"trial_type":"html-keyboard-response","trial_index":23,"time_elapsed":59963,"internal_node_id":"0.0-8.0-0.4","subject":"zvngfhz9s3o4xpe","sona":"7429"},{"rt":null,"stimulus":"<div style=\"font-size:60px;\">+</div>","key_press":null,"trial_type":"html-keyboard-response","trial_index":24,"time_elapsed":61981,"internal_node_id":"0.0-8.0-1.4","subject":"zvngfhz9s3o4xpe","sona":"7429"},{"trial_type":"turing-test","trial_index":25,"time_elapsed":65872,"internal_node_id":"0.0-8.0-2.4","subject":"zvngfhz9s3o4xpe","sona":"7429"},{"rt":304,"stimulus":"<p>Welche Sequenz haben Sie als natürlicher empfunden?</p>","key_press":74,"test_part":"response","test_stimulus":{"position":0,"left":"bvh/return-bottle-hold-training4-lines.txt","right":"bvh/vr_prediction_models/model(dmp)-dataset(return-bottle-hold)-npsi(60)-hold(4)/final-lines.txt","att_check":false},"trial_type":"html-keyboard-response","trial_index":26,"time_elapsed":66181,"internal_node_id":"0.0-8.0-3.4","subject":"zvngfhz9s3o4xpe","sona":"7429"},{"rt":574,"stimulus":"<p>Bereit?</p>","key_press":32,"trial_type":"html-keyboard-response","trial_index":27,"time_elapsed":66757,"internal_node_id":"0.0-8.0-0.5","subject":"zvngfhz9s3o4xpe","sona":"7429"},{"rt":null,"stimulus":"<div style=\"font-size:60px;\">+</div>","key_press":null,"trial_type":"html-keyboard-response","trial_index":28,"time_elapsed":68812,"internal_node_id":"0.0-8.0-1.5","subject":"zvngfhz9s3o4xpe","sona":"7429"},{"trial_type":"turing-test","trial_index":29,"time_elapsed":74186,"internal_node_id":"0.0-8.0-2.5","subject":"zvngfhz9s3o4xpe","sona":"7429"},{"rt":50,"stimulus":"<p>Welche Sequenz haben Sie als natürlicher empfunden?</p>","key_press":70,"test_part":"response","test_stimulus":{"position":0,"left":"bvh/return-bottle-hold-training0-lines.txt","right":"bvh/vr_prediction_models/model(vcgpdm)-dataset(return-bottle-hold)-mode(ELBO)-parts(1)-dyn(35)-lvm(30)-hold(0)/final-lines.txt","att_check":false},"trial_type":"html-keyboard-response","trial_index":30,"time_elapsed":74244,"internal_node_id":"0.0-8.0-3.5","subject":"zvngfhz9s3o4xpe","sona":"7429"},{"rt":585,"stimulus":"<p>Bereit?</p>","key_press":32,"trial_type":"html-keyboard-response","trial_index":31,"time_elapsed":74836,"internal_node_id":"0.0-8.0-0.6","subject":"zvngfhz9s3o4xpe","sona":"7429"},{"rt":null,"stimulus":"<div style=\"font-size:60px;\">+</div>","key_press":null,"trial_type":"html-keyboard-response","trial_index":32,"time_elapsed":76863,"internal_node_id":"0.0-8.0-1.6","subject":"zvngfhz9s3o4xpe","sona":"7429"},{"trial_type":"turing-test","trial_index":33,"time_elapsed":80739,"internal_node_id":"0.0-8.0-2.6","subject":"zvngfhz9s3o4xpe","sona":"7429"},{"rt":554,"stimulus":"<p>Welche Sequenz haben Sie als natürlicher empfunden?</p>","key_press":74,"test_part":"response","test_stimulus":{"position":1,"left":"bvh/vr_prediction_models/model(vcgpdm)-dataset(return-bottle-hold)-mode(ELBO)-parts(3)-dyn(35)-lvm(20)-hold(4)/final-lines.txt","right":"bvh/return-bottle-hold-training4-lines.txt","att_check":false},"trial_type":"html-keyboard-response","trial_index":34,"time_elapsed":81298,"internal_node_id":"0.0-8.0-3.6","subject":"zvngfhz9s3o4xpe","sona":"7429"},{"rt":446,"stimulus":"<p>Bereit?</p>","key_press":32,"trial_type":"html-keyboard-response","trial_index":35,"time_elapsed":81749,"internal_node_id":"0.0-8.0-0.7","subject":"zvngfhz9s3o4xpe","sona":"7429"},{"rt":null,"stimulus":"<div style=\"font-size:60px;\">+</div>","key_press":null,"trial_type":"html-keyboard-response","trial_index":36,"time_elapsed":83771,"internal_node_id":"0.0-8.0-1.7","subject":"zvngfhz9s3o4xpe","sona":"7429"},{"trial_type":"turing-test","trial_index":37,"time_elapsed":87396,"internal_node_id":"0.0-8.0-2.7","subject":"zvngfhz9s3o4xpe","sona":"7429"},{"rt":525,"stimulus":"<p>Welche Sequenz haben Sie als natürlicher empfunden?</p>","key_press":74,"test_part":"response","test_stimulus":{"position":1,"left":"bvh/vr_prediction_models/model(vcgpdm)-dataset(pass-bottle-hold)-mode(ELBO)-parts(1)-dyn(10)-lvm(30)-hold(0)/final-lines.txt","right":"bvh/pass-bottle-hold-training0-lines.txt","att_check":false},"trial_type":"html-keyboard-response","trial_index":38,"time_elapsed":87928,"internal_node_id":"0.0-8.0-3.7","subject":"zvngfhz9s3o4xpe","sona":"7429"},{"rt":462,"stimulus":"<p>Bereit?</p>","key_press":32,"trial_type":"html-keyboard-response","trial_index":39,"time_elapsed":88395,"internal_node_id":"0.0-8.0-0.8","subject":"zvngfhz9s3o4xpe","sona":"7429"},{"rt":null,"stimulus":"<div style=\"font-size:60px;\">+</div>","key_press":null,"trial_type":"html-keyboard-response","trial_index":40,"time_elapsed":90414,"internal_node_id":"0.0-8.0-1.8","subject":"zvngfhz9s3o4xpe","sona":"7429"},{"trial_type":"turing-test","trial_index":41,"time_elapsed":93837,"internal_node_id":"0.0-8.0-2.8","subject":"zvngfhz9s3o4xpe","sona":"7429"},{"rt":545,"stimulus":"<p>Welche Sequenz haben Sie als natürlicher empfunden?</p>","key_press":70,"test_part":"response","test_stimulus":{"position":1,"left":"bvh/vr_prediction_models/model(tmp)-dataset(return-bottle-hold)-numprim(3)-hold(1)/final-lines.txt","right":"bvh/return-bottle-hold-training1-lines.txt","att_check":false},"trial_type":"html-keyboard-response","trial_index":42,"time_elapsed":94386,"internal_node_id":"0.0-8.0-3.8","subject":"zvngfhz9s3o4xpe","sona":"7429"},{"rt":410,"stimulus":"<p>Bereit?</p>","key_press":32,"trial_type":"html-keyboard-response","trial_index":43,"time_elapsed":94799,"internal_node_id":"0.0-8.0-0.9","subject":"zvngfhz9s3o4xpe","sona":"7429"},{"rt":null,"stimulus":"<div style=\"font-size:60px;\">+</div>","key_press":null,"trial_type":"html-keyboard-response","trial_index":44,"time_elapsed":96822,"internal_node_id":"0.0-8.0-1.9","subject":"zvngfhz9s3o4xpe","sona":"7429"},{"trial_type":"turing-test","trial_index":45,"time_elapsed":100682,"internal_node_id":"0.0-8.0-2.9","subject":"zvngfhz9s3o4xpe","sona":"7429"},{"rt":461,"stimulus":"<p>Welche Sequenz haben Sie als natürlicher empfunden?</p>","key_press":70,"test_part":"response","test_stimulus":{"position":1,"left":"bvh/vr_prediction_models/model(vcgpdm)-dataset(pass-bottle-hold)-mode(ELBO)-parts(1)-dyn(35)-lvm(10)-hold(3)/final-lines.txt","right":"bvh/pass-bottle-hold-training3-lines.txt","att_check":false},"trial_type":"html-keyboard-response","trial_index":46,"time_elapsed":101145,"internal_node_id":"0.0-8.0-3.9","subject":"zvngfhz9s3o4xpe","sona":"7429"},{"rt":358,"stimulus":"<p>Bereit?</p>","key_press":32,"trial_type":"html-keyboard-response","trial_index":47,"time_elapsed":101504,"internal_node_id":"0.0-8.0-0.10","subject":"zvngfhz9s3o4xpe","sona":"7429"},{"rt":null,"stimulus":"<div style=\"font-size:60px;\">+</div>","key_press":null,"trial_type":"html-keyboard-response","trial_index":48,"time_elapsed":103526,"internal_node_id":"0.0-8.0-1.10","subject":"zvngfhz9s3o4xpe","sona":"7429"},{"trial_type":"turing-test","trial_index":49,"time_elapsed":107215,"internal_node_id":"0.0-8.0-2.10","subject":"zvngfhz9s3o4xpe","sona":"7429"},{"rt":487,"stimulus":"<p>Welche Sequenz haben Sie als natürlicher empfunden?</p>","key_press":74,"test_part":"response","test_stimulus":{"position":1,"left":"bvh/vr_prediction_models/model(tmp)-dataset(return-bottle-hold)-numprim(7)-hold(4)/final-lines.txt","right":"bvh/return-bottle-hold-training4-lines.txt","att_check":false},"trial_type":"html-keyboard-response","trial_index":50,"time_elapsed":107707,"internal_node_id":"0.0-8.0-3.10","subject":"zvngfhz9s3o4xpe","sona":"7429"},{"rt":381,"stimulus":"<p>Bereit?</p>","key_press":32,"trial_type":"html-keyboard-response","trial_index":51,"time_elapsed":108093,"internal_node_id":"0.0-8.0-0.11","subject":"zvngfhz9s3o4xpe","sona":"7429"},{"rt":null,"stimulus":"<div style=\"font-size:60px;\">+</div>","key_press":null,"trial_type":"html-keyboard-response","trial_index":52,"time_elapsed":110122,"internal_node_id":"0.0-8.0-1.11","subject":"zvngfhz9s3o4xpe","sona":"7429"},{"trial_type":"turing-test","trial_index":53,"time_elapsed":116171,"internal_node_id":"0.0-8.0-2.11","subject":"zvngfhz9s3o4xpe","sona":"7429"}]