[{"rt":2245.664999820292,"stimulus":"<p>Welcome!<br> Please choose your language to start the experiment in the chosen language.</p><p>Willkommen!<br> Bitte wählen Sie eine Sprache, um das Experiment in der ausgewählten Sprache zu starten</p>","button_pressed":"1","trial_type":"html-button-response","trial_index":0,"time_elapsed":2268,"internal_node_id":"0.0-0.0","subject":"6mm170navljkb54","sona":"8665"},{"view_history":"[{\"page_index\":0,\"viewing_time\":10517.780000111088},{\"page_index\":1,\"viewing_time\":4636.934999842197},{\"page_index\":2,\"viewing_time\":7072.015000041574},{\"page_index\":3,\"viewing_time\":4492.009999928996},{\"page_index\":4,\"viewing_time\":4266.985000111163}]","rt":30986.210000002757,"trial_type":"instructions","trial_index":1,"time_elapsed":33256,"internal_node_id":"0.0-1.0-0.0","subject":"6mm170navljkb54","sona":"8665"},{"rt":2690.7150000333786,"stimulus":"<p>Bereit?</p>","key_press":32,"trial_type":"html-keyboard-response","trial_index":2,"time_elapsed":35947,"internal_node_id":"0.0-3.0","subject":"6mm170navljkb54","sona":"8665"},{"rt":null,"stimulus":"<div style=\"font-size:60px;\">+</div>","key_press":null,"trial_type":"html-keyboard-response","trial_index":3,"time_elapsed":37958,"internal_node_id":"0.0-4.0","subject":"6mm170navljkb54","sona":"8665"},{"trial_type":"training","trial_index":4,"time_elapsed":41239,"internal_node_id":"0.0-5.0","subject":"6mm170navljkb54","sona":"8665"},{"rt":4234.875000081956,"stimulus":"<p>Welche Sequenz haben Sie als natürlicher empfunden?</p>","key_press":70,"trial_type":"html-keyboard-response","trial_index":5,"time_elapsed":45475,"internal_node_id":"0.0-6.0","subject":"6mm170navljkb54","sona":"8665"},{"rt":2902.4750001262873,"stimulus":"<p>Das Experiment startet nun.</p><p><small>Bitte drücken Sie den Knopf, wenn Sie bereit sind.</small></p>","button_pressed":"0","trial_type":"html-button-response","trial_index":6,"time_elapsed":48378,"internal_node_id":"0.0-7.0","subject":"6mm170navljkb54","sona":"8665"},{"rt":1752.2899999748915,"stimulus":"<p>Bereit?</p>","key_press":32,"trial_type":"html-keyboard-response","trial_index":7,"time_elapsed":50130,"internal_node_id":"0.0-8.0-0.0","subject":"6mm170navljkb54","sona":"8665"},{"rt":null,"stimulus":"<div style=\"font-size:60px;\">+</div>","key_press":null,"trial_type":"html-keyboard-response","trial_index":8,"time_elapsed":52136,"internal_node_id":"0.0-8.0-1.0","subject":"6mm170navljkb54","sona":"8665"},{"trial_type":"turing-test","trial_index":9,"time_elapsed":57915,"internal_node_id":"0.0-8.0-2.0","subject":"6mm170navljkb54","sona":"8665"},{"rt":511.3000001292676,"stimulus":"<p>Welche Sequenz haben Sie als natürlicher empfunden?</p>","key_press":74,"test_part":"response","test_stimulus":{"position":1,"left":"bvh/vr_prediction_models/model(vcgpdm)-dataset(return-bottle)-mode(ELBO)-parts(1)-dyn(20)-lvm(5)-hold(4)/final-lines.txt","right":"bvh/return-bottle-training4-lines.txt","att_check":false},"trial_type":"html-keyboard-response","trial_index":10,"time_elapsed":58427,"internal_node_id":"0.0-8.0-3.0","subject":"6mm170navljkb54","sona":"8665"},{"rt":774.2600000929087,"stimulus":"<p>Bereit?</p>","key_press":32,"trial_type":"html-keyboard-response","trial_index":11,"time_elapsed":59202,"internal_node_id":"0.0-8.0-0.1","subject":"6mm170navljkb54","sona":"8665"},{"rt":null,"stimulus":"<div style=\"font-size:60px;\">+</div>","key_press":null,"trial_type":"html-keyboard-response","trial_index":12,"time_elapsed":61224,"internal_node_id":"0.0-8.0-1.1","subject":"6mm170navljkb54","sona":"8665"},{"trial_type":"turing-test","trial_index":13,"time_elapsed":64791,"internal_node_id":"0.0-8.0-2.1","subject":"6mm170navljkb54","sona":"8665"},{"rt":610.5299999471754,"stimulus":"<p>Welche Sequenz haben Sie als natürlicher empfunden?</p>","key_press":74,"test_part":"response","test_stimulus":{"position":1,"left":"bvh/vr_prediction_models/model(vcgpdm)-dataset(pass-bottle-hold)-mode(ELBO)-parts(3)-dyn(25)-lvm(25)-hold(3)/final-lines.txt","right":"bvh/pass-bottle-hold-training3-lines.txt","att_check":false},"trial_type":"html-keyboard-response","trial_index":14,"time_elapsed":65402,"internal_node_id":"0.0-8.0-3.1","subject":"6mm170navljkb54","sona":"8665"},{"rt":575.2199999988079,"stimulus":"<p>Bereit?</p>","key_press":32,"trial_type":"html-keyboard-response","trial_index":15,"time_elapsed":65978,"internal_node_id":"0.0-8.0-0.2","subject":"6mm170navljkb54","sona":"8665"},{"rt":null,"stimulus":"<div style=\"font-size:60px;\">+</div>","key_press":null,"trial_type":"html-keyboard-response","trial_index":16,"time_elapsed":67991,"internal_node_id":"0.0-8.0-1.2","subject":"6mm170navljkb54","sona":"8665"},{"trial_type":"turing-test","trial_index":17,"time_elapsed":71243,"internal_node_id":"0.0-8.0-2.2","subject":"6mm170navljkb54","sona":"8665"},{"rt":414.67999992892146,"stimulus":"<p>Welche Sequenz haben Sie als natürlicher empfunden?</p>","key_press":74,"test_part":"response","test_stimulus":{"position":1,"left":"bvh/vr_prediction_models/model(tmp)-dataset(pass-bottle-hold)-numprim(10)-hold(2)/final-lines.txt","right":"bvh/pass-bottle-hold-training2-lines.txt","att_check":false},"trial_type":"html-keyboard-response","trial_index":18,"time_elapsed":71658,"internal_node_id":"0.0-8.0-3.2","subject":"6mm170navljkb54","sona":"8665"},{"rt":503.06000001728535,"stimulus":"<p>Bereit?</p>","key_press":32,"trial_type":"html-keyboard-response","trial_index":19,"time_elapsed":72162,"internal_node_id":"0.0-8.0-0.3","subject":"6mm170navljkb54","sona":"8665"},{"rt":null,"stimulus":"<div style=\"font-size:60px;\">+</div>","key_press":null,"trial_type":"html-keyboard-response","trial_index":20,"time_elapsed":74177,"internal_node_id":"0.0-8.0-1.3","subject":"6mm170navljkb54","sona":"8665"},{"trial_type":"turing-test","trial_index":21,"time_elapsed":80853,"internal_node_id":"0.0-8.0-2.3","subject":"6mm170navljkb54","sona":"8665"},{"rt":1628.050000173971,"stimulus":"<p>Welche Sequenz haben Sie als natürlicher empfunden?</p>","key_press":74,"test_part":"response","test_stimulus":{"position":0,"left":"bvh/pass-bottle-training0-lines.txt","right":"bvh/vr_prediction_models/model(dmp)-dataset(pass-bottle)-npsi(100)-hold(0)/final-lines.txt","att_check":true},"trial_type":"html-keyboard-response","trial_index":22,"time_elapsed":82482,"internal_node_id":"0.0-8.0-3.3","subject":"6mm170navljkb54","sona":"8665"},{"rt":415.10499990545213,"stimulus":"<p>Bereit?</p>","key_press":32,"trial_type":"html-keyboard-response","trial_index":23,"time_elapsed":82898,"internal_node_id":"0.0-8.0-0.4","subject":"6mm170navljkb54","sona":"8665"},{"rt":null,"stimulus":"<div style=\"font-size:60px;\">+</div>","key_press":null,"trial_type":"html-keyboard-response","trial_index":24,"time_elapsed":84901,"internal_node_id":"0.0-8.0-1.4","subject":"6mm170navljkb54","sona":"8665"},{"trial_type":"turing-test","trial_index":25,"time_elapsed":90330,"internal_node_id":"0.0-8.0-2.4","subject":"6mm170navljkb54","sona":"8665"},{"rt":319.1249999217689,"stimulus":"<p>Welche Sequenz haben Sie als natürlicher empfunden?</p>","key_press":70,"test_part":"response","test_stimulus":{"position":1,"left":"bvh/vr_prediction_models/model(vcgpdm)-dataset(return-bottle)-mode(MAP)-parts(3)-hold(0)/final-lines.txt","right":"bvh/return-bottle-training0-lines.txt","att_check":false},"trial_type":"html-keyboard-response","trial_index":26,"time_elapsed":90650,"internal_node_id":"0.0-8.0-3.4","subject":"6mm170navljkb54","sona":"8665"},{"rt":407.09999995306134,"stimulus":"<p>Bereit?</p>","key_press":32,"trial_type":"html-keyboard-response","trial_index":27,"time_elapsed":91058,"internal_node_id":"0.0-8.0-0.5","subject":"6mm170navljkb54","sona":"8665"},{"rt":null,"stimulus":"<div style=\"font-size:60px;\">+</div>","key_press":null,"trial_type":"html-keyboard-response","trial_index":28,"time_elapsed":93068,"internal_node_id":"0.0-8.0-1.5","subject":"6mm170navljkb54","sona":"8665"},{"trial_type":"turing-test","trial_index":29,"time_elapsed":98438,"internal_node_id":"0.0-8.0-2.5","subject":"6mm170navljkb54","sona":"8665"},{"rt":419.27499999292195,"stimulus":"<p>Welche Sequenz haben Sie als natürlicher empfunden?</p>","key_press":70,"test_part":"response","test_stimulus":{"position":0,"left":"bvh/return-bottle-training0-lines.txt","right":"bvh/vr_prediction_models/model(vcgpdm)-dataset(return-bottle)-mode(ELBO)-parts(3)-dyn(15)-lvm(30)-hold(0)/final-lines.txt","att_check":false},"trial_type":"html-keyboard-response","trial_index":30,"time_elapsed":98858,"internal_node_id":"0.0-8.0-3.5","subject":"6mm170navljkb54","sona":"8665"},{"rt":439.4249999895692,"stimulus":"<p>Bereit?</p>","key_press":32,"trial_type":"html-keyboard-response","trial_index":31,"time_elapsed":99298,"internal_node_id":"0.0-8.0-0.6","subject":"6mm170navljkb54","sona":"8665"},{"rt":null,"stimulus":"<div style=\"font-size:60px;\">+</div>","key_press":null,"trial_type":"html-keyboard-response","trial_index":32,"time_elapsed":101318,"internal_node_id":"0.0-8.0-1.6","subject":"6mm170navljkb54","sona":"8665"},{"trial_type":"turing-test","trial_index":33,"time_elapsed":107364,"internal_node_id":"0.0-8.0-2.6","subject":"6mm170navljkb54","sona":"8665"},{"rt":1605.0099998246878,"stimulus":"<p>Welche Sequenz haben Sie als natürlicher empfunden?</p>","key_press":70,"test_part":"response","test_stimulus":{"position":0,"left":"bvh/pass-bottle-training2-lines.txt","right":"bvh/vr_prediction_models/model(tmp)-dataset(pass-bottle)-numprim(8)-hold(2)/final-lines.txt","att_check":false},"trial_type":"html-keyboard-response","trial_index":34,"time_elapsed":108970,"internal_node_id":"0.0-8.0-3.6","subject":"6mm170navljkb54","sona":"8665"},{"rt":391.12499984912574,"stimulus":"<p>Bereit?</p>","key_press":32,"trial_type":"html-keyboard-response","trial_index":35,"time_elapsed":109362,"internal_node_id":"0.0-8.0-0.7","subject":"6mm170navljkb54","sona":"8665"},{"rt":null,"stimulus":"<div style=\"font-size:60px;\">+</div>","key_press":null,"trial_type":"html-keyboard-response","trial_index":36,"time_elapsed":111372,"internal_node_id":"0.0-8.0-1.7","subject":"6mm170navljkb54","sona":"8665"},{"trial_type":"turing-test","trial_index":37,"time_elapsed":116757,"internal_node_id":"0.0-8.0-2.7","subject":"6mm170navljkb54","sona":"8665"},{"rt":651.8200000282377,"stimulus":"<p>Welche Sequenz haben Sie als natürlicher empfunden?</p>","key_press":74,"test_part":"response","test_stimulus":{"position":1,"left":"bvh/vr_prediction_models/model(vcgpdm)-dataset(return-bottle)-mode(ELBO)-parts(1)-dyn(10)-lvm(25)-hold(0)/final-lines.txt","right":"bvh/return-bottle-training0-lines.txt","att_check":false},"trial_type":"html-keyboard-response","trial_index":38,"time_elapsed":117410,"internal_node_id":"0.0-8.0-3.7","subject":"6mm170navljkb54","sona":"8665"},{"rt":415.210000006482,"stimulus":"<p>Bereit?</p>","key_press":32,"trial_type":"html-keyboard-response","trial_index":39,"time_elapsed":117826,"internal_node_id":"0.0-8.0-0.8","subject":"6mm170navljkb54","sona":"8665"},{"rt":null,"stimulus":"<div style=\"font-size:60px;\">+</div>","key_press":null,"trial_type":"html-keyboard-response","trial_index":40,"time_elapsed":119834,"internal_node_id":"0.0-8.0-1.8","subject":"6mm170navljkb54","sona":"8665"},{"trial_type":"turing-test","trial_index":41,"time_elapsed":125862,"internal_node_id":"0.0-8.0-2.8","subject":"6mm170navljkb54","sona":"8665"},{"rt":939.2299999017268,"stimulus":"<p>Welche Sequenz haben Sie als natürlicher empfunden?</p>","key_press":70,"test_part":"response","test_stimulus":{"position":0,"left":"bvh/pass-bottle-training2-lines.txt","right":"bvh/vr_prediction_models/model(dmp)-dataset(pass-bottle)-npsi(50)-hold(2)/final-lines.txt","att_check":false},"trial_type":"html-keyboard-response","trial_index":42,"time_elapsed":126803,"internal_node_id":"0.0-8.0-3.8","subject":"6mm170navljkb54","sona":"8665"},{"rt":390.9699998330325,"stimulus":"<p>Bereit?</p>","key_press":32,"trial_type":"html-keyboard-response","trial_index":43,"time_elapsed":127195,"internal_node_id":"0.0-8.0-0.9","subject":"6mm170navljkb54","sona":"8665"},{"rt":null,"stimulus":"<div style=\"font-size:60px;\">+</div>","key_press":null,"trial_type":"html-keyboard-response","trial_index":44,"time_elapsed":129205,"internal_node_id":"0.0-8.0-1.9","subject":"6mm170navljkb54","sona":"8665"},{"trial_type":"turing-test","trial_index":45,"time_elapsed":135225,"internal_node_id":"0.0-8.0-2.9","subject":"6mm170navljkb54","sona":"8665"},{"rt":1223.4300000127405,"stimulus":"<p>Welche Sequenz haben Sie als natürlicher empfunden?</p>","key_press":74,"test_part":"response","test_stimulus":{"position":1,"left":"bvh/vr_prediction_models/model(dmp)-dataset(pass-bottle)-npsi(90)-hold(2)/final-lines.txt","right":"bvh/pass-bottle-training2-lines.txt","att_check":false},"trial_type":"html-keyboard-response","trial_index":46,"time_elapsed":136450,"internal_node_id":"0.0-8.0-3.9","subject":"6mm170navljkb54","sona":"8665"},{"rt":351.21500003151596,"stimulus":"<p>Bereit?</p>","key_press":32,"trial_type":"html-keyboard-response","trial_index":47,"time_elapsed":136802,"internal_node_id":"0.0-8.0-0.10","subject":"6mm170navljkb54","sona":"8665"},{"rt":null,"stimulus":"<div style=\"font-size:60px;\">+</div>","key_press":null,"trial_type":"html-keyboard-response","trial_index":48,"time_elapsed":138807,"internal_node_id":"0.0-8.0-1.10","subject":"6mm170navljkb54","sona":"8665"},{"trial_type":"turing-test","trial_index":49,"time_elapsed":142460,"internal_node_id":"0.0-8.0-2.10","subject":"6mm170navljkb54","sona":"8665"},{"rt":365.0799999013543,"stimulus":"<p>Welche Sequenz haben Sie als natürlicher empfunden?</p>","key_press":70,"test_part":"response","test_stimulus":{"position":0,"left":"bvh/return-bottle-hold-training4-lines.txt","right":"bvh/vr_prediction_models/model(dmp)-dataset(return-bottle-hold)-npsi(50)-hold(4)/final-lines.txt","att_check":false},"trial_type":"html-keyboard-response","trial_index":50,"time_elapsed":142826,"internal_node_id":"0.0-8.0-3.10","subject":"6mm170navljkb54","sona":"8665"},{"rt":374.88000001758337,"stimulus":"<p>Bereit?</p>","key_press":32,"trial_type":"html-keyboard-response","trial_index":51,"time_elapsed":143202,"internal_node_id":"0.0-8.0-0.11","subject":"6mm170navljkb54","sona":"8665"},{"rt":null,"stimulus":"<div style=\"font-size:60px;\">+</div>","key_press":null,"trial_type":"html-keyboard-response","trial_index":52,"time_elapsed":145215,"internal_node_id":"0.0-8.0-1.11","subject":"6mm170navljkb54","sona":"8665"}]