[{"rt":31573.014999972656,"stimulus":"<p>Welcome!<br> Please choose your language to start the experiment in the chosen language.</p><p>Willkommen!<br> Bitte wählen Sie eine Sprache, um das Experiment in der ausgewählten Sprache zu starten</p>","button_pressed":"1","trial_type":"html-button-response","trial_index":0,"time_elapsed":31584,"internal_node_id":"0.0-0.0","subject":"tkgfqjkhkfpxjdt"},{"view_history":"[{\"page_index\":0,\"viewing_time\":14676.194999949075},{\"page_index\":1,\"viewing_time\":9031.614999985322},{\"page_index\":2,\"viewing_time\":12351.920000044629},{\"page_index\":3,\"viewing_time\":7575.940000009723},{\"page_index\":4,\"viewing_time\":2624.0649999817833}]","rt":46261.30499993451,"trial_type":"instructions","trial_index":1,"time_elapsed":77846,"internal_node_id":"0.0-1.0-0.0","subject":"tkgfqjkhkfpxjdt"},{"rt":4139.8300000000745,"stimulus":"<p>Bereit?</p>","key_press":32,"trial_type":"html-keyboard-response","trial_index":2,"time_elapsed":81989,"internal_node_id":"0.0-3.0","subject":"tkgfqjkhkfpxjdt"},{"rt":null,"stimulus":"<div style=\"font-size:60px;\">+</div>","key_press":null,"trial_type":"html-keyboard-response","trial_index":3,"time_elapsed":84001,"internal_node_id":"0.0-4.0","subject":"tkgfqjkhkfpxjdt"},{"trial_type":"training","trial_index":4,"time_elapsed":87416,"internal_node_id":"0.0-5.0","subject":"tkgfqjkhkfpxjdt"},{"rt":10103.049999917857,"stimulus":"<p>Welche Sequenz haben Sie als natürlicher empfunden?</p>","key_press":70,"trial_type":"html-keyboard-response","trial_index":5,"time_elapsed":97521,"internal_node_id":"0.0-6.0","subject":"tkgfqjkhkfpxjdt"},{"rt":2234.044999931939,"stimulus":"<p>Das Experiment startet nun.</p><p><small>Bitte drücken Sie den Knopf, wenn Sie bereit sind.</small></p>","button_pressed":"0","trial_type":"html-button-response","trial_index":6,"time_elapsed":99757,"internal_node_id":"0.0-7.0","subject":"tkgfqjkhkfpxjdt"},{"rt":2674.460000009276,"stimulus":"<p>Bereit?</p>","key_press":32,"trial_type":"html-keyboard-response","trial_index":7,"time_elapsed":102433,"internal_node_id":"0.0-8.0-0.0","subject":"tkgfqjkhkfpxjdt"},{"rt":null,"stimulus":"<div style=\"font-size:60px;\">+</div>","key_press":null,"trial_type":"html-keyboard-response","trial_index":8,"time_elapsed":104448,"internal_node_id":"0.0-8.0-1.0","subject":"tkgfqjkhkfpxjdt"},{"trial_type":"turing-test","trial_index":9,"time_elapsed":110053,"internal_node_id":"0.0-8.0-2.0","subject":"tkgfqjkhkfpxjdt"},{"rt":2957.219999982044,"stimulus":"<p>Welche Sequenz haben Sie als natürlicher empfunden?</p>","key_press":74,"test_part":"response","test_stimulus":{"position":0,"left":"bvh/return-bottle-training0-lines.txt","right":"bvh/vr_prediction_models/model(vcgpdm)-dataset(return-bottle)-mode(ELBO)-parts(3)-dyn(10)-lvm(25)-hold(0)/final-lines.txt","att_check":false},"trial_type":"html-keyboard-response","trial_index":10,"time_elapsed":113015,"internal_node_id":"0.0-8.0-3.0","subject":"tkgfqjkhkfpxjdt"},{"rt":2823.5550000099465,"stimulus":"<p>Bereit?</p>","key_press":32,"trial_type":"html-keyboard-response","trial_index":11,"time_elapsed":115834,"internal_node_id":"0.0-8.0-0.1","subject":"tkgfqjkhkfpxjdt"},{"rt":null,"stimulus":"<div style=\"font-size:60px;\">+</div>","key_press":null,"trial_type":"html-keyboard-response","trial_index":12,"time_elapsed":117859,"internal_node_id":"0.0-8.0-1.1","subject":"tkgfqjkhkfpxjdt"},{"trial_type":"turing-test","trial_index":13,"time_elapsed":123833,"internal_node_id":"0.0-8.0-2.1","subject":"tkgfqjkhkfpxjdt"},{"rt":11722.08499989938,"stimulus":"<p>Welche Sequenz haben Sie als natürlicher empfunden?</p>","key_press":70,"test_part":"response","test_stimulus":{"position":1,"left":"bvh/vr_prediction_models/model(vcgpdm)-dataset(return-bottle)-mode(ELBO)-parts(1)-dyn(30)-lvm(20)-hold(4)/final-lines.txt","right":"bvh/return-bottle-training4-lines.txt","att_check":false},"trial_type":"html-keyboard-response","trial_index":14,"time_elapsed":135560,"internal_node_id":"0.0-8.0-3.1","subject":"tkgfqjkhkfpxjdt"},{"rt":2609.1049999231473,"stimulus":"<p>Bereit?</p>","key_press":32,"trial_type":"html-keyboard-response","trial_index":15,"time_elapsed":138173,"internal_node_id":"0.0-8.0-0.2","subject":"tkgfqjkhkfpxjdt"},{"rt":null,"stimulus":"<div style=\"font-size:60px;\">+</div>","key_press":null,"trial_type":"html-keyboard-response","trial_index":16,"time_elapsed":140177,"internal_node_id":"0.0-8.0-1.2","subject":"tkgfqjkhkfpxjdt"},{"trial_type":"turing-test","trial_index":17,"time_elapsed":146267,"internal_node_id":"0.0-8.0-2.2","subject":"tkgfqjkhkfpxjdt"},{"rt":10445.4600000754,"stimulus":"<p>Welche Sequenz haben Sie als natürlicher empfunden?</p>","key_press":70,"test_part":"response","test_stimulus":{"position":1,"left":"bvh/vr_prediction_models/model(vcgpdm)-dataset(pass-bottle)-mode(ELBO)-parts(1)-dyn(20)-lvm(30)-hold(3)/final-lines.txt","right":"bvh/pass-bottle-training3-lines.txt","att_check":false},"trial_type":"html-keyboard-response","trial_index":18,"time_elapsed":156717,"internal_node_id":"0.0-8.0-3.2","subject":"tkgfqjkhkfpxjdt"},{"rt":1374.254999915138,"stimulus":"<p>Bereit?</p>","key_press":32,"trial_type":"html-keyboard-response","trial_index":19,"time_elapsed":158095,"internal_node_id":"0.0-8.0-0.3","subject":"tkgfqjkhkfpxjdt"},{"rt":null,"stimulus":"<div style=\"font-size:60px;\">+</div>","key_press":null,"trial_type":"html-keyboard-response","trial_index":20,"time_elapsed":160119,"internal_node_id":"0.0-8.0-1.3","subject":"tkgfqjkhkfpxjdt"},{"trial_type":"turing-test","trial_index":21,"time_elapsed":166001,"internal_node_id":"0.0-8.0-2.3","subject":"tkgfqjkhkfpxjdt"}]