[{"rt":1990.2400000028138,"stimulus":"<p>Welcome!<br> Please choose your language to start the experiment in the chosen language.</p><p>Willkommen!<br> Bitte wählen Sie eine Sprache, um das Experiment in der ausgewählten Sprache zu starten</p>","button_pressed":"1","trial_type":"html-button-response","trial_index":0,"time_elapsed":2043,"internal_node_id":"0.0-0.0","subject":"0yq6718hvjkf1vf","sona":"9607"},{"view_history":"[{\"page_index\":0,\"viewing_time\":5737.075000000914},{\"page_index\":1,\"viewing_time\":3674.125000001368},{\"page_index\":2,\"viewing_time\":8474.739999997837},{\"page_index\":3,\"viewing_time\":4652.60500000295},{\"page_index\":4,\"viewing_time\":3932.0349999979953}]","rt":26471.13000000172,"trial_type":"instructions","trial_index":1,"time_elapsed":28515,"internal_node_id":"0.0-1.0-0.0","subject":"0yq6718hvjkf1vf","sona":"9607"},{"rt":2844.4799999997485,"stimulus":"<p>Bereit?</p>","key_press":32,"trial_type":"html-keyboard-response","trial_index":2,"time_elapsed":31362,"internal_node_id":"0.0-3.0","subject":"0yq6718hvjkf1vf","sona":"9607"},{"rt":null,"stimulus":"<div style=\"font-size:60px;\">+</div>","key_press":null,"trial_type":"html-keyboard-response","trial_index":3,"time_elapsed":33372,"internal_node_id":"0.0-4.0","subject":"0yq6718hvjkf1vf","sona":"9607"},{"trial_type":"training","trial_index":4,"time_elapsed":36688,"internal_node_id":"0.0-5.0","subject":"0yq6718hvjkf1vf","sona":"9607"},{"rt":3149.054999998043,"stimulus":"<p>Welche Sequenz haben Sie als natürlicher empfunden?</p>","key_press":70,"trial_type":"html-keyboard-response","trial_index":5,"time_elapsed":39838,"internal_node_id":"0.0-6.0","subject":"0yq6718hvjkf1vf","sona":"9607"},{"rt":4791.15499999898,"stimulus":"<p>Das Experiment startet nun.</p><p><small>Bitte drücken Sie den Knopf, wenn Sie bereit sind.</small></p>","button_pressed":"0","trial_type":"html-button-response","trial_index":6,"time_elapsed":44630,"internal_node_id":"0.0-7.0","subject":"0yq6718hvjkf1vf","sona":"9607"},{"rt":1523.3250000019325,"stimulus":"<p>Bereit?</p>","key_press":32,"trial_type":"html-keyboard-response","trial_index":7,"time_elapsed":46155,"internal_node_id":"0.0-8.0-0.0","subject":"0yq6718hvjkf1vf","sona":"9607"},{"rt":null,"stimulus":"<div style=\"font-size:60px;\">+</div>","key_press":null,"trial_type":"html-keyboard-response","trial_index":8,"time_elapsed":48163,"internal_node_id":"0.0-8.0-1.0","subject":"0yq6718hvjkf1vf","sona":"9607"},{"trial_type":"turing-test","trial_index":9,"time_elapsed":53958,"internal_node_id":"0.0-8.0-2.0","subject":"0yq6718hvjkf1vf","sona":"9607"},{"rt":1342.384999999922,"stimulus":"<p>Welche Sequenz haben Sie als natürlicher empfunden?</p>","key_press":74,"test_part":"response","test_stimulus":{"position":0,"left":"bvh/pass-bottle-training3-lines.txt","right":"bvh/vr_prediction_models/model(dmp)-dataset(pass-bottle)-npsi(70)-hold(3)/final-lines.txt","att_check":false},"trial_type":"html-keyboard-response","trial_index":10,"time_elapsed":55303,"internal_node_id":"0.0-8.0-3.0","subject":"0yq6718hvjkf1vf","sona":"9607"},{"rt":4018.6549999998533,"stimulus":"<p>Bereit?</p>","key_press":32,"trial_type":"html-keyboard-response","trial_index":11,"time_elapsed":59324,"internal_node_id":"0.0-8.0-0.1","subject":"0yq6718hvjkf1vf","sona":"9607"},{"rt":null,"stimulus":"<div style=\"font-size:60px;\">+</div>","key_press":null,"trial_type":"html-keyboard-response","trial_index":12,"time_elapsed":61334,"internal_node_id":"0.0-8.0-1.1","subject":"0yq6718hvjkf1vf","sona":"9607"},{"trial_type":"turing-test","trial_index":13,"time_elapsed":68058,"internal_node_id":"0.0-8.0-2.1","subject":"0yq6718hvjkf1vf","sona":"9607"},{"rt":772.1999999994296,"stimulus":"<p>Welche Sequenz haben Sie als natürlicher empfunden?</p>","key_press":74,"test_part":"response","test_stimulus":{"position":0,"left":"bvh/pass-bottle-training0-lines.txt","right":"bvh/vr_prediction_models/model(dmp)-dataset(pass-bottle)-npsi(10)-hold(0)/final-lines.txt","att_check":false},"trial_type":"html-keyboard-response","trial_index":14,"time_elapsed":68834,"internal_node_id":"0.0-8.0-3.1","subject":"0yq6718hvjkf1vf","sona":"9607"},{"rt":2700.329999999667,"stimulus":"<p>Bereit?</p>","key_press":32,"trial_type":"html-keyboard-response","trial_index":15,"time_elapsed":71536,"internal_node_id":"0.0-8.0-0.2","subject":"0yq6718hvjkf1vf","sona":"9607"},{"rt":null,"stimulus":"<div style=\"font-size:60px;\">+</div>","key_press":null,"trial_type":"html-keyboard-response","trial_index":16,"time_elapsed":73542,"internal_node_id":"0.0-8.0-1.2","subject":"0yq6718hvjkf1vf","sona":"9607"},{"trial_type":"turing-test","trial_index":17,"time_elapsed":79261,"internal_node_id":"0.0-8.0-2.2","subject":"0yq6718hvjkf1vf","sona":"9607"},{"rt":1617.404999997234,"stimulus":"<p>Welche Sequenz haben Sie als natürlicher empfunden?</p>","key_press":74,"test_part":"response","test_stimulus":{"position":0,"left":"bvh/return-bottle-training3-lines.txt","right":"bvh/vr_prediction_models/model(dmp)-dataset(return-bottle)-npsi(40)-hold(3)/final-lines.txt","att_check":false},"trial_type":"html-keyboard-response","trial_index":18,"time_elapsed":80882,"internal_node_id":"0.0-8.0-3.2","subject":"0yq6718hvjkf1vf","sona":"9607"},{"rt":4048.125000001164,"stimulus":"<p>Bereit?</p>","key_press":32,"trial_type":"html-keyboard-response","trial_index":19,"time_elapsed":84932,"internal_node_id":"0.0-8.0-0.3","subject":"0yq6718hvjkf1vf","sona":"9607"},{"rt":null,"stimulus":"<div style=\"font-size:60px;\">+</div>","key_press":null,"trial_type":"html-keyboard-response","trial_index":20,"time_elapsed":86941,"internal_node_id":"0.0-8.0-1.3","subject":"0yq6718hvjkf1vf","sona":"9607"},{"trial_type":"turing-test","trial_index":21,"time_elapsed":90498,"internal_node_id":"0.0-8.0-2.3","subject":"0yq6718hvjkf1vf","sona":"9607"},{"rt":2373.749999998836,"stimulus":"<p>Welche Sequenz haben Sie als natürlicher empfunden?</p>","key_press":70,"test_part":"response","test_stimulus":{"position":0,"left":"bvh/return-bottle-hold-training2-lines.txt","right":"bvh/vr_prediction_models/model(vcgpdm)-dataset(return-bottle-hold)-mode(ELBO)-parts(1)-dyn(35)-lvm(10)-hold(2)/final-lines.txt","att_check":false},"trial_type":"html-keyboard-response","trial_index":22,"time_elapsed":92874,"internal_node_id":"0.0-8.0-3.3","subject":"0yq6718hvjkf1vf","sona":"9607"},{"rt":1655.0700000007055,"stimulus":"<p>Bereit?</p>","key_press":32,"trial_type":"html-keyboard-response","trial_index":23,"time_elapsed":94531,"internal_node_id":"0.0-8.0-0.4","subject":"0yq6718hvjkf1vf","sona":"9607"},{"rt":null,"stimulus":"<div style=\"font-size:60px;\">+</div>","key_press":null,"trial_type":"html-keyboard-response","trial_index":24,"time_elapsed":96537,"internal_node_id":"0.0-8.0-1.4","subject":"0yq6718hvjkf1vf","sona":"9607"},{"trial_type":"turing-test","trial_index":25,"time_elapsed":100221,"internal_node_id":"0.0-8.0-2.4","subject":"0yq6718hvjkf1vf","sona":"9607"},{"rt":3084.679999999935,"stimulus":"<p>Welche Sequenz haben Sie als natürlicher empfunden?</p>","key_press":70,"test_part":"response","test_stimulus":{"position":0,"left":"bvh/pass-bottle-hold-training4-lines.txt","right":"bvh/vr_prediction_models/model(vcgpdm)-dataset(pass-bottle-hold)-mode(ELBO)-parts(1)-dyn(20)-lvm(5)-hold(4)/final-lines.txt","att_check":false},"trial_type":"html-keyboard-response","trial_index":26,"time_elapsed":103309,"internal_node_id":"0.0-8.0-3.4","subject":"0yq6718hvjkf1vf","sona":"9607"},{"rt":1741.2100000001374,"stimulus":"<p>Bereit?</p>","key_press":32,"trial_type":"html-keyboard-response","trial_index":27,"time_elapsed":105052,"internal_node_id":"0.0-8.0-0.5","subject":"0yq6718hvjkf1vf","sona":"9607"},{"rt":null,"stimulus":"<div style=\"font-size:60px;\">+</div>","key_press":null,"trial_type":"html-keyboard-response","trial_index":28,"time_elapsed":107061,"internal_node_id":"0.0-8.0-1.5","subject":"0yq6718hvjkf1vf","sona":"9607"},{"trial_type":"turing-test","trial_index":29,"time_elapsed":112803,"internal_node_id":"0.0-8.0-2.5","subject":"0yq6718hvjkf1vf","sona":"9607"},{"rt":585.6349999994563,"stimulus":"<p>Welche Sequenz haben Sie als natürlicher empfunden?</p>","key_press":74,"test_part":"response","test_stimulus":{"position":1,"left":"bvh/vr_prediction_models/model(vcgpdm)-dataset(return-bottle)-mode(ELBO)-parts(1)-dyn(30)-lvm(35)-hold(3)/final-lines.txt","right":"bvh/return-bottle-training3-lines.txt","att_check":false},"trial_type":"html-keyboard-response","trial_index":30,"time_elapsed":113392,"internal_node_id":"0.0-8.0-3.5","subject":"0yq6718hvjkf1vf","sona":"9607"},{"rt":2862.2699999978067,"stimulus":"<p>Bereit?</p>","key_press":32,"trial_type":"html-keyboard-response","trial_index":31,"time_elapsed":116256,"internal_node_id":"0.0-8.0-0.6","subject":"0yq6718hvjkf1vf","sona":"9607"},{"rt":null,"stimulus":"<div style=\"font-size:60px;\">+</div>","key_press":null,"trial_type":"html-keyboard-response","trial_index":32,"time_elapsed":118260,"internal_node_id":"0.0-8.0-1.6","subject":"0yq6718hvjkf1vf","sona":"9607"},{"trial_type":"turing-test","trial_index":33,"time_elapsed":121927,"internal_node_id":"0.0-8.0-2.6","subject":"0yq6718hvjkf1vf","sona":"9607"},{"rt":968.1249999994179,"stimulus":"<p>Welche Sequenz haben Sie als natürlicher empfunden?</p>","key_press":74,"test_part":"response","test_stimulus":{"position":0,"left":"bvh/pass-bottle-hold-training4-lines.txt","right":"bvh/vr_prediction_models/model(vcgpdm)-dataset(pass-bottle-hold)-mode(ELBO)-parts(1)-dyn(20)-lvm(20)-hold(4)/final-lines.txt","att_check":false},"trial_type":"html-keyboard-response","trial_index":34,"time_elapsed":122898,"internal_node_id":"0.0-8.0-3.6","subject":"0yq6718hvjkf1vf","sona":"9607"},{"rt":5717.724999998609,"stimulus":"<p>Bereit?</p>","key_press":32,"trial_type":"html-keyboard-response","trial_index":35,"time_elapsed":128618,"internal_node_id":"0.0-8.0-0.7","subject":"0yq6718hvjkf1vf","sona":"9607"},{"rt":null,"stimulus":"<div style=\"font-size:60px;\">+</div>","key_press":null,"trial_type":"html-keyboard-response","trial_index":36,"time_elapsed":130623,"internal_node_id":"0.0-8.0-1.7","subject":"0yq6718hvjkf1vf","sona":"9607"},{"trial_type":"turing-test","trial_index":37,"time_elapsed":136407,"internal_node_id":"0.0-8.0-2.7","subject":"0yq6718hvjkf1vf","sona":"9607"},{"rt":355.78499999974156,"stimulus":"<p>Welche Sequenz haben Sie als natürlicher empfunden?</p>","key_press":70,"test_part":"response","test_stimulus":{"position":1,"left":"bvh/vr_prediction_models/model(dmp)-dataset(return-bottle)-npsi(50)-hold(4)/final-lines.txt","right":"bvh/return-bottle-training4-lines.txt","att_check":false},"trial_type":"html-keyboard-response","trial_index":38,"time_elapsed":136766,"internal_node_id":"0.0-8.0-3.7","subject":"0yq6718hvjkf1vf","sona":"9607"},{"rt":1157.214999999269,"stimulus":"<p>Bereit?</p>","key_press":32,"trial_type":"html-keyboard-response","trial_index":39,"time_elapsed":137926,"internal_node_id":"0.0-8.0-0.8","subject":"0yq6718hvjkf1vf","sona":"9607"},{"rt":null,"stimulus":"<div style=\"font-size:60px;\">+</div>","key_press":null,"trial_type":"html-keyboard-response","trial_index":40,"time_elapsed":139934,"internal_node_id":"0.0-8.0-1.8","subject":"0yq6718hvjkf1vf","sona":"9607"},{"trial_type":"turing-test","trial_index":41,"time_elapsed":143361,"internal_node_id":"0.0-8.0-2.8","subject":"0yq6718hvjkf1vf","sona":"9607"},{"rt":458.3199999979115,"stimulus":"<p>Welche Sequenz haben Sie als natürlicher empfunden?</p>","key_press":74,"test_part":"response","test_stimulus":{"position":0,"left":"bvh/pass-bottle-hold-training2-lines.txt","right":"bvh/vr_prediction_models/model(vcgpdm)-dataset(pass-bottle-hold)-mode(ELBO)-parts(1)-dyn(20)-lvm(5)-hold(2)/final-lines.txt","att_check":false},"trial_type":"html-keyboard-response","trial_index":42,"time_elapsed":143823,"internal_node_id":"0.0-8.0-3.8","subject":"0yq6718hvjkf1vf","sona":"9607"},{"rt":2814.0500000008615,"stimulus":"<p>Bereit?</p>","key_press":32,"trial_type":"html-keyboard-response","trial_index":43,"time_elapsed":146640,"internal_node_id":"0.0-8.0-0.9","subject":"0yq6718hvjkf1vf","sona":"9607"},{"rt":null,"stimulus":"<div style=\"font-size:60px;\">+</div>","key_press":null,"trial_type":"html-keyboard-response","trial_index":44,"time_elapsed":148646,"internal_node_id":"0.0-8.0-1.9","subject":"0yq6718hvjkf1vf","sona":"9607"},{"trial_type":"turing-test","trial_index":45,"time_elapsed":154497,"internal_node_id":"0.0-8.0-2.9","subject":"0yq6718hvjkf1vf","sona":"9607"},{"rt":620.2699999994365,"stimulus":"<p>Welche Sequenz haben Sie als natürlicher empfunden?</p>","key_press":74,"test_part":"response","test_stimulus":{"position":1,"left":"bvh/vr_prediction_models/model(vcgpdm)-dataset(pass-bottle)-mode(ELBO)-parts(3)-dyn(15)-lvm(30)-hold(3)/final-lines.txt","right":"bvh/pass-bottle-training3-lines.txt","att_check":false},"trial_type":"html-keyboard-response","trial_index":46,"time_elapsed":155121,"internal_node_id":"0.0-8.0-3.9","subject":"0yq6718hvjkf1vf","sona":"9607"},{"rt":3759.744999999384,"stimulus":"<p>Bereit?</p>","key_press":32,"trial_type":"html-keyboard-response","trial_index":47,"time_elapsed":158883,"internal_node_id":"0.0-8.0-0.10","subject":"0yq6718hvjkf1vf","sona":"9607"},{"rt":null,"stimulus":"<div style=\"font-size:60px;\">+</div>","key_press":null,"trial_type":"html-keyboard-response","trial_index":48,"time_elapsed":160886,"internal_node_id":"0.0-8.0-1.10","subject":"0yq6718hvjkf1vf","sona":"9607"},{"trial_type":"turing-test","trial_index":49,"time_elapsed":164162,"internal_node_id":"0.0-8.0-2.10","subject":"0yq6718hvjkf1vf","sona":"9607"},{"rt":473.1400000018766,"stimulus":"<p>Welche Sequenz haben Sie als natürlicher empfunden?</p>","key_press":74,"test_part":"response","test_stimulus":{"position":0,"left":"bvh/pass-bottle-hold-training0-lines.txt","right":"bvh/vr_prediction_models/model(dmp)-dataset(pass-bottle-hold)-npsi(50)-hold(0)/final-lines.txt","att_check":false},"trial_type":"html-keyboard-response","trial_index":50,"time_elapsed":164638,"internal_node_id":"0.0-8.0-3.10","subject":"0yq6718hvjkf1vf","sona":"9607"},{"rt":717.8999999996449,"stimulus":"<p>Bereit?</p>","key_press":32,"trial_type":"html-keyboard-response","trial_index":51,"time_elapsed":165358,"internal_node_id":"0.0-8.0-0.11","subject":"0yq6718hvjkf1vf","sona":"9607"},{"rt":null,"stimulus":"<div style=\"font-size:60px;\">+</div>","key_press":null,"trial_type":"html-keyboard-response","trial_index":52,"time_elapsed":167369,"internal_node_id":"0.0-8.0-1.11","subject":"0yq6718hvjkf1vf","sona":"9607"}]