[{"rt":7647.85499998834,"stimulus":"<p>Welcome!<br> Please choose your language to start the experiment in the chosen language.</p><p>Willkommen!<br> Bitte wählen Sie eine Sprache, um das Experiment in der ausgewählten Sprache zu starten</p>","button_pressed":"0","trial_type":"html-button-response","trial_index":0,"time_elapsed":7714,"internal_node_id":"0.0-0.0","subject":"3hc2pl12b4jyve3","sona":"6091"},{"view_history":"[{\"page_index\":0,\"viewing_time\":21907.010000024457},{\"page_index\":1,\"viewing_time\":6918.6399999889545},{\"page_index\":2,\"viewing_time\":8220.534999971278},{\"page_index\":3,\"viewing_time\":6659.719999996014},{\"page_index\":4,\"viewing_time\":3172.0600000116974}]","rt":46880.16499998048,"trial_type":"instructions","trial_index":1,"time_elapsed":54596,"internal_node_id":"0.0-2.0-0.0","subject":"3hc2pl12b4jyve3","sona":"6091"},{"rt":2768.0900000268593,"stimulus":"<p>Ready?</p>","key_press":32,"trial_type":"html-keyboard-response","trial_index":2,"time_elapsed":57368,"internal_node_id":"0.0-3.0","subject":"3hc2pl12b4jyve3","sona":"6091"},{"rt":null,"stimulus":"<div style=\"font-size:60px;\">+</div>","key_press":null,"trial_type":"html-keyboard-response","trial_index":3,"time_elapsed":59370,"internal_node_id":"0.0-4.0","subject":"3hc2pl12b4jyve3","sona":"6091"},{"trial_type":"training","trial_index":4,"time_elapsed":62887,"internal_node_id":"0.0-5.0","subject":"3hc2pl12b4jyve3","sona":"6091"},{"rt":4034.8399999784306,"stimulus":"<p>Which sequence did you perceive as more natural?</p>","key_press":70,"trial_type":"html-keyboard-response","trial_index":5,"time_elapsed":66924,"internal_node_id":"0.0-6.0","subject":"3hc2pl12b4jyve3","sona":"6091"},{"rt":8818.900000012945,"stimulus":"<p>The experiment starts now.</p><p><small>Please click the button if you are ready.</small></p>","button_pressed":"0","trial_type":"html-button-response","trial_index":6,"time_elapsed":75746,"internal_node_id":"0.0-7.0","subject":"3hc2pl12b4jyve3","sona":"6091"},{"rt":2197.010000003502,"stimulus":"<p>Ready?</p>","key_press":32,"trial_type":"html-keyboard-response","trial_index":7,"time_elapsed":77946,"internal_node_id":"0.0-8.0-0.0","subject":"3hc2pl12b4jyve3","sona":"6091"},{"rt":null,"stimulus":"<div style=\"font-size:60px;\">+</div>","key_press":null,"trial_type":"html-keyboard-response","trial_index":8,"time_elapsed":79951,"internal_node_id":"0.0-8.0-1.0","subject":"3hc2pl12b4jyve3","sona":"6091"},{"trial_type":"turing-test","trial_index":9,"time_elapsed":85945,"internal_node_id":"0.0-8.0-2.0","subject":"3hc2pl12b4jyve3","sona":"6091"},{"rt":1967.3099999781698,"stimulus":"<p>Which sequence did you perceive as more natural?</p>","key_press":74,"test_part":"response","test_stimulus":{"position":0,"left":"bvh/pass-bottle-training3-lines.txt","right":"bvh/vr_prediction_models/model(tmp)-dataset(pass-bottle)-numprim(9)-hold(3)/final-lines.txt","att_check":false},"trial_type":"html-keyboard-response","trial_index":10,"time_elapsed":87918,"internal_node_id":"0.0-8.0-3.0","subject":"3hc2pl12b4jyve3","sona":"6091"},{"rt":1045.990000013262,"stimulus":"<p>Ready?</p>","key_press":32,"trial_type":"html-keyboard-response","trial_index":11,"time_elapsed":88966,"internal_node_id":"0.0-8.0-0.1","subject":"3hc2pl12b4jyve3","sona":"6091"},{"rt":null,"stimulus":"<div style=\"font-size:60px;\">+</div>","key_press":null,"trial_type":"html-keyboard-response","trial_index":12,"time_elapsed":90971,"internal_node_id":"0.0-8.0-1.1","subject":"3hc2pl12b4jyve3","sona":"6091"},{"trial_type":"turing-test","trial_index":13,"time_elapsed":94513,"internal_node_id":"0.0-8.0-2.1","subject":"3hc2pl12b4jyve3","sona":"6091"},{"rt":780.0899999565445,"stimulus":"<p>Which sequence did you perceive as more natural?</p>","key_press":74,"test_part":"response","test_stimulus":{"position":1,"left":"bvh/vr_prediction_models/model(vcgpdm)-dataset(pass-bottle-hold)-mode(ELBO)-parts(1)-dyn(20)-lvm(5)-hold(1)/final-lines.txt","right":"bvh/pass-bottle-hold-training1-lines.txt","att_check":false},"trial_type":"html-keyboard-response","trial_index":14,"time_elapsed":95298,"internal_node_id":"0.0-8.0-3.1","subject":"3hc2pl12b4jyve3","sona":"6091"},{"rt":779.4250000151806,"stimulus":"<p>Ready?</p>","key_press":32,"trial_type":"html-keyboard-response","trial_index":15,"time_elapsed":96081,"internal_node_id":"0.0-8.0-0.2","subject":"3hc2pl12b4jyve3","sona":"6091"},{"rt":null,"stimulus":"<div style=\"font-size:60px;\">+</div>","key_press":null,"trial_type":"html-keyboard-response","trial_index":16,"time_elapsed":98084,"internal_node_id":"0.0-8.0-1.2","subject":"3hc2pl12b4jyve3","sona":"6091"},{"trial_type":"turing-test","trial_index":17,"time_elapsed":104233,"internal_node_id":"0.0-8.0-2.2","subject":"3hc2pl12b4jyve3","sona":"6091"},{"rt":442.3749999841675,"stimulus":"<p>Which sequence did you perceive as more natural?</p>","key_press":70,"test_part":"response","test_stimulus":{"position":0,"left":"bvh/pass-bottle-training2-lines.txt","right":"bvh/vr_prediction_models/model(tmp)-dataset(pass-bottle)-numprim(3)-hold(2)/final-lines.txt","att_check":false},"trial_type":"html-keyboard-response","trial_index":18,"time_elapsed":104678,"internal_node_id":"0.0-8.0-3.2","subject":"3hc2pl12b4jyve3","sona":"6091"},{"rt":496.0950000095181,"stimulus":"<p>Ready?</p>","key_press":32,"trial_type":"html-keyboard-response","trial_index":19,"time_elapsed":105176,"internal_node_id":"0.0-8.0-0.3","subject":"3hc2pl12b4jyve3","sona":"6091"},{"rt":null,"stimulus":"<div style=\"font-size:60px;\">+</div>","key_press":null,"trial_type":"html-keyboard-response","trial_index":20,"time_elapsed":107179,"internal_node_id":"0.0-8.0-1.3","subject":"3hc2pl12b4jyve3","sona":"6091"},{"trial_type":"turing-test","trial_index":21,"time_elapsed":113406,"internal_node_id":"0.0-8.0-2.3","subject":"3hc2pl12b4jyve3","sona":"6091"},{"rt":1946.0350000299513,"stimulus":"<p>Which sequence did you perceive as more natural?</p>","key_press":74,"test_part":"response","test_stimulus":{"position":0,"left":"bvh/return-bottle-training1-lines.txt","right":"bvh/vr_prediction_models/model(vcgpdm)-dataset(return-bottle)-mode(MAP)-parts(3)-hold(1)/final-lines.txt","att_check":false},"trial_type":"html-keyboard-response","trial_index":22,"time_elapsed":115355,"internal_node_id":"0.0-8.0-3.3","subject":"3hc2pl12b4jyve3","sona":"6091"},{"rt":522.2200000425801,"stimulus":"<p>Ready?</p>","key_press":32,"trial_type":"html-keyboard-response","trial_index":23,"time_elapsed":115881,"internal_node_id":"0.0-8.0-0.4","subject":"3hc2pl12b4jyve3","sona":"6091"},{"rt":null,"stimulus":"<div style=\"font-size:60px;\">+</div>","key_press":null,"trial_type":"html-keyboard-response","trial_index":24,"time_elapsed":117884,"internal_node_id":"0.0-8.0-1.4","subject":"3hc2pl12b4jyve3","sona":"6091"},{"trial_type":"turing-test","trial_index":25,"time_elapsed":124851,"internal_node_id":"0.0-8.0-2.4","subject":"3hc2pl12b4jyve3","sona":"6091"},{"rt":666.655000008177,"stimulus":"<p>Which sequence did you perceive as more natural?</p>","key_press":74,"test_part":"response","test_stimulus":{"position":1,"left":"bvh/vr_prediction_models/model(dmp)-dataset(pass-bottle)-npsi(10)-hold(0)/final-lines.txt","right":"bvh/pass-bottle-training0-lines.txt","att_check":false},"trial_type":"html-keyboard-response","trial_index":26,"time_elapsed":125522,"internal_node_id":"0.0-8.0-3.4","subject":"3hc2pl12b4jyve3","sona":"6091"},{"rt":453.80499999737367,"stimulus":"<p>Ready?</p>","key_press":32,"trial_type":"html-keyboard-response","trial_index":27,"time_elapsed":125980,"internal_node_id":"0.0-8.0-0.5","subject":"3hc2pl12b4jyve3","sona":"6091"},{"rt":null,"stimulus":"<div style=\"font-size:60px;\">+</div>","key_press":null,"trial_type":"html-keyboard-response","trial_index":28,"time_elapsed":127982,"internal_node_id":"0.0-8.0-1.5","subject":"3hc2pl12b4jyve3","sona":"6091"},{"trial_type":"turing-test","trial_index":29,"time_elapsed":131926,"internal_node_id":"0.0-8.0-2.5","subject":"3hc2pl12b4jyve3","sona":"6091"},{"rt":309.31499996222556,"stimulus":"<p>Which sequence did you perceive as more natural?</p>","key_press":74,"test_part":"response","test_stimulus":{"position":1,"left":"bvh/vr_prediction_models/model(vcgpdm)-dataset(return-bottle-hold)-mode(ELBO)-parts(3)-dyn(15)-lvm(30)-hold(3)/final-lines.txt","right":"bvh/return-bottle-hold-training3-lines.txt","att_check":false},"trial_type":"html-keyboard-response","trial_index":30,"time_elapsed":132240,"internal_node_id":"0.0-8.0-3.5","subject":"3hc2pl12b4jyve3","sona":"6091"},{"rt":404.6150000067428,"stimulus":"<p>Ready?</p>","key_press":32,"trial_type":"html-keyboard-response","trial_index":31,"time_elapsed":132648,"internal_node_id":"0.0-8.0-0.6","subject":"3hc2pl12b4jyve3","sona":"6091"},{"rt":null,"stimulus":"<div style=\"font-size:60px;\">+</div>","key_press":null,"trial_type":"html-keyboard-response","trial_index":32,"time_elapsed":134652,"internal_node_id":"0.0-8.0-1.6","subject":"3hc2pl12b4jyve3","sona":"6091"},{"trial_type":"turing-test","trial_index":33,"time_elapsed":141461,"internal_node_id":"0.0-8.0-2.6","subject":"3hc2pl12b4jyve3","sona":"6091"},{"rt":493.4050000156276,"stimulus":"<p>Which sequence did you perceive as more natural?</p>","key_press":74,"test_part":"response","test_stimulus":{"position":1,"left":"bvh/vr_prediction_models/model(dmp)-dataset(pass-bottle)-npsi(90)-hold(0)/final-lines.txt","right":"bvh/pass-bottle-training0-lines.txt","att_check":false},"trial_type":"html-keyboard-response","trial_index":34,"time_elapsed":141959,"internal_node_id":"0.0-8.0-3.6","subject":"3hc2pl12b4jyve3","sona":"6091"},{"rt":495.2049999847077,"stimulus":"<p>Ready?</p>","key_press":32,"trial_type":"html-keyboard-response","trial_index":35,"time_elapsed":142457,"internal_node_id":"0.0-8.0-0.7","subject":"3hc2pl12b4jyve3","sona":"6091"},{"rt":null,"stimulus":"<div style=\"font-size:60px;\">+</div>","key_press":null,"trial_type":"html-keyboard-response","trial_index":36,"time_elapsed":144462,"internal_node_id":"0.0-8.0-1.7","subject":"3hc2pl12b4jyve3","sona":"6091"},{"trial_type":"turing-test","trial_index":37,"time_elapsed":148340,"internal_node_id":"0.0-8.0-2.7","subject":"3hc2pl12b4jyve3","sona":"6091"},{"rt":606.3999999896623,"stimulus":"<p>Which sequence did you perceive as more natural?</p>","key_press":74,"test_part":"response","test_stimulus":{"position":1,"left":"bvh/vr_prediction_models/model(vcgpdm)-dataset(return-bottle-hold)-mode(ELBO)-parts(3)-dyn(10)-lvm(30)-hold(4)/final-lines.txt","right":"bvh/return-bottle-hold-training4-lines.txt","att_check":false},"trial_type":"html-keyboard-response","trial_index":38,"time_elapsed":148952,"internal_node_id":"0.0-8.0-3.7","subject":"3hc2pl12b4jyve3","sona":"6091"},{"rt":726.6599999857135,"stimulus":"<p>Ready?</p>","key_press":32,"trial_type":"html-keyboard-response","trial_index":39,"time_elapsed":149684,"internal_node_id":"0.0-8.0-0.8","subject":"3hc2pl12b4jyve3","sona":"6091"},{"rt":null,"stimulus":"<div style=\"font-size:60px;\">+</div>","key_press":null,"trial_type":"html-keyboard-response","trial_index":40,"time_elapsed":151686,"internal_node_id":"0.0-8.0-1.8","subject":"3hc2pl12b4jyve3","sona":"6091"},{"trial_type":"turing-test","trial_index":41,"time_elapsed":155510,"internal_node_id":"0.0-8.0-2.8","subject":"3hc2pl12b4jyve3","sona":"6091"},{"rt":1432.7349999803118,"stimulus":"<p>Which sequence did you perceive as more natural?</p>","key_press":74,"test_part":"response","test_stimulus":{"position":1,"left":"bvh/vr_prediction_models/model(tmp)-dataset(return-bottle-hold)-numprim(7)-hold(4)/final-lines.txt","right":"bvh/return-bottle-hold-training4-lines.txt","att_check":false},"trial_type":"html-keyboard-response","trial_index":42,"time_elapsed":156947,"internal_node_id":"0.0-8.0-3.8","subject":"3hc2pl12b4jyve3","sona":"6091"},{"rt":749.2700000293553,"stimulus":"<p>Ready?</p>","key_press":32,"trial_type":"html-keyboard-response","trial_index":43,"time_elapsed":157699,"internal_node_id":"0.0-8.0-0.9","subject":"3hc2pl12b4jyve3","sona":"6091"},{"rt":null,"stimulus":"<div style=\"font-size:60px;\">+</div>","key_press":null,"trial_type":"html-keyboard-response","trial_index":44,"time_elapsed":159703,"internal_node_id":"0.0-8.0-1.9","subject":"3hc2pl12b4jyve3","sona":"6091"},{"trial_type":"turing-test","trial_index":45,"time_elapsed":165271,"internal_node_id":"0.0-8.0-2.9","subject":"3hc2pl12b4jyve3","sona":"6091"},{"rt":732.0550000295043,"stimulus":"<p>Which sequence did you perceive as more natural?</p>","key_press":70,"test_part":"response","test_stimulus":{"position":0,"left":"bvh/pass-bottle-training1-lines.txt","right":"bvh/vr_prediction_models/model(tmp)-dataset(pass-bottle)-numprim(11)-hold(1)/final-lines.txt","att_check":false},"trial_type":"html-keyboard-response","trial_index":46,"time_elapsed":166008,"internal_node_id":"0.0-8.0-3.9","subject":"3hc2pl12b4jyve3","sona":"6091"},{"rt":442.8900000057183,"stimulus":"<p>Ready?</p>","key_press":32,"trial_type":"html-keyboard-response","trial_index":47,"time_elapsed":166453,"internal_node_id":"0.0-8.0-0.10","subject":"3hc2pl12b4jyve3","sona":"6091"},{"rt":null,"stimulus":"<div style=\"font-size:60px;\">+</div>","key_press":null,"trial_type":"html-keyboard-response","trial_index":48,"time_elapsed":168458,"internal_node_id":"0.0-8.0-1.10","subject":"3hc2pl12b4jyve3","sona":"6091"},{"trial_type":"turing-test","trial_index":49,"time_elapsed":174898,"internal_node_id":"0.0-8.0-2.10","subject":"3hc2pl12b4jyve3","sona":"6091"},{"rt":330.6950000114739,"stimulus":"<p>Which sequence did you perceive as more natural?</p>","key_press":70,"test_part":"response","test_stimulus":{"position":0,"left":"bvh/return-bottle-training1-lines.txt","right":"bvh/vr_prediction_models/model(vcgpdm)-dataset(return-bottle)-mode(ELBO)-parts(1)-dyn(30)-lvm(35)-hold(1)/final-lines.txt","att_check":false},"trial_type":"html-keyboard-response","trial_index":50,"time_elapsed":175235,"internal_node_id":"0.0-8.0-3.10","subject":"3hc2pl12b4jyve3","sona":"6091"},{"rt":553.8850000011735,"stimulus":"<p>Ready?</p>","key_press":32,"trial_type":"html-keyboard-response","trial_index":51,"time_elapsed":175796,"internal_node_id":"0.0-8.0-0.11","subject":"3hc2pl12b4jyve3","sona":"6091"},{"rt":null,"stimulus":"<div style=\"font-size:60px;\">+</div>","key_press":null,"trial_type":"html-keyboard-response","trial_index":52,"time_elapsed":177798,"internal_node_id":"0.0-8.0-1.11","subject":"3hc2pl12b4jyve3","sona":"6091"},{"trial_type":"turing-test","trial_index":53,"time_elapsed":181347,"internal_node_id":"0.0-8.0-2.11","subject":"3hc2pl12b4jyve3","sona":"6091"},{"rt":1061.5799999795854,"stimulus":"<p>Which sequence did you perceive as more natural?</p>","key_press":70,"test_part":"response","test_stimulus":{"position":0,"left":"bvh/return-bottle-hold-training2-lines.txt","right":"bvh/vr_prediction_models/model(tmp)-dataset(return-bottle-hold)-numprim(5)-hold(2)/final-lines.txt","att_check":false},"trial_type":"html-keyboard-response","trial_index":54,"time_elapsed":182414,"internal_node_id":"0.0-8.0-3.11","subject":"3hc2pl12b4jyve3","sona":"6091"},{"rt":324.1750000161119,"stimulus":"<p>Ready?</p>","key_press":32,"trial_type":"html-keyboard-response","trial_index":55,"time_elapsed":182742,"internal_node_id":"0.0-8.0-0.12","subject":"3hc2pl12b4jyve3","sona":"6091"},{"rt":null,"stimulus":"<div style=\"font-size:60px;\">+</div>","key_press":null,"trial_type":"html-keyboard-response","trial_index":56,"time_elapsed":184745,"internal_node_id":"0.0-8.0-1.12","subject":"3hc2pl12b4jyve3","sona":"6091"},{"trial_type":"turing-test","trial_index":57,"time_elapsed":190853,"internal_node_id":"0.0-8.0-2.12","subject":"3hc2pl12b4jyve3","sona":"6091"},{"rt":318.1349999504164,"stimulus":"<p>Which sequence did you perceive as more natural?</p>","key_press":70,"test_part":"response","test_stimulus":{"position":0,"left":"bvh/return-bottle-training1-lines.txt","right":"bvh/vr_prediction_models/model(tmp)-dataset(return-bottle)-numprim(13)-hold(1)/final-lines.txt","att_check":false},"trial_type":"html-keyboard-response","trial_index":58,"time_elapsed":191176,"internal_node_id":"0.0-8.0-3.12","subject":"3hc2pl12b4jyve3","sona":"6091"},{"rt":331.2850000220351,"stimulus":"<p>Ready?</p>","key_press":32,"trial_type":"html-keyboard-response","trial_index":59,"time_elapsed":191511,"internal_node_id":"0.0-8.0-0.13","subject":"3hc2pl12b4jyve3","sona":"6091"},{"rt":null,"stimulus":"<div style=\"font-size:60px;\">+</div>","key_press":null,"trial_type":"html-keyboard-response","trial_index":60,"time_elapsed":193516,"internal_node_id":"0.0-8.0-1.13","subject":"3hc2pl12b4jyve3","sona":"6091"},{"trial_type":"turing-test","trial_index":61,"time_elapsed":197450,"internal_node_id":"0.0-8.0-2.13","subject":"3hc2pl12b4jyve3","sona":"6091"},{"rt":500.4899999476038,"stimulus":"<p>Which sequence did you perceive as more natural?</p>","key_press":74,"test_part":"response","test_stimulus":{"position":1,"left":"bvh/vr_prediction_models/model(vcgpdm)-dataset(return-bottle-hold)-mode(ELBO)-parts(1)-dyn(35)-lvm(30)-hold(4)/final-lines.txt","right":"bvh/return-bottle-hold-training4-lines.txt","att_check":false},"trial_type":"html-keyboard-response","trial_index":62,"time_elapsed":197956,"internal_node_id":"0.0-8.0-3.13","subject":"3hc2pl12b4jyve3","sona":"6091"},{"rt":313.32000001566485,"stimulus":"<p>Ready?</p>","key_press":32,"trial_type":"html-keyboard-response","trial_index":63,"time_elapsed":198274,"internal_node_id":"0.0-8.0-0.14","subject":"3hc2pl12b4jyve3","sona":"6091"},{"rt":null,"stimulus":"<div style=\"font-size:60px;\">+</div>","key_press":null,"trial_type":"html-keyboard-response","trial_index":64,"time_elapsed":200278,"internal_node_id":"0.0-8.0-1.14","subject":"3hc2pl12b4jyve3","sona":"6091"},{"trial_type":"turing-test","trial_index":65,"time_elapsed":206156,"internal_node_id":"0.0-8.0-2.14","subject":"3hc2pl12b4jyve3","sona":"6091"},{"rt":1247.1800000057556,"stimulus":"<p>Which sequence did you perceive as more natural?</p>","key_press":70,"test_part":"response","test_stimulus":{"position":1,"left":"bvh/vr_prediction_models/model(tmp)-dataset(return-bottle)-numprim(6)-hold(3)/final-lines.txt","right":"bvh/return-bottle-training3-lines.txt","att_check":false},"trial_type":"html-keyboard-response","trial_index":66,"time_elapsed":207409,"internal_node_id":"0.0-8.0-3.14","subject":"3hc2pl12b4jyve3","sona":"6091"},{"rt":314.4600000232458,"stimulus":"<p>Ready?</p>","key_press":32,"trial_type":"html-keyboard-response","trial_index":67,"time_elapsed":207725,"internal_node_id":"0.0-8.0-0.15","subject":"3hc2pl12b4jyve3","sona":"6091"},{"rt":null,"stimulus":"<div style=\"font-size:60px;\">+</div>","key_press":null,"trial_type":"html-keyboard-response","trial_index":68,"time_elapsed":209730,"internal_node_id":"0.0-8.0-1.15","subject":"3hc2pl12b4jyve3","sona":"6091"},{"trial_type":"turing-test","trial_index":69,"time_elapsed":216025,"internal_node_id":"0.0-8.0-2.15","subject":"3hc2pl12b4jyve3","sona":"6091"},{"rt":2107.8100000158884,"stimulus":"<p>Which sequence did you perceive as more natural?</p>","key_press":70,"test_part":"response","test_stimulus":{"position":1,"left":"bvh/vr_prediction_models/model(vcgpdm)-dataset(return-bottle)-mode(ELBO)-parts(1)-dyn(35)-lvm(30)-hold(1)/final-lines.txt","right":"bvh/return-bottle-training1-lines.txt","att_check":false},"trial_type":"html-keyboard-response","trial_index":70,"time_elapsed":218139,"internal_node_id":"0.0-8.0-3.15","subject":"3hc2pl12b4jyve3","sona":"6091"},{"rt":371.5899999951944,"stimulus":"<p>Ready?</p>","key_press":32,"trial_type":"html-keyboard-response","trial_index":71,"time_elapsed":218514,"internal_node_id":"0.0-8.0-0.16","subject":"3hc2pl12b4jyve3","sona":"6091"},{"rt":null,"stimulus":"<div style=\"font-size:60px;\">+</div>","key_press":null,"trial_type":"html-keyboard-response","trial_index":72,"time_elapsed":220517,"internal_node_id":"0.0-8.0-1.16","subject":"3hc2pl12b4jyve3","sona":"6091"},{"trial_type":"turing-test","trial_index":73,"time_elapsed":224029,"internal_node_id":"0.0-8.0-2.16","subject":"3hc2pl12b4jyve3","sona":"6091"},{"rt":817.9699999745935,"stimulus":"<p>Which sequence did you perceive as more natural?</p>","key_press":74,"test_part":"response","test_stimulus":{"position":1,"left":"bvh/vr_prediction_models/model(tmp)-dataset(return-bottle-hold)-numprim(3)-hold(2)/final-lines.txt","right":"bvh/return-bottle-hold-training2-lines.txt","att_check":false},"trial_type":"html-keyboard-response","trial_index":74,"time_elapsed":224852,"internal_node_id":"0.0-8.0-3.16","subject":"3hc2pl12b4jyve3","sona":"6091"},{"rt":294.6499999961816,"stimulus":"<p>Ready?</p>","key_press":32,"trial_type":"html-keyboard-response","trial_index":75,"time_elapsed":225151,"internal_node_id":"0.0-8.0-0.17","subject":"3hc2pl12b4jyve3","sona":"6091"},{"rt":null,"stimulus":"<div style=\"font-size:60px;\">+</div>","key_press":null,"trial_type":"html-keyboard-response","trial_index":76,"time_elapsed":227155,"internal_node_id":"0.0-8.0-1.17","subject":"3hc2pl12b4jyve3","sona":"6091"},{"trial_type":"turing-test","trial_index":77,"time_elapsed":233045,"internal_node_id":"0.0-8.0-2.17","subject":"3hc2pl12b4jyve3","sona":"6091"},{"rt":291.434999962803,"stimulus":"<p>Which sequence did you perceive as more natural?</p>","key_press":74,"test_part":"response","test_stimulus":{"position":1,"left":"bvh/vr_prediction_models/model(dmp)-dataset(return-bottle)-npsi(10)-hold(4)/final-lines.txt","right":"bvh/return-bottle-training4-lines.txt","att_check":true},"trial_type":"html-keyboard-response","trial_index":78,"time_elapsed":233345,"internal_node_id":"0.0-8.0-3.17","subject":"3hc2pl12b4jyve3","sona":"6091"},{"rt":314.7649999591522,"stimulus":"<p>Ready?</p>","key_press":32,"trial_type":"html-keyboard-response","trial_index":79,"time_elapsed":233664,"internal_node_id":"0.0-8.0-0.18","subject":"3hc2pl12b4jyve3","sona":"6091"},{"rt":null,"stimulus":"<div style=\"font-size:60px;\">+</div>","key_press":null,"trial_type":"html-keyboard-response","trial_index":80,"time_elapsed":235667,"internal_node_id":"0.0-8.0-1.18","subject":"3hc2pl12b4jyve3","sona":"6091"},{"trial_type":"turing-test","trial_index":81,"time_elapsed":241078,"internal_node_id":"0.0-8.0-2.18","subject":"3hc2pl12b4jyve3","sona":"6091"},{"rt":1248.6350000253879,"stimulus":"<p>Which sequence did you perceive as more natural?</p>","key_press":74,"test_part":"response","test_stimulus":{"position":0,"left":"bvh/return-bottle-hold-training0-lines.txt","right":"bvh/vr_prediction_models/model(vcgpdm)-dataset(return-bottle-hold)-mode(ELBO)-parts(1)-dyn(25)-lvm(35)-hold(0)/final-lines.txt","att_check":false},"trial_type":"html-keyboard-response","trial_index":82,"time_elapsed":242332,"internal_node_id":"0.0-8.0-3.18","subject":"3hc2pl12b4jyve3","sona":"6091"},{"rt":318.4750000364147,"stimulus":"<p>Ready?</p>","key_press":32,"trial_type":"html-keyboard-response","trial_index":83,"time_elapsed":242655,"internal_node_id":"0.0-8.0-0.19","subject":"3hc2pl12b4jyve3","sona":"6091"},{"rt":null,"stimulus":"<div style=\"font-size:60px;\">+</div>","key_press":null,"trial_type":"html-keyboard-response","trial_index":84,"time_elapsed":244658,"internal_node_id":"0.0-8.0-1.19","subject":"3hc2pl12b4jyve3","sona":"6091"},{"trial_type":"turing-test","trial_index":85,"time_elapsed":248220,"internal_node_id":"0.0-8.0-2.19","subject":"3hc2pl12b4jyve3","sona":"6091"},{"rt":430.02500000875443,"stimulus":"<p>Which sequence did you perceive as more natural?</p>","key_press":70,"test_part":"response","test_stimulus":{"position":0,"left":"bvh/return-bottle-hold-training2-lines.txt","right":"bvh/vr_prediction_models/model(vcgpdm)-dataset(return-bottle-hold)-mode(ELBO)-parts(3)-dyn(20)-lvm(20)-hold(2)/final-lines.txt","att_check":false},"trial_type":"html-keyboard-response","trial_index":86,"time_elapsed":248655,"internal_node_id":"0.0-8.0-3.19","subject":"3hc2pl12b4jyve3","sona":"6091"},{"rt":288.60000002896413,"stimulus":"<p>Ready?</p>","key_press":32,"trial_type":"html-keyboard-response","trial_index":87,"time_elapsed":248949,"internal_node_id":"0.0-8.0-0.20","subject":"3hc2pl12b4jyve3","sona":"6091"},{"rt":null,"stimulus":"<div style=\"font-size:60px;\">+</div>","key_press":null,"trial_type":"html-keyboard-response","trial_index":88,"time_elapsed":250952,"internal_node_id":"0.0-8.0-1.20","subject":"3hc2pl12b4jyve3","sona":"6091"},{"trial_type":"turing-test","trial_index":89,"time_elapsed":254365,"internal_node_id":"0.0-8.0-2.20","subject":"3hc2pl12b4jyve3","sona":"6091"},{"rt":1192.6000000094064,"stimulus":"<p>Which sequence did you perceive as more natural?</p>","key_press":74,"test_part":"response","test_stimulus":{"position":0,"left":"bvh/pass-bottle-hold-training2-lines.txt","right":"bvh/vr_prediction_models/model(dmp)-dataset(pass-bottle-hold)-npsi(80)-hold(2)/final-lines.txt","att_check":false},"trial_type":"html-keyboard-response","trial_index":90,"time_elapsed":255563,"internal_node_id":"0.0-8.0-3.20","subject":"3hc2pl12b4jyve3","sona":"6091"},{"rt":324.07500001136214,"stimulus":"<p>Ready?</p>","key_press":32,"trial_type":"html-keyboard-response","trial_index":91,"time_elapsed":255891,"internal_node_id":"0.0-8.0-0.21","subject":"3hc2pl12b4jyve3","sona":"6091"},{"rt":null,"stimulus":"<div style=\"font-size:60px;\">+</div>","key_press":null,"trial_type":"html-keyboard-response","trial_index":92,"time_elapsed":257895,"internal_node_id":"0.0-8.0-1.21","subject":"3hc2pl12b4jyve3","sona":"6091"},{"trial_type":"turing-test","trial_index":93,"time_elapsed":261586,"internal_node_id":"0.0-8.0-2.21","subject":"3hc2pl12b4jyve3","sona":"6091"},{"rt":489.06500003067777,"stimulus":"<p>Which sequence did you perceive as more natural?</p>","key_press":70,"test_part":"response","test_stimulus":{"position":1,"left":"bvh/vr_prediction_models/model(dmp)-dataset(pass-bottle-hold)-npsi(40)-hold(4)/final-lines.txt","right":"bvh/pass-bottle-hold-training4-lines.txt","att_check":false},"trial_type":"html-keyboard-response","trial_index":94,"time_elapsed":262081,"internal_node_id":"0.0-8.0-3.21","subject":"3hc2pl12b4jyve3","sona":"6091"},{"rt":325.98999998299405,"stimulus":"<p>Ready?</p>","key_press":32,"trial_type":"html-keyboard-response","trial_index":95,"time_elapsed":262411,"internal_node_id":"0.0-8.0-0.22","subject":"3hc2pl12b4jyve3","sona":"6091"},{"rt":null,"stimulus":"<div style=\"font-size:60px;\">+</div>","key_press":null,"trial_type":"html-keyboard-response","trial_index":96,"time_elapsed":264414,"internal_node_id":"0.0-8.0-1.22","subject":"3hc2pl12b4jyve3","sona":"6091"},{"trial_type":"turing-test","trial_index":97,"time_elapsed":267984,"internal_node_id":"0.0-8.0-2.22","subject":"3hc2pl12b4jyve3","sona":"6091"},{"rt":850.6449999986216,"stimulus":"<p>Which sequence did you perceive as more natural?</p>","key_press":74,"test_part":"response","test_stimulus":{"position":1,"left":"bvh/vr_prediction_models/model(vcgpdm)-dataset(pass-bottle-hold)-mode(ELBO)-parts(1)-dyn(5)-lvm(5)-hold(0)/final-lines.txt","right":"bvh/pass-bottle-hold-training0-lines.txt","att_check":false},"trial_type":"html-keyboard-response","trial_index":98,"time_elapsed":268841,"internal_node_id":"0.0-8.0-3.22","subject":"3hc2pl12b4jyve3","sona":"6091"},{"rt":352.81000001123175,"stimulus":"<p>Ready?</p>","key_press":32,"trial_type":"html-keyboard-response","trial_index":99,"time_elapsed":269198,"internal_node_id":"0.0-8.0-0.23","subject":"3hc2pl12b4jyve3","sona":"6091"},{"rt":null,"stimulus":"<div style=\"font-size:60px;\">+</div>","key_press":null,"trial_type":"html-keyboard-response","trial_index":100,"time_elapsed":271202,"internal_node_id":"0.0-8.0-1.23","subject":"3hc2pl12b4jyve3","sona":"6091"},{"trial_type":"turing-test","trial_index":101,"time_elapsed":274677,"internal_node_id":"0.0-8.0-2.23","subject":"3hc2pl12b4jyve3","sona":"6091"},{"rt":558.7150000501424,"stimulus":"<p>Which sequence did you perceive as more natural?</p>","key_press":74,"test_part":"response","test_stimulus":{"position":0,"left":"bvh/pass-bottle-hold-training0-lines.txt","right":"bvh/vr_prediction_models/model(vcgpdm)-dataset(pass-bottle-hold)-mode(ELBO)-parts(1)-dyn(10)-lvm(25)-hold(0)/final-lines.txt","att_check":false},"trial_type":"html-keyboard-response","trial_index":102,"time_elapsed":275242,"internal_node_id":"0.0-8.0-3.23","subject":"3hc2pl12b4jyve3","sona":"6091"},{"rt":246.43499997910112,"stimulus":"<p>Ready?</p>","key_press":32,"trial_type":"html-keyboard-response","trial_index":103,"time_elapsed":275492,"internal_node_id":"0.0-8.0-0.24","subject":"3hc2pl12b4jyve3","sona":"6091"},{"rt":null,"stimulus":"<div style=\"font-size:60px;\">+</div>","key_press":null,"trial_type":"html-keyboard-response","trial_index":104,"time_elapsed":277497,"internal_node_id":"0.0-8.0-1.24","subject":"3hc2pl12b4jyve3","sona":"6091"},{"trial_type":"turing-test","trial_index":105,"time_elapsed":283202,"internal_node_id":"0.0-8.0-2.24","subject":"3hc2pl12b4jyve3","sona":"6091"},{"rt":361.45500000566244,"stimulus":"<p>Which sequence did you perceive as more natural?</p>","key_press":74,"test_part":"response","test_stimulus":{"position":1,"left":"bvh/vr_prediction_models/model(vcgpdm)-dataset(return-bottle)-mode(ELBO)-parts(1)-dyn(35)-lvm(30)-hold(0)/final-lines.txt","right":"bvh/return-bottle-training0-lines.txt","att_check":false},"trial_type":"html-keyboard-response","trial_index":106,"time_elapsed":283570,"internal_node_id":"0.0-8.0-3.24","subject":"3hc2pl12b4jyve3","sona":"6091"},{"rt":288.875000027474,"stimulus":"<p>Ready?</p>","key_press":32,"trial_type":"html-keyboard-response","trial_index":107,"time_elapsed":283863,"internal_node_id":"0.0-8.0-0.25","subject":"3hc2pl12b4jyve3","sona":"6091"},{"rt":null,"stimulus":"<div style=\"font-size:60px;\">+</div>","key_press":null,"trial_type":"html-keyboard-response","trial_index":108,"time_elapsed":285867,"internal_node_id":"0.0-8.0-1.25","subject":"3hc2pl12b4jyve3","sona":"6091"},{"trial_type":"turing-test","trial_index":109,"time_elapsed":292690,"internal_node_id":"0.0-8.0-2.25","subject":"3hc2pl12b4jyve3","sona":"6091"},{"rt":323.46500002313405,"stimulus":"<p>Which sequence did you perceive as more natural?</p>","key_press":70,"test_part":"response","test_stimulus":{"position":1,"left":"bvh/vr_prediction_models/model(vcgpdm)-dataset(return-bottle)-mode(ELBO)-parts(3)-dyn(30)-lvm(15)-hold(2)/final-lines.txt","right":"bvh/return-bottle-training2-lines.txt","att_check":false},"trial_type":"html-keyboard-response","trial_index":110,"time_elapsed":293019,"internal_node_id":"0.0-8.0-3.25","subject":"3hc2pl12b4jyve3","sona":"6091"},{"rt":257.1199999656528,"stimulus":"<p>Ready?</p>","key_press":32,"trial_type":"html-keyboard-response","trial_index":111,"time_elapsed":293279,"internal_node_id":"0.0-8.0-0.26","subject":"3hc2pl12b4jyve3","sona":"6091"},{"rt":null,"stimulus":"<div style=\"font-size:60px;\">+</div>","key_press":null,"trial_type":"html-keyboard-response","trial_index":112,"time_elapsed":295282,"internal_node_id":"0.0-8.0-1.26","subject":"3hc2pl12b4jyve3","sona":"6091"},{"trial_type":"turing-test","trial_index":113,"time_elapsed":301325,"internal_node_id":"0.0-8.0-2.26","subject":"3hc2pl12b4jyve3","sona":"6091"},{"rt":411.14500002004206,"stimulus":"<p>Which sequence did you perceive as more natural?</p>","key_press":74,"test_part":"response","test_stimulus":{"position":1,"left":"bvh/vr_prediction_models/model(vcgpdm)-dataset(return-bottle)-mode(ELBO)-parts(3)-dyn(35)-lvm(20)-hold(3)/final-lines.txt","right":"bvh/return-bottle-training3-lines.txt","att_check":false},"trial_type":"html-keyboard-response","trial_index":114,"time_elapsed":301744,"internal_node_id":"0.0-8.0-3.26","subject":"3hc2pl12b4jyve3","sona":"6091"},{"rt":248.85500001255423,"stimulus":"<p>Ready?</p>","key_press":32,"trial_type":"html-keyboard-response","trial_index":115,"time_elapsed":302001,"internal_node_id":"0.0-8.0-0.27","subject":"3hc2pl12b4jyve3","sona":"6091"},{"rt":null,"stimulus":"<div style=\"font-size:60px;\">+</div>","key_press":null,"trial_type":"html-keyboard-response","trial_index":116,"time_elapsed":304004,"internal_node_id":"0.0-8.0-1.27","subject":"3hc2pl12b4jyve3","sona":"6091"},{"trial_type":"turing-test","trial_index":117,"time_elapsed":309867,"internal_node_id":"0.0-8.0-2.27","subject":"3hc2pl12b4jyve3","sona":"6091"},{"rt":751.1949999607168,"stimulus":"<p>Which sequence did you perceive as more natural?</p>","key_press":74,"test_part":"response","test_stimulus":{"position":0,"left":"bvh/return-bottle-training4-lines.txt","right":"bvh/vr_prediction_models/model(tmp)-dataset(return-bottle)-numprim(13)-hold(4)/final-lines.txt","att_check":false},"trial_type":"html-keyboard-response","trial_index":118,"time_elapsed":310628,"internal_node_id":"0.0-8.0-3.27","subject":"3hc2pl12b4jyve3","sona":"6091"},{"rt":295.18000001553446,"stimulus":"<p>Ready?</p>","key_press":32,"trial_type":"html-keyboard-response","trial_index":119,"time_elapsed":310928,"internal_node_id":"0.0-8.0-0.28","subject":"3hc2pl12b4jyve3","sona":"6091"},{"rt":null,"stimulus":"<div style=\"font-size:60px;\">+</div>","key_press":null,"trial_type":"html-keyboard-response","trial_index":120,"time_elapsed":312932,"internal_node_id":"0.0-8.0-1.28","subject":"3hc2pl12b4jyve3","sona":"6091"},{"trial_type":"turing-test","trial_index":121,"time_elapsed":318780,"internal_node_id":"0.0-8.0-2.28","subject":"3hc2pl12b4jyve3","sona":"6091"},{"rt":950.8650000207126,"stimulus":"<p>Which sequence did you perceive as more natural?</p>","key_press":74,"test_part":"response","test_stimulus":{"position":1,"left":"bvh/vr_prediction_models/model(tmp)-dataset(return-bottle)-numprim(11)-hold(4)/final-lines.txt","right":"bvh/return-bottle-training4-lines.txt","att_check":false},"trial_type":"html-keyboard-response","trial_index":122,"time_elapsed":319738,"internal_node_id":"0.0-8.0-3.28","subject":"3hc2pl12b4jyve3","sona":"6091"},{"rt":587.5850000302307,"stimulus":"<p>Ready?</p>","key_press":32,"trial_type":"html-keyboard-response","trial_index":123,"time_elapsed":320333,"internal_node_id":"0.0-8.0-0.29","subject":"3hc2pl12b4jyve3","sona":"6091"},{"rt":null,"stimulus":"<div style=\"font-size:60px;\">+</div>","key_press":null,"trial_type":"html-keyboard-response","trial_index":124,"time_elapsed":322336,"internal_node_id":"0.0-8.0-1.29","subject":"3hc2pl12b4jyve3","sona":"6091"},{"trial_type":"turing-test","trial_index":125,"time_elapsed":326008,"internal_node_id":"0.0-8.0-2.29","subject":"3hc2pl12b4jyve3","sona":"6091"},{"rt":385.6150000356138,"stimulus":"<p>Which sequence did you perceive as more natural?</p>","key_press":74,"test_part":"response","test_stimulus":{"position":1,"left":"bvh/vr_prediction_models/model(vcgpdm)-dataset(pass-bottle-hold)-mode(ELBO)-parts(1)-dyn(10)-lvm(30)-hold(2)/final-lines.txt","right":"bvh/pass-bottle-hold-training2-lines.txt","att_check":false},"trial_type":"html-keyboard-response","trial_index":126,"time_elapsed":326400,"internal_node_id":"0.0-8.0-3.29","subject":"3hc2pl12b4jyve3","sona":"6091"},{"rt":232.929999998305,"stimulus":"<p>Ready?</p>","key_press":32,"trial_type":"html-keyboard-response","trial_index":127,"time_elapsed":326637,"internal_node_id":"0.0-8.0-0.30","subject":"3hc2pl12b4jyve3","sona":"6091"},{"rt":null,"stimulus":"<div style=\"font-size:60px;\">+</div>","key_press":null,"trial_type":"html-keyboard-response","trial_index":128,"time_elapsed":328640,"internal_node_id":"0.0-8.0-1.30","subject":"3hc2pl12b4jyve3","sona":"6091"},{"trial_type":"turing-test","trial_index":129,"time_elapsed":334133,"internal_node_id":"0.0-8.0-2.30","subject":"3hc2pl12b4jyve3","sona":"6091"},{"rt":472.41999994730577,"stimulus":"<p>Which sequence did you perceive as more natural?</p>","key_press":70,"test_part":"response","test_stimulus":{"position":0,"left":"bvh/pass-bottle-training1-lines.txt","right":"bvh/vr_prediction_models/model(dmp)-dataset(pass-bottle)-npsi(100)-hold(1)/final-lines.txt","att_check":false},"trial_type":"html-keyboard-response","trial_index":130,"time_elapsed":334616,"internal_node_id":"0.0-8.0-3.30","subject":"3hc2pl12b4jyve3","sona":"6091"},{"rt":263.924999977462,"stimulus":"<p>Ready?</p>","key_press":32,"trial_type":"html-keyboard-response","trial_index":131,"time_elapsed":334885,"internal_node_id":"0.0-8.0-0.31","subject":"3hc2pl12b4jyve3","sona":"6091"},{"rt":null,"stimulus":"<div style=\"font-size:60px;\">+</div>","key_press":null,"trial_type":"html-keyboard-response","trial_index":132,"time_elapsed":336887,"internal_node_id":"0.0-8.0-1.31","subject":"3hc2pl12b4jyve3","sona":"6091"},{"trial_type":"turing-test","trial_index":133,"time_elapsed":340525,"internal_node_id":"0.0-8.0-2.31","subject":"3hc2pl12b4jyve3","sona":"6091"},{"rt":361.45500000566244,"stimulus":"<p>Which sequence did you perceive as more natural?</p>","key_press":74,"test_part":"response","test_stimulus":{"position":1,"left":"bvh/vr_prediction_models/model(vcgpdm)-dataset(return-bottle-hold)-mode(ELBO)-parts(1)-dyn(30)-lvm(20)-hold(1)/final-lines.txt","right":"bvh/return-bottle-hold-training1-lines.txt","att_check":false},"trial_type":"html-keyboard-response","trial_index":134,"time_elapsed":340890,"internal_node_id":"0.0-8.0-3.31","subject":"3hc2pl12b4jyve3","sona":"6091"},{"rt":232.4149999767542,"stimulus":"<p>Ready?</p>","key_press":32,"trial_type":"html-keyboard-response","trial_index":135,"time_elapsed":341127,"internal_node_id":"0.0-8.0-0.32","subject":"3hc2pl12b4jyve3","sona":"6091"},{"rt":null,"stimulus":"<div style=\"font-size:60px;\">+</div>","key_press":null,"trial_type":"html-keyboard-response","trial_index":136,"time_elapsed":343131,"internal_node_id":"0.0-8.0-1.32","subject":"3hc2pl12b4jyve3","sona":"6091"},{"trial_type":"turing-test","trial_index":137,"time_elapsed":346773,"internal_node_id":"0.0-8.0-2.32","subject":"3hc2pl12b4jyve3","sona":"6091"},{"rt":892.2800000291318,"stimulus":"<p>Which sequence did you perceive as more natural?</p>","key_press":70,"test_part":"response","test_stimulus":{"position":1,"left":"bvh/vr_prediction_models/model(vcgpdm)-dataset(return-bottle-hold)-mode(ELBO)-parts(3)-dyn(25)-lvm(15)-hold(2)/final-lines.txt","right":"bvh/return-bottle-hold-training2-lines.txt","att_check":false},"trial_type":"html-keyboard-response","trial_index":138,"time_elapsed":347672,"internal_node_id":"0.0-8.0-3.32","subject":"3hc2pl12b4jyve3","sona":"6091"},{"rt":258.3849999937229,"stimulus":"<p>Ready?</p>","key_press":32,"trial_type":"html-keyboard-response","trial_index":139,"time_elapsed":347935,"internal_node_id":"0.0-8.0-0.33","subject":"3hc2pl12b4jyve3","sona":"6091"},{"rt":null,"stimulus":"<div style=\"font-size:60px;\">+</div>","key_press":null,"trial_type":"html-keyboard-response","trial_index":140,"time_elapsed":349938,"internal_node_id":"0.0-8.0-1.33","subject":"3hc2pl12b4jyve3","sona":"6091"},{"trial_type":"turing-test","trial_index":141,"time_elapsed":353734,"internal_node_id":"0.0-8.0-2.33","subject":"3hc2pl12b4jyve3","sona":"6091"},{"rt":525.0599999562837,"stimulus":"<p>Which sequence did you perceive as more natural?</p>","key_press":70,"test_part":"response","test_stimulus":{"position":0,"left":"bvh/return-bottle-hold-training4-lines.txt","right":"bvh/vr_prediction_models/model(tmp)-dataset(return-bottle-hold)-numprim(15)-hold(4)/final-lines.txt","att_check":false},"trial_type":"html-keyboard-response","trial_index":142,"time_elapsed":354265,"internal_node_id":"0.0-8.0-3.33","subject":"3hc2pl12b4jyve3","sona":"6091"},{"rt":274.8499999870546,"stimulus":"<p>Ready?</p>","key_press":32,"trial_type":"html-keyboard-response","trial_index":143,"time_elapsed":354543,"internal_node_id":"0.0-8.0-0.34","subject":"3hc2pl12b4jyve3","sona":"6091"},{"rt":null,"stimulus":"<div style=\"font-size:60px;\">+</div>","key_press":null,"trial_type":"html-keyboard-response","trial_index":144,"time_elapsed":356547,"internal_node_id":"0.0-8.0-1.34","subject":"3hc2pl12b4jyve3","sona":"6091"},{"trial_type":"turing-test","trial_index":145,"time_elapsed":362375,"internal_node_id":"0.0-8.0-2.34","subject":"3hc2pl12b4jyve3","sona":"6091"},{"rt":371.25000002561137,"stimulus":"<p>Which sequence did you perceive as more natural?</p>","key_press":70,"test_part":"response","test_stimulus":{"position":0,"left":"bvh/pass-bottle-training4-lines.txt","right":"bvh/vr_prediction_models/model(dmp)-dataset(pass-bottle)-npsi(80)-hold(4)/final-lines.txt","att_check":false},"trial_type":"html-keyboard-response","trial_index":146,"time_elapsed":362753,"internal_node_id":"0.0-8.0-3.34","subject":"3hc2pl12b4jyve3","sona":"6091"},{"rt":284.5499999821186,"stimulus":"<p>Ready?</p>","key_press":32,"trial_type":"html-keyboard-response","trial_index":147,"time_elapsed":363043,"internal_node_id":"0.0-8.0-0.35","subject":"3hc2pl12b4jyve3","sona":"6091"},{"rt":null,"stimulus":"<div style=\"font-size:60px;\">+</div>","key_press":null,"trial_type":"html-keyboard-response","trial_index":148,"time_elapsed":365046,"internal_node_id":"0.0-8.0-1.35","subject":"3hc2pl12b4jyve3","sona":"6091"},{"trial_type":"turing-test","trial_index":149,"time_elapsed":370541,"internal_node_id":"0.0-8.0-2.35","subject":"3hc2pl12b4jyve3","sona":"6091"},{"rt":428.5000000381842,"stimulus":"<p>Which sequence did you perceive as more natural?</p>","key_press":74,"test_part":"response","test_stimulus":{"position":1,"left":"bvh/vr_prediction_models/model(dmp)-dataset(return-bottle)-npsi(80)-hold(0)/final-lines.txt","right":"bvh/return-bottle-training0-lines.txt","att_check":false},"trial_type":"html-keyboard-response","trial_index":150,"time_elapsed":370979,"internal_node_id":"0.0-8.0-3.35","subject":"3hc2pl12b4jyve3","sona":"6091"},{"rt":318.67000000784174,"stimulus":"<p>Ready?</p>","key_press":32,"trial_type":"html-keyboard-response","trial_index":151,"time_elapsed":371302,"internal_node_id":"0.0-8.0-0.36","subject":"3hc2pl12b4jyve3","sona":"6091"},{"rt":null,"stimulus":"<div style=\"font-size:60px;\">+</div>","key_press":null,"trial_type":"html-keyboard-response","trial_index":152,"time_elapsed":373306,"internal_node_id":"0.0-8.0-1.36","subject":"3hc2pl12b4jyve3","sona":"6091"},{"trial_type":"turing-test","trial_index":153,"time_elapsed":380281,"internal_node_id":"0.0-8.0-2.36","subject":"3hc2pl12b4jyve3","sona":"6091"},{"rt":551.6799999750219,"stimulus":"<p>Which sequence did you perceive as more natural?</p>","key_press":74,"test_part":"response","test_stimulus":{"position":1,"left":"bvh/vr_prediction_models/model(vcgpdm)-dataset(pass-bottle)-mode(ELBO)-parts(1)-dyn(20)-lvm(30)-hold(0)/final-lines.txt","right":"bvh/pass-bottle-training0-lines.txt","att_check":false},"trial_type":"html-keyboard-response","trial_index":154,"time_elapsed":380840,"internal_node_id":"0.0-8.0-3.36","subject":"3hc2pl12b4jyve3","sona":"6091"},{"rt":297.88999998709187,"stimulus":"<p>Ready?</p>","key_press":32,"trial_type":"html-keyboard-response","trial_index":155,"time_elapsed":381143,"internal_node_id":"0.0-8.0-0.37","subject":"3hc2pl12b4jyve3","sona":"6091"},{"rt":null,"stimulus":"<div style=\"font-size:60px;\">+</div>","key_press":null,"trial_type":"html-keyboard-response","trial_index":156,"time_elapsed":383147,"internal_node_id":"0.0-8.0-1.37","subject":"3hc2pl12b4jyve3","sona":"6091"},{"trial_type":"turing-test","trial_index":157,"time_elapsed":386696,"internal_node_id":"0.0-8.0-2.37","subject":"3hc2pl12b4jyve3","sona":"6091"},{"rt":254.50999999884516,"stimulus":"<p>Which sequence did you perceive as more natural?</p>","key_press":70,"test_part":"response","test_stimulus":{"position":0,"left":"bvh/pass-bottle-hold-training0-lines.txt","right":"bvh/vr_prediction_models/model(vcgpdm)-dataset(pass-bottle-hold)-mode(MAP)-parts(3)-hold(0)/final-lines.txt","att_check":false},"trial_type":"html-keyboard-response","trial_index":158,"time_elapsed":386957,"internal_node_id":"0.0-8.0-3.37","subject":"3hc2pl12b4jyve3","sona":"6091"},{"rt":302.20500001451,"stimulus":"<p>Ready?</p>","key_press":32,"trial_type":"html-keyboard-response","trial_index":159,"time_elapsed":387268,"internal_node_id":"0.0-8.0-0.38","subject":"3hc2pl12b4jyve3","sona":"6091"},{"rt":null,"stimulus":"<div style=\"font-size:60px;\">+</div>","key_press":null,"trial_type":"html-keyboard-response","trial_index":160,"time_elapsed":389271,"internal_node_id":"0.0-8.0-1.38","subject":"3hc2pl12b4jyve3","sona":"6091"},{"trial_type":"turing-test","trial_index":161,"time_elapsed":393209,"internal_node_id":"0.0-8.0-2.38","subject":"3hc2pl12b4jyve3","sona":"6091"},{"rt":565.8650000113994,"stimulus":"<p>Which sequence did you perceive as more natural?</p>","key_press":74,"test_part":"response","test_stimulus":{"position":1,"left":"bvh/vr_prediction_models/model(vcgpdm)-dataset(return-bottle-hold)-mode(ELBO)-parts(3)-dyn(25)-lvm(30)-hold(4)/final-lines.txt","right":"bvh/return-bottle-hold-training4-lines.txt","att_check":false},"trial_type":"html-keyboard-response","trial_index":162,"time_elapsed":393782,"internal_node_id":"0.0-8.0-3.38","subject":"3hc2pl12b4jyve3","sona":"6091"},{"rt":704.0399999823421,"stimulus":"<p>Ready?</p>","key_press":32,"trial_type":"html-keyboard-response","trial_index":163,"time_elapsed":394491,"internal_node_id":"0.0-8.0-0.39","subject":"3hc2pl12b4jyve3","sona":"6091"},{"rt":null,"stimulus":"<div style=\"font-size:60px;\">+</div>","key_press":null,"trial_type":"html-keyboard-response","trial_index":164,"time_elapsed":396494,"internal_node_id":"0.0-8.0-1.39","subject":"3hc2pl12b4jyve3","sona":"6091"},{"trial_type":"turing-test","trial_index":165,"time_elapsed":403277,"internal_node_id":"0.0-8.0-2.39","subject":"3hc2pl12b4jyve3","sona":"6091"},{"rt":407.2400000295602,"stimulus":"<p>Which sequence did you perceive as more natural?</p>","key_press":70,"test_part":"response","test_stimulus":{"position":0,"left":"bvh/pass-bottle-training0-lines.txt","right":"bvh/vr_prediction_models/model(dmp)-dataset(pass-bottle)-npsi(80)-hold(0)/final-lines.txt","att_check":false},"trial_type":"html-keyboard-response","trial_index":166,"time_elapsed":403694,"internal_node_id":"0.0-8.0-3.39","subject":"3hc2pl12b4jyve3","sona":"6091"},{"rt":287.81999996863306,"stimulus":"<p>Ready?</p>","key_press":32,"trial_type":"html-keyboard-response","trial_index":167,"time_elapsed":403987,"internal_node_id":"0.0-8.0-0.40","subject":"3hc2pl12b4jyve3","sona":"6091"},{"rt":null,"stimulus":"<div style=\"font-size:60px;\">+</div>","key_press":null,"trial_type":"html-keyboard-response","trial_index":168,"time_elapsed":405990,"internal_node_id":"0.0-8.0-1.40","subject":"3hc2pl12b4jyve3","sona":"6091"},{"trial_type":"turing-test","trial_index":169,"time_elapsed":409710,"internal_node_id":"0.0-8.0-2.40","subject":"3hc2pl12b4jyve3","sona":"6091"},{"rt":2524.2699999944307,"stimulus":"<p>Which sequence did you perceive as more natural?</p>","key_press":70,"test_part":"response","test_stimulus":{"position":1,"left":"bvh/vr_prediction_models/model(dmp)-dataset(return-bottle-hold)-npsi(10)-hold(3)/final-lines.txt","right":"bvh/return-bottle-hold-training3-lines.txt","att_check":false},"trial_type":"html-keyboard-response","trial_index":170,"time_elapsed":412240,"internal_node_id":"0.0-8.0-3.40","subject":"3hc2pl12b4jyve3","sona":"6091"},{"rt":304.9899999750778,"stimulus":"<p>Ready?</p>","key_press":32,"trial_type":"html-keyboard-response","trial_index":171,"time_elapsed":412555,"internal_node_id":"0.0-8.0-0.41","subject":"3hc2pl12b4jyve3","sona":"6091"},{"rt":null,"stimulus":"<div style=\"font-size:60px;\">+</div>","key_press":null,"trial_type":"html-keyboard-response","trial_index":172,"time_elapsed":414560,"internal_node_id":"0.0-8.0-1.41","subject":"3hc2pl12b4jyve3","sona":"6091"},{"trial_type":"turing-test","trial_index":173,"time_elapsed":418235,"internal_node_id":"0.0-8.0-2.41","subject":"3hc2pl12b4jyve3","sona":"6091"},{"rt":460.9899999923073,"stimulus":"<p>Which sequence did you perceive as more natural?</p>","key_press":70,"test_part":"response","test_stimulus":{"position":1,"left":"bvh/vr_prediction_models/model(dmp)-dataset(pass-bottle-hold)-npsi(40)-hold(3)/final-lines.txt","right":"bvh/pass-bottle-hold-training3-lines.txt","att_check":false},"trial_type":"html-keyboard-response","trial_index":174,"time_elapsed":418700,"internal_node_id":"0.0-8.0-3.41","subject":"3hc2pl12b4jyve3","sona":"6091"},{"rt":221.23000002466142,"stimulus":"<p>Ready?</p>","key_press":32,"trial_type":"html-keyboard-response","trial_index":175,"time_elapsed":418926,"internal_node_id":"0.0-8.0-0.42","subject":"3hc2pl12b4jyve3","sona":"6091"},{"rt":null,"stimulus":"<div style=\"font-size:60px;\">+</div>","key_press":null,"trial_type":"html-keyboard-response","trial_index":176,"time_elapsed":420929,"internal_node_id":"0.0-8.0-1.42","subject":"3hc2pl12b4jyve3","sona":"6091"},{"trial_type":"turing-test","trial_index":177,"time_elapsed":424382,"internal_node_id":"0.0-8.0-2.42","subject":"3hc2pl12b4jyve3","sona":"6091"},{"rt":1085.5299999821,"stimulus":"<p>Which sequence did you perceive as more natural?</p>","key_press":70,"test_part":"response","test_stimulus":{"position":1,"left":"bvh/vr_prediction_models/model(tmp)-dataset(return-bottle-hold)-numprim(10)-hold(2)/final-lines.txt","right":"bvh/return-bottle-hold-training2-lines.txt","att_check":false},"trial_type":"html-keyboard-response","trial_index":178,"time_elapsed":425471,"internal_node_id":"0.0-8.0-3.42","subject":"3hc2pl12b4jyve3","sona":"6091"},{"rt":179.76500000804663,"stimulus":"<p>Ready?</p>","key_press":32,"trial_type":"html-keyboard-response","trial_index":179,"time_elapsed":425654,"internal_node_id":"0.0-8.0-0.43","subject":"3hc2pl12b4jyve3","sona":"6091"},{"rt":null,"stimulus":"<div style=\"font-size:60px;\">+</div>","key_press":null,"trial_type":"html-keyboard-response","trial_index":180,"time_elapsed":427658,"internal_node_id":"0.0-8.0-1.43","subject":"3hc2pl12b4jyve3","sona":"6091"},{"trial_type":"turing-test","trial_index":181,"time_elapsed":431404,"internal_node_id":"0.0-8.0-2.43","subject":"3hc2pl12b4jyve3","sona":"6091"},{"rt":1229.2000000015832,"stimulus":"<p>Which sequence did you perceive as more natural?</p>","key_press":74,"test_part":"response","test_stimulus":{"position":0,"left":"bvh/pass-bottle-hold-training4-lines.txt","right":"bvh/vr_prediction_models/model(vcgpdm)-dataset(pass-bottle-hold)-mode(ELBO)-parts(3)-dyn(25)-lvm(30)-hold(4)/final-lines.txt","att_check":false},"trial_type":"html-keyboard-response","trial_index":182,"time_elapsed":432637,"internal_node_id":"0.0-8.0-3.43","subject":"3hc2pl12b4jyve3","sona":"6091"},{"rt":443.78999999025837,"stimulus":"<p>Ready?</p>","key_press":32,"trial_type":"html-keyboard-response","trial_index":183,"time_elapsed":433083,"internal_node_id":"0.0-8.0-0.44","subject":"3hc2pl12b4jyve3","sona":"6091"},{"rt":null,"stimulus":"<div style=\"font-size:60px;\">+</div>","key_press":null,"trial_type":"html-keyboard-response","trial_index":184,"time_elapsed":435085,"internal_node_id":"0.0-8.0-1.44","subject":"3hc2pl12b4jyve3","sona":"6091"},{"trial_type":"turing-test","trial_index":185,"time_elapsed":440952,"internal_node_id":"0.0-8.0-2.44","subject":"3hc2pl12b4jyve3","sona":"6091"},{"rt":1470.5899999826215,"stimulus":"<p>Which sequence did you perceive as more natural?</p>","key_press":74,"test_part":"response","test_stimulus":{"position":0,"left":"bvh/pass-bottle-training3-lines.txt","right":"bvh/vr_prediction_models/model(dmp)-dataset(pass-bottle)-npsi(60)-hold(3)/final-lines.txt","att_check":false},"trial_type":"html-keyboard-response","trial_index":186,"time_elapsed":442429,"internal_node_id":"0.0-8.0-3.44","subject":"3hc2pl12b4jyve3","sona":"6091"},{"rt":264.5899999770336,"stimulus":"<p>Ready?</p>","key_press":32,"trial_type":"html-keyboard-response","trial_index":187,"time_elapsed":442707,"internal_node_id":"0.0-8.0-0.45","subject":"3hc2pl12b4jyve3","sona":"6091"},{"rt":null,"stimulus":"<div style=\"font-size:60px;\">+</div>","key_press":null,"trial_type":"html-keyboard-response","trial_index":188,"time_elapsed":444711,"internal_node_id":"0.0-8.0-1.45","subject":"3hc2pl12b4jyve3","sona":"6091"},{"trial_type":"turing-test","trial_index":189,"time_elapsed":450674,"internal_node_id":"0.0-8.0-2.45","subject":"3hc2pl12b4jyve3","sona":"6091"},{"rt":501.95499998517334,"stimulus":"<p>Which sequence did you perceive as more natural?</p>","key_press":74,"test_part":"response","test_stimulus":{"position":1,"left":"bvh/vr_prediction_models/model(vcgpdm)-dataset(return-bottle)-mode(ELBO)-parts(1)-dyn(20)-lvm(20)-hold(3)/final-lines.txt","right":"bvh/return-bottle-training3-lines.txt","att_check":false},"trial_type":"html-keyboard-response","trial_index":190,"time_elapsed":451182,"internal_node_id":"0.0-8.0-3.45","subject":"3hc2pl12b4jyve3","sona":"6091"},{"rt":299.00500003714114,"stimulus":"<p>Ready?</p>","key_press":32,"trial_type":"html-keyboard-response","trial_index":191,"time_elapsed":451486,"internal_node_id":"0.0-8.0-0.46","subject":"3hc2pl12b4jyve3","sona":"6091"},{"rt":null,"stimulus":"<div style=\"font-size:60px;\">+</div>","key_press":null,"trial_type":"html-keyboard-response","trial_index":192,"time_elapsed":453489,"internal_node_id":"0.0-8.0-1.46","subject":"3hc2pl12b4jyve3","sona":"6091"},{"trial_type":"turing-test","trial_index":193,"time_elapsed":456874,"internal_node_id":"0.0-8.0-2.46","subject":"3hc2pl12b4jyve3","sona":"6091"},{"rt":405.399999988731,"stimulus":"<p>Which sequence did you perceive as more natural?</p>","key_press":70,"test_part":"response","test_stimulus":{"position":0,"left":"bvh/pass-bottle-hold-training0-lines.txt","right":"bvh/vr_prediction_models/model(tmp)-dataset(pass-bottle-hold)-numprim(5)-hold(0)/final-lines.txt","att_check":false},"trial_type":"html-keyboard-response","trial_index":194,"time_elapsed":457283,"internal_node_id":"0.0-8.0-3.46","subject":"3hc2pl12b4jyve3","sona":"6091"},{"rt":259.8299999954179,"stimulus":"<p>Ready?</p>","key_press":32,"trial_type":"html-keyboard-response","trial_index":195,"time_elapsed":457549,"internal_node_id":"0.0-8.0-0.47","subject":"3hc2pl12b4jyve3","sona":"6091"},{"rt":null,"stimulus":"<div style=\"font-size:60px;\">+</div>","key_press":null,"trial_type":"html-keyboard-response","trial_index":196,"time_elapsed":459553,"internal_node_id":"0.0-8.0-1.47","subject":"3hc2pl12b4jyve3","sona":"6091"},{"trial_type":"turing-test","trial_index":197,"time_elapsed":463002,"internal_node_id":"0.0-8.0-2.47","subject":"3hc2pl12b4jyve3","sona":"6091"},{"rt":397.8699999861419,"stimulus":"<p>Which sequence did you perceive as more natural?</p>","key_press":70,"test_part":"response","test_stimulus":{"position":0,"left":"bvh/pass-bottle-hold-training1-lines.txt","right":"bvh/vr_prediction_models/model(vcgpdm)-dataset(pass-bottle-hold)-mode(ELBO)-parts(1)-dyn(10)-lvm(30)-hold(1)/final-lines.txt","att_check":false},"trial_type":"html-keyboard-response","trial_index":198,"time_elapsed":463408,"internal_node_id":"0.0-8.0-3.47","subject":"3hc2pl12b4jyve3","sona":"6091"},{"rt":184.65000001015142,"stimulus":"<p>Ready?</p>","key_press":32,"trial_type":"html-keyboard-response","trial_index":199,"time_elapsed":463599,"internal_node_id":"0.0-8.0-0.48","subject":"3hc2pl12b4jyve3","sona":"6091"},{"rt":null,"stimulus":"<div style=\"font-size:60px;\">+</div>","key_press":null,"trial_type":"html-keyboard-response","trial_index":200,"time_elapsed":465602,"internal_node_id":"0.0-8.0-1.48","subject":"3hc2pl12b4jyve3","sona":"6091"},{"trial_type":"turing-test","trial_index":201,"time_elapsed":469213,"internal_node_id":"0.0-8.0-2.48","subject":"3hc2pl12b4jyve3","sona":"6091"},{"rt":453.83999997284263,"stimulus":"<p>Which sequence did you perceive as more natural?</p>","key_press":74,"test_part":"response","test_stimulus":{"position":0,"left":"bvh/pass-bottle-hold-training3-lines.txt","right":"bvh/vr_prediction_models/model(dmp)-dataset(pass-bottle-hold)-npsi(90)-hold(3)/final-lines.txt","att_check":false},"trial_type":"html-keyboard-response","trial_index":202,"time_elapsed":469674,"internal_node_id":"0.0-8.0-3.48","subject":"3hc2pl12b4jyve3","sona":"6091"},{"rt":240.09999999543652,"stimulus":"<p>Ready?</p>","key_press":32,"trial_type":"html-keyboard-response","trial_index":203,"time_elapsed":469922,"internal_node_id":"0.0-8.0-0.49","subject":"3hc2pl12b4jyve3","sona":"6091"},{"rt":null,"stimulus":"<div style=\"font-size:60px;\">+</div>","key_press":null,"trial_type":"html-keyboard-response","trial_index":204,"time_elapsed":471926,"internal_node_id":"0.0-8.0-1.49","subject":"3hc2pl12b4jyve3","sona":"6091"},{"trial_type":"turing-test","trial_index":205,"time_elapsed":475400,"internal_node_id":"0.0-8.0-2.49","subject":"3hc2pl12b4jyve3","sona":"6091"},{"rt":358.55999996419996,"stimulus":"<p>Which sequence did you perceive as more natural?</p>","key_press":70,"test_part":"response","test_stimulus":{"position":0,"left":"bvh/pass-bottle-hold-training2-lines.txt","right":"bvh/vr_prediction_models/model(vcgpdm)-dataset(pass-bottle-hold)-mode(ELBO)-parts(3)-dyn(25)-lvm(30)-hold(2)/final-lines.txt","att_check":false},"trial_type":"html-keyboard-response","trial_index":206,"time_elapsed":475767,"internal_node_id":"0.0-8.0-3.49","subject":"3hc2pl12b4jyve3","sona":"6091"},{"rt":332.83000002847984,"stimulus":"<p>Ready?</p>","key_press":32,"trial_type":"html-keyboard-response","trial_index":207,"time_elapsed":476106,"internal_node_id":"0.0-8.0-0.50","subject":"3hc2pl12b4jyve3","sona":"6091"},{"rt":null,"stimulus":"<div style=\"font-size:60px;\">+</div>","key_press":null,"trial_type":"html-keyboard-response","trial_index":208,"time_elapsed":478109,"internal_node_id":"0.0-8.0-1.50","subject":"3hc2pl12b4jyve3","sona":"6091"},{"trial_type":"turing-test","trial_index":209,"time_elapsed":481347,"internal_node_id":"0.0-8.0-2.50","subject":"3hc2pl12b4jyve3","sona":"6091"},{"rt":887.1449999860488,"stimulus":"<p>Which sequence did you perceive as more natural?</p>","key_press":74,"test_part":"response","test_stimulus":{"position":1,"left":"bvh/vr_prediction_models/model(dmp)-dataset(pass-bottle-hold)-npsi(60)-hold(1)/final-lines.txt","right":"bvh/pass-bottle-hold-training1-lines.txt","att_check":true},"trial_type":"html-keyboard-response","trial_index":210,"time_elapsed":482241,"internal_node_id":"0.0-8.0-3.50","subject":"3hc2pl12b4jyve3","sona":"6091"},{"rt":827.614999958314,"stimulus":"<p>Ready?</p>","key_press":32,"trial_type":"html-keyboard-response","trial_index":211,"time_elapsed":483075,"internal_node_id":"0.0-8.0-0.51","subject":"3hc2pl12b4jyve3","sona":"6091"},{"rt":null,"stimulus":"<div style=\"font-size:60px;\">+</div>","key_press":null,"trial_type":"html-keyboard-response","trial_index":212,"time_elapsed":485079,"internal_node_id":"0.0-8.0-1.51","subject":"3hc2pl12b4jyve3","sona":"6091"},{"trial_type":"turing-test","trial_index":213,"time_elapsed":488844,"internal_node_id":"0.0-8.0-2.51","subject":"3hc2pl12b4jyve3","sona":"6091"},{"rt":659.3350000330247,"stimulus":"<p>Which sequence did you perceive as more natural?</p>","key_press":70,"test_part":"response","test_stimulus":{"position":0,"left":"bvh/pass-bottle-hold-training4-lines.txt","right":"bvh/vr_prediction_models/model(tmp)-dataset(pass-bottle-hold)-numprim(14)-hold(4)/final-lines.txt","att_check":false},"trial_type":"html-keyboard-response","trial_index":214,"time_elapsed":489512,"internal_node_id":"0.0-8.0-3.51","subject":"3hc2pl12b4jyve3","sona":"6091"},{"rt":162.36499999649823,"stimulus":"<p>Ready?</p>","key_press":32,"trial_type":"html-keyboard-response","trial_index":215,"time_elapsed":489684,"internal_node_id":"0.0-8.0-0.52","subject":"3hc2pl12b4jyve3","sona":"6091"},{"rt":null,"stimulus":"<div style=\"font-size:60px;\">+</div>","key_press":null,"trial_type":"html-keyboard-response","trial_index":216,"time_elapsed":491688,"internal_node_id":"0.0-8.0-1.52","subject":"3hc2pl12b4jyve3","sona":"6091"},{"trial_type":"turing-test","trial_index":217,"time_elapsed":497818,"internal_node_id":"0.0-8.0-2.52","subject":"3hc2pl12b4jyve3","sona":"6091"},{"rt":436.28500000340864,"stimulus":"<p>Which sequence did you perceive as more natural?</p>","key_press":74,"test_part":"response","test_stimulus":{"position":0,"left":"bvh/pass-bottle-training2-lines.txt","right":"bvh/vr_prediction_models/model(dmp)-dataset(pass-bottle)-npsi(30)-hold(2)/final-lines.txt","att_check":false},"trial_type":"html-keyboard-response","trial_index":218,"time_elapsed":498265,"internal_node_id":"0.0-8.0-3.52","subject":"3hc2pl12b4jyve3","sona":"6091"},{"rt":325.18000004347414,"stimulus":"<p>Ready?</p>","key_press":32,"trial_type":"html-keyboard-response","trial_index":219,"time_elapsed":498596,"internal_node_id":"0.0-8.0-0.53","subject":"3hc2pl12b4jyve3","sona":"6091"},{"rt":null,"stimulus":"<div style=\"font-size:60px;\">+</div>","key_press":null,"trial_type":"html-keyboard-response","trial_index":220,"time_elapsed":500600,"internal_node_id":"0.0-8.0-1.53","subject":"3hc2pl12b4jyve3","sona":"6091"},{"trial_type":"turing-test","trial_index":221,"time_elapsed":504153,"internal_node_id":"0.0-8.0-2.53","subject":"3hc2pl12b4jyve3","sona":"6091"},{"rt":508.5349999717437,"stimulus":"<p>Which sequence did you perceive as more natural?</p>","key_press":74,"test_part":"response","test_stimulus":{"position":1,"left":"bvh/vr_prediction_models/model(vcgpdm)-dataset(return-bottle-hold)-mode(ELBO)-parts(3)-dyn(25)-lvm(15)-hold(1)/final-lines.txt","right":"bvh/return-bottle-hold-training1-lines.txt","att_check":false},"trial_type":"html-keyboard-response","trial_index":222,"time_elapsed":504669,"internal_node_id":"0.0-8.0-3.53","subject":"3hc2pl12b4jyve3","sona":"6091"},{"rt":225.59499996714294,"stimulus":"<p>Ready?</p>","key_press":32,"trial_type":"html-keyboard-response","trial_index":223,"time_elapsed":504900,"internal_node_id":"0.0-8.0-0.54","subject":"3hc2pl12b4jyve3","sona":"6091"},{"rt":null,"stimulus":"<div style=\"font-size:60px;\">+</div>","key_press":null,"trial_type":"html-keyboard-response","trial_index":224,"time_elapsed":506903,"internal_node_id":"0.0-8.0-1.54","subject":"3hc2pl12b4jyve3","sona":"6091"},{"trial_type":"turing-test","trial_index":225,"time_elapsed":512427,"internal_node_id":"0.0-8.0-2.54","subject":"3hc2pl12b4jyve3","sona":"6091"},{"rt":327.3399999598041,"stimulus":"<p>Which sequence did you perceive as more natural?</p>","key_press":70,"test_part":"response","test_stimulus":{"position":0,"left":"bvh/return-bottle-training0-lines.txt","right":"bvh/vr_prediction_models/model(tmp)-dataset(return-bottle)-numprim(3)-hold(0)/final-lines.txt","att_check":false},"trial_type":"html-keyboard-response","trial_index":226,"time_elapsed":512762,"internal_node_id":"0.0-8.0-3.54","subject":"3hc2pl12b4jyve3","sona":"6091"},{"rt":311.4349999814294,"stimulus":"<p>Ready?</p>","key_press":32,"trial_type":"html-keyboard-response","trial_index":227,"time_elapsed":513083,"internal_node_id":"0.0-8.0-0.55","subject":"3hc2pl12b4jyve3","sona":"6091"},{"rt":null,"stimulus":"<div style=\"font-size:60px;\">+</div>","key_press":null,"trial_type":"html-keyboard-response","trial_index":228,"time_elapsed":515087,"internal_node_id":"0.0-8.0-1.55","subject":"3hc2pl12b4jyve3","sona":"6091"},{"trial_type":"turing-test","trial_index":229,"time_elapsed":521132,"internal_node_id":"0.0-8.0-2.55","subject":"3hc2pl12b4jyve3","sona":"6091"},{"rt":366.5550000150688,"stimulus":"<p>Which sequence did you perceive as more natural?</p>","key_press":70,"test_part":"response","test_stimulus":{"position":0,"left":"bvh/return-bottle-training4-lines.txt","right":"bvh/vr_prediction_models/model(vcgpdm)-dataset(return-bottle)-mode(ELBO)-parts(3)-dyn(10)-lvm(25)-hold(4)/final-lines.txt","att_check":false},"trial_type":"html-keyboard-response","trial_index":230,"time_elapsed":521507,"internal_node_id":"0.0-8.0-3.55","subject":"3hc2pl12b4jyve3","sona":"6091"},{"rt":365.93000002903864,"stimulus":"<p>Ready?</p>","key_press":32,"trial_type":"html-keyboard-response","trial_index":231,"time_elapsed":521879,"internal_node_id":"0.0-8.0-0.56","subject":"3hc2pl12b4jyve3","sona":"6091"},{"rt":null,"stimulus":"<div style=\"font-size:60px;\">+</div>","key_press":null,"trial_type":"html-keyboard-response","trial_index":232,"time_elapsed":523883,"internal_node_id":"0.0-8.0-1.56","subject":"3hc2pl12b4jyve3","sona":"6091"},{"trial_type":"turing-test","trial_index":233,"time_elapsed":530112,"internal_node_id":"0.0-8.0-2.56","subject":"3hc2pl12b4jyve3","sona":"6091"},{"rt":655.594999960158,"stimulus":"<p>Which sequence did you perceive as more natural?</p>","key_press":70,"test_part":"response","test_stimulus":{"position":1,"left":"bvh/vr_prediction_models/model(dmp)-dataset(pass-bottle)-npsi(90)-hold(2)/final-lines.txt","right":"bvh/pass-bottle-training2-lines.txt","att_check":false},"trial_type":"html-keyboard-response","trial_index":234,"time_elapsed":530780,"internal_node_id":"0.0-8.0-3.56","subject":"3hc2pl12b4jyve3","sona":"6091"},{"rt":293.53500000433996,"stimulus":"<p>Ready?</p>","key_press":32,"trial_type":"html-keyboard-response","trial_index":235,"time_elapsed":531086,"internal_node_id":"0.0-8.0-0.57","subject":"3hc2pl12b4jyve3","sona":"6091"},{"rt":null,"stimulus":"<div style=\"font-size:60px;\">+</div>","key_press":null,"trial_type":"html-keyboard-response","trial_index":236,"time_elapsed":533090,"internal_node_id":"0.0-8.0-1.57","subject":"3hc2pl12b4jyve3","sona":"6091"},{"trial_type":"turing-test","trial_index":237,"time_elapsed":536794,"internal_node_id":"0.0-8.0-2.57","subject":"3hc2pl12b4jyve3","sona":"6091"},{"rt":531.9850000087172,"stimulus":"<p>Which sequence did you perceive as more natural?</p>","key_press":70,"test_part":"response","test_stimulus":{"position":0,"left":"bvh/return-bottle-hold-training3-lines.txt","right":"bvh/vr_prediction_models/model(dmp)-dataset(return-bottle-hold)-npsi(90)-hold(3)/final-lines.txt","att_check":false},"trial_type":"html-keyboard-response","trial_index":238,"time_elapsed":537340,"internal_node_id":"0.0-8.0-3.57","subject":"3hc2pl12b4jyve3","sona":"6091"},{"rt":234.4300000113435,"stimulus":"<p>Ready?</p>","key_press":32,"trial_type":"html-keyboard-response","trial_index":239,"time_elapsed":537577,"internal_node_id":"0.0-8.0-0.58","subject":"3hc2pl12b4jyve3","sona":"6091"},{"rt":null,"stimulus":"<div style=\"font-size:60px;\">+</div>","key_press":null,"trial_type":"html-keyboard-response","trial_index":240,"time_elapsed":539581,"internal_node_id":"0.0-8.0-1.58","subject":"3hc2pl12b4jyve3","sona":"6091"},{"trial_type":"turing-test","trial_index":241,"time_elapsed":543313,"internal_node_id":"0.0-8.0-2.58","subject":"3hc2pl12b4jyve3","sona":"6091"},{"rt":384.0850000269711,"stimulus":"<p>Which sequence did you perceive as more natural?</p>","key_press":74,"test_part":"response","test_stimulus":{"position":0,"left":"bvh/pass-bottle-hold-training3-lines.txt","right":"bvh/vr_prediction_models/model(vcgpdm)-dataset(pass-bottle-hold)-mode(ELBO)-parts(1)-dyn(20)-lvm(20)-hold(3)/final-lines.txt","att_check":false},"trial_type":"html-keyboard-response","trial_index":242,"time_elapsed":543705,"internal_node_id":"0.0-8.0-3.58","subject":"3hc2pl12b4jyve3","sona":"6091"},{"rt":444.67499997699633,"stimulus":"<p>Ready?</p>","key_press":32,"trial_type":"html-keyboard-response","trial_index":243,"time_elapsed":544152,"internal_node_id":"0.0-8.0-0.59","subject":"3hc2pl12b4jyve3","sona":"6091"},{"rt":null,"stimulus":"<div style=\"font-size:60px;\">+</div>","key_press":null,"trial_type":"html-keyboard-response","trial_index":244,"time_elapsed":546155,"internal_node_id":"0.0-8.0-1.59","subject":"3hc2pl12b4jyve3","sona":"6091"},{"trial_type":"turing-test","trial_index":245,"time_elapsed":552039,"internal_node_id":"0.0-8.0-2.59","subject":"3hc2pl12b4jyve3","sona":"6091"},{"rt":410.42000002926216,"stimulus":"<p>Which sequence did you perceive as more natural?</p>","key_press":74,"test_part":"response","test_stimulus":{"position":1,"left":"bvh/vr_prediction_models/model(vcgpdm)-dataset(pass-bottle)-mode(ELBO)-parts(1)-dyn(35)-lvm(30)-hold(4)/final-lines.txt","right":"bvh/pass-bottle-training4-lines.txt","att_check":false},"trial_type":"html-keyboard-response","trial_index":246,"time_elapsed":552456,"internal_node_id":"0.0-8.0-3.59","subject":"3hc2pl12b4jyve3","sona":"6091"},{"rt":348.46000000834465,"stimulus":"<p>Ready?</p>","key_press":32,"trial_type":"html-keyboard-response","trial_index":247,"time_elapsed":552812,"internal_node_id":"0.0-8.0-0.60","subject":"3hc2pl12b4jyve3","sona":"6091"},{"rt":null,"stimulus":"<div style=\"font-size:60px;\">+</div>","key_press":null,"trial_type":"html-keyboard-response","trial_index":248,"time_elapsed":554816,"internal_node_id":"0.0-8.0-1.60","subject":"3hc2pl12b4jyve3","sona":"6091"},{"trial_type":"turing-test","trial_index":249,"time_elapsed":558603,"internal_node_id":"0.0-8.0-2.60","subject":"3hc2pl12b4jyve3","sona":"6091"},{"rt":411.3849999848753,"stimulus":"<p>Which sequence did you perceive as more natural?</p>","key_press":70,"test_part":"response","test_stimulus":{"position":0,"left":"bvh/return-bottle-hold-training4-lines.txt","right":"bvh/vr_prediction_models/model(tmp)-dataset(return-bottle-hold)-numprim(14)-hold(4)/final-lines.txt","att_check":false},"trial_type":"html-keyboard-response","trial_index":250,"time_elapsed":559023,"internal_node_id":"0.0-8.0-3.60","subject":"3hc2pl12b4jyve3","sona":"6091"},{"rt":229.19499996351078,"stimulus":"<p>Ready?</p>","key_press":32,"trial_type":"html-keyboard-response","trial_index":251,"time_elapsed":559256,"internal_node_id":"0.0-8.0-0.61","subject":"3hc2pl12b4jyve3","sona":"6091"},{"rt":null,"stimulus":"<div style=\"font-size:60px;\">+</div>","key_press":null,"trial_type":"html-keyboard-response","trial_index":252,"time_elapsed":561261,"internal_node_id":"0.0-8.0-1.61","subject":"3hc2pl12b4jyve3","sona":"6091"},{"trial_type":"turing-test","trial_index":253,"time_elapsed":566753,"internal_node_id":"0.0-8.0-2.61","subject":"3hc2pl12b4jyve3","sona":"6091"},{"rt":628.1549999839626,"stimulus":"<p>Which sequence did you perceive as more natural?</p>","key_press":70,"test_part":"response","test_stimulus":{"position":1,"left":"bvh/vr_prediction_models/model(dmp)-dataset(return-bottle)-npsi(70)-hold(0)/final-lines.txt","right":"bvh/return-bottle-training0-lines.txt","att_check":true},"trial_type":"html-keyboard-response","trial_index":254,"time_elapsed":567393,"internal_node_id":"0.0-8.0-3.61","subject":"3hc2pl12b4jyve3","sona":"6091"},{"rt":328.55000003473833,"stimulus":"<p>Ready?</p>","key_press":32,"trial_type":"html-keyboard-response","trial_index":255,"time_elapsed":567729,"internal_node_id":"0.0-8.0-0.62","subject":"3hc2pl12b4jyve3","sona":"6091"},{"rt":null,"stimulus":"<div style=\"font-size:60px;\">+</div>","key_press":null,"trial_type":"html-keyboard-response","trial_index":256,"time_elapsed":569732,"internal_node_id":"0.0-8.0-1.62","subject":"3hc2pl12b4jyve3","sona":"6091"},{"trial_type":"turing-test","trial_index":257,"time_elapsed":575268,"internal_node_id":"0.0-8.0-2.62","subject":"3hc2pl12b4jyve3","sona":"6091"},{"rt":1022.2150000045076,"stimulus":"<p>Which sequence did you perceive as more natural?</p>","key_press":74,"test_part":"response","test_stimulus":{"position":1,"left":"bvh/vr_prediction_models/model(tmp)-dataset(pass-bottle)-numprim(6)-hold(1)/final-lines.txt","right":"bvh/pass-bottle-training1-lines.txt","att_check":false},"trial_type":"html-keyboard-response","trial_index":258,"time_elapsed":576298,"internal_node_id":"0.0-8.0-3.62","subject":"3hc2pl12b4jyve3","sona":"6091"},{"rt":844.6049999911338,"stimulus":"<p>Ready?</p>","key_press":32,"trial_type":"html-keyboard-response","trial_index":259,"time_elapsed":577150,"internal_node_id":"0.0-8.0-0.63","subject":"3hc2pl12b4jyve3","sona":"6091"},{"rt":null,"stimulus":"<div style=\"font-size:60px;\">+</div>","key_press":null,"trial_type":"html-keyboard-response","trial_index":260,"time_elapsed":579153,"internal_node_id":"0.0-8.0-1.63","subject":"3hc2pl12b4jyve3","sona":"6091"},{"trial_type":"turing-test","trial_index":261,"time_elapsed":585101,"internal_node_id":"0.0-8.0-2.63","subject":"3hc2pl12b4jyve3","sona":"6091"},{"rt":465.970000019297,"stimulus":"<p>Which sequence did you perceive as more natural?</p>","key_press":74,"test_part":"response","test_stimulus":{"position":0,"left":"bvh/pass-bottle-training4-lines.txt","right":"bvh/vr_prediction_models/model(vcgpdm)-dataset(pass-bottle)-mode(ELBO)-parts(3)-dyn(30)-lvm(15)-hold(4)/final-lines.txt","att_check":false},"trial_type":"html-keyboard-response","trial_index":262,"time_elapsed":585578,"internal_node_id":"0.0-8.0-3.63","subject":"3hc2pl12b4jyve3","sona":"6091"},{"rt":944.3849999806844,"stimulus":"<p>Ready?</p>","key_press":32,"trial_type":"html-keyboard-response","trial_index":263,"time_elapsed":586527,"internal_node_id":"0.0-8.0-0.64","subject":"3hc2pl12b4jyve3","sona":"6091"},{"rt":null,"stimulus":"<div style=\"font-size:60px;\">+</div>","key_press":null,"trial_type":"html-keyboard-response","trial_index":264,"time_elapsed":588530,"internal_node_id":"0.0-8.0-1.64","subject":"3hc2pl12b4jyve3","sona":"6091"},{"trial_type":"turing-test","trial_index":265,"time_elapsed":594431,"internal_node_id":"0.0-8.0-2.64","subject":"3hc2pl12b4jyve3","sona":"6091"},{"rt":475.09000002173707,"stimulus":"<p>Which sequence did you perceive as more natural?</p>","key_press":70,"test_part":"response","test_stimulus":{"position":0,"left":"bvh/return-bottle-training3-lines.txt","right":"bvh/vr_prediction_models/model(vcgpdm)-dataset(return-bottle)-mode(ELBO)-parts(1)-dyn(25)-lvm(35)-hold(3)/final-lines.txt","att_check":false},"trial_type":"html-keyboard-response","trial_index":266,"time_elapsed":594911,"internal_node_id":"0.0-8.0-3.64","subject":"3hc2pl12b4jyve3","sona":"6091"},{"rt":328.3100000116974,"stimulus":"<p>Ready?</p>","key_press":32,"trial_type":"html-keyboard-response","trial_index":267,"time_elapsed":595250,"internal_node_id":"0.0-8.0-0.65","subject":"3hc2pl12b4jyve3","sona":"6091"},{"rt":null,"stimulus":"<div style=\"font-size:60px;\">+</div>","key_press":null,"trial_type":"html-keyboard-response","trial_index":268,"time_elapsed":597253,"internal_node_id":"0.0-8.0-1.65","subject":"3hc2pl12b4jyve3","sona":"6091"},{"trial_type":"turing-test","trial_index":269,"time_elapsed":601037,"internal_node_id":"0.0-8.0-2.65","subject":"3hc2pl12b4jyve3","sona":"6091"},{"rt":888.4800000232644,"stimulus":"<p>Which sequence did you perceive as more natural?</p>","key_press":70,"test_part":"response","test_stimulus":{"position":0,"left":"bvh/return-bottle-hold-training4-lines.txt","right":"bvh/vr_prediction_models/model(tmp)-dataset(return-bottle-hold)-numprim(6)-hold(4)/final-lines.txt","att_check":false},"trial_type":"html-keyboard-response","trial_index":270,"time_elapsed":601934,"internal_node_id":"0.0-8.0-3.65","subject":"3hc2pl12b4jyve3","sona":"6091"},{"rt":238.83500002557412,"stimulus":"<p>Ready?</p>","key_press":32,"trial_type":"html-keyboard-response","trial_index":271,"time_elapsed":602181,"internal_node_id":"0.0-8.0-0.66","subject":"3hc2pl12b4jyve3","sona":"6091"},{"rt":null,"stimulus":"<div style=\"font-size:60px;\">+</div>","key_press":null,"trial_type":"html-keyboard-response","trial_index":272,"time_elapsed":604186,"internal_node_id":"0.0-8.0-1.66","subject":"3hc2pl12b4jyve3","sona":"6091"},{"trial_type":"turing-test","trial_index":273,"time_elapsed":610175,"internal_node_id":"0.0-8.0-2.66","subject":"3hc2pl12b4jyve3","sona":"6091"},{"rt":467.3700000275858,"stimulus":"<p>Which sequence did you perceive as more natural?</p>","key_press":74,"test_part":"response","test_stimulus":{"position":0,"left":"bvh/pass-bottle-training3-lines.txt","right":"bvh/vr_prediction_models/model(vcgpdm)-dataset(pass-bottle)-mode(ELBO)-parts(1)-dyn(10)-lvm(5)-hold(3)/final-lines.txt","att_check":false},"trial_type":"html-keyboard-response","trial_index":274,"time_elapsed":610650,"internal_node_id":"0.0-8.0-3.66","subject":"3hc2pl12b4jyve3","sona":"6091"},{"rt":239.08500000834465,"stimulus":"<p>Ready?</p>","key_press":32,"trial_type":"html-keyboard-response","trial_index":275,"time_elapsed":610892,"internal_node_id":"0.0-8.0-0.67","subject":"3hc2pl12b4jyve3","sona":"6091"},{"rt":null,"stimulus":"<div style=\"font-size:60px;\">+</div>","key_press":null,"trial_type":"html-keyboard-response","trial_index":276,"time_elapsed":612896,"internal_node_id":"0.0-8.0-1.67","subject":"3hc2pl12b4jyve3","sona":"6091"},{"trial_type":"turing-test","trial_index":277,"time_elapsed":619187,"internal_node_id":"0.0-8.0-2.67","subject":"3hc2pl12b4jyve3","sona":"6091"},{"rt":313.7550000101328,"stimulus":"<p>Which sequence did you perceive as more natural?</p>","key_press":70,"test_part":"response","test_stimulus":{"position":0,"left":"bvh/return-bottle-training1-lines.txt","right":"bvh/vr_prediction_models/model(vcgpdm)-dataset(return-bottle)-mode(ELBO)-parts(3)-dyn(10)-lvm(10)-hold(1)/final-lines.txt","att_check":false},"trial_type":"html-keyboard-response","trial_index":278,"time_elapsed":619512,"internal_node_id":"0.0-8.0-3.67","subject":"3hc2pl12b4jyve3","sona":"6091"},{"rt":221.1449999595061,"stimulus":"<p>Ready?</p>","key_press":32,"trial_type":"html-keyboard-response","trial_index":279,"time_elapsed":619739,"internal_node_id":"0.0-8.0-0.68","subject":"3hc2pl12b4jyve3","sona":"6091"},{"rt":null,"stimulus":"<div style=\"font-size:60px;\">+</div>","key_press":null,"trial_type":"html-keyboard-response","trial_index":280,"time_elapsed":621742,"internal_node_id":"0.0-8.0-1.68","subject":"3hc2pl12b4jyve3","sona":"6091"},{"trial_type":"turing-test","trial_index":281,"time_elapsed":628731,"internal_node_id":"0.0-8.0-2.68","subject":"3hc2pl12b4jyve3","sona":"6091"},{"rt":406.5999999875203,"stimulus":"<p>Which sequence did you perceive as more natural?</p>","key_press":74,"test_part":"response","test_stimulus":{"position":1,"left":"bvh/vr_prediction_models/model(vcgpdm)-dataset(pass-bottle)-mode(ELBO)-parts(1)-dyn(30)-lvm(35)-hold(0)/final-lines.txt","right":"bvh/pass-bottle-training0-lines.txt","att_check":false},"trial_type":"html-keyboard-response","trial_index":282,"time_elapsed":629148,"internal_node_id":"0.0-8.0-3.68","subject":"3hc2pl12b4jyve3","sona":"6091"},{"rt":1806.5649999771267,"stimulus":"<p>Ready?</p>","key_press":32,"trial_type":"html-keyboard-response","trial_index":283,"time_elapsed":630960,"internal_node_id":"0.0-8.0-0.69","subject":"3hc2pl12b4jyve3","sona":"6091"},{"rt":null,"stimulus":"<div style=\"font-size:60px;\">+</div>","key_press":null,"trial_type":"html-keyboard-response","trial_index":284,"time_elapsed":632964,"internal_node_id":"0.0-8.0-1.69","subject":"3hc2pl12b4jyve3","sona":"6091"},{"trial_type":"turing-test","trial_index":285,"time_elapsed":636629,"internal_node_id":"0.0-8.0-2.69","subject":"3hc2pl12b4jyve3","sona":"6091"},{"rt":405.1800000015646,"stimulus":"<p>Which sequence did you perceive as more natural?</p>","key_press":70,"test_part":"response","test_stimulus":{"position":0,"left":"bvh/pass-bottle-hold-training4-lines.txt","right":"bvh/vr_prediction_models/model(tmp)-dataset(pass-bottle-hold)-numprim(8)-hold(4)/final-lines.txt","att_check":false},"trial_type":"html-keyboard-response","trial_index":286,"time_elapsed":637042,"internal_node_id":"0.0-8.0-3.69","subject":"3hc2pl12b4jyve3","sona":"6091"},{"rt":284.4650000333786,"stimulus":"<p>Ready?</p>","key_press":32,"trial_type":"html-keyboard-response","trial_index":287,"time_elapsed":637336,"internal_node_id":"0.0-8.0-0.70","subject":"3hc2pl12b4jyve3","sona":"6091"},{"rt":null,"stimulus":"<div style=\"font-size:60px;\">+</div>","key_press":null,"trial_type":"html-keyboard-response","trial_index":288,"time_elapsed":639340,"internal_node_id":"0.0-8.0-1.70","subject":"3hc2pl12b4jyve3","sona":"6091"},{"trial_type":"turing-test","trial_index":289,"time_elapsed":645015,"internal_node_id":"0.0-8.0-2.70","subject":"3hc2pl12b4jyve3","sona":"6091"},{"rt":450.7599999778904,"stimulus":"<p>Which sequence did you perceive as more natural?</p>","key_press":70,"test_part":"response","test_stimulus":{"position":0,"left":"bvh/pass-bottle-training1-lines.txt","right":"bvh/vr_prediction_models/model(vcgpdm)-dataset(pass-bottle)-mode(ELBO)-parts(3)-dyn(15)-lvm(30)-hold(1)/final-lines.txt","att_check":false},"trial_type":"html-keyboard-response","trial_index":290,"time_elapsed":645475,"internal_node_id":"0.0-8.0-3.70","subject":"3hc2pl12b4jyve3","sona":"6091"},{"rt":804.5900000142865,"stimulus":"<p>Ready?</p>","key_press":32,"trial_type":"html-keyboard-response","trial_index":291,"time_elapsed":646285,"internal_node_id":"0.0-8.0-0.71","subject":"3hc2pl12b4jyve3","sona":"6091"},{"rt":null,"stimulus":"<div style=\"font-size:60px;\">+</div>","key_press":null,"trial_type":"html-keyboard-response","trial_index":292,"time_elapsed":648289,"internal_node_id":"0.0-8.0-1.71","subject":"3hc2pl12b4jyve3","sona":"6091"},{"trial_type":"turing-test","trial_index":293,"time_elapsed":653632,"internal_node_id":"0.0-8.0-2.71","subject":"3hc2pl12b4jyve3","sona":"6091"},{"rt":436.4300000015646,"stimulus":"<p>Which sequence did you perceive as more natural?</p>","key_press":74,"test_part":"response","test_stimulus":{"position":1,"left":"bvh/vr_prediction_models/model(vcgpdm)-dataset(return-bottle-hold)-mode(ELBO)-parts(3)-dyn(35)-lvm(20)-hold(0)/final-lines.txt","right":"bvh/return-bottle-hold-training0-lines.txt","att_check":false},"trial_type":"html-keyboard-response","trial_index":294,"time_elapsed":654077,"internal_node_id":"0.0-8.0-3.71","subject":"3hc2pl12b4jyve3","sona":"6091"},{"rt":206.55999996233732,"stimulus":"<p>Ready?</p>","key_press":32,"trial_type":"html-keyboard-response","trial_index":295,"time_elapsed":654288,"internal_node_id":"0.0-8.0-0.72","subject":"3hc2pl12b4jyve3","sona":"6091"},{"rt":null,"stimulus":"<div style=\"font-size:60px;\">+</div>","key_press":null,"trial_type":"html-keyboard-response","trial_index":296,"time_elapsed":656290,"internal_node_id":"0.0-8.0-1.72","subject":"3hc2pl12b4jyve3","sona":"6091"},{"trial_type":"turing-test","trial_index":297,"time_elapsed":662310,"internal_node_id":"0.0-8.0-2.72","subject":"3hc2pl12b4jyve3","sona":"6091"},{"rt":386.2150000059046,"stimulus":"<p>Which sequence did you perceive as more natural?</p>","key_press":74,"test_part":"response","test_stimulus":{"position":1,"left":"bvh/vr_prediction_models/model(vcgpdm)-dataset(return-bottle)-mode(ELBO)-parts(3)-dyn(20)-lvm(15)-hold(3)/final-lines.txt","right":"bvh/return-bottle-training3-lines.txt","att_check":false},"trial_type":"html-keyboard-response","trial_index":298,"time_elapsed":662707,"internal_node_id":"0.0-8.0-3.72","subject":"3hc2pl12b4jyve3","sona":"6091"},{"rt":205.00000001629815,"stimulus":"<p>Ready?</p>","key_press":32,"trial_type":"html-keyboard-response","trial_index":299,"time_elapsed":662921,"internal_node_id":"0.0-8.0-0.73","subject":"3hc2pl12b4jyve3","sona":"6091"},{"rt":null,"stimulus":"<div style=\"font-size:60px;\">+</div>","key_press":null,"trial_type":"html-keyboard-response","trial_index":300,"time_elapsed":664924,"internal_node_id":"0.0-8.0-1.73","subject":"3hc2pl12b4jyve3","sona":"6091"},{"trial_type":"turing-test","trial_index":301,"time_elapsed":668321,"internal_node_id":"0.0-8.0-2.73","subject":"3hc2pl12b4jyve3","sona":"6091"},{"rt":420.3300000517629,"stimulus":"<p>Which sequence did you perceive as more natural?</p>","key_press":74,"test_part":"response","test_stimulus":{"position":1,"left":"bvh/vr_prediction_models/model(tmp)-dataset(pass-bottle-hold)-numprim(3)-hold(0)/final-lines.txt","right":"bvh/pass-bottle-hold-training0-lines.txt","att_check":false},"trial_type":"html-keyboard-response","trial_index":302,"time_elapsed":668749,"internal_node_id":"0.0-8.0-3.73","subject":"3hc2pl12b4jyve3","sona":"6091"},{"rt":227.68000001087785,"stimulus":"<p>Ready?</p>","key_press":32,"trial_type":"html-keyboard-response","trial_index":303,"time_elapsed":668986,"internal_node_id":"0.0-8.0-0.74","subject":"3hc2pl12b4jyve3","sona":"6091"},{"rt":null,"stimulus":"<div style=\"font-size:60px;\">+</div>","key_press":null,"trial_type":"html-keyboard-response","trial_index":304,"time_elapsed":670989,"internal_node_id":"0.0-8.0-1.74","subject":"3hc2pl12b4jyve3","sona":"6091"},{"trial_type":"turing-test","trial_index":305,"time_elapsed":674712,"internal_node_id":"0.0-8.0-2.74","subject":"3hc2pl12b4jyve3","sona":"6091"},{"rt":376.93999998737127,"stimulus":"<p>Which sequence did you perceive as more natural?</p>","key_press":70,"test_part":"response","test_stimulus":{"position":1,"left":"bvh/vr_prediction_models/model(dmp)-dataset(return-bottle-hold)-npsi(80)-hold(3)/final-lines.txt","right":"bvh/return-bottle-hold-training3-lines.txt","att_check":false},"trial_type":"html-keyboard-response","trial_index":306,"time_elapsed":675097,"internal_node_id":"0.0-8.0-3.74","subject":"3hc2pl12b4jyve3","sona":"6091"},{"rt":287.2950000455603,"stimulus":"<p>Ready?</p>","key_press":32,"trial_type":"html-keyboard-response","trial_index":307,"time_elapsed":675391,"internal_node_id":"0.0-8.0-0.75","subject":"3hc2pl12b4jyve3","sona":"6091"},{"rt":null,"stimulus":"<div style=\"font-size:60px;\">+</div>","key_press":null,"trial_type":"html-keyboard-response","trial_index":308,"time_elapsed":677395,"internal_node_id":"0.0-8.0-1.75","subject":"3hc2pl12b4jyve3","sona":"6091"},{"trial_type":"turing-test","trial_index":309,"time_elapsed":683213,"internal_node_id":"0.0-8.0-2.75","subject":"3hc2pl12b4jyve3","sona":"6091"},{"rt":335.40999999968335,"stimulus":"<p>Which sequence did you perceive as more natural?</p>","key_press":70,"test_part":"response","test_stimulus":{"position":0,"left":"bvh/return-bottle-training3-lines.txt","right":"bvh/vr_prediction_models/model(tmp)-dataset(return-bottle)-numprim(3)-hold(3)/final-lines.txt","att_check":false},"trial_type":"html-keyboard-response","trial_index":310,"time_elapsed":683557,"internal_node_id":"0.0-8.0-3.75","subject":"3hc2pl12b4jyve3","sona":"6091"},{"rt":267.6249999785796,"stimulus":"<p>Ready?</p>","key_press":32,"trial_type":"html-keyboard-response","trial_index":311,"time_elapsed":683834,"internal_node_id":"0.0-8.0-0.76","subject":"3hc2pl12b4jyve3","sona":"6091"},{"rt":null,"stimulus":"<div style=\"font-size:60px;\">+</div>","key_press":null,"trial_type":"html-keyboard-response","trial_index":312,"time_elapsed":685838,"internal_node_id":"0.0-8.0-1.76","subject":"3hc2pl12b4jyve3","sona":"6091"},{"trial_type":"turing-test","trial_index":313,"time_elapsed":689237,"internal_node_id":"0.0-8.0-2.76","subject":"3hc2pl12b4jyve3","sona":"6091"},{"rt":369.1499999840744,"stimulus":"<p>Which sequence did you perceive as more natural?</p>","key_press":74,"test_part":"response","test_stimulus":{"position":1,"left":"bvh/vr_prediction_models/model(tmp)-dataset(pass-bottle-hold)-numprim(12)-hold(2)/final-lines.txt","right":"bvh/pass-bottle-hold-training2-lines.txt","att_check":false},"trial_type":"html-keyboard-response","trial_index":314,"time_elapsed":689615,"internal_node_id":"0.0-8.0-3.76","subject":"3hc2pl12b4jyve3","sona":"6091"},{"rt":189.28500002948567,"stimulus":"<p>Ready?</p>","key_press":32,"trial_type":"html-keyboard-response","trial_index":315,"time_elapsed":689814,"internal_node_id":"0.0-8.0-0.77","subject":"3hc2pl12b4jyve3","sona":"6091"},{"rt":null,"stimulus":"<div style=\"font-size:60px;\">+</div>","key_press":null,"trial_type":"html-keyboard-response","trial_index":316,"time_elapsed":691816,"internal_node_id":"0.0-8.0-1.77","subject":"3hc2pl12b4jyve3","sona":"6091"},{"trial_type":"turing-test","trial_index":317,"time_elapsed":697190,"internal_node_id":"0.0-8.0-2.77","subject":"3hc2pl12b4jyve3","sona":"6091"},{"rt":502.3899999796413,"stimulus":"<p>Which sequence did you perceive as more natural?</p>","key_press":74,"test_part":"response","test_stimulus":{"position":0,"left":"bvh/return-bottle-training0-lines.txt","right":"bvh/vr_prediction_models/model(dmp)-dataset(return-bottle)-npsi(70)-hold(0)/final-lines.txt","att_check":false},"trial_type":"html-keyboard-response","trial_index":318,"time_elapsed":697704,"internal_node_id":"0.0-8.0-3.77","subject":"3hc2pl12b4jyve3","sona":"6091"},{"rt":183.58499999158084,"stimulus":"<p>Ready?</p>","key_press":32,"trial_type":"html-keyboard-response","trial_index":319,"time_elapsed":697894,"internal_node_id":"0.0-8.0-0.78","subject":"3hc2pl12b4jyve3","sona":"6091"},{"rt":null,"stimulus":"<div style=\"font-size:60px;\">+</div>","key_press":null,"trial_type":"html-keyboard-response","trial_index":320,"time_elapsed":699898,"internal_node_id":"0.0-8.0-1.78","subject":"3hc2pl12b4jyve3","sona":"6091"},{"trial_type":"turing-test","trial_index":321,"time_elapsed":706059,"internal_node_id":"0.0-8.0-2.78","subject":"3hc2pl12b4jyve3","sona":"6091"},{"rt":592.3300000140443,"stimulus":"<p>Which sequence did you perceive as more natural?</p>","key_press":74,"test_part":"response","test_stimulus":{"position":1,"left":"bvh/vr_prediction_models/model(tmp)-dataset(return-bottle)-numprim(6)-hold(1)/final-lines.txt","right":"bvh/return-bottle-training1-lines.txt","att_check":false},"trial_type":"html-keyboard-response","trial_index":322,"time_elapsed":706663,"internal_node_id":"0.0-8.0-3.78","subject":"3hc2pl12b4jyve3","sona":"6091"},{"rt":177.8500000364147,"stimulus":"<p>Ready?</p>","key_press":32,"trial_type":"html-keyboard-response","trial_index":323,"time_elapsed":706848,"internal_node_id":"0.0-8.0-0.79","subject":"3hc2pl12b4jyve3","sona":"6091"},{"rt":null,"stimulus":"<div style=\"font-size:60px;\">+</div>","key_press":null,"trial_type":"html-keyboard-response","trial_index":324,"time_elapsed":708852,"internal_node_id":"0.0-8.0-1.79","subject":"3hc2pl12b4jyve3","sona":"6091"},{"trial_type":"turing-test","trial_index":325,"time_elapsed":712482,"internal_node_id":"0.0-8.0-2.79","subject":"3hc2pl12b4jyve3","sona":"6091"},{"rt":333.2149999914691,"stimulus":"<p>Which sequence did you perceive as more natural?</p>","key_press":74,"test_part":"response","test_stimulus":{"position":1,"left":"bvh/vr_prediction_models/model(vcgpdm)-dataset(pass-bottle-hold)-mode(ELBO)-parts(3)-dyn(10)-lvm(30)-hold(2)/final-lines.txt","right":"bvh/pass-bottle-hold-training2-lines.txt","att_check":false},"trial_type":"html-keyboard-response","trial_index":326,"time_elapsed":712824,"internal_node_id":"0.0-8.0-3.79","subject":"3hc2pl12b4jyve3","sona":"6091"},{"rt":9391.644999966957,"responses":"{\"age\":\"25\",\"gender\":\"female\"}","trial_type":"survey-text","trial_index":327,"time_elapsed":722234,"internal_node_id":"0.0-9.0-0.0","subject":"3hc2pl12b4jyve3","sona":"6091"},{"rt":250097.38499997184,"responses":"{\"area\":\"head movement and arm-leg coordination\",\"Q1\":\"Either too stable and stiff or too shaky and uncoordinated movement\",\"Q2\":\"Comparisons in which the speed and angles were noticeably different were easier to differentiate\"}","trial_type":"survey-text","trial_index":328,"time_elapsed":972378,"internal_node_id":"0.0-9.0-1.0","subject":"3hc2pl12b4jyve3","sona":"6091"}]