[{"rt":4641.055000014603,"stimulus":"<p>Welcome!<br> Please choose your language to start the experiment in the chosen language.</p><p>Willkommen!<br> Bitte wählen Sie eine Sprache um das Experiment in der ausgewählten Sprache zu starten</p>","button_pressed":"0","trial_type":"html-button-response","trial_index":0,"time_elapsed":4652,"internal_node_id":"0.0-0.0","subject":"72z69lw70zafxgx"},{"view_history":"[{\"page_index\":0,\"viewing_time\":5236.254999996163},{\"page_index\":1,\"viewing_time\":6560.15999999363},{\"page_index\":2,\"viewing_time\":4581.469999975525},{\"page_index\":3,\"viewing_time\":56692.63000006322}]","rt":73074.06999997329,"trial_type":"instructions","trial_index":1,"time_elapsed":77728,"internal_node_id":"0.0-1.0","subject":"72z69lw70zafxgx"},{"rt":28143.135000020266,"stimulus":"<p>Ready?</p>","button_pressed":"0","trial_type":"html-button-response","trial_index":2,"time_elapsed":105877,"internal_node_id":"0.0-2.0","subject":"72z69lw70zafxgx"},{"rt":null,"stimulus":"<div style=\"font-size:60px;\">+</div>","key_press":null,"trial_type":"html-keyboard-response","trial_index":3,"time_elapsed":107890,"internal_node_id":"0.0-3.0","subject":"72z69lw70zafxgx"},{"trial_type":"training","trial_index":4,"time_elapsed":112063,"internal_node_id":"0.0-4.0","subject":"72z69lw70zafxgx"},{"rt":2202.915000030771,"stimulus":"<p>Which sequence did you perceive as more natural?</p>","button_pressed":"1","trial_type":"html-button-response","trial_index":5,"time_elapsed":114270,"internal_node_id":"0.0-5.0","subject":"72z69lw70zafxgx"},{"rt":35745.22500007879,"stimulus":"<p>The experiment starts now.</p><p>Please click the button if you are ready.</p>","button_pressed":"0","trial_type":"html-button-response","trial_index":6,"time_elapsed":150019,"internal_node_id":"0.0-6.0","subject":"72z69lw70zafxgx"},{"rt":42232.4250000529,"stimulus":"<p>Ready?</p>","button_pressed":"0","trial_type":"html-button-response","trial_index":7,"time_elapsed":192256,"internal_node_id":"0.0-7.0-0.0","subject":"72z69lw70zafxgx"},{"rt":null,"stimulus":"<div style=\"font-size:60px;\">+</div>","key_press":null,"trial_type":"html-keyboard-response","trial_index":8,"time_elapsed":194269,"internal_node_id":"0.0-7.0-1.0","subject":"72z69lw70zafxgx"},{"trial_type":"turing-test","trial_index":9,"time_elapsed":198827,"internal_node_id":"0.0-7.0-2.0","subject":"72z69lw70zafxgx"},{"rt":30714.46000004653,"stimulus":"<p>Which sequence did you perceive as more natural?</p>","button_pressed":"0","test_part":"response","test_stimulus":{"position":1,"left":"bvh/vr_prediction_models/model(tmp)-dataset(pass-bottle-hold)-numprim(12)-hold(3)/final-lines.txt","right":"bvh/pass-bottle-hold-training3-lines.txt","att_check":false},"trial_type":"html-button-response","trial_index":10,"time_elapsed":229551,"internal_node_id":"0.0-7.0-3.0","subject":"72z69lw70zafxgx"},{"rt":972.8100000647828,"stimulus":"<p>Ready?</p>","button_pressed":"0","trial_type":"html-button-response","trial_index":11,"time_elapsed":230538,"internal_node_id":"0.0-7.0-0.1","subject":"72z69lw70zafxgx"},{"rt":null,"stimulus":"<div style=\"font-size:60px;\">+</div>","key_press":null,"trial_type":"html-keyboard-response","trial_index":12,"time_elapsed":232544,"internal_node_id":"0.0-7.0-1.1","subject":"72z69lw70zafxgx"},{"trial_type":"turing-test","trial_index":13,"time_elapsed":238929,"internal_node_id":"0.0-7.0-2.1","subject":"72z69lw70zafxgx"},{"rt":2110.4550000745803,"stimulus":"<p>Which sequence did you perceive as more natural?</p>","button_pressed":"1","test_part":"response","test_stimulus":{"position":1,"left":"bvh/vr_prediction_models/model(vcgpdm)-dataset(return-bottle)-mode(ELBO)-parts(1)-dyn(35)-lvm(30)-hold(3)/final-lines.txt","right":"bvh/return-bottle-training3-lines.txt","att_check":false},"trial_type":"html-button-response","trial_index":14,"time_elapsed":241048,"internal_node_id":"0.0-7.0-3.1","subject":"72z69lw70zafxgx"},{"rt":1336.2750000087544,"stimulus":"<p>Ready?</p>","button_pressed":"0","trial_type":"html-button-response","trial_index":15,"time_elapsed":242390,"internal_node_id":"0.0-7.0-0.2","subject":"72z69lw70zafxgx"},{"rt":null,"stimulus":"<div style=\"font-size:60px;\">+</div>","key_press":null,"trial_type":"html-keyboard-response","trial_index":16,"time_elapsed":244399,"internal_node_id":"0.0-7.0-1.2","subject":"72z69lw70zafxgx"},{"trial_type":"turing-test","trial_index":17,"time_elapsed":248731,"internal_node_id":"0.0-7.0-2.2","subject":"72z69lw70zafxgx"},{"rt":1548.8100000657141,"stimulus":"<p>Which sequence did you perceive as more natural?</p>","button_pressed":"0","test_part":"response","test_stimulus":{"position":1,"left":"bvh/vr_prediction_models/model(tmp)-dataset(pass-bottle)-numprim(5)-hold(1)/final-lines.txt","right":"bvh/pass-bottle-training1-lines.txt","att_check":false},"trial_type":"html-button-response","trial_index":18,"time_elapsed":250288,"internal_node_id":"0.0-7.0-3.2","subject":"72z69lw70zafxgx"},{"rt":3934.3100000405684,"stimulus":"<p>Ready?</p>","button_pressed":"0","trial_type":"html-button-response","trial_index":19,"time_elapsed":254231,"internal_node_id":"0.0-7.0-0.3","subject":"72z69lw70zafxgx"},{"rt":null,"stimulus":"<div style=\"font-size:60px;\">+</div>","key_press":null,"trial_type":"html-keyboard-response","trial_index":20,"time_elapsed":256236,"internal_node_id":"0.0-7.0-1.3","subject":"72z69lw70zafxgx"},{"trial_type":"turing-test","trial_index":21,"time_elapsed":260590,"internal_node_id":"0.0-7.0-2.3","subject":"72z69lw70zafxgx"},{"rt":919.8799999430776,"stimulus":"<p>Which sequence did you perceive as more natural?</p>","button_pressed":"1","test_part":"response","test_stimulus":{"position":1,"left":"bvh/vr_prediction_models/model(dmp)-dataset(pass-bottle-hold)-npsi(100)-hold(3)/final-lines.txt","right":"bvh/pass-bottle-hold-training3-lines.txt","att_check":false},"trial_type":"html-button-response","trial_index":22,"time_elapsed":261519,"internal_node_id":"0.0-7.0-3.3","subject":"72z69lw70zafxgx"},{"rt":1148.7500000512227,"stimulus":"<p>Ready?</p>","button_pressed":"0","trial_type":"html-button-response","trial_index":23,"time_elapsed":262674,"internal_node_id":"0.0-7.0-0.4","subject":"72z69lw70zafxgx"},{"rt":null,"stimulus":"<div style=\"font-size:60px;\">+</div>","key_press":null,"trial_type":"html-keyboard-response","trial_index":24,"time_elapsed":264685,"internal_node_id":"0.0-7.0-1.4","subject":"72z69lw70zafxgx"},{"trial_type":"turing-test","trial_index":25,"time_elapsed":268936,"internal_node_id":"0.0-7.0-2.4","subject":"72z69lw70zafxgx"},{"rt":1310.5650000507012,"stimulus":"<p>Which sequence did you perceive as more natural?</p>","button_pressed":"1","test_part":"response","test_stimulus":{"position":1,"left":"bvh/vr_prediction_models/model(dmp)-dataset(pass-bottle-hold)-npsi(50)-hold(4)/final-lines.txt","right":"bvh/pass-bottle-hold-training4-lines.txt","att_check":true},"trial_type":"html-button-response","trial_index":26,"time_elapsed":270254,"internal_node_id":"0.0-7.0-3.4","subject":"72z69lw70zafxgx"},{"rt":1687.1299999766052,"stimulus":"<p>Ready?</p>","button_pressed":"0","trial_type":"html-button-response","trial_index":27,"time_elapsed":271944,"internal_node_id":"0.0-7.0-0.5","subject":"72z69lw70zafxgx"},{"rt":null,"stimulus":"<div style=\"font-size:60px;\">+</div>","key_press":null,"trial_type":"html-keyboard-response","trial_index":28,"time_elapsed":273948,"internal_node_id":"0.0-7.0-1.5","subject":"72z69lw70zafxgx"},{"trial_type":"turing-test","trial_index":29,"time_elapsed":279322,"internal_node_id":"0.0-7.0-2.5","subject":"72z69lw70zafxgx"},{"rt":2077.7300000190735,"stimulus":"<p>Which sequence did you perceive as more natural?</p>","button_pressed":"1","test_part":"response","test_stimulus":{"position":0,"left":"bvh/pass-bottle-training1-lines.txt","right":"bvh/vr_prediction_models/model(vcgpdm)-dataset(pass-bottle)-mode(ELBO)-parts(1)-dyn(10)-lvm(5)-hold(1)/final-lines.txt","att_check":false},"trial_type":"html-button-response","trial_index":30,"time_elapsed":281413,"internal_node_id":"0.0-7.0-3.5","subject":"72z69lw70zafxgx"},{"rt":1184.030000003986,"stimulus":"<p>Ready?</p>","button_pressed":"0","trial_type":"html-button-response","trial_index":31,"time_elapsed":282602,"internal_node_id":"0.0-7.0-0.6","subject":"72z69lw70zafxgx"},{"rt":null,"stimulus":"<div style=\"font-size:60px;\">+</div>","key_press":null,"trial_type":"html-keyboard-response","trial_index":32,"time_elapsed":284610,"internal_node_id":"0.0-7.0-1.6","subject":"72z69lw70zafxgx"},{"trial_type":"turing-test","trial_index":33,"time_elapsed":289801,"internal_node_id":"0.0-7.0-2.6","subject":"72z69lw70zafxgx"},{"rt":1239.8449999745935,"stimulus":"<p>Which sequence did you perceive as more natural?</p>","button_pressed":"1","test_part":"response","test_stimulus":{"position":1,"left":"bvh/vr_prediction_models/model(vcgpdm)-dataset(return-bottle-hold)-mode(MAP)-parts(1)-hold(1)/final-lines.txt","right":"bvh/return-bottle-hold-training1-lines.txt","att_check":false},"trial_type":"html-button-response","trial_index":34,"time_elapsed":291044,"internal_node_id":"0.0-7.0-3.6","subject":"72z69lw70zafxgx"},{"rt":1253.785000066273,"stimulus":"<p>Ready?</p>","button_pressed":"0","trial_type":"html-button-response","trial_index":35,"time_elapsed":292303,"internal_node_id":"0.0-7.0-0.7","subject":"72z69lw70zafxgx"},{"rt":null,"stimulus":"<div style=\"font-size:60px;\">+</div>","key_press":null,"trial_type":"html-keyboard-response","trial_index":36,"time_elapsed":294310,"internal_node_id":"0.0-7.0-1.7","subject":"72z69lw70zafxgx"},{"trial_type":"turing-test","trial_index":37,"time_elapsed":298697,"internal_node_id":"0.0-7.0-2.7","subject":"72z69lw70zafxgx"},{"rt":1339.310000068508,"stimulus":"<p>Which sequence did you perceive as more natural?</p>","button_pressed":"0","test_part":"response","test_stimulus":{"position":0,"left":"bvh/return-bottle-hold-training2-lines.txt","right":"bvh/vr_prediction_models/model(dmp)-dataset(return-bottle-hold)-npsi(50)-hold(2)/final-lines.txt","att_check":true},"trial_type":"html-button-response","trial_index":38,"time_elapsed":300046,"internal_node_id":"0.0-7.0-3.7","subject":"72z69lw70zafxgx"},{"rt":1798.3099999837577,"stimulus":"<p>Ready?</p>","button_pressed":"0","trial_type":"html-button-response","trial_index":39,"time_elapsed":301852,"internal_node_id":"0.0-7.0-0.8","subject":"72z69lw70zafxgx"},{"rt":null,"stimulus":"<div style=\"font-size:60px;\">+</div>","key_press":null,"trial_type":"html-keyboard-response","trial_index":40,"time_elapsed":303859,"internal_node_id":"0.0-7.0-1.8","subject":"72z69lw70zafxgx"},{"trial_type":"turing-test","trial_index":41,"time_elapsed":308003,"internal_node_id":"0.0-7.0-2.8","subject":"72z69lw70zafxgx"},{"rt":1523.8000000827014,"stimulus":"<p>Which sequence did you perceive as more natural?</p>","button_pressed":"1","test_part":"response","test_stimulus":{"position":0,"left":"bvh/pass-bottle-training1-lines.txt","right":"bvh/vr_prediction_models/model(tmp)-dataset(pass-bottle)-numprim(9)-hold(1)/final-lines.txt","att_check":false},"trial_type":"html-button-response","trial_index":42,"time_elapsed":309533,"internal_node_id":"0.0-7.0-3.8","subject":"72z69lw70zafxgx"},{"rt":1095.185000100173,"stimulus":"<p>Ready?</p>","button_pressed":"0","trial_type":"html-button-response","trial_index":43,"time_elapsed":310640,"internal_node_id":"0.0-7.0-0.9","subject":"72z69lw70zafxgx"},{"rt":null,"stimulus":"<div style=\"font-size:60px;\">+</div>","key_press":null,"trial_type":"html-keyboard-response","trial_index":44,"time_elapsed":312647,"internal_node_id":"0.0-7.0-1.9","subject":"72z69lw70zafxgx"},{"trial_type":"turing-test","trial_index":45,"time_elapsed":317236,"internal_node_id":"0.0-7.0-2.9","subject":"72z69lw70zafxgx"},{"rt":1493.8850000035018,"stimulus":"<p>Which sequence did you perceive as more natural?</p>","button_pressed":"0","test_part":"response","test_stimulus":{"position":0,"left":"bvh/return-bottle-training4-lines.txt","right":"bvh/vr_prediction_models/model(dmp)-dataset(return-bottle)-npsi(80)-hold(4)/final-lines.txt","att_check":false},"trial_type":"html-button-response","trial_index":46,"time_elapsed":318736,"internal_node_id":"0.0-7.0-3.9","subject":"72z69lw70zafxgx"}]