[{"rt":1493,"stimulus":"<p>Welcome!<br> Please choose your language to start the experiment in the chosen language.</p><p>Willkommen!<br> Bitte wählen Sie eine Sprache, um das Experiment in der ausgewählten Sprache zu starten</p>","button_pressed":"1","trial_type":"html-button-response","trial_index":0,"time_elapsed":1514,"internal_node_id":"0.0-0.0","subject":"yyoqg5shz8nxmss","sona":"5572"},{"view_history":"[{\"page_index\":0,\"viewing_time\":501},{\"page_index\":1,\"viewing_time\":1208},{\"page_index\":2,\"viewing_time\":549},{\"page_index\":3,\"viewing_time\":4049},{\"page_index\":2,\"viewing_time\":3782},{\"page_index\":1,\"viewing_time\":2548},{\"page_index\":2,\"viewing_time\":353},{\"page_index\":3,\"viewing_time\":1005},{\"page_index\":4,\"viewing_time\":1073}]","rt":15069,"trial_type":"instructions","trial_index":1,"time_elapsed":16584,"internal_node_id":"0.0-1.0-0.0","subject":"yyoqg5shz8nxmss","sona":"5572"},{"rt":1432.0000000000036,"stimulus":"<p>Bereit?</p>","key_press":32,"trial_type":"html-keyboard-response","trial_index":2,"time_elapsed":18017,"internal_node_id":"0.0-3.0","subject":"yyoqg5shz8nxmss","sona":"5572"},{"rt":null,"stimulus":"<div style=\"font-size:60px;\">+</div>","key_press":null,"trial_type":"html-keyboard-response","trial_index":3,"time_elapsed":20020,"internal_node_id":"0.0-4.0","subject":"yyoqg5shz8nxmss","sona":"5572"},{"trial_type":"training","trial_index":4,"time_elapsed":23231,"internal_node_id":"0.0-5.0","subject":"yyoqg5shz8nxmss","sona":"5572"},{"rt":3085.9999999999964,"stimulus":"<p>Welche Sequenz haben Sie als natürlicher empfunden?</p>","key_press":70,"trial_type":"html-keyboard-response","trial_index":5,"time_elapsed":26318,"internal_node_id":"0.0-6.0","subject":"yyoqg5shz8nxmss","sona":"5572"},{"rt":2634.0000000000036,"stimulus":"<p>Das Experiment startet nun.</p><p><small>Bitte drücken Sie den Knopf, wenn Sie bereit sind.</small></p>","button_pressed":"0","trial_type":"html-button-response","trial_index":6,"time_elapsed":28953,"internal_node_id":"0.0-7.0","subject":"yyoqg5shz8nxmss","sona":"5572"},{"rt":884,"stimulus":"<p>Bereit?</p>","key_press":32,"trial_type":"html-keyboard-response","trial_index":7,"time_elapsed":29837,"internal_node_id":"0.0-8.0-0.0","subject":"yyoqg5shz8nxmss","sona":"5572"},{"rt":null,"stimulus":"<div style=\"font-size:60px;\">+</div>","key_press":null,"trial_type":"html-keyboard-response","trial_index":8,"time_elapsed":31841,"internal_node_id":"0.0-8.0-1.0","subject":"yyoqg5shz8nxmss","sona":"5572"},{"trial_type":"turing-test","trial_index":9,"time_elapsed":35509,"internal_node_id":"0.0-8.0-2.0","subject":"yyoqg5shz8nxmss","sona":"5572"},{"rt":1247,"stimulus":"<p>Welche Sequenz haben Sie als natürlicher empfunden?</p>","key_press":70,"test_part":"response","test_stimulus":{"position":1,"left":"bvh/vr_prediction_models/model(dmp)-dataset(return-bottle-hold)-npsi(60)-hold(4)/final-lines.txt","right":"bvh/return-bottle-hold-training4-lines.txt","att_check":false},"trial_type":"html-keyboard-response","trial_index":10,"time_elapsed":36757,"internal_node_id":"0.0-8.0-3.0","subject":"yyoqg5shz8nxmss","sona":"5572"},{"rt":406,"stimulus":"<p>Bereit?</p>","key_press":32,"trial_type":"html-keyboard-response","trial_index":11,"time_elapsed":37165,"internal_node_id":"0.0-8.0-0.1","subject":"yyoqg5shz8nxmss","sona":"5572"},{"rt":null,"stimulus":"<div style=\"font-size:60px;\">+</div>","key_press":null,"trial_type":"html-keyboard-response","trial_index":12,"time_elapsed":39168,"internal_node_id":"0.0-8.0-1.1","subject":"yyoqg5shz8nxmss","sona":"5572"},{"trial_type":"turing-test","trial_index":13,"time_elapsed":42695,"internal_node_id":"0.0-8.0-2.1","subject":"yyoqg5shz8nxmss","sona":"5572"},{"rt":3101,"stimulus":"<p>Welche Sequenz haben Sie als natürlicher empfunden?</p>","key_press":70,"test_part":"response","test_stimulus":{"position":0,"left":"bvh/pass-bottle-hold-training4-lines.txt","right":"bvh/vr_prediction_models/model(dmp)-dataset(pass-bottle-hold)-npsi(80)-hold(4)/final-lines.txt","att_check":true},"trial_type":"html-keyboard-response","trial_index":14,"time_elapsed":45797,"internal_node_id":"0.0-8.0-3.1","subject":"yyoqg5shz8nxmss","sona":"5572"},{"rt":551,"stimulus":"<p>Bereit?</p>","key_press":32,"trial_type":"html-keyboard-response","trial_index":15,"time_elapsed":46349,"internal_node_id":"0.0-8.0-0.2","subject":"yyoqg5shz8nxmss","sona":"5572"},{"rt":null,"stimulus":"<div style=\"font-size:60px;\">+</div>","key_press":null,"trial_type":"html-keyboard-response","trial_index":16,"time_elapsed":48351,"internal_node_id":"0.0-8.0-1.2","subject":"yyoqg5shz8nxmss","sona":"5572"},{"trial_type":"turing-test","trial_index":17,"time_elapsed":52005,"internal_node_id":"0.0-8.0-2.2","subject":"yyoqg5shz8nxmss","sona":"5572"},{"rt":1262,"stimulus":"<p>Welche Sequenz haben Sie als natürlicher empfunden?</p>","key_press":74,"test_part":"response","test_stimulus":{"position":0,"left":"bvh/return-bottle-hold-training3-lines.txt","right":"bvh/vr_prediction_models/model(vcgpdm)-dataset(return-bottle-hold)-mode(ELBO)-parts(1)-dyn(10)-lvm(25)-hold(3)/final-lines.txt","att_check":false},"trial_type":"html-keyboard-response","trial_index":18,"time_elapsed":53269,"internal_node_id":"0.0-8.0-3.2","subject":"yyoqg5shz8nxmss","sona":"5572"},{"rt":318,"stimulus":"<p>Bereit?</p>","key_press":32,"trial_type":"html-keyboard-response","trial_index":19,"time_elapsed":53589,"internal_node_id":"0.0-8.0-0.3","subject":"yyoqg5shz8nxmss","sona":"5572"},{"rt":null,"stimulus":"<div style=\"font-size:60px;\">+</div>","key_press":null,"trial_type":"html-keyboard-response","trial_index":20,"time_elapsed":55592,"internal_node_id":"0.0-8.0-1.3","subject":"yyoqg5shz8nxmss","sona":"5572"},{"trial_type":"turing-test","trial_index":21,"time_elapsed":61431,"internal_node_id":"0.0-8.0-2.3","subject":"yyoqg5shz8nxmss","sona":"5572"},{"rt":653.0000000000073,"stimulus":"<p>Welche Sequenz haben Sie als natürlicher empfunden?</p>","key_press":70,"test_part":"response","test_stimulus":{"position":1,"left":"bvh/vr_prediction_models/model(vcgpdm)-dataset(pass-bottle)-mode(MAP)-parts(3)-hold(3)/final-lines.txt","right":"bvh/pass-bottle-training3-lines.txt","att_check":false},"trial_type":"html-keyboard-response","trial_index":22,"time_elapsed":62085,"internal_node_id":"0.0-8.0-3.3","subject":"yyoqg5shz8nxmss","sona":"5572"},{"rt":365,"stimulus":"<p>Bereit?</p>","key_press":32,"trial_type":"html-keyboard-response","trial_index":23,"time_elapsed":62452,"internal_node_id":"0.0-8.0-0.4","subject":"yyoqg5shz8nxmss","sona":"5572"},{"rt":null,"stimulus":"<div style=\"font-size:60px;\">+</div>","key_press":null,"trial_type":"html-keyboard-response","trial_index":24,"time_elapsed":64456,"internal_node_id":"0.0-8.0-1.4","subject":"yyoqg5shz8nxmss","sona":"5572"},{"trial_type":"turing-test","trial_index":25,"time_elapsed":68198,"internal_node_id":"0.0-8.0-2.4","subject":"yyoqg5shz8nxmss","sona":"5572"},{"rt":565,"stimulus":"<p>Welche Sequenz haben Sie als natürlicher empfunden?</p>","key_press":74,"test_part":"response","test_stimulus":{"position":0,"left":"bvh/return-bottle-hold-training4-lines.txt","right":"bvh/vr_prediction_models/model(vcgpdm)-dataset(return-bottle-hold)-mode(ELBO)-parts(3)-dyn(35)-lvm(20)-hold(4)/final-lines.txt","att_check":false},"trial_type":"html-keyboard-response","trial_index":26,"time_elapsed":68765,"internal_node_id":"0.0-8.0-3.4","subject":"yyoqg5shz8nxmss","sona":"5572"},{"rt":222.00000000001455,"stimulus":"<p>Bereit?</p>","key_press":32,"trial_type":"html-keyboard-response","trial_index":27,"time_elapsed":68989,"internal_node_id":"0.0-8.0-0.5","subject":"yyoqg5shz8nxmss","sona":"5572"},{"rt":null,"stimulus":"<div style=\"font-size:60px;\">+</div>","key_press":null,"trial_type":"html-keyboard-response","trial_index":28,"time_elapsed":70991,"internal_node_id":"0.0-8.0-1.5","subject":"yyoqg5shz8nxmss","sona":"5572"},{"trial_type":"turing-test","trial_index":29,"time_elapsed":74458,"internal_node_id":"0.0-8.0-2.5","subject":"yyoqg5shz8nxmss","sona":"5572"},{"rt":5162,"stimulus":"<p>Welche Sequenz haben Sie als natürlicher empfunden?</p>","key_press":74,"test_part":"response","test_stimulus":{"position":1,"left":"bvh/vr_prediction_models/model(dmp)-dataset(pass-bottle-hold)-npsi(40)-hold(3)/final-lines.txt","right":"bvh/pass-bottle-hold-training3-lines.txt","att_check":false},"trial_type":"html-keyboard-response","trial_index":30,"time_elapsed":79622,"internal_node_id":"0.0-8.0-3.5","subject":"yyoqg5shz8nxmss","sona":"5572"},{"rt":221.99999999998545,"stimulus":"<p>Bereit?</p>","key_press":32,"trial_type":"html-keyboard-response","trial_index":31,"time_elapsed":79844,"internal_node_id":"0.0-8.0-0.6","subject":"yyoqg5shz8nxmss","sona":"5572"},{"rt":null,"stimulus":"<div style=\"font-size:60px;\">+</div>","key_press":null,"trial_type":"html-keyboard-response","trial_index":32,"time_elapsed":81845,"internal_node_id":"0.0-8.0-1.6","subject":"yyoqg5shz8nxmss","sona":"5572"},{"trial_type":"turing-test","trial_index":33,"time_elapsed":87293,"internal_node_id":"0.0-8.0-2.6","subject":"yyoqg5shz8nxmss","sona":"5572"},{"rt":558,"stimulus":"<p>Welche Sequenz haben Sie als natürlicher empfunden?</p>","key_press":70,"test_part":"response","test_stimulus":{"position":1,"left":"bvh/vr_prediction_models/model(vcgpdm)-dataset(return-bottle)-mode(ELBO)-parts(1)-dyn(30)-lvm(30)-hold(0)/final-lines.txt","right":"bvh/return-bottle-training0-lines.txt","att_check":false},"trial_type":"html-keyboard-response","trial_index":34,"time_elapsed":87853,"internal_node_id":"0.0-8.0-3.6","subject":"yyoqg5shz8nxmss","sona":"5572"},{"rt":239,"stimulus":"<p>Bereit?</p>","key_press":32,"trial_type":"html-keyboard-response","trial_index":35,"time_elapsed":88092,"internal_node_id":"0.0-8.0-0.7","subject":"yyoqg5shz8nxmss","sona":"5572"},{"rt":null,"stimulus":"<div style=\"font-size:60px;\">+</div>","key_press":null,"trial_type":"html-keyboard-response","trial_index":36,"time_elapsed":90096,"internal_node_id":"0.0-8.0-1.7","subject":"yyoqg5shz8nxmss","sona":"5572"},{"trial_type":"turing-test","trial_index":37,"time_elapsed":93538,"internal_node_id":"0.0-8.0-2.7","subject":"yyoqg5shz8nxmss","sona":"5572"},{"rt":712,"stimulus":"<p>Welche Sequenz haben Sie als natürlicher empfunden?</p>","key_press":74,"test_part":"response","test_stimulus":{"position":0,"left":"bvh/return-bottle-hold-training2-lines.txt","right":"bvh/vr_prediction_models/model(tmp)-dataset(return-bottle-hold)-numprim(15)-hold(2)/final-lines.txt","att_check":false},"trial_type":"html-keyboard-response","trial_index":38,"time_elapsed":94253,"internal_node_id":"0.0-8.0-3.7","subject":"yyoqg5shz8nxmss","sona":"5572"},{"rt":253,"stimulus":"<p>Bereit?</p>","key_press":32,"trial_type":"html-keyboard-response","trial_index":39,"time_elapsed":94508,"internal_node_id":"0.0-8.0-0.8","subject":"yyoqg5shz8nxmss","sona":"5572"},{"rt":null,"stimulus":"<div style=\"font-size:60px;\">+</div>","key_press":null,"trial_type":"html-keyboard-response","trial_index":40,"time_elapsed":96511,"internal_node_id":"0.0-8.0-1.8","subject":"yyoqg5shz8nxmss","sona":"5572"},{"trial_type":"turing-test","trial_index":41,"time_elapsed":100225,"internal_node_id":"0.0-8.0-2.8","subject":"yyoqg5shz8nxmss","sona":"5572"},{"rt":1437.9999999999854,"stimulus":"<p>Welche Sequenz haben Sie als natürlicher empfunden?</p>","key_press":70,"test_part":"response","test_stimulus":{"position":1,"left":"bvh/vr_prediction_models/model(vcgpdm)-dataset(return-bottle-hold)-mode(ELBO)-parts(3)-dyn(25)-lvm(30)-hold(3)/final-lines.txt","right":"bvh/return-bottle-hold-training3-lines.txt","att_check":false},"trial_type":"html-keyboard-response","trial_index":42,"time_elapsed":101664,"internal_node_id":"0.0-8.0-3.8","subject":"yyoqg5shz8nxmss","sona":"5572"},{"rt":333,"stimulus":"<p>Bereit?</p>","key_press":32,"trial_type":"html-keyboard-response","trial_index":43,"time_elapsed":101999,"internal_node_id":"0.0-8.0-0.9","subject":"yyoqg5shz8nxmss","sona":"5572"},{"rt":null,"stimulus":"<div style=\"font-size:60px;\">+</div>","key_press":null,"trial_type":"html-keyboard-response","trial_index":44,"time_elapsed":104002,"internal_node_id":"0.0-8.0-1.9","subject":"yyoqg5shz8nxmss","sona":"5572"},{"trial_type":"turing-test","trial_index":45,"time_elapsed":110035,"internal_node_id":"0.0-8.0-2.9","subject":"yyoqg5shz8nxmss","sona":"5572"},{"rt":828,"stimulus":"<p>Welche Sequenz haben Sie als natürlicher empfunden?</p>","key_press":74,"test_part":"response","test_stimulus":{"position":0,"left":"bvh/return-bottle-training1-lines.txt","right":"bvh/vr_prediction_models/model(dmp)-dataset(return-bottle)-npsi(40)-hold(1)/final-lines.txt","att_check":false},"trial_type":"html-keyboard-response","trial_index":46,"time_elapsed":110866,"internal_node_id":"0.0-8.0-3.9","subject":"yyoqg5shz8nxmss","sona":"5572"},{"rt":373,"stimulus":"<p>Bereit?</p>","key_press":32,"trial_type":"html-keyboard-response","trial_index":47,"time_elapsed":111240,"internal_node_id":"0.0-8.0-0.10","subject":"yyoqg5shz8nxmss","sona":"5572"},{"rt":null,"stimulus":"<div style=\"font-size:60px;\">+</div>","key_press":null,"trial_type":"html-keyboard-response","trial_index":48,"time_elapsed":113243,"internal_node_id":"0.0-8.0-1.10","subject":"yyoqg5shz8nxmss","sona":"5572"},{"trial_type":"turing-test","trial_index":49,"time_elapsed":116554,"internal_node_id":"0.0-8.0-2.10","subject":"yyoqg5shz8nxmss","sona":"5572"},{"rt":3174.0000000000146,"stimulus":"<p>Welche Sequenz haben Sie als natürlicher empfunden?</p>","key_press":70,"test_part":"response","test_stimulus":{"position":1,"left":"bvh/vr_prediction_models/model(dmp)-dataset(return-bottle-hold)-npsi(10)-hold(1)/final-lines.txt","right":"bvh/return-bottle-hold-training1-lines.txt","att_check":false},"trial_type":"html-keyboard-response","trial_index":50,"time_elapsed":119729,"internal_node_id":"0.0-8.0-3.10","subject":"yyoqg5shz8nxmss","sona":"5572"},{"rt":143,"stimulus":"<p>Bereit?</p>","key_press":32,"trial_type":"html-keyboard-response","trial_index":51,"time_elapsed":119873,"internal_node_id":"0.0-8.0-0.11","subject":"yyoqg5shz8nxmss","sona":"5572"},{"rt":null,"stimulus":"<div style=\"font-size:60px;\">+</div>","key_press":null,"trial_type":"html-keyboard-response","trial_index":52,"time_elapsed":121874,"internal_node_id":"0.0-8.0-1.11","subject":"yyoqg5shz8nxmss","sona":"5572"},{"trial_type":"turing-test","trial_index":53,"time_elapsed":127776,"internal_node_id":"0.0-8.0-2.11","subject":"yyoqg5shz8nxmss","sona":"5572"}]