[{"rt":4812.064999998256,"stimulus":"<p>Welcome!<br> Please choose your language to start the experiment in the chosen language.</p><p>Willkommen!<br> Bitte wählen Sie eine Sprache, um das Experiment in der ausgewählten Sprache zu starten</p>","button_pressed":"1","trial_type":"html-button-response","trial_index":0,"time_elapsed":4849,"internal_node_id":"0.0-0.0","subject":"1o8zd75djhnvj2g","sona":"9658"},{"view_history":"[{\"page_index\":0,\"viewing_time\":8453.919999999925},{\"page_index\":1,\"viewing_time\":3968.8099999984843},{\"page_index\":2,\"viewing_time\":4117.725000003702},{\"page_index\":3,\"viewing_time\":3478.259999996226},{\"page_index\":4,\"viewing_time\":2739.8300000058953}]","rt":22759.565000000293,"trial_type":"instructions","trial_index":1,"time_elapsed":27610,"internal_node_id":"0.0-1.0-0.0","subject":"1o8zd75djhnvj2g","sona":"9658"},{"rt":2650.4400000048918,"stimulus":"<p>Bereit?</p>","key_press":32,"trial_type":"html-keyboard-response","trial_index":2,"time_elapsed":30263,"internal_node_id":"0.0-3.0","subject":"1o8zd75djhnvj2g","sona":"9658"},{"rt":null,"stimulus":"<div style=\"font-size:60px;\">+</div>","key_press":null,"trial_type":"html-keyboard-response","trial_index":3,"time_elapsed":32267,"internal_node_id":"0.0-4.0","subject":"1o8zd75djhnvj2g","sona":"9658"},{"trial_type":"training","trial_index":4,"time_elapsed":35619,"internal_node_id":"0.0-5.0","subject":"1o8zd75djhnvj2g","sona":"9658"},{"rt":777.6400000002468,"stimulus":"<p>Welche Sequenz haben Sie als natürlicher empfunden?</p>","key_press":70,"trial_type":"html-keyboard-response","trial_index":5,"time_elapsed":36400,"internal_node_id":"0.0-6.0","subject":"1o8zd75djhnvj2g","sona":"9658"},{"rt":3763.0649999991874,"stimulus":"<p>Das Experiment startet nun.</p><p><small>Bitte drücken Sie den Knopf, wenn Sie bereit sind.</small></p>","button_pressed":"0","trial_type":"html-button-response","trial_index":6,"time_elapsed":40165,"internal_node_id":"0.0-7.0","subject":"1o8zd75djhnvj2g","sona":"9658"},{"rt":4650.449999993725,"stimulus":"<p>Bereit?</p>","key_press":32,"trial_type":"html-keyboard-response","trial_index":7,"time_elapsed":44818,"internal_node_id":"0.0-8.0-0.0","subject":"1o8zd75djhnvj2g","sona":"9658"},{"rt":null,"stimulus":"<div style=\"font-size:60px;\">+</div>","key_press":null,"trial_type":"html-keyboard-response","trial_index":8,"time_elapsed":46823,"internal_node_id":"0.0-8.0-1.0","subject":"1o8zd75djhnvj2g","sona":"9658"},{"trial_type":"turing-test","trial_index":9,"time_elapsed":50693,"internal_node_id":"0.0-8.0-2.0","subject":"1o8zd75djhnvj2g","sona":"9658"},{"rt":3604.575000004843,"stimulus":"<p>Welche Sequenz haben Sie als natürlicher empfunden?</p>","key_press":70,"test_part":"response","test_stimulus":{"position":0,"left":"bvh/return-bottle-hold-training4-lines.txt","right":"bvh/vr_prediction_models/model(vcgpdm)-dataset(return-bottle-hold)-mode(ELBO)-parts(1)-dyn(30)-lvm(30)-hold(4)/final-lines.txt","att_check":false},"trial_type":"html-keyboard-response","trial_index":10,"time_elapsed":54304,"internal_node_id":"0.0-8.0-3.0","subject":"1o8zd75djhnvj2g","sona":"9658"},{"rt":854.7350000008009,"stimulus":"<p>Bereit?</p>","key_press":32,"trial_type":"html-keyboard-response","trial_index":11,"time_elapsed":55162,"internal_node_id":"0.0-8.0-0.1","subject":"1o8zd75djhnvj2g","sona":"9658"},{"rt":null,"stimulus":"<div style=\"font-size:60px;\">+</div>","key_press":null,"trial_type":"html-keyboard-response","trial_index":12,"time_elapsed":57164,"internal_node_id":"0.0-8.0-1.1","subject":"1o8zd75djhnvj2g","sona":"9658"},{"trial_type":"turing-test","trial_index":13,"time_elapsed":60598,"internal_node_id":"0.0-8.0-2.1","subject":"1o8zd75djhnvj2g","sona":"9658"},{"rt":2930.0699999948847,"stimulus":"<p>Welche Sequenz haben Sie als natürlicher empfunden?</p>","key_press":70,"test_part":"response","test_stimulus":{"position":1,"left":"bvh/vr_prediction_models/model(vcgpdm)-dataset(pass-bottle-hold)-mode(ELBO)-parts(3)-dyn(20)-lvm(35)-hold(0)/final-lines.txt","right":"bvh/pass-bottle-hold-training0-lines.txt","att_check":false},"trial_type":"html-keyboard-response","trial_index":14,"time_elapsed":63532,"internal_node_id":"0.0-8.0-3.1","subject":"1o8zd75djhnvj2g","sona":"9658"},{"rt":906.9099999978789,"stimulus":"<p>Bereit?</p>","key_press":32,"trial_type":"html-keyboard-response","trial_index":15,"time_elapsed":64444,"internal_node_id":"0.0-8.0-0.2","subject":"1o8zd75djhnvj2g","sona":"9658"},{"rt":null,"stimulus":"<div style=\"font-size:60px;\">+</div>","key_press":null,"trial_type":"html-keyboard-response","trial_index":16,"time_elapsed":66447,"internal_node_id":"0.0-8.0-1.2","subject":"1o8zd75djhnvj2g","sona":"9658"},{"trial_type":"turing-test","trial_index":17,"time_elapsed":71560,"internal_node_id":"0.0-8.0-2.2","subject":"1o8zd75djhnvj2g","sona":"9658"},{"rt":1238.7799999996787,"stimulus":"<p>Welche Sequenz haben Sie als natürlicher empfunden?</p>","key_press":70,"test_part":"response","test_stimulus":{"position":0,"left":"bvh/return-bottle-hold-training0-lines.txt","right":"bvh/vr_prediction_models/model(tmp)-dataset(return-bottle-hold)-numprim(10)-hold(0)/final-lines.txt","att_check":false},"trial_type":"html-keyboard-response","trial_index":18,"time_elapsed":72801,"internal_node_id":"0.0-8.0-3.2","subject":"1o8zd75djhnvj2g","sona":"9658"},{"rt":968.2100000063656,"stimulus":"<p>Bereit?</p>","key_press":32,"trial_type":"html-keyboard-response","trial_index":19,"time_elapsed":73773,"internal_node_id":"0.0-8.0-0.3","subject":"1o8zd75djhnvj2g","sona":"9658"},{"rt":null,"stimulus":"<div style=\"font-size:60px;\">+</div>","key_press":null,"trial_type":"html-keyboard-response","trial_index":20,"time_elapsed":75777,"internal_node_id":"0.0-8.0-1.3","subject":"1o8zd75djhnvj2g","sona":"9658"},{"trial_type":"turing-test","trial_index":21,"time_elapsed":81669,"internal_node_id":"0.0-8.0-2.3","subject":"1o8zd75djhnvj2g","sona":"9658"},{"rt":4239.175000002433,"stimulus":"<p>Welche Sequenz haben Sie als natürlicher empfunden?</p>","key_press":74,"test_part":"response","test_stimulus":{"position":0,"left":"bvh/return-bottle-training4-lines.txt","right":"bvh/vr_prediction_models/model(vcgpdm)-dataset(return-bottle)-mode(ELBO)-parts(1)-dyn(15)-lvm(35)-hold(4)/final-lines.txt","att_check":false},"trial_type":"html-keyboard-response","trial_index":22,"time_elapsed":85913,"internal_node_id":"0.0-8.0-3.3","subject":"1o8zd75djhnvj2g","sona":"9658"},{"rt":642.8299999970477,"stimulus":"<p>Bereit?</p>","key_press":32,"trial_type":"html-keyboard-response","trial_index":23,"time_elapsed":86561,"internal_node_id":"0.0-8.0-0.4","subject":"1o8zd75djhnvj2g","sona":"9658"},{"rt":null,"stimulus":"<div style=\"font-size:60px;\">+</div>","key_press":null,"trial_type":"html-keyboard-response","trial_index":24,"time_elapsed":88565,"internal_node_id":"0.0-8.0-1.4","subject":"1o8zd75djhnvj2g","sona":"9658"},{"trial_type":"turing-test","trial_index":25,"time_elapsed":92191,"internal_node_id":"0.0-8.0-2.4","subject":"1o8zd75djhnvj2g","sona":"9658"},{"rt":2561.10500000068,"stimulus":"<p>Welche Sequenz haben Sie als natürlicher empfunden?</p>","key_press":70,"test_part":"response","test_stimulus":{"position":0,"left":"bvh/return-bottle-hold-training3-lines.txt","right":"bvh/vr_prediction_models/model(dmp)-dataset(return-bottle-hold)-npsi(30)-hold(3)/final-lines.txt","att_check":false},"trial_type":"html-keyboard-response","trial_index":26,"time_elapsed":94757,"internal_node_id":"0.0-8.0-3.4","subject":"1o8zd75djhnvj2g","sona":"9658"},{"rt":486.29999999684514,"stimulus":"<p>Bereit?</p>","key_press":32,"trial_type":"html-keyboard-response","trial_index":27,"time_elapsed":95248,"internal_node_id":"0.0-8.0-0.5","subject":"1o8zd75djhnvj2g","sona":"9658"},{"rt":null,"stimulus":"<div style=\"font-size:60px;\">+</div>","key_press":null,"trial_type":"html-keyboard-response","trial_index":28,"time_elapsed":97250,"internal_node_id":"0.0-8.0-1.5","subject":"1o8zd75djhnvj2g","sona":"9658"},{"trial_type":"turing-test","trial_index":29,"time_elapsed":100717,"internal_node_id":"0.0-8.0-2.5","subject":"1o8zd75djhnvj2g","sona":"9658"},{"rt":2133.835000000545,"stimulus":"<p>Welche Sequenz haben Sie als natürlicher empfunden?</p>","key_press":74,"test_part":"response","test_stimulus":{"position":1,"left":"bvh/vr_prediction_models/model(dmp)-dataset(return-bottle-hold)-npsi(80)-hold(2)/final-lines.txt","right":"bvh/return-bottle-hold-training2-lines.txt","att_check":false},"trial_type":"html-keyboard-response","trial_index":30,"time_elapsed":102854,"internal_node_id":"0.0-8.0-3.5","subject":"1o8zd75djhnvj2g","sona":"9658"},{"rt":561.9200000001001,"stimulus":"<p>Bereit?</p>","key_press":32,"trial_type":"html-keyboard-response","trial_index":31,"time_elapsed":103420,"internal_node_id":"0.0-8.0-0.6","subject":"1o8zd75djhnvj2g","sona":"9658"},{"rt":null,"stimulus":"<div style=\"font-size:60px;\">+</div>","key_press":null,"trial_type":"html-keyboard-response","trial_index":32,"time_elapsed":105424,"internal_node_id":"0.0-8.0-1.6","subject":"1o8zd75djhnvj2g","sona":"9658"},{"trial_type":"turing-test","trial_index":33,"time_elapsed":112190,"internal_node_id":"0.0-8.0-2.6","subject":"1o8zd75djhnvj2g","sona":"9658"},{"rt":1611.9150000013178,"stimulus":"<p>Welche Sequenz haben Sie als natürlicher empfunden?</p>","key_press":70,"test_part":"response","test_stimulus":{"position":0,"left":"bvh/pass-bottle-training0-lines.txt","right":"bvh/vr_prediction_models/model(tmp)-dataset(pass-bottle)-numprim(12)-hold(0)/final-lines.txt","att_check":false},"trial_type":"html-keyboard-response","trial_index":34,"time_elapsed":113811,"internal_node_id":"0.0-8.0-3.6","subject":"1o8zd75djhnvj2g","sona":"9658"},{"rt":618.865000004007,"stimulus":"<p>Bereit?</p>","key_press":32,"trial_type":"html-keyboard-response","trial_index":35,"time_elapsed":114434,"internal_node_id":"0.0-8.0-0.7","subject":"1o8zd75djhnvj2g","sona":"9658"},{"rt":null,"stimulus":"<div style=\"font-size:60px;\">+</div>","key_press":null,"trial_type":"html-keyboard-response","trial_index":36,"time_elapsed":116437,"internal_node_id":"0.0-8.0-1.7","subject":"1o8zd75djhnvj2g","sona":"9658"},{"trial_type":"turing-test","trial_index":37,"time_elapsed":122576,"internal_node_id":"0.0-8.0-2.7","subject":"1o8zd75djhnvj2g","sona":"9658"},{"rt":360.9699999942677,"stimulus":"<p>Welche Sequenz haben Sie als natürlicher empfunden?</p>","key_press":74,"test_part":"response","test_stimulus":{"position":1,"left":"bvh/vr_prediction_models/model(tmp)-dataset(pass-bottle)-numprim(7)-hold(2)/final-lines.txt","right":"bvh/pass-bottle-training2-lines.txt","att_check":false},"trial_type":"html-keyboard-response","trial_index":38,"time_elapsed":122943,"internal_node_id":"0.0-8.0-3.7","subject":"1o8zd75djhnvj2g","sona":"9658"},{"rt":504.20499999745516,"stimulus":"<p>Bereit?</p>","key_press":32,"trial_type":"html-keyboard-response","trial_index":39,"time_elapsed":123452,"internal_node_id":"0.0-8.0-0.8","subject":"1o8zd75djhnvj2g","sona":"9658"},{"rt":null,"stimulus":"<div style=\"font-size:60px;\">+</div>","key_press":null,"trial_type":"html-keyboard-response","trial_index":40,"time_elapsed":125455,"internal_node_id":"0.0-8.0-1.8","subject":"1o8zd75djhnvj2g","sona":"9658"},{"trial_type":"turing-test","trial_index":41,"time_elapsed":128777,"internal_node_id":"0.0-8.0-2.8","subject":"1o8zd75djhnvj2g","sona":"9658"},{"rt":572.6550000035786,"stimulus":"<p>Welche Sequenz haben Sie als natürlicher empfunden?</p>","key_press":74,"test_part":"response","test_stimulus":{"position":1,"left":"bvh/vr_prediction_models/model(tmp)-dataset(pass-bottle-hold)-numprim(5)-hold(2)/final-lines.txt","right":"bvh/pass-bottle-hold-training2-lines.txt","att_check":false},"trial_type":"html-keyboard-response","trial_index":42,"time_elapsed":129356,"internal_node_id":"0.0-8.0-3.8","subject":"1o8zd75djhnvj2g","sona":"9658"},{"rt":446.1349999983213,"stimulus":"<p>Bereit?</p>","key_press":32,"trial_type":"html-keyboard-response","trial_index":43,"time_elapsed":129806,"internal_node_id":"0.0-8.0-0.9","subject":"1o8zd75djhnvj2g","sona":"9658"},{"rt":null,"stimulus":"<div style=\"font-size:60px;\">+</div>","key_press":null,"trial_type":"html-keyboard-response","trial_index":44,"time_elapsed":131810,"internal_node_id":"0.0-8.0-1.9","subject":"1o8zd75djhnvj2g","sona":"9658"},{"trial_type":"turing-test","trial_index":45,"time_elapsed":135295,"internal_node_id":"0.0-8.0-2.9","subject":"1o8zd75djhnvj2g","sona":"9658"},{"rt":511.37999999627937,"stimulus":"<p>Welche Sequenz haben Sie als natürlicher empfunden?</p>","key_press":70,"test_part":"response","test_stimulus":{"position":1,"left":"bvh/vr_prediction_models/model(vcgpdm)-dataset(return-bottle-hold)-mode(ELBO)-parts(3)-dyn(20)-lvm(20)-hold(1)/final-lines.txt","right":"bvh/return-bottle-hold-training1-lines.txt","att_check":false},"trial_type":"html-keyboard-response","trial_index":46,"time_elapsed":135814,"internal_node_id":"0.0-8.0-3.9","subject":"1o8zd75djhnvj2g","sona":"9658"},{"rt":322.41500000236556,"stimulus":"<p>Bereit?</p>","key_press":32,"trial_type":"html-keyboard-response","trial_index":47,"time_elapsed":136143,"internal_node_id":"0.0-8.0-0.10","subject":"1o8zd75djhnvj2g","sona":"9658"},{"rt":null,"stimulus":"<div style=\"font-size:60px;\">+</div>","key_press":null,"trial_type":"html-keyboard-response","trial_index":48,"time_elapsed":138146,"internal_node_id":"0.0-8.0-1.10","subject":"1o8zd75djhnvj2g","sona":"9658"},{"trial_type":"turing-test","trial_index":49,"time_elapsed":144826,"internal_node_id":"0.0-8.0-2.10","subject":"1o8zd75djhnvj2g","sona":"9658"},{"rt":818.9850000053411,"stimulus":"<p>Welche Sequenz haben Sie als natürlicher empfunden?</p>","key_press":74,"test_part":"response","test_stimulus":{"position":0,"left":"bvh/pass-bottle-training0-lines.txt","right":"bvh/vr_prediction_models/model(tmp)-dataset(pass-bottle)-numprim(5)-hold(0)/final-lines.txt","att_check":false},"trial_type":"html-keyboard-response","trial_index":50,"time_elapsed":145651,"internal_node_id":"0.0-8.0-3.10","subject":"1o8zd75djhnvj2g","sona":"9658"},{"rt":552.5900000066031,"stimulus":"<p>Bereit?</p>","key_press":32,"trial_type":"html-keyboard-response","trial_index":51,"time_elapsed":146208,"internal_node_id":"0.0-8.0-0.11","subject":"1o8zd75djhnvj2g","sona":"9658"},{"rt":null,"stimulus":"<div style=\"font-size:60px;\">+</div>","key_press":null,"trial_type":"html-keyboard-response","trial_index":52,"time_elapsed":148212,"internal_node_id":"0.0-8.0-1.11","subject":"1o8zd75djhnvj2g","sona":"9658"}]