[{"rt":2573.2850000204053,"stimulus":"<p>Welcome!<br> Please choose your language to start the experiment in the chosen language.</p><p>Willkommen!<br> Bitte wählen Sie eine Sprache, um das Experiment in der ausgewählten Sprache zu starten</p>","button_pressed":"1","trial_type":"html-button-response","trial_index":0,"time_elapsed":2633,"internal_node_id":"0.0-0.0","subject":"o1pyr5d7hf5bx9c","sona":"9580"},{"view_history":"[{\"page_index\":0,\"viewing_time\":1551.5850000083447},{\"page_index\":1,\"viewing_time\":2007.580000004964},{\"page_index\":0,\"viewing_time\":43553.28500000178},{\"page_index\":1,\"viewing_time\":4427.410000003874},{\"page_index\":2,\"viewing_time\":1435.1350000069942},{\"page_index\":3,\"viewing_time\":1613.729999982752},{\"page_index\":4,\"viewing_time\":1937.1899999969173},{\"page_index\":3,\"viewing_time\":4070.495000021765},{\"page_index\":4,\"viewing_time\":4020.134999998845}]","rt":64617.94500000542,"trial_type":"instructions","trial_index":1,"time_elapsed":67260,"internal_node_id":"0.0-1.0-0.0","subject":"o1pyr5d7hf5bx9c","sona":"9580"},{"rt":1618.415000004461,"stimulus":"<p>Bereit?</p>","key_press":32,"trial_type":"html-keyboard-response","trial_index":2,"time_elapsed":68882,"internal_node_id":"0.0-3.0","subject":"o1pyr5d7hf5bx9c","sona":"9580"},{"rt":null,"stimulus":"<div style=\"font-size:60px;\">+</div>","key_press":null,"trial_type":"html-keyboard-response","trial_index":3,"time_elapsed":70901,"internal_node_id":"0.0-4.0","subject":"o1pyr5d7hf5bx9c","sona":"9580"},{"trial_type":"training","trial_index":4,"time_elapsed":74177,"internal_node_id":"0.0-5.0","subject":"o1pyr5d7hf5bx9c","sona":"9580"},{"rt":1154.8400000028778,"stimulus":"<p>Welche Sequenz haben Sie als natürlicher empfunden?</p>","key_press":70,"trial_type":"html-keyboard-response","trial_index":5,"time_elapsed":75334,"internal_node_id":"0.0-6.0","subject":"o1pyr5d7hf5bx9c","sona":"9580"},{"rt":4440.990000002785,"stimulus":"<p>Das Experiment startet nun.</p><p><small>Bitte drücken Sie den Knopf, wenn Sie bereit sind.</small></p>","button_pressed":"0","trial_type":"html-button-response","trial_index":6,"time_elapsed":79777,"internal_node_id":"0.0-7.0","subject":"o1pyr5d7hf5bx9c","sona":"9580"},{"rt":7620.859999995446,"stimulus":"<p>Bereit?</p>","key_press":32,"trial_type":"html-keyboard-response","trial_index":7,"time_elapsed":87400,"internal_node_id":"0.0-8.0-0.0","subject":"o1pyr5d7hf5bx9c","sona":"9580"},{"rt":null,"stimulus":"<div style=\"font-size:60px;\">+</div>","key_press":null,"trial_type":"html-keyboard-response","trial_index":8,"time_elapsed":89430,"internal_node_id":"0.0-8.0-1.0","subject":"o1pyr5d7hf5bx9c","sona":"9580"},{"trial_type":"turing-test","trial_index":9,"time_elapsed":95291,"internal_node_id":"0.0-8.0-2.0","subject":"o1pyr5d7hf5bx9c","sona":"9580"},{"rt":327.7150000212714,"stimulus":"<p>Welche Sequenz haben Sie als natürlicher empfunden?</p>","key_press":74,"test_part":"response","test_stimulus":{"position":1,"left":"bvh/vr_prediction_models/model(tmp)-dataset(pass-bottle)-numprim(3)-hold(3)/final-lines.txt","right":"bvh/pass-bottle-training3-lines.txt","att_check":false},"trial_type":"html-keyboard-response","trial_index":10,"time_elapsed":95624,"internal_node_id":"0.0-8.0-3.0","subject":"o1pyr5d7hf5bx9c","sona":"9580"},{"rt":437.869999994291,"stimulus":"<p>Bereit?</p>","key_press":32,"trial_type":"html-keyboard-response","trial_index":11,"time_elapsed":96065,"internal_node_id":"0.0-8.0-0.1","subject":"o1pyr5d7hf5bx9c","sona":"9580"},{"rt":null,"stimulus":"<div style=\"font-size:60px;\">+</div>","key_press":null,"trial_type":"html-keyboard-response","trial_index":12,"time_elapsed":98085,"internal_node_id":"0.0-8.0-1.1","subject":"o1pyr5d7hf5bx9c","sona":"9580"},{"trial_type":"turing-test","trial_index":13,"time_elapsed":104630,"internal_node_id":"0.0-8.0-2.1","subject":"o1pyr5d7hf5bx9c","sona":"9580"},{"rt":377.7800000098068,"stimulus":"<p>Welche Sequenz haben Sie als natürlicher empfunden?</p>","key_press":74,"test_part":"response","test_stimulus":{"position":0,"left":"bvh/return-bottle-training2-lines.txt","right":"bvh/vr_prediction_models/model(vcgpdm)-dataset(return-bottle)-mode(ELBO)-parts(1)-dyn(20)-lvm(5)-hold(2)/final-lines.txt","att_check":false},"trial_type":"html-keyboard-response","trial_index":14,"time_elapsed":105012,"internal_node_id":"0.0-8.0-3.1","subject":"o1pyr5d7hf5bx9c","sona":"9580"},{"rt":275.75999998953193,"stimulus":"<p>Bereit?</p>","key_press":32,"trial_type":"html-keyboard-response","trial_index":15,"time_elapsed":105291,"internal_node_id":"0.0-8.0-0.2","subject":"o1pyr5d7hf5bx9c","sona":"9580"},{"rt":null,"stimulus":"<div style=\"font-size:60px;\">+</div>","key_press":null,"trial_type":"html-keyboard-response","trial_index":16,"time_elapsed":107314,"internal_node_id":"0.0-8.0-1.2","subject":"o1pyr5d7hf5bx9c","sona":"9580"},{"trial_type":"turing-test","trial_index":17,"time_elapsed":113236,"internal_node_id":"0.0-8.0-2.2","subject":"o1pyr5d7hf5bx9c","sona":"9580"},{"rt":292.8550000069663,"stimulus":"<p>Welche Sequenz haben Sie als natürlicher empfunden?</p>","key_press":74,"test_part":"response","test_stimulus":{"position":0,"left":"bvh/pass-bottle-training4-lines.txt","right":"bvh/vr_prediction_models/model(vcgpdm)-dataset(pass-bottle)-mode(ELBO)-parts(3)-dyn(30)-lvm(15)-hold(4)/final-lines.txt","att_check":false},"trial_type":"html-keyboard-response","trial_index":18,"time_elapsed":113532,"internal_node_id":"0.0-8.0-3.2","subject":"o1pyr5d7hf5bx9c","sona":"9580"},{"rt":331.1849999881815,"stimulus":"<p>Bereit?</p>","key_press":32,"trial_type":"html-keyboard-response","trial_index":19,"time_elapsed":113868,"internal_node_id":"0.0-8.0-0.3","subject":"o1pyr5d7hf5bx9c","sona":"9580"},{"rt":null,"stimulus":"<div style=\"font-size:60px;\">+</div>","key_press":null,"trial_type":"html-keyboard-response","trial_index":20,"time_elapsed":115889,"internal_node_id":"0.0-8.0-1.3","subject":"o1pyr5d7hf5bx9c","sona":"9580"},{"trial_type":"turing-test","trial_index":21,"time_elapsed":119570,"internal_node_id":"0.0-8.0-2.3","subject":"o1pyr5d7hf5bx9c","sona":"9580"},{"rt":569.6850000240374,"stimulus":"<p>Welche Sequenz haben Sie als natürlicher empfunden?</p>","key_press":74,"test_part":"response","test_stimulus":{"position":1,"left":"bvh/vr_prediction_models/model(vcgpdm)-dataset(return-bottle-hold)-mode(ELBO)-parts(3)-dyn(15)-lvm(30)-hold(2)/final-lines.txt","right":"bvh/return-bottle-hold-training2-lines.txt","att_check":false},"trial_type":"html-keyboard-response","trial_index":22,"time_elapsed":120146,"internal_node_id":"0.0-8.0-3.3","subject":"o1pyr5d7hf5bx9c","sona":"9580"},{"rt":290.8999999926891,"stimulus":"<p>Bereit?</p>","key_press":32,"trial_type":"html-keyboard-response","trial_index":23,"time_elapsed":120440,"internal_node_id":"0.0-8.0-0.4","subject":"o1pyr5d7hf5bx9c","sona":"9580"},{"rt":null,"stimulus":"<div style=\"font-size:60px;\">+</div>","key_press":null,"trial_type":"html-keyboard-response","trial_index":24,"time_elapsed":122448,"internal_node_id":"0.0-8.0-1.4","subject":"o1pyr5d7hf5bx9c","sona":"9580"},{"trial_type":"turing-test","trial_index":25,"time_elapsed":126070,"internal_node_id":"0.0-8.0-2.4","subject":"o1pyr5d7hf5bx9c","sona":"9580"},{"rt":419.08500000135973,"stimulus":"<p>Welche Sequenz haben Sie als natürlicher empfunden?</p>","key_press":70,"test_part":"response","test_stimulus":{"position":1,"left":"bvh/vr_prediction_models/model(dmp)-dataset(return-bottle-hold)-npsi(50)-hold(3)/final-lines.txt","right":"bvh/return-bottle-hold-training3-lines.txt","att_check":true},"trial_type":"html-keyboard-response","trial_index":26,"time_elapsed":126494,"internal_node_id":"0.0-8.0-3.4","subject":"o1pyr5d7hf5bx9c","sona":"9580"},{"rt":296.10999999567866,"stimulus":"<p>Bereit?</p>","key_press":32,"trial_type":"html-keyboard-response","trial_index":27,"time_elapsed":126793,"internal_node_id":"0.0-8.0-0.5","subject":"o1pyr5d7hf5bx9c","sona":"9580"},{"rt":null,"stimulus":"<div style=\"font-size:60px;\">+</div>","key_press":null,"trial_type":"html-keyboard-response","trial_index":28,"time_elapsed":128802,"internal_node_id":"0.0-8.0-1.5","subject":"o1pyr5d7hf5bx9c","sona":"9580"},{"trial_type":"turing-test","trial_index":29,"time_elapsed":134722,"internal_node_id":"0.0-8.0-2.5","subject":"o1pyr5d7hf5bx9c","sona":"9580"},{"rt":1186.8700000050012,"stimulus":"<p>Welche Sequenz haben Sie als natürlicher empfunden?</p>","key_press":74,"test_part":"response","test_stimulus":{"position":0,"left":"bvh/return-bottle-training3-lines.txt","right":"bvh/vr_prediction_models/model(vcgpdm)-dataset(return-bottle)-mode(ELBO)-parts(1)-dyn(10)-lvm(25)-hold(3)/final-lines.txt","att_check":false},"trial_type":"html-keyboard-response","trial_index":30,"time_elapsed":135915,"internal_node_id":"0.0-8.0-3.5","subject":"o1pyr5d7hf5bx9c","sona":"9580"},{"rt":581.4250000112224,"stimulus":"<p>Bereit?</p>","key_press":32,"trial_type":"html-keyboard-response","trial_index":31,"time_elapsed":136500,"internal_node_id":"0.0-8.0-0.6","subject":"o1pyr5d7hf5bx9c","sona":"9580"},{"rt":null,"stimulus":"<div style=\"font-size:60px;\">+</div>","key_press":null,"trial_type":"html-keyboard-response","trial_index":32,"time_elapsed":138525,"internal_node_id":"0.0-8.0-1.6","subject":"o1pyr5d7hf5bx9c","sona":"9580"},{"trial_type":"turing-test","trial_index":33,"time_elapsed":142383,"internal_node_id":"0.0-8.0-2.6","subject":"o1pyr5d7hf5bx9c","sona":"9580"},{"rt":369.91999999736436,"stimulus":"<p>Welche Sequenz haben Sie als natürlicher empfunden?</p>","key_press":70,"test_part":"response","test_stimulus":{"position":1,"left":"bvh/vr_prediction_models/model(vcgpdm)-dataset(return-bottle-hold)-mode(ELBO)-parts(1)-dyn(15)-lvm(35)-hold(3)/final-lines.txt","right":"bvh/return-bottle-hold-training3-lines.txt","att_check":false},"trial_type":"html-keyboard-response","trial_index":34,"time_elapsed":142759,"internal_node_id":"0.0-8.0-3.6","subject":"o1pyr5d7hf5bx9c","sona":"9580"},{"rt":345.8099999988917,"stimulus":"<p>Bereit?</p>","key_press":32,"trial_type":"html-keyboard-response","trial_index":35,"time_elapsed":143109,"internal_node_id":"0.0-8.0-0.7","subject":"o1pyr5d7hf5bx9c","sona":"9580"},{"rt":null,"stimulus":"<div style=\"font-size:60px;\">+</div>","key_press":null,"trial_type":"html-keyboard-response","trial_index":36,"time_elapsed":145124,"internal_node_id":"0.0-8.0-1.7","subject":"o1pyr5d7hf5bx9c","sona":"9580"},{"trial_type":"turing-test","trial_index":37,"time_elapsed":148680,"internal_node_id":"0.0-8.0-2.7","subject":"o1pyr5d7hf5bx9c","sona":"9580"},{"rt":448.26999999349937,"stimulus":"<p>Welche Sequenz haben Sie als natürlicher empfunden?</p>","key_press":74,"test_part":"response","test_stimulus":{"position":0,"left":"bvh/pass-bottle-hold-training4-lines.txt","right":"bvh/vr_prediction_models/model(tmp)-dataset(pass-bottle-hold)-numprim(11)-hold(4)/final-lines.txt","att_check":false},"trial_type":"html-keyboard-response","trial_index":38,"time_elapsed":149132,"internal_node_id":"0.0-8.0-3.7","subject":"o1pyr5d7hf5bx9c","sona":"9580"},{"rt":347.7650000131689,"stimulus":"<p>Bereit?</p>","key_press":32,"trial_type":"html-keyboard-response","trial_index":39,"time_elapsed":149487,"internal_node_id":"0.0-8.0-0.8","subject":"o1pyr5d7hf5bx9c","sona":"9580"},{"rt":null,"stimulus":"<div style=\"font-size:60px;\">+</div>","key_press":null,"trial_type":"html-keyboard-response","trial_index":40,"time_elapsed":151501,"internal_node_id":"0.0-8.0-1.8","subject":"o1pyr5d7hf5bx9c","sona":"9580"},{"trial_type":"turing-test","trial_index":41,"time_elapsed":154799,"internal_node_id":"0.0-8.0-2.8","subject":"o1pyr5d7hf5bx9c","sona":"9580"},{"rt":395.9150000009686,"stimulus":"<p>Welche Sequenz haben Sie als natürlicher empfunden?</p>","key_press":74,"test_part":"response","test_stimulus":{"position":0,"left":"bvh/pass-bottle-hold-training0-lines.txt","right":"bvh/vr_prediction_models/model(vcgpdm)-dataset(pass-bottle-hold)-mode(ELBO)-parts(3)-dyn(25)-lvm(15)-hold(0)/final-lines.txt","att_check":false},"trial_type":"html-keyboard-response","trial_index":42,"time_elapsed":155199,"internal_node_id":"0.0-8.0-3.8","subject":"o1pyr5d7hf5bx9c","sona":"9580"},{"rt":339.57499999087304,"stimulus":"<p>Bereit?</p>","key_press":32,"trial_type":"html-keyboard-response","trial_index":43,"time_elapsed":155543,"internal_node_id":"0.0-8.0-0.9","subject":"o1pyr5d7hf5bx9c","sona":"9580"},{"rt":null,"stimulus":"<div style=\"font-size:60px;\">+</div>","key_press":null,"trial_type":"html-keyboard-response","trial_index":44,"time_elapsed":157561,"internal_node_id":"0.0-8.0-1.9","subject":"o1pyr5d7hf5bx9c","sona":"9580"},{"trial_type":"turing-test","trial_index":45,"time_elapsed":163600,"internal_node_id":"0.0-8.0-2.9","subject":"o1pyr5d7hf5bx9c","sona":"9580"},{"rt":392.0349999971222,"stimulus":"<p>Welche Sequenz haben Sie als natürlicher empfunden?</p>","key_press":74,"test_part":"response","test_stimulus":{"position":0,"left":"bvh/return-bottle-training1-lines.txt","right":"bvh/vr_prediction_models/model(tmp)-dataset(return-bottle)-numprim(4)-hold(1)/final-lines.txt","att_check":false},"trial_type":"html-keyboard-response","trial_index":46,"time_elapsed":164000,"internal_node_id":"0.0-8.0-3.9","subject":"o1pyr5d7hf5bx9c","sona":"9580"},{"rt":529.9850000010338,"stimulus":"<p>Bereit?</p>","key_press":32,"trial_type":"html-keyboard-response","trial_index":47,"time_elapsed":164535,"internal_node_id":"0.0-8.0-0.10","subject":"o1pyr5d7hf5bx9c","sona":"9580"},{"rt":null,"stimulus":"<div style=\"font-size:60px;\">+</div>","key_press":null,"trial_type":"html-keyboard-response","trial_index":48,"time_elapsed":166551,"internal_node_id":"0.0-8.0-1.10","subject":"o1pyr5d7hf5bx9c","sona":"9580"},{"trial_type":"turing-test","trial_index":49,"time_elapsed":170274,"internal_node_id":"0.0-8.0-2.10","subject":"o1pyr5d7hf5bx9c","sona":"9580"},{"rt":590.8649999764748,"stimulus":"<p>Welche Sequenz haben Sie als natürlicher empfunden?</p>","key_press":74,"test_part":"response","test_stimulus":{"position":0,"left":"bvh/return-bottle-hold-training4-lines.txt","right":"bvh/vr_prediction_models/model(dmp)-dataset(return-bottle-hold)-npsi(20)-hold(4)/final-lines.txt","att_check":false},"trial_type":"html-keyboard-response","trial_index":50,"time_elapsed":170869,"internal_node_id":"0.0-8.0-3.10","subject":"o1pyr5d7hf5bx9c","sona":"9580"}]