[{"rt":1880,"stimulus":"<p>Welcome!<br> Please choose your language to start the experiment in the chosen language.</p><p>Willkommen!<br> Bitte wählen Sie eine Sprache, um das Experiment in der ausgewählten Sprache zu starten</p>","button_pressed":"1","trial_type":"html-button-response","trial_index":0,"time_elapsed":1888,"internal_node_id":"0.0-0.0","subject":"ylngv0pvxmpo9mu","sona":"9709"},{"view_history":"[{\"page_index\":0,\"viewing_time\":4985},{\"page_index\":1,\"viewing_time\":3030},{\"page_index\":2,\"viewing_time\":5111},{\"page_index\":3,\"viewing_time\":9100},{\"page_index\":4,\"viewing_time\":2639}]","rt":24866,"trial_type":"instructions","trial_index":1,"time_elapsed":26757,"internal_node_id":"0.0-1.0-0.0","subject":"ylngv0pvxmpo9mu","sona":"9709"},{"rt":1983,"stimulus":"<p>Bereit?</p>","key_press":32,"trial_type":"html-keyboard-response","trial_index":2,"time_elapsed":28745,"internal_node_id":"0.0-3.0","subject":"ylngv0pvxmpo9mu","sona":"9709"},{"rt":null,"stimulus":"<div style=\"font-size:60px;\">+</div>","key_press":null,"trial_type":"html-keyboard-response","trial_index":3,"time_elapsed":30766,"internal_node_id":"0.0-4.0","subject":"ylngv0pvxmpo9mu","sona":"9709"},{"trial_type":"training","trial_index":4,"time_elapsed":34215,"internal_node_id":"0.0-5.0","subject":"ylngv0pvxmpo9mu","sona":"9709"},{"rt":1631,"stimulus":"<p>Welche Sequenz haben Sie als natürlicher empfunden?</p>","key_press":70,"trial_type":"html-keyboard-response","trial_index":5,"time_elapsed":35847,"internal_node_id":"0.0-6.0","subject":"ylngv0pvxmpo9mu","sona":"9709"},{"rt":5308,"stimulus":"<p>Das Experiment startet nun.</p><p><small>Bitte drücken Sie den Knopf, wenn Sie bereit sind.</small></p>","button_pressed":"0","trial_type":"html-button-response","trial_index":6,"time_elapsed":41157,"internal_node_id":"0.0-7.0","subject":"ylngv0pvxmpo9mu","sona":"9709"},{"rt":1810,"stimulus":"<p>Bereit?</p>","key_press":32,"trial_type":"html-keyboard-response","trial_index":7,"time_elapsed":42969,"internal_node_id":"0.0-8.0-0.0","subject":"ylngv0pvxmpo9mu","sona":"9709"},{"rt":null,"stimulus":"<div style=\"font-size:60px;\">+</div>","key_press":null,"trial_type":"html-keyboard-response","trial_index":8,"time_elapsed":45006,"internal_node_id":"0.0-8.0-1.0","subject":"ylngv0pvxmpo9mu","sona":"9709"},{"trial_type":"turing-test","trial_index":9,"time_elapsed":51065,"internal_node_id":"0.0-8.0-2.0","subject":"ylngv0pvxmpo9mu","sona":"9709"},{"rt":1012,"stimulus":"<p>Welche Sequenz haben Sie als natürlicher empfunden?</p>","key_press":74,"test_part":"response","test_stimulus":{"position":1,"left":"bvh/vr_prediction_models/model(tmp)-dataset(return-bottle)-numprim(14)-hold(1)/final-lines.txt","right":"bvh/return-bottle-training1-lines.txt","att_check":false},"trial_type":"html-keyboard-response","trial_index":10,"time_elapsed":52080,"internal_node_id":"0.0-8.0-3.0","subject":"ylngv0pvxmpo9mu","sona":"9709"},{"rt":877,"stimulus":"<p>Bereit?</p>","key_press":32,"trial_type":"html-keyboard-response","trial_index":11,"time_elapsed":52958,"internal_node_id":"0.0-8.0-0.1","subject":"ylngv0pvxmpo9mu","sona":"9709"},{"rt":null,"stimulus":"<div style=\"font-size:60px;\">+</div>","key_press":null,"trial_type":"html-keyboard-response","trial_index":12,"time_elapsed":54995,"internal_node_id":"0.0-8.0-1.1","subject":"ylngv0pvxmpo9mu","sona":"9709"},{"trial_type":"turing-test","trial_index":13,"time_elapsed":60395,"internal_node_id":"0.0-8.0-2.1","subject":"ylngv0pvxmpo9mu","sona":"9709"},{"rt":635,"stimulus":"<p>Welche Sequenz haben Sie als natürlicher empfunden?</p>","key_press":74,"test_part":"response","test_stimulus":{"position":1,"left":"bvh/vr_prediction_models/model(dmp)-dataset(return-bottle)-npsi(70)-hold(0)/final-lines.txt","right":"bvh/return-bottle-training0-lines.txt","att_check":false},"trial_type":"html-keyboard-response","trial_index":14,"time_elapsed":61032,"internal_node_id":"0.0-8.0-3.1","subject":"ylngv0pvxmpo9mu","sona":"9709"},{"rt":812,"stimulus":"<p>Bereit?</p>","key_press":32,"trial_type":"html-keyboard-response","trial_index":15,"time_elapsed":61847,"internal_node_id":"0.0-8.0-0.2","subject":"ylngv0pvxmpo9mu","sona":"9709"},{"rt":null,"stimulus":"<div style=\"font-size:60px;\">+</div>","key_press":null,"trial_type":"html-keyboard-response","trial_index":16,"time_elapsed":63875,"internal_node_id":"0.0-8.0-1.2","subject":"ylngv0pvxmpo9mu","sona":"9709"},{"trial_type":"turing-test","trial_index":17,"time_elapsed":69974,"internal_node_id":"0.0-8.0-2.2","subject":"ylngv0pvxmpo9mu","sona":"9709"},{"rt":3319,"stimulus":"<p>Welche Sequenz haben Sie als natürlicher empfunden?</p>","key_press":70,"test_part":"response","test_stimulus":{"position":1,"left":"bvh/vr_prediction_models/model(dmp)-dataset(pass-bottle)-npsi(40)-hold(2)/final-lines.txt","right":"bvh/pass-bottle-training2-lines.txt","att_check":true},"trial_type":"html-keyboard-response","trial_index":18,"time_elapsed":73296,"internal_node_id":"0.0-8.0-3.2","subject":"ylngv0pvxmpo9mu","sona":"9709"},{"rt":613,"stimulus":"<p>Bereit?</p>","key_press":32,"trial_type":"html-keyboard-response","trial_index":19,"time_elapsed":73911,"internal_node_id":"0.0-8.0-0.3","subject":"ylngv0pvxmpo9mu","sona":"9709"},{"rt":null,"stimulus":"<div style=\"font-size:60px;\">+</div>","key_press":null,"trial_type":"html-keyboard-response","trial_index":20,"time_elapsed":75935,"internal_node_id":"0.0-8.0-1.3","subject":"ylngv0pvxmpo9mu","sona":"9709"},{"trial_type":"turing-test","trial_index":21,"time_elapsed":82103,"internal_node_id":"0.0-8.0-2.3","subject":"ylngv0pvxmpo9mu","sona":"9709"},{"rt":1060,"stimulus":"<p>Welche Sequenz haben Sie als natürlicher empfunden?</p>","key_press":70,"test_part":"response","test_stimulus":{"position":1,"left":"bvh/vr_prediction_models/model(vcgpdm)-dataset(pass-bottle)-mode(ELBO)-parts(3)-dyn(25)-lvm(25)-hold(2)/final-lines.txt","right":"bvh/pass-bottle-training2-lines.txt","att_check":false},"trial_type":"html-keyboard-response","trial_index":22,"time_elapsed":83168,"internal_node_id":"0.0-8.0-3.3","subject":"ylngv0pvxmpo9mu","sona":"9709"},{"rt":385,"stimulus":"<p>Bereit?</p>","key_press":32,"trial_type":"html-keyboard-response","trial_index":23,"time_elapsed":83555,"internal_node_id":"0.0-8.0-0.4","subject":"ylngv0pvxmpo9mu","sona":"9709"},{"rt":null,"stimulus":"<div style=\"font-size:60px;\">+</div>","key_press":null,"trial_type":"html-keyboard-response","trial_index":24,"time_elapsed":85575,"internal_node_id":"0.0-8.0-1.4","subject":"ylngv0pvxmpo9mu","sona":"9709"},{"trial_type":"turing-test","trial_index":25,"time_elapsed":92305,"internal_node_id":"0.0-8.0-2.4","subject":"ylngv0pvxmpo9mu","sona":"9709"},{"rt":590,"stimulus":"<p>Welche Sequenz haben Sie als natürlicher empfunden?</p>","key_press":74,"test_part":"response","test_stimulus":{"position":0,"left":"bvh/pass-bottle-training0-lines.txt","right":"bvh/vr_prediction_models/model(tmp)-dataset(pass-bottle)-numprim(8)-hold(0)/final-lines.txt","att_check":false},"trial_type":"html-keyboard-response","trial_index":26,"time_elapsed":92897,"internal_node_id":"0.0-8.0-3.4","subject":"ylngv0pvxmpo9mu","sona":"9709"},{"rt":609,"stimulus":"<p>Bereit?</p>","key_press":32,"trial_type":"html-keyboard-response","trial_index":27,"time_elapsed":93507,"internal_node_id":"0.0-8.0-0.5","subject":"ylngv0pvxmpo9mu","sona":"9709"},{"rt":null,"stimulus":"<div style=\"font-size:60px;\">+</div>","key_press":null,"trial_type":"html-keyboard-response","trial_index":28,"time_elapsed":95514,"internal_node_id":"0.0-8.0-1.5","subject":"ylngv0pvxmpo9mu","sona":"9709"},{"trial_type":"turing-test","trial_index":29,"time_elapsed":99294,"internal_node_id":"0.0-8.0-2.5","subject":"ylngv0pvxmpo9mu","sona":"9709"},{"rt":386,"stimulus":"<p>Welche Sequenz haben Sie als natürlicher empfunden?</p>","key_press":74,"test_part":"response","test_stimulus":{"position":0,"left":"bvh/return-bottle-hold-training4-lines.txt","right":"bvh/vr_prediction_models/model(vcgpdm)-dataset(return-bottle-hold)-mode(ELBO)-parts(3)-dyn(10)-lvm(10)-hold(4)/final-lines.txt","att_check":false},"trial_type":"html-keyboard-response","trial_index":30,"time_elapsed":99683,"internal_node_id":"0.0-8.0-3.5","subject":"ylngv0pvxmpo9mu","sona":"9709"},{"rt":371,"stimulus":"<p>Bereit?</p>","key_press":32,"trial_type":"html-keyboard-response","trial_index":31,"time_elapsed":100057,"internal_node_id":"0.0-8.0-0.6","subject":"ylngv0pvxmpo9mu","sona":"9709"},{"rt":null,"stimulus":"<div style=\"font-size:60px;\">+</div>","key_press":null,"trial_type":"html-keyboard-response","trial_index":32,"time_elapsed":102084,"internal_node_id":"0.0-8.0-1.6","subject":"ylngv0pvxmpo9mu","sona":"9709"},{"trial_type":"turing-test","trial_index":33,"time_elapsed":105374,"internal_node_id":"0.0-8.0-2.6","subject":"ylngv0pvxmpo9mu","sona":"9709"},{"rt":856,"stimulus":"<p>Welche Sequenz haben Sie als natürlicher empfunden?</p>","key_press":70,"test_part":"response","test_stimulus":{"position":0,"left":"bvh/pass-bottle-hold-training0-lines.txt","right":"bvh/vr_prediction_models/model(tmp)-dataset(pass-bottle-hold)-numprim(7)-hold(0)/final-lines.txt","att_check":false},"trial_type":"html-keyboard-response","trial_index":34,"time_elapsed":106232,"internal_node_id":"0.0-8.0-3.6","subject":"ylngv0pvxmpo9mu","sona":"9709"},{"rt":267,"stimulus":"<p>Bereit?</p>","key_press":32,"trial_type":"html-keyboard-response","trial_index":35,"time_elapsed":106501,"internal_node_id":"0.0-8.0-0.7","subject":"ylngv0pvxmpo9mu","sona":"9709"},{"rt":null,"stimulus":"<div style=\"font-size:60px;\">+</div>","key_press":null,"trial_type":"html-keyboard-response","trial_index":36,"time_elapsed":108514,"internal_node_id":"0.0-8.0-1.7","subject":"ylngv0pvxmpo9mu","sona":"9709"},{"trial_type":"turing-test","trial_index":37,"time_elapsed":111844,"internal_node_id":"0.0-8.0-2.7","subject":"ylngv0pvxmpo9mu","sona":"9709"},{"rt":726,"stimulus":"<p>Welche Sequenz haben Sie als natürlicher empfunden?</p>","key_press":74,"test_part":"response","test_stimulus":{"position":1,"left":"bvh/vr_prediction_models/model(tmp)-dataset(return-bottle-hold)-numprim(9)-hold(1)/final-lines.txt","right":"bvh/return-bottle-hold-training1-lines.txt","att_check":false},"trial_type":"html-keyboard-response","trial_index":38,"time_elapsed":112572,"internal_node_id":"0.0-8.0-3.7","subject":"ylngv0pvxmpo9mu","sona":"9709"},{"rt":326,"stimulus":"<p>Bereit?</p>","key_press":32,"trial_type":"html-keyboard-response","trial_index":39,"time_elapsed":112900,"internal_node_id":"0.0-8.0-0.8","subject":"ylngv0pvxmpo9mu","sona":"9709"},{"rt":null,"stimulus":"<div style=\"font-size:60px;\">+</div>","key_press":null,"trial_type":"html-keyboard-response","trial_index":40,"time_elapsed":114914,"internal_node_id":"0.0-8.0-1.8","subject":"ylngv0pvxmpo9mu","sona":"9709"},{"trial_type":"turing-test","trial_index":41,"time_elapsed":120694,"internal_node_id":"0.0-8.0-2.8","subject":"ylngv0pvxmpo9mu","sona":"9709"},{"rt":700,"stimulus":"<p>Welche Sequenz haben Sie als natürlicher empfunden?</p>","key_press":74,"test_part":"response","test_stimulus":{"position":0,"left":"bvh/return-bottle-training4-lines.txt","right":"bvh/vr_prediction_models/model(dmp)-dataset(return-bottle)-npsi(60)-hold(4)/final-lines.txt","att_check":false},"trial_type":"html-keyboard-response","trial_index":42,"time_elapsed":121396,"internal_node_id":"0.0-8.0-3.8","subject":"ylngv0pvxmpo9mu","sona":"9709"},{"rt":345,"stimulus":"<p>Bereit?</p>","key_press":32,"trial_type":"html-keyboard-response","trial_index":43,"time_elapsed":121744,"internal_node_id":"0.0-8.0-0.9","subject":"ylngv0pvxmpo9mu","sona":"9709"},{"rt":null,"stimulus":"<div style=\"font-size:60px;\">+</div>","key_press":null,"trial_type":"html-keyboard-response","trial_index":44,"time_elapsed":123764,"internal_node_id":"0.0-8.0-1.9","subject":"ylngv0pvxmpo9mu","sona":"9709"},{"trial_type":"turing-test","trial_index":45,"time_elapsed":127304,"internal_node_id":"0.0-8.0-2.9","subject":"ylngv0pvxmpo9mu","sona":"9709"},{"rt":588,"stimulus":"<p>Welche Sequenz haben Sie als natürlicher empfunden?</p>","key_press":70,"test_part":"response","test_stimulus":{"position":0,"left":"bvh/pass-bottle-hold-training3-lines.txt","right":"bvh/vr_prediction_models/model(dmp)-dataset(pass-bottle-hold)-npsi(30)-hold(3)/final-lines.txt","att_check":false},"trial_type":"html-keyboard-response","trial_index":46,"time_elapsed":127895,"internal_node_id":"0.0-8.0-3.9","subject":"ylngv0pvxmpo9mu","sona":"9709"},{"rt":287,"stimulus":"<p>Bereit?</p>","key_press":32,"trial_type":"html-keyboard-response","trial_index":47,"time_elapsed":128184,"internal_node_id":"0.0-8.0-0.10","subject":"ylngv0pvxmpo9mu","sona":"9709"},{"rt":null,"stimulus":"<div style=\"font-size:60px;\">+</div>","key_press":null,"trial_type":"html-keyboard-response","trial_index":48,"time_elapsed":130214,"internal_node_id":"0.0-8.0-1.10","subject":"ylngv0pvxmpo9mu","sona":"9709"},{"trial_type":"turing-test","trial_index":49,"time_elapsed":136014,"internal_node_id":"0.0-8.0-2.10","subject":"ylngv0pvxmpo9mu","sona":"9709"},{"rt":459,"stimulus":"<p>Welche Sequenz haben Sie als natürlicher empfunden?</p>","key_press":70,"test_part":"response","test_stimulus":{"position":0,"left":"bvh/return-bottle-training4-lines.txt","right":"bvh/vr_prediction_models/model(vcgpdm)-dataset(return-bottle)-mode(ELBO)-parts(3)-dyn(35)-lvm(20)-hold(4)/final-lines.txt","att_check":false},"trial_type":"html-keyboard-response","trial_index":50,"time_elapsed":136476,"internal_node_id":"0.0-8.0-3.10","subject":"ylngv0pvxmpo9mu","sona":"9709"},{"rt":481,"stimulus":"<p>Bereit?</p>","key_press":32,"trial_type":"html-keyboard-response","trial_index":51,"time_elapsed":136958,"internal_node_id":"0.0-8.0-0.11","subject":"ylngv0pvxmpo9mu","sona":"9709"},{"rt":null,"stimulus":"<div style=\"font-size:60px;\">+</div>","key_press":null,"trial_type":"html-keyboard-response","trial_index":52,"time_elapsed":138969,"internal_node_id":"0.0-8.0-1.11","subject":"ylngv0pvxmpo9mu","sona":"9709"},{"trial_type":"turing-test","trial_index":53,"time_elapsed":144404,"internal_node_id":"0.0-8.0-2.11","subject":"ylngv0pvxmpo9mu","sona":"9709"}]