[{"rt":3077.660000009928,"stimulus":"<p>Welcome!<br> Please choose your language to start the experiment in the chosen language.</p><p>Willkommen!<br> Bitte wählen Sie eine Sprache, um das Experiment in der ausgewählten Sprache zu starten</p>","button_pressed":"1","trial_type":"html-button-response","trial_index":0,"time_elapsed":3094,"internal_node_id":"0.0-0.0","subject":"u47utxe1yhc2w9d","sona":"7324"},{"view_history":"[{\"page_index\":0,\"viewing_time\":526.1350000218954},{\"page_index\":1,\"viewing_time\":733.444999990752},{\"page_index\":2,\"viewing_time\":720.2549999929033},{\"page_index\":3,\"viewing_time\":1346.1499999975786},{\"page_index\":4,\"viewing_time\":949.6100000105798}]","rt":4276.580000005197,"trial_type":"instructions","trial_index":1,"time_elapsed":7372,"internal_node_id":"0.0-1.0-0.0","subject":"u47utxe1yhc2w9d","sona":"7324"},{"rt":1365.9249999909662,"stimulus":"<p>Bereit?</p>","key_press":32,"trial_type":"html-keyboard-response","trial_index":2,"time_elapsed":8740,"internal_node_id":"0.0-3.0","subject":"u47utxe1yhc2w9d","sona":"7324"},{"rt":null,"stimulus":"<div style=\"font-size:60px;\">+</div>","key_press":null,"trial_type":"html-keyboard-response","trial_index":3,"time_elapsed":10743,"internal_node_id":"0.0-4.0","subject":"u47utxe1yhc2w9d","sona":"7324"},{"trial_type":"training","trial_index":4,"time_elapsed":13975,"internal_node_id":"0.0-5.0","subject":"u47utxe1yhc2w9d","sona":"7324"},{"rt":514.0550000069197,"stimulus":"<p>Welche Sequenz haben Sie als natürlicher empfunden?</p>","key_press":70,"trial_type":"html-keyboard-response","trial_index":5,"time_elapsed":14490,"internal_node_id":"0.0-6.0","subject":"u47utxe1yhc2w9d","sona":"7324"},{"rt":3317.399999999907,"stimulus":"<p>Das Experiment startet nun.</p><p><small>Bitte drücken Sie den Knopf, wenn Sie bereit sind.</small></p>","button_pressed":"0","trial_type":"html-button-response","trial_index":6,"time_elapsed":17809,"internal_node_id":"0.0-7.0","subject":"u47utxe1yhc2w9d","sona":"7324"},{"rt":2068.204999988666,"stimulus":"<p>Bereit?</p>","key_press":32,"trial_type":"html-keyboard-response","trial_index":7,"time_elapsed":19879,"internal_node_id":"0.0-8.0-0.0","subject":"u47utxe1yhc2w9d","sona":"7324"},{"rt":null,"stimulus":"<div style=\"font-size:60px;\">+</div>","key_press":null,"trial_type":"html-keyboard-response","trial_index":8,"time_elapsed":21882,"internal_node_id":"0.0-8.0-1.0","subject":"u47utxe1yhc2w9d","sona":"7324"},{"trial_type":"turing-test","trial_index":9,"time_elapsed":27817,"internal_node_id":"0.0-8.0-2.0","subject":"u47utxe1yhc2w9d","sona":"7324"},{"rt":36094.504999986384,"stimulus":"<p>Welche Sequenz haben Sie als natürlicher empfunden?</p>","key_press":70,"test_part":"response","test_stimulus":{"position":1,"left":"bvh/vr_prediction_models/model(vcgpdm)-dataset(pass-bottle)-mode(ELBO)-parts(1)-dyn(30)-lvm(35)-hold(3)/final-lines.txt","right":"bvh/pass-bottle-training3-lines.txt","att_check":false},"trial_type":"html-keyboard-response","trial_index":10,"time_elapsed":63914,"internal_node_id":"0.0-8.0-3.0","subject":"u47utxe1yhc2w9d","sona":"7324"},{"rt":1096.1499999975786,"stimulus":"<p>Bereit?</p>","key_press":32,"trial_type":"html-keyboard-response","trial_index":11,"time_elapsed":65015,"internal_node_id":"0.0-8.0-0.1","subject":"u47utxe1yhc2w9d","sona":"7324"},{"rt":null,"stimulus":"<div style=\"font-size:60px;\">+</div>","key_press":null,"trial_type":"html-keyboard-response","trial_index":12,"time_elapsed":67018,"internal_node_id":"0.0-8.0-1.1","subject":"u47utxe1yhc2w9d","sona":"7324"},{"trial_type":"turing-test","trial_index":13,"time_elapsed":75172,"internal_node_id":"0.0-8.0-2.1","subject":"u47utxe1yhc2w9d","sona":"7324"},{"rt":1401.1350000218954,"stimulus":"<p>Welche Sequenz haben Sie als natürlicher empfunden?</p>","key_press":74,"test_part":"response","test_stimulus":{"position":1,"left":"bvh/vr_prediction_models/model(vcgpdm)-dataset(pass-bottle-hold)-mode(ELBO)-parts(1)-dyn(10)-lvm(30)-hold(1)/final-lines.txt","right":"bvh/pass-bottle-hold-training1-lines.txt","att_check":false},"trial_type":"html-keyboard-response","trial_index":14,"time_elapsed":76578,"internal_node_id":"0.0-8.0-3.1","subject":"u47utxe1yhc2w9d","sona":"7324"},{"rt":690.1249999937136,"stimulus":"<p>Bereit?</p>","key_press":32,"trial_type":"html-keyboard-response","trial_index":15,"time_elapsed":77272,"internal_node_id":"0.0-8.0-0.2","subject":"u47utxe1yhc2w9d","sona":"7324"},{"rt":null,"stimulus":"<div style=\"font-size:60px;\">+</div>","key_press":null,"trial_type":"html-keyboard-response","trial_index":16,"time_elapsed":79275,"internal_node_id":"0.0-8.0-1.2","subject":"u47utxe1yhc2w9d","sona":"7324"},{"trial_type":"turing-test","trial_index":17,"time_elapsed":82980,"internal_node_id":"0.0-8.0-2.2","subject":"u47utxe1yhc2w9d","sona":"7324"},{"rt":294.4300000090152,"stimulus":"<p>Welche Sequenz haben Sie als natürlicher empfunden?</p>","key_press":70,"test_part":"response","test_stimulus":{"position":0,"left":"bvh/return-bottle-hold-training3-lines.txt","right":"bvh/vr_prediction_models/model(vcgpdm)-dataset(return-bottle-hold)-mode(MAP)-parts(1)-hold(3)/final-lines.txt","att_check":false},"trial_type":"html-keyboard-response","trial_index":18,"time_elapsed":83280,"internal_node_id":"0.0-8.0-3.2","subject":"u47utxe1yhc2w9d","sona":"7324"},{"rt":765.9749999875203,"stimulus":"<p>Bereit?</p>","key_press":32,"trial_type":"html-keyboard-response","trial_index":19,"time_elapsed":84050,"internal_node_id":"0.0-8.0-0.3","subject":"u47utxe1yhc2w9d","sona":"7324"},{"rt":null,"stimulus":"<div style=\"font-size:60px;\">+</div>","key_press":null,"trial_type":"html-keyboard-response","trial_index":20,"time_elapsed":86053,"internal_node_id":"0.0-8.0-1.3","subject":"u47utxe1yhc2w9d","sona":"7324"},{"trial_type":"turing-test","trial_index":21,"time_elapsed":91166,"internal_node_id":"0.0-8.0-2.3","subject":"u47utxe1yhc2w9d","sona":"7324"},{"rt":254.60499999462627,"stimulus":"<p>Welche Sequenz haben Sie als natürlicher empfunden?</p>","key_press":70,"test_part":"response","test_stimulus":{"position":0,"left":"bvh/return-bottle-hold-training0-lines.txt","right":"bvh/vr_prediction_models/model(tmp)-dataset(return-bottle-hold)-numprim(14)-hold(0)/final-lines.txt","att_check":false},"trial_type":"html-keyboard-response","trial_index":22,"time_elapsed":91427,"internal_node_id":"0.0-8.0-3.3","subject":"u47utxe1yhc2w9d","sona":"7324"},{"rt":463.53999999701045,"stimulus":"<p>Bereit?</p>","key_press":32,"trial_type":"html-keyboard-response","trial_index":23,"time_elapsed":91894,"internal_node_id":"0.0-8.0-0.4","subject":"u47utxe1yhc2w9d","sona":"7324"},{"rt":null,"stimulus":"<div style=\"font-size:60px;\">+</div>","key_press":null,"trial_type":"html-keyboard-response","trial_index":24,"time_elapsed":93897,"internal_node_id":"0.0-8.0-1.4","subject":"u47utxe1yhc2w9d","sona":"7324"},{"trial_type":"turing-test","trial_index":25,"time_elapsed":106381,"internal_node_id":"0.0-8.0-2.4","subject":"u47utxe1yhc2w9d","sona":"7324"},{"rt":12633.590000012191,"stimulus":"<p>Welche Sequenz haben Sie als natürlicher empfunden?</p>","key_press":74,"test_part":"response","test_stimulus":{"position":1,"left":"bvh/vr_prediction_models/model(tmp)-dataset(return-bottle)-numprim(6)-hold(2)/final-lines.txt","right":"bvh/return-bottle-training2-lines.txt","att_check":false},"trial_type":"html-keyboard-response","trial_index":26,"time_elapsed":119018,"internal_node_id":"0.0-8.0-3.4","subject":"u47utxe1yhc2w9d","sona":"7324"},{"rt":1326.8950000056066,"stimulus":"<p>Bereit?</p>","key_press":32,"trial_type":"html-keyboard-response","trial_index":27,"time_elapsed":120349,"internal_node_id":"0.0-8.0-0.5","subject":"u47utxe1yhc2w9d","sona":"7324"},{"rt":null,"stimulus":"<div style=\"font-size:60px;\">+</div>","key_press":null,"trial_type":"html-keyboard-response","trial_index":28,"time_elapsed":122353,"internal_node_id":"0.0-8.0-1.5","subject":"u47utxe1yhc2w9d","sona":"7324"},{"trial_type":"turing-test","trial_index":29,"time_elapsed":125645,"internal_node_id":"0.0-8.0-2.5","subject":"u47utxe1yhc2w9d","sona":"7324"},{"rt":1492.5050000019837,"stimulus":"<p>Welche Sequenz haben Sie als natürlicher empfunden?</p>","key_press":70,"test_part":"response","test_stimulus":{"position":0,"left":"bvh/pass-bottle-hold-training2-lines.txt","right":"bvh/vr_prediction_models/model(tmp)-dataset(pass-bottle-hold)-numprim(4)-hold(2)/final-lines.txt","att_check":false},"trial_type":"html-keyboard-response","trial_index":30,"time_elapsed":127144,"internal_node_id":"0.0-8.0-3.5","subject":"u47utxe1yhc2w9d","sona":"7324"},{"rt":3077.2999999753665,"stimulus":"<p>Bereit?</p>","key_press":32,"trial_type":"html-keyboard-response","trial_index":31,"time_elapsed":130223,"internal_node_id":"0.0-8.0-0.6","subject":"u47utxe1yhc2w9d","sona":"7324"},{"rt":null,"stimulus":"<div style=\"font-size:60px;\">+</div>","key_press":null,"trial_type":"html-keyboard-response","trial_index":32,"time_elapsed":132226,"internal_node_id":"0.0-8.0-1.6","subject":"u47utxe1yhc2w9d","sona":"7324"},{"trial_type":"turing-test","trial_index":33,"time_elapsed":135776,"internal_node_id":"0.0-8.0-2.6","subject":"u47utxe1yhc2w9d","sona":"7324"},{"rt":509.69499998609535,"stimulus":"<p>Welche Sequenz haben Sie als natürlicher empfunden?</p>","key_press":70,"test_part":"response","test_stimulus":{"position":0,"left":"bvh/return-bottle-hold-training2-lines.txt","right":"bvh/vr_prediction_models/model(vcgpdm)-dataset(return-bottle-hold)-mode(ELBO)-parts(1)-dyn(25)-lvm(35)-hold(2)/final-lines.txt","att_check":false},"trial_type":"html-keyboard-response","trial_index":34,"time_elapsed":136291,"internal_node_id":"0.0-8.0-3.6","subject":"u47utxe1yhc2w9d","sona":"7324"},{"rt":454.9750000005588,"stimulus":"<p>Bereit?</p>","key_press":32,"trial_type":"html-keyboard-response","trial_index":35,"time_elapsed":136750,"internal_node_id":"0.0-8.0-0.7","subject":"u47utxe1yhc2w9d","sona":"7324"},{"rt":null,"stimulus":"<div style=\"font-size:60px;\">+</div>","key_press":null,"trial_type":"html-keyboard-response","trial_index":36,"time_elapsed":138752,"internal_node_id":"0.0-8.0-1.7","subject":"u47utxe1yhc2w9d","sona":"7324"},{"trial_type":"turing-test","trial_index":37,"time_elapsed":144541,"internal_node_id":"0.0-8.0-2.7","subject":"u47utxe1yhc2w9d","sona":"7324"},{"rt":794.625000009546,"stimulus":"<p>Welche Sequenz haben Sie als natürlicher empfunden?</p>","key_press":70,"test_part":"response","test_stimulus":{"position":1,"left":"bvh/vr_prediction_models/model(tmp)-dataset(pass-bottle)-numprim(9)-hold(3)/final-lines.txt","right":"bvh/pass-bottle-training3-lines.txt","att_check":false},"trial_type":"html-keyboard-response","trial_index":38,"time_elapsed":145342,"internal_node_id":"0.0-8.0-3.7","subject":"u47utxe1yhc2w9d","sona":"7324"},{"rt":3450.0999999872874,"stimulus":"<p>Bereit?</p>","key_press":32,"trial_type":"html-keyboard-response","trial_index":39,"time_elapsed":148796,"internal_node_id":"0.0-8.0-0.8","subject":"u47utxe1yhc2w9d","sona":"7324"},{"rt":null,"stimulus":"<div style=\"font-size:60px;\">+</div>","key_press":null,"trial_type":"html-keyboard-response","trial_index":40,"time_elapsed":150799,"internal_node_id":"0.0-8.0-1.8","subject":"u47utxe1yhc2w9d","sona":"7324"},{"trial_type":"turing-test","trial_index":41,"time_elapsed":156739,"internal_node_id":"0.0-8.0-2.8","subject":"u47utxe1yhc2w9d","sona":"7324"},{"rt":563.6100000119768,"stimulus":"<p>Welche Sequenz haben Sie als natürlicher empfunden?</p>","key_press":70,"test_part":"response","test_stimulus":{"position":0,"left":"bvh/pass-bottle-training3-lines.txt","right":"bvh/vr_prediction_models/model(vcgpdm)-dataset(pass-bottle)-mode(ELBO)-parts(3)-dyn(20)-lvm(35)-hold(3)/final-lines.txt","att_check":false},"trial_type":"html-keyboard-response","trial_index":42,"time_elapsed":157304,"internal_node_id":"0.0-8.0-3.8","subject":"u47utxe1yhc2w9d","sona":"7324"},{"rt":1618.545000004815,"stimulus":"<p>Bereit?</p>","key_press":32,"trial_type":"html-keyboard-response","trial_index":43,"time_elapsed":158925,"internal_node_id":"0.0-8.0-0.9","subject":"u47utxe1yhc2w9d","sona":"7324"},{"rt":null,"stimulus":"<div style=\"font-size:60px;\">+</div>","key_press":null,"trial_type":"html-keyboard-response","trial_index":44,"time_elapsed":160928,"internal_node_id":"0.0-8.0-1.9","subject":"u47utxe1yhc2w9d","sona":"7324"},{"trial_type":"turing-test","trial_index":45,"time_elapsed":164346,"internal_node_id":"0.0-8.0-2.9","subject":"u47utxe1yhc2w9d","sona":"7324"},{"rt":305.3699999873061,"stimulus":"<p>Welche Sequenz haben Sie als natürlicher empfunden?</p>","key_press":74,"test_part":"response","test_stimulus":{"position":1,"left":"bvh/vr_prediction_models/model(vcgpdm)-dataset(pass-bottle-hold)-mode(ELBO)-parts(1)-dyn(5)-lvm(5)-hold(0)/final-lines.txt","right":"bvh/pass-bottle-hold-training0-lines.txt","att_check":false},"trial_type":"html-keyboard-response","trial_index":46,"time_elapsed":164657,"internal_node_id":"0.0-8.0-3.9","subject":"u47utxe1yhc2w9d","sona":"7324"},{"rt":598.4800000151154,"stimulus":"<p>Bereit?</p>","key_press":32,"trial_type":"html-keyboard-response","trial_index":47,"time_elapsed":165259,"internal_node_id":"0.0-8.0-0.10","subject":"u47utxe1yhc2w9d","sona":"7324"},{"rt":null,"stimulus":"<div style=\"font-size:60px;\">+</div>","key_press":null,"trial_type":"html-keyboard-response","trial_index":48,"time_elapsed":167263,"internal_node_id":"0.0-8.0-1.10","subject":"u47utxe1yhc2w9d","sona":"7324"},{"trial_type":"turing-test","trial_index":49,"time_elapsed":172632,"internal_node_id":"0.0-8.0-2.10","subject":"u47utxe1yhc2w9d","sona":"7324"},{"rt":780.0799999968149,"stimulus":"<p>Welche Sequenz haben Sie als natürlicher empfunden?</p>","key_press":74,"test_part":"response","test_stimulus":{"position":1,"left":"bvh/vr_prediction_models/model(vcgpdm)-dataset(return-bottle)-mode(ELBO)-parts(3)-dyn(20)-lvm(35)-hold(0)/final-lines.txt","right":"bvh/return-bottle-training0-lines.txt","att_check":false},"trial_type":"html-keyboard-response","trial_index":50,"time_elapsed":173414,"internal_node_id":"0.0-8.0-3.10","subject":"u47utxe1yhc2w9d","sona":"7324"},{"rt":1398.1499999936204,"stimulus":"<p>Bereit?</p>","key_press":32,"trial_type":"html-keyboard-response","trial_index":51,"time_elapsed":174815,"internal_node_id":"0.0-8.0-0.11","subject":"u47utxe1yhc2w9d","sona":"7324"},{"rt":null,"stimulus":"<div style=\"font-size:60px;\">+</div>","key_press":null,"trial_type":"html-keyboard-response","trial_index":52,"time_elapsed":176818,"internal_node_id":"0.0-8.0-1.11","subject":"u47utxe1yhc2w9d","sona":"7324"}]