[{"rt":4326,"stimulus":"<p>Welcome!<br> Please choose your language to start the experiment in the chosen language.</p><p>Willkommen!<br> Bitte wählen Sie eine Sprache, um das Experiment in der ausgewählten Sprache zu starten</p>","button_pressed":"1","trial_type":"html-button-response","trial_index":0,"time_elapsed":4332,"internal_node_id":"0.0-0.0","subject":"2kg9jxpac9q3nju","sona":"8719"},{"view_history":"[{\"page_index\":0,\"viewing_time\":2566},{\"page_index\":1,\"viewing_time\":2399},{\"page_index\":0,\"viewing_time\":6696},{\"page_index\":1,\"viewing_time\":1881},{\"page_index\":2,\"viewing_time\":1168},{\"page_index\":3,\"viewing_time\":1848},{\"page_index\":4,\"viewing_time\":1887}]","rt":18446,"trial_type":"instructions","trial_index":1,"time_elapsed":22780,"internal_node_id":"0.0-1.0-0.0","subject":"2kg9jxpac9q3nju","sona":"8719"},{"rt":7603,"stimulus":"<p>Bereit?</p>","key_press":32,"trial_type":"html-keyboard-response","trial_index":2,"time_elapsed":30384,"internal_node_id":"0.0-3.0","subject":"2kg9jxpac9q3nju","sona":"8719"},{"rt":null,"stimulus":"<div style=\"font-size:60px;\">+</div>","key_press":null,"trial_type":"html-keyboard-response","trial_index":3,"time_elapsed":32404,"internal_node_id":"0.0-4.0","subject":"2kg9jxpac9q3nju","sona":"8719"},{"trial_type":"training","trial_index":4,"time_elapsed":35776,"internal_node_id":"0.0-5.0","subject":"2kg9jxpac9q3nju","sona":"8719"},{"rt":1078,"stimulus":"<p>Welche Sequenz haben Sie als natürlicher empfunden?</p>","key_press":70,"trial_type":"html-keyboard-response","trial_index":5,"time_elapsed":36857,"internal_node_id":"0.0-6.0","subject":"2kg9jxpac9q3nju","sona":"8719"},{"rt":1785,"stimulus":"<p>Das Experiment startet nun.</p><p><small>Bitte drücken Sie den Knopf, wenn Sie bereit sind.</small></p>","button_pressed":"0","trial_type":"html-button-response","trial_index":6,"time_elapsed":38644,"internal_node_id":"0.0-7.0","subject":"2kg9jxpac9q3nju","sona":"8719"},{"rt":1079,"stimulus":"<p>Bereit?</p>","key_press":32,"trial_type":"html-keyboard-response","trial_index":7,"time_elapsed":39725,"internal_node_id":"0.0-8.0-0.0","subject":"2kg9jxpac9q3nju","sona":"8719"},{"rt":null,"stimulus":"<div style=\"font-size:60px;\">+</div>","key_press":null,"trial_type":"html-keyboard-response","trial_index":8,"time_elapsed":41757,"internal_node_id":"0.0-8.0-1.0","subject":"2kg9jxpac9q3nju","sona":"8719"},{"trial_type":"turing-test","trial_index":9,"time_elapsed":47425,"internal_node_id":"0.0-8.0-2.0","subject":"2kg9jxpac9q3nju","sona":"8719"},{"rt":5873,"stimulus":"<p>Welche Sequenz haben Sie als natürlicher empfunden?</p>","key_press":70,"test_part":"response","test_stimulus":{"position":1,"left":"bvh/vr_prediction_models/model(vcgpdm)-dataset(pass-bottle-hold)-mode(ELBO)-parts(3)-dyn(30)-lvm(15)-hold(2)/final-lines.txt","right":"bvh/pass-bottle-hold-training2-lines.txt","att_check":false},"trial_type":"html-keyboard-response","trial_index":10,"time_elapsed":53302,"internal_node_id":"0.0-8.0-3.0","subject":"2kg9jxpac9q3nju","sona":"8719"},{"rt":495,"stimulus":"<p>Bereit?</p>","key_press":32,"trial_type":"html-keyboard-response","trial_index":11,"time_elapsed":53801,"internal_node_id":"0.0-8.0-0.1","subject":"2kg9jxpac9q3nju","sona":"8719"},{"rt":null,"stimulus":"<div style=\"font-size:60px;\">+</div>","key_press":null,"trial_type":"html-keyboard-response","trial_index":12,"time_elapsed":55831,"internal_node_id":"0.0-8.0-1.1","subject":"2kg9jxpac9q3nju","sona":"8719"},{"trial_type":"turing-test","trial_index":13,"time_elapsed":60155,"internal_node_id":"0.0-8.0-2.1","subject":"2kg9jxpac9q3nju","sona":"8719"},{"rt":1492,"stimulus":"<p>Welche Sequenz haben Sie als natürlicher empfunden?</p>","key_press":74,"test_part":"response","test_stimulus":{"position":0,"left":"bvh/return-bottle-hold-training2-lines.txt","right":"bvh/vr_prediction_models/model(tmp)-dataset(return-bottle-hold)-numprim(14)-hold(2)/final-lines.txt","att_check":false},"trial_type":"html-keyboard-response","trial_index":14,"time_elapsed":61650,"internal_node_id":"0.0-8.0-3.1","subject":"2kg9jxpac9q3nju","sona":"8719"},{"rt":443,"stimulus":"<p>Bereit?</p>","key_press":32,"trial_type":"html-keyboard-response","trial_index":15,"time_elapsed":62098,"internal_node_id":"0.0-8.0-0.2","subject":"2kg9jxpac9q3nju","sona":"8719"},{"rt":null,"stimulus":"<div style=\"font-size:60px;\">+</div>","key_press":null,"trial_type":"html-keyboard-response","trial_index":16,"time_elapsed":64119,"internal_node_id":"0.0-8.0-1.2","subject":"2kg9jxpac9q3nju","sona":"8719"},{"trial_type":"turing-test","trial_index":17,"time_elapsed":69854,"internal_node_id":"0.0-8.0-2.2","subject":"2kg9jxpac9q3nju","sona":"8719"},{"rt":1636,"stimulus":"<p>Welche Sequenz haben Sie als natürlicher empfunden?</p>","key_press":74,"test_part":"response","test_stimulus":{"position":0,"left":"bvh/pass-bottle-hold-training3-lines.txt","right":"bvh/vr_prediction_models/model(tmp)-dataset(pass-bottle-hold)-numprim(3)-hold(3)/final-lines.txt","att_check":false},"trial_type":"html-keyboard-response","trial_index":18,"time_elapsed":71495,"internal_node_id":"0.0-8.0-3.2","subject":"2kg9jxpac9q3nju","sona":"8719"},{"rt":361,"stimulus":"<p>Bereit?</p>","key_press":32,"trial_type":"html-keyboard-response","trial_index":19,"time_elapsed":71860,"internal_node_id":"0.0-8.0-0.3","subject":"2kg9jxpac9q3nju","sona":"8719"},{"rt":null,"stimulus":"<div style=\"font-size:60px;\">+</div>","key_press":null,"trial_type":"html-keyboard-response","trial_index":20,"time_elapsed":73887,"internal_node_id":"0.0-8.0-1.3","subject":"2kg9jxpac9q3nju","sona":"8719"},{"trial_type":"turing-test","trial_index":21,"time_elapsed":79345,"internal_node_id":"0.0-8.0-2.3","subject":"2kg9jxpac9q3nju","sona":"8719"},{"rt":1069,"stimulus":"<p>Welche Sequenz haben Sie als natürlicher empfunden?</p>","key_press":74,"test_part":"response","test_stimulus":{"position":0,"left":"bvh/pass-bottle-hold-training3-lines.txt","right":"bvh/vr_prediction_models/model(tmp)-dataset(pass-bottle-hold)-numprim(10)-hold(3)/final-lines.txt","att_check":false},"trial_type":"html-keyboard-response","trial_index":22,"time_elapsed":80418,"internal_node_id":"0.0-8.0-3.3","subject":"2kg9jxpac9q3nju","sona":"8719"},{"rt":375,"stimulus":"<p>Bereit?</p>","key_press":32,"trial_type":"html-keyboard-response","trial_index":23,"time_elapsed":80797,"internal_node_id":"0.0-8.0-0.4","subject":"2kg9jxpac9q3nju","sona":"8719"},{"rt":null,"stimulus":"<div style=\"font-size:60px;\">+</div>","key_press":null,"trial_type":"html-keyboard-response","trial_index":24,"time_elapsed":82822,"internal_node_id":"0.0-8.0-1.4","subject":"2kg9jxpac9q3nju","sona":"8719"},{"trial_type":"turing-test","trial_index":25,"time_elapsed":87599,"internal_node_id":"0.0-8.0-2.4","subject":"2kg9jxpac9q3nju","sona":"8719"},{"rt":1130,"stimulus":"<p>Welche Sequenz haben Sie als natürlicher empfunden?</p>","key_press":70,"test_part":"response","test_stimulus":{"position":0,"left":"bvh/pass-bottle-hold-training4-lines.txt","right":"bvh/vr_prediction_models/model(dmp)-dataset(pass-bottle-hold)-npsi(10)-hold(4)/final-lines.txt","att_check":false},"trial_type":"html-keyboard-response","trial_index":26,"time_elapsed":88731,"internal_node_id":"0.0-8.0-3.4","subject":"2kg9jxpac9q3nju","sona":"8719"},{"rt":874,"stimulus":"<p>Bereit?</p>","key_press":32,"trial_type":"html-keyboard-response","trial_index":27,"time_elapsed":89606,"internal_node_id":"0.0-8.0-0.5","subject":"2kg9jxpac9q3nju","sona":"8719"},{"rt":null,"stimulus":"<div style=\"font-size:60px;\">+</div>","key_press":null,"trial_type":"html-keyboard-response","trial_index":28,"time_elapsed":91623,"internal_node_id":"0.0-8.0-1.5","subject":"2kg9jxpac9q3nju","sona":"8719"},{"trial_type":"turing-test","trial_index":29,"time_elapsed":98773,"internal_node_id":"0.0-8.0-2.5","subject":"2kg9jxpac9q3nju","sona":"8719"},{"rt":1433,"stimulus":"<p>Welche Sequenz haben Sie als natürlicher empfunden?</p>","key_press":74,"test_part":"response","test_stimulus":{"position":1,"left":"bvh/vr_prediction_models/model(tmp)-dataset(return-bottle-hold)-numprim(7)-hold(0)/final-lines.txt","right":"bvh/return-bottle-hold-training0-lines.txt","att_check":false},"trial_type":"html-keyboard-response","trial_index":30,"time_elapsed":100210,"internal_node_id":"0.0-8.0-3.5","subject":"2kg9jxpac9q3nju","sona":"8719"},{"rt":323,"stimulus":"<p>Bereit?</p>","key_press":32,"trial_type":"html-keyboard-response","trial_index":31,"time_elapsed":100538,"internal_node_id":"0.0-8.0-0.6","subject":"2kg9jxpac9q3nju","sona":"8719"},{"rt":null,"stimulus":"<div style=\"font-size:60px;\">+</div>","key_press":null,"trial_type":"html-keyboard-response","trial_index":32,"time_elapsed":102556,"internal_node_id":"0.0-8.0-1.6","subject":"2kg9jxpac9q3nju","sona":"8719"},{"trial_type":"turing-test","trial_index":33,"time_elapsed":109852,"internal_node_id":"0.0-8.0-2.6","subject":"2kg9jxpac9q3nju","sona":"8719"},{"rt":529,"stimulus":"<p>Welche Sequenz haben Sie als natürlicher empfunden?</p>","key_press":74,"test_part":"response","test_stimulus":{"position":0,"left":"bvh/return-bottle-training3-lines.txt","right":"bvh/vr_prediction_models/model(tmp)-dataset(return-bottle)-numprim(10)-hold(3)/final-lines.txt","att_check":false},"trial_type":"html-keyboard-response","trial_index":34,"time_elapsed":110387,"internal_node_id":"0.0-8.0-3.6","subject":"2kg9jxpac9q3nju","sona":"8719"},{"rt":296,"stimulus":"<p>Bereit?</p>","key_press":32,"trial_type":"html-keyboard-response","trial_index":35,"time_elapsed":110689,"internal_node_id":"0.0-8.0-0.7","subject":"2kg9jxpac9q3nju","sona":"8719"},{"rt":null,"stimulus":"<div style=\"font-size:60px;\">+</div>","key_press":null,"trial_type":"html-keyboard-response","trial_index":36,"time_elapsed":112703,"internal_node_id":"0.0-8.0-1.7","subject":"2kg9jxpac9q3nju","sona":"8719"},{"trial_type":"turing-test","trial_index":37,"time_elapsed":120778,"internal_node_id":"0.0-8.0-2.7","subject":"2kg9jxpac9q3nju","sona":"8719"},{"rt":448,"stimulus":"<p>Welche Sequenz haben Sie als natürlicher empfunden?</p>","key_press":74,"test_part":"response","test_stimulus":{"position":1,"left":"bvh/vr_prediction_models/model(vcgpdm)-dataset(return-bottle)-mode(ELBO)-parts(1)-dyn(20)-lvm(5)-hold(1)/final-lines.txt","right":"bvh/return-bottle-training1-lines.txt","att_check":false},"trial_type":"html-keyboard-response","trial_index":38,"time_elapsed":121234,"internal_node_id":"0.0-8.0-3.7","subject":"2kg9jxpac9q3nju","sona":"8719"},{"rt":290,"stimulus":"<p>Bereit?</p>","key_press":32,"trial_type":"html-keyboard-response","trial_index":39,"time_elapsed":121532,"internal_node_id":"0.0-8.0-0.8","subject":"2kg9jxpac9q3nju","sona":"8719"},{"rt":null,"stimulus":"<div style=\"font-size:60px;\">+</div>","key_press":null,"trial_type":"html-keyboard-response","trial_index":40,"time_elapsed":123548,"internal_node_id":"0.0-8.0-1.8","subject":"2kg9jxpac9q3nju","sona":"8719"},{"trial_type":"turing-test","trial_index":41,"time_elapsed":130355,"internal_node_id":"0.0-8.0-2.8","subject":"2kg9jxpac9q3nju","sona":"8719"},{"rt":1193,"stimulus":"<p>Welche Sequenz haben Sie als natürlicher empfunden?</p>","key_press":74,"test_part":"response","test_stimulus":{"position":1,"left":"bvh/vr_prediction_models/model(tmp)-dataset(return-bottle)-numprim(9)-hold(3)/final-lines.txt","right":"bvh/return-bottle-training3-lines.txt","att_check":false},"trial_type":"html-keyboard-response","trial_index":42,"time_elapsed":131551,"internal_node_id":"0.0-8.0-3.8","subject":"2kg9jxpac9q3nju","sona":"8719"},{"rt":298,"stimulus":"<p>Bereit?</p>","key_press":32,"trial_type":"html-keyboard-response","trial_index":43,"time_elapsed":131855,"internal_node_id":"0.0-8.0-0.9","subject":"2kg9jxpac9q3nju","sona":"8719"},{"rt":null,"stimulus":"<div style=\"font-size:60px;\">+</div>","key_press":null,"trial_type":"html-keyboard-response","trial_index":44,"time_elapsed":133876,"internal_node_id":"0.0-8.0-1.9","subject":"2kg9jxpac9q3nju","sona":"8719"},{"trial_type":"turing-test","trial_index":45,"time_elapsed":139236,"internal_node_id":"0.0-8.0-2.9","subject":"2kg9jxpac9q3nju","sona":"8719"},{"rt":663,"stimulus":"<p>Welche Sequenz haben Sie als natürlicher empfunden?</p>","key_press":70,"test_part":"response","test_stimulus":{"position":0,"left":"bvh/pass-bottle-training1-lines.txt","right":"bvh/vr_prediction_models/model(vcgpdm)-dataset(pass-bottle)-mode(ELBO)-parts(1)-dyn(35)-lvm(10)-hold(1)/final-lines.txt","att_check":false},"trial_type":"html-keyboard-response","trial_index":46,"time_elapsed":139903,"internal_node_id":"0.0-8.0-3.9","subject":"2kg9jxpac9q3nju","sona":"8719"},{"rt":414,"stimulus":"<p>Bereit?</p>","key_press":32,"trial_type":"html-keyboard-response","trial_index":47,"time_elapsed":140318,"internal_node_id":"0.0-8.0-0.10","subject":"2kg9jxpac9q3nju","sona":"8719"},{"rt":null,"stimulus":"<div style=\"font-size:60px;\">+</div>","key_press":null,"trial_type":"html-keyboard-response","trial_index":48,"time_elapsed":142337,"internal_node_id":"0.0-8.0-1.10","subject":"2kg9jxpac9q3nju","sona":"8719"},{"trial_type":"turing-test","trial_index":49,"time_elapsed":148505,"internal_node_id":"0.0-8.0-2.10","subject":"2kg9jxpac9q3nju","sona":"8719"},{"rt":622,"stimulus":"<p>Welche Sequenz haben Sie als natürlicher empfunden?</p>","key_press":70,"test_part":"response","test_stimulus":{"position":0,"left":"bvh/pass-bottle-training1-lines.txt","right":"bvh/vr_prediction_models/model(dmp)-dataset(pass-bottle)-npsi(40)-hold(1)/final-lines.txt","att_check":true},"trial_type":"html-keyboard-response","trial_index":50,"time_elapsed":149133,"internal_node_id":"0.0-8.0-3.10","subject":"2kg9jxpac9q3nju","sona":"8719"},{"rt":850,"stimulus":"<p>Bereit?</p>","key_press":32,"trial_type":"html-keyboard-response","trial_index":51,"time_elapsed":149987,"internal_node_id":"0.0-8.0-0.11","subject":"2kg9jxpac9q3nju","sona":"8719"},{"rt":null,"stimulus":"<div style=\"font-size:60px;\">+</div>","key_press":null,"trial_type":"html-keyboard-response","trial_index":52,"time_elapsed":152007,"internal_node_id":"0.0-8.0-1.11","subject":"2kg9jxpac9q3nju","sona":"8719"},{"trial_type":"turing-test","trial_index":53,"time_elapsed":155509,"internal_node_id":"0.0-8.0-2.11","subject":"2kg9jxpac9q3nju","sona":"8719"}]