[{"rt":1641,"stimulus":"<p>Welcome!<br> Please choose your language to start the experiment in the chosen language.</p><p>Willkommen!<br> Bitte wählen Sie eine Sprache, um das Experiment in der ausgewählten Sprache zu starten</p>","button_pressed":"1","trial_type":"html-button-response","trial_index":0,"time_elapsed":1650,"internal_node_id":"0.0-0.0","subject":"v8sfmwv9fduajsk","sona":"5164"},{"view_history":"[{\"page_index\":0,\"viewing_time\":664},{\"page_index\":1,\"viewing_time\":1463},{\"page_index\":2,\"viewing_time\":643},{\"page_index\":3,\"viewing_time\":1223},{\"page_index\":4,\"viewing_time\":47571}]","rt":51565,"trial_type":"instructions","trial_index":1,"time_elapsed":53217,"internal_node_id":"0.0-1.0-0.0","subject":"v8sfmwv9fduajsk","sona":"5164"},{"rt":1672,"stimulus":"<p>Bereit?</p>","key_press":32,"trial_type":"html-keyboard-response","trial_index":2,"time_elapsed":54893,"internal_node_id":"0.0-3.0","subject":"v8sfmwv9fduajsk","sona":"5164"},{"rt":null,"stimulus":"<div style=\"font-size:60px;\">+</div>","key_press":null,"trial_type":"html-keyboard-response","trial_index":3,"time_elapsed":56899,"internal_node_id":"0.0-4.0","subject":"v8sfmwv9fduajsk","sona":"5164"},{"trial_type":"training","trial_index":4,"time_elapsed":60358,"internal_node_id":"0.0-5.0","subject":"v8sfmwv9fduajsk","sona":"5164"},{"rt":300,"stimulus":"<p>Welche Sequenz haben Sie als natürlicher empfunden?</p>","key_press":70,"trial_type":"html-keyboard-response","trial_index":5,"time_elapsed":60663,"internal_node_id":"0.0-6.0","subject":"v8sfmwv9fduajsk","sona":"5164"},{"rt":3313,"stimulus":"<p>Das Experiment startet nun.</p><p><small>Bitte drücken Sie den Knopf, wenn Sie bereit sind.</small></p>","button_pressed":"0","trial_type":"html-button-response","trial_index":6,"time_elapsed":63978,"internal_node_id":"0.0-7.0","subject":"v8sfmwv9fduajsk","sona":"5164"},{"rt":1123,"stimulus":"<p>Bereit?</p>","key_press":32,"trial_type":"html-keyboard-response","trial_index":7,"time_elapsed":65105,"internal_node_id":"0.0-8.0-0.0","subject":"v8sfmwv9fduajsk","sona":"5164"},{"rt":null,"stimulus":"<div style=\"font-size:60px;\">+</div>","key_press":null,"trial_type":"html-keyboard-response","trial_index":8,"time_elapsed":67110,"internal_node_id":"0.0-8.0-1.0","subject":"v8sfmwv9fduajsk","sona":"5164"},{"trial_type":"turing-test","trial_index":9,"time_elapsed":70770,"internal_node_id":"0.0-8.0-2.0","subject":"v8sfmwv9fduajsk","sona":"5164"},{"rt":558,"stimulus":"<p>Welche Sequenz haben Sie als natürlicher empfunden?</p>","key_press":70,"test_part":"response","test_stimulus":{"position":0,"left":"bvh/pass-bottle-hold-training4-lines.txt","right":"bvh/vr_prediction_models/model(dmp)-dataset(pass-bottle-hold)-npsi(40)-hold(4)/final-lines.txt","att_check":false},"trial_type":"html-keyboard-response","trial_index":10,"time_elapsed":71336,"internal_node_id":"0.0-8.0-3.0","subject":"v8sfmwv9fduajsk","sona":"5164"},{"rt":392,"stimulus":"<p>Bereit?</p>","key_press":32,"trial_type":"html-keyboard-response","trial_index":11,"time_elapsed":71733,"internal_node_id":"0.0-8.0-0.1","subject":"v8sfmwv9fduajsk","sona":"5164"},{"rt":null,"stimulus":"<div style=\"font-size:60px;\">+</div>","key_press":null,"trial_type":"html-keyboard-response","trial_index":12,"time_elapsed":73741,"internal_node_id":"0.0-8.0-1.1","subject":"v8sfmwv9fduajsk","sona":"5164"},{"trial_type":"turing-test","trial_index":13,"time_elapsed":79689,"internal_node_id":"0.0-8.0-2.1","subject":"v8sfmwv9fduajsk","sona":"5164"},{"rt":293,"stimulus":"<p>Welche Sequenz haben Sie als natürlicher empfunden?</p>","key_press":70,"test_part":"response","test_stimulus":{"position":0,"left":"bvh/return-bottle-training4-lines.txt","right":"bvh/vr_prediction_models/model(vcgpdm)-dataset(return-bottle)-mode(ELBO)-parts(3)-dyn(20)-lvm(20)-hold(4)/final-lines.txt","att_check":false},"trial_type":"html-keyboard-response","trial_index":14,"time_elapsed":79989,"internal_node_id":"0.0-8.0-3.1","subject":"v8sfmwv9fduajsk","sona":"5164"},{"rt":248,"stimulus":"<p>Bereit?</p>","key_press":32,"trial_type":"html-keyboard-response","trial_index":15,"time_elapsed":80243,"internal_node_id":"0.0-8.0-0.2","subject":"v8sfmwv9fduajsk","sona":"5164"},{"rt":null,"stimulus":"<div style=\"font-size:60px;\">+</div>","key_press":null,"trial_type":"html-keyboard-response","trial_index":16,"time_elapsed":82248,"internal_node_id":"0.0-8.0-1.2","subject":"v8sfmwv9fduajsk","sona":"5164"},{"trial_type":"turing-test","trial_index":17,"time_elapsed":86123,"internal_node_id":"0.0-8.0-2.2","subject":"v8sfmwv9fduajsk","sona":"5164"},{"rt":431,"stimulus":"<p>Welche Sequenz haben Sie als natürlicher empfunden?</p>","key_press":70,"test_part":"response","test_stimulus":{"position":1,"left":"bvh/vr_prediction_models/model(vcgpdm)-dataset(return-bottle-hold)-mode(ELBO)-parts(3)-dyn(10)-lvm(30)-hold(4)/final-lines.txt","right":"bvh/return-bottle-hold-training4-lines.txt","att_check":false},"trial_type":"html-keyboard-response","trial_index":18,"time_elapsed":86559,"internal_node_id":"0.0-8.0-3.2","subject":"v8sfmwv9fduajsk","sona":"5164"},{"rt":239,"stimulus":"<p>Bereit?</p>","key_press":32,"trial_type":"html-keyboard-response","trial_index":19,"time_elapsed":86805,"internal_node_id":"0.0-8.0-0.3","subject":"v8sfmwv9fduajsk","sona":"5164"},{"rt":null,"stimulus":"<div style=\"font-size:60px;\">+</div>","key_press":null,"trial_type":"html-keyboard-response","trial_index":20,"time_elapsed":88808,"internal_node_id":"0.0-8.0-1.3","subject":"v8sfmwv9fduajsk","sona":"5164"},{"trial_type":"turing-test","trial_index":21,"time_elapsed":92041,"internal_node_id":"0.0-8.0-2.3","subject":"v8sfmwv9fduajsk","sona":"5164"},{"rt":1035,"stimulus":"<p>Welche Sequenz haben Sie als natürlicher empfunden?</p>","key_press":70,"test_part":"response","test_stimulus":{"position":1,"left":"bvh/vr_prediction_models/model(dmp)-dataset(pass-bottle-hold)-npsi(90)-hold(1)/final-lines.txt","right":"bvh/pass-bottle-hold-training1-lines.txt","att_check":false},"trial_type":"html-keyboard-response","trial_index":22,"time_elapsed":93082,"internal_node_id":"0.0-8.0-3.3","subject":"v8sfmwv9fduajsk","sona":"5164"},{"rt":228,"stimulus":"<p>Bereit?</p>","key_press":32,"trial_type":"html-keyboard-response","trial_index":23,"time_elapsed":93317,"internal_node_id":"0.0-8.0-0.4","subject":"v8sfmwv9fduajsk","sona":"5164"},{"rt":null,"stimulus":"<div style=\"font-size:60px;\">+</div>","key_press":null,"trial_type":"html-keyboard-response","trial_index":24,"time_elapsed":95323,"internal_node_id":"0.0-8.0-1.4","subject":"v8sfmwv9fduajsk","sona":"5164"},{"trial_type":"turing-test","trial_index":25,"time_elapsed":100631,"internal_node_id":"0.0-8.0-2.4","subject":"v8sfmwv9fduajsk","sona":"5164"},{"rt":371,"stimulus":"<p>Welche Sequenz haben Sie als natürlicher empfunden?</p>","key_press":70,"test_part":"response","test_stimulus":{"position":1,"left":"bvh/vr_prediction_models/model(vcgpdm)-dataset(return-bottle-hold)-mode(ELBO)-parts(1)-dyn(20)-lvm(5)-hold(0)/final-lines.txt","right":"bvh/return-bottle-hold-training0-lines.txt","att_check":false},"trial_type":"html-keyboard-response","trial_index":26,"time_elapsed":101007,"internal_node_id":"0.0-8.0-3.4","subject":"v8sfmwv9fduajsk","sona":"5164"},{"rt":216,"stimulus":"<p>Bereit?</p>","key_press":32,"trial_type":"html-keyboard-response","trial_index":27,"time_elapsed":101227,"internal_node_id":"0.0-8.0-0.5","subject":"v8sfmwv9fduajsk","sona":"5164"},{"rt":null,"stimulus":"<div style=\"font-size:60px;\">+</div>","key_press":null,"trial_type":"html-keyboard-response","trial_index":28,"time_elapsed":103229,"internal_node_id":"0.0-8.0-1.5","subject":"v8sfmwv9fduajsk","sona":"5164"},{"trial_type":"turing-test","trial_index":29,"time_elapsed":106569,"internal_node_id":"0.0-8.0-2.5","subject":"v8sfmwv9fduajsk","sona":"5164"},{"rt":265,"stimulus":"<p>Welche Sequenz haben Sie als natürlicher empfunden?</p>","key_press":74,"test_part":"response","test_stimulus":{"position":1,"left":"bvh/vr_prediction_models/model(vcgpdm)-dataset(pass-bottle-hold)-mode(ELBO)-parts(3)-dyn(20)-lvm(35)-hold(1)/final-lines.txt","right":"bvh/pass-bottle-hold-training1-lines.txt","att_check":false},"trial_type":"html-keyboard-response","trial_index":30,"time_elapsed":106837,"internal_node_id":"0.0-8.0-3.5","subject":"v8sfmwv9fduajsk","sona":"5164"},{"rt":289,"stimulus":"<p>Bereit?</p>","key_press":32,"trial_type":"html-keyboard-response","trial_index":31,"time_elapsed":107131,"internal_node_id":"0.0-8.0-0.6","subject":"v8sfmwv9fduajsk","sona":"5164"},{"rt":null,"stimulus":"<div style=\"font-size:60px;\">+</div>","key_press":null,"trial_type":"html-keyboard-response","trial_index":32,"time_elapsed":109132,"internal_node_id":"0.0-8.0-1.6","subject":"v8sfmwv9fduajsk","sona":"5164"},{"trial_type":"turing-test","trial_index":33,"time_elapsed":112553,"internal_node_id":"0.0-8.0-2.6","subject":"v8sfmwv9fduajsk","sona":"5164"},{"rt":366,"stimulus":"<p>Welche Sequenz haben Sie als natürlicher empfunden?</p>","key_press":74,"test_part":"response","test_stimulus":{"position":1,"left":"bvh/vr_prediction_models/model(tmp)-dataset(return-bottle-hold)-numprim(15)-hold(1)/final-lines.txt","right":"bvh/return-bottle-hold-training1-lines.txt","att_check":false},"trial_type":"html-keyboard-response","trial_index":34,"time_elapsed":112925,"internal_node_id":"0.0-8.0-3.6","subject":"v8sfmwv9fduajsk","sona":"5164"},{"rt":290,"stimulus":"<p>Bereit?</p>","key_press":32,"trial_type":"html-keyboard-response","trial_index":35,"time_elapsed":113220,"internal_node_id":"0.0-8.0-0.7","subject":"v8sfmwv9fduajsk","sona":"5164"},{"rt":null,"stimulus":"<div style=\"font-size:60px;\">+</div>","key_press":null,"trial_type":"html-keyboard-response","trial_index":36,"time_elapsed":115222,"internal_node_id":"0.0-8.0-1.7","subject":"v8sfmwv9fduajsk","sona":"5164"},{"trial_type":"turing-test","trial_index":37,"time_elapsed":119042,"internal_node_id":"0.0-8.0-2.7","subject":"v8sfmwv9fduajsk","sona":"5164"},{"rt":398,"stimulus":"<p>Welche Sequenz haben Sie als natürlicher empfunden?</p>","key_press":70,"test_part":"response","test_stimulus":{"position":0,"left":"bvh/return-bottle-hold-training3-lines.txt","right":"bvh/vr_prediction_models/model(vcgpdm)-dataset(return-bottle-hold)-mode(ELBO)-parts(1)-dyn(30)-lvm(35)-hold(3)/final-lines.txt","att_check":false},"trial_type":"html-keyboard-response","trial_index":38,"time_elapsed":119444,"internal_node_id":"0.0-8.0-3.7","subject":"v8sfmwv9fduajsk","sona":"5164"},{"rt":326,"stimulus":"<p>Bereit?</p>","key_press":32,"trial_type":"html-keyboard-response","trial_index":39,"time_elapsed":119774,"internal_node_id":"0.0-8.0-0.8","subject":"v8sfmwv9fduajsk","sona":"5164"},{"rt":null,"stimulus":"<div style=\"font-size:60px;\">+</div>","key_press":null,"trial_type":"html-keyboard-response","trial_index":40,"time_elapsed":121776,"internal_node_id":"0.0-8.0-1.8","subject":"v8sfmwv9fduajsk","sona":"5164"},{"trial_type":"turing-test","trial_index":41,"time_elapsed":125177,"internal_node_id":"0.0-8.0-2.8","subject":"v8sfmwv9fduajsk","sona":"5164"},{"rt":529,"stimulus":"<p>Welche Sequenz haben Sie als natürlicher empfunden?</p>","key_press":70,"test_part":"response","test_stimulus":{"position":0,"left":"bvh/pass-bottle-hold-training2-lines.txt","right":"bvh/vr_prediction_models/model(tmp)-dataset(pass-bottle-hold)-numprim(4)-hold(2)/final-lines.txt","att_check":false},"trial_type":"html-keyboard-response","trial_index":42,"time_elapsed":125712,"internal_node_id":"0.0-8.0-3.8","subject":"v8sfmwv9fduajsk","sona":"5164"},{"rt":301,"stimulus":"<p>Bereit?</p>","key_press":32,"trial_type":"html-keyboard-response","trial_index":43,"time_elapsed":126018,"internal_node_id":"0.0-8.0-0.9","subject":"v8sfmwv9fduajsk","sona":"5164"},{"rt":null,"stimulus":"<div style=\"font-size:60px;\">+</div>","key_press":null,"trial_type":"html-keyboard-response","trial_index":44,"time_elapsed":128020,"internal_node_id":"0.0-8.0-1.9","subject":"v8sfmwv9fduajsk","sona":"5164"},{"trial_type":"turing-test","trial_index":45,"time_elapsed":131931,"internal_node_id":"0.0-8.0-2.9","subject":"v8sfmwv9fduajsk","sona":"5164"},{"rt":714,"stimulus":"<p>Welche Sequenz haben Sie als natürlicher empfunden?</p>","key_press":70,"test_part":"response","test_stimulus":{"position":0,"left":"bvh/return-bottle-hold-training4-lines.txt","right":"bvh/vr_prediction_models/model(dmp)-dataset(return-bottle-hold)-npsi(100)-hold(4)/final-lines.txt","att_check":false},"trial_type":"html-keyboard-response","trial_index":46,"time_elapsed":132652,"internal_node_id":"0.0-8.0-3.9","subject":"v8sfmwv9fduajsk","sona":"5164"},{"rt":375,"stimulus":"<p>Bereit?</p>","key_press":32,"trial_type":"html-keyboard-response","trial_index":47,"time_elapsed":133033,"internal_node_id":"0.0-8.0-0.10","subject":"v8sfmwv9fduajsk","sona":"5164"},{"rt":null,"stimulus":"<div style=\"font-size:60px;\">+</div>","key_press":null,"trial_type":"html-keyboard-response","trial_index":48,"time_elapsed":135037,"internal_node_id":"0.0-8.0-1.10","subject":"v8sfmwv9fduajsk","sona":"5164"},{"trial_type":"turing-test","trial_index":49,"time_elapsed":141033,"internal_node_id":"0.0-8.0-2.10","subject":"v8sfmwv9fduajsk","sona":"5164"},{"rt":308,"stimulus":"<p>Welche Sequenz haben Sie als natürlicher empfunden?</p>","key_press":74,"test_part":"response","test_stimulus":{"position":1,"left":"bvh/vr_prediction_models/model(vcgpdm)-dataset(return-bottle)-mode(ELBO)-parts(3)-dyn(25)-lvm(30)-hold(4)/final-lines.txt","right":"bvh/return-bottle-training4-lines.txt","att_check":false},"trial_type":"html-keyboard-response","trial_index":50,"time_elapsed":141348,"internal_node_id":"0.0-8.0-3.10","subject":"v8sfmwv9fduajsk","sona":"5164"},{"rt":820,"stimulus":"<p>Bereit?</p>","key_press":32,"trial_type":"html-keyboard-response","trial_index":51,"time_elapsed":142173,"internal_node_id":"0.0-8.0-0.11","subject":"v8sfmwv9fduajsk","sona":"5164"},{"rt":null,"stimulus":"<div style=\"font-size:60px;\">+</div>","key_press":null,"trial_type":"html-keyboard-response","trial_index":52,"time_elapsed":144177,"internal_node_id":"0.0-8.0-1.11","subject":"v8sfmwv9fduajsk","sona":"5164"},{"trial_type":"turing-test","trial_index":53,"time_elapsed":149948,"internal_node_id":"0.0-8.0-2.11","subject":"v8sfmwv9fduajsk","sona":"5164"},{"rt":395,"stimulus":"<p>Welche Sequenz haben Sie als natürlicher empfunden?</p>","key_press":70,"test_part":"response","test_stimulus":{"position":0,"left":"bvh/pass-bottle-training4-lines.txt","right":"bvh/vr_prediction_models/model(dmp)-dataset(pass-bottle)-npsi(10)-hold(4)/final-lines.txt","att_check":true},"trial_type":"html-keyboard-response","trial_index":54,"time_elapsed":150352,"internal_node_id":"0.0-8.0-3.11","subject":"v8sfmwv9fduajsk","sona":"5164"},{"rt":320,"stimulus":"<p>Bereit?</p>","key_press":32,"trial_type":"html-keyboard-response","trial_index":55,"time_elapsed":150677,"internal_node_id":"0.0-8.0-0.12","subject":"v8sfmwv9fduajsk","sona":"5164"},{"rt":null,"stimulus":"<div style=\"font-size:60px;\">+</div>","key_press":null,"trial_type":"html-keyboard-response","trial_index":56,"time_elapsed":152680,"internal_node_id":"0.0-8.0-1.12","subject":"v8sfmwv9fduajsk","sona":"5164"},{"trial_type":"turing-test","trial_index":57,"time_elapsed":158794,"internal_node_id":"0.0-8.0-2.12","subject":"v8sfmwv9fduajsk","sona":"5164"},{"rt":497,"stimulus":"<p>Welche Sequenz haben Sie als natürlicher empfunden?</p>","key_press":70,"test_part":"response","test_stimulus":{"position":0,"left":"bvh/return-bottle-training1-lines.txt","right":"bvh/vr_prediction_models/model(tmp)-dataset(return-bottle)-numprim(5)-hold(1)/final-lines.txt","att_check":false},"trial_type":"html-keyboard-response","trial_index":58,"time_elapsed":159299,"internal_node_id":"0.0-8.0-3.12","subject":"v8sfmwv9fduajsk","sona":"5164"},{"rt":324,"stimulus":"<p>Bereit?</p>","key_press":32,"trial_type":"html-keyboard-response","trial_index":59,"time_elapsed":159630,"internal_node_id":"0.0-8.0-0.13","subject":"v8sfmwv9fduajsk","sona":"5164"},{"rt":null,"stimulus":"<div style=\"font-size:60px;\">+</div>","key_press":null,"trial_type":"html-keyboard-response","trial_index":60,"time_elapsed":161631,"internal_node_id":"0.0-8.0-1.13","subject":"v8sfmwv9fduajsk","sona":"5164"},{"trial_type":"turing-test","trial_index":61,"time_elapsed":167858,"internal_node_id":"0.0-8.0-2.13","subject":"v8sfmwv9fduajsk","sona":"5164"},{"rt":401,"stimulus":"<p>Welche Sequenz haben Sie als natürlicher empfunden?</p>","key_press":70,"test_part":"response","test_stimulus":{"position":0,"left":"bvh/pass-bottle-training2-lines.txt","right":"bvh/vr_prediction_models/model(vcgpdm)-dataset(pass-bottle)-mode(ELBO)-parts(3)-dyn(30)-lvm(15)-hold(2)/final-lines.txt","att_check":false},"trial_type":"html-keyboard-response","trial_index":62,"time_elapsed":168265,"internal_node_id":"0.0-8.0-3.13","subject":"v8sfmwv9fduajsk","sona":"5164"},{"rt":294,"stimulus":"<p>Bereit?</p>","key_press":32,"trial_type":"html-keyboard-response","trial_index":63,"time_elapsed":168566,"internal_node_id":"0.0-8.0-0.14","subject":"v8sfmwv9fduajsk","sona":"5164"},{"rt":null,"stimulus":"<div style=\"font-size:60px;\">+</div>","key_press":null,"trial_type":"html-keyboard-response","trial_index":64,"time_elapsed":170568,"internal_node_id":"0.0-8.0-1.14","subject":"v8sfmwv9fduajsk","sona":"5164"},{"trial_type":"turing-test","trial_index":65,"time_elapsed":176463,"internal_node_id":"0.0-8.0-2.14","subject":"v8sfmwv9fduajsk","sona":"5164"},{"rt":293,"stimulus":"<p>Welche Sequenz haben Sie als natürlicher empfunden?</p>","key_press":70,"test_part":"response","test_stimulus":{"position":0,"left":"bvh/pass-bottle-training3-lines.txt","right":"bvh/vr_prediction_models/model(tmp)-dataset(pass-bottle)-numprim(9)-hold(3)/final-lines.txt","att_check":false},"trial_type":"html-keyboard-response","trial_index":66,"time_elapsed":176763,"internal_node_id":"0.0-8.0-3.14","subject":"v8sfmwv9fduajsk","sona":"5164"},{"rt":209,"stimulus":"<p>Bereit?</p>","key_press":32,"trial_type":"html-keyboard-response","trial_index":67,"time_elapsed":176978,"internal_node_id":"0.0-8.0-0.15","subject":"v8sfmwv9fduajsk","sona":"5164"},{"rt":null,"stimulus":"<div style=\"font-size:60px;\">+</div>","key_press":null,"trial_type":"html-keyboard-response","trial_index":68,"time_elapsed":178983,"internal_node_id":"0.0-8.0-1.15","subject":"v8sfmwv9fduajsk","sona":"5164"},{"trial_type":"turing-test","trial_index":69,"time_elapsed":182572,"internal_node_id":"0.0-8.0-2.15","subject":"v8sfmwv9fduajsk","sona":"5164"},{"rt":475,"stimulus":"<p>Welche Sequenz haben Sie als natürlicher empfunden?</p>","key_press":74,"test_part":"response","test_stimulus":{"position":1,"left":"bvh/vr_prediction_models/model(vcgpdm)-dataset(return-bottle-hold)-mode(ELBO)-parts(3)-dyn(35)-lvm(20)-hold(1)/final-lines.txt","right":"bvh/return-bottle-hold-training1-lines.txt","att_check":false},"trial_type":"html-keyboard-response","trial_index":70,"time_elapsed":183053,"internal_node_id":"0.0-8.0-3.15","subject":"v8sfmwv9fduajsk","sona":"5164"},{"rt":313,"stimulus":"<p>Bereit?</p>","key_press":32,"trial_type":"html-keyboard-response","trial_index":71,"time_elapsed":183375,"internal_node_id":"0.0-8.0-0.16","subject":"v8sfmwv9fduajsk","sona":"5164"},{"rt":null,"stimulus":"<div style=\"font-size:60px;\">+</div>","key_press":null,"trial_type":"html-keyboard-response","trial_index":72,"time_elapsed":185377,"internal_node_id":"0.0-8.0-1.16","subject":"v8sfmwv9fduajsk","sona":"5164"},{"trial_type":"turing-test","trial_index":73,"time_elapsed":191186,"internal_node_id":"0.0-8.0-2.16","subject":"v8sfmwv9fduajsk","sona":"5164"},{"rt":297,"stimulus":"<p>Welche Sequenz haben Sie als natürlicher empfunden?</p>","key_press":74,"test_part":"response","test_stimulus":{"position":0,"left":"bvh/return-bottle-training3-lines.txt","right":"bvh/vr_prediction_models/model(tmp)-dataset(return-bottle)-numprim(7)-hold(3)/final-lines.txt","att_check":false},"trial_type":"html-keyboard-response","trial_index":74,"time_elapsed":191489,"internal_node_id":"0.0-8.0-3.16","subject":"v8sfmwv9fduajsk","sona":"5164"},{"rt":239,"stimulus":"<p>Bereit?</p>","key_press":32,"trial_type":"html-keyboard-response","trial_index":75,"time_elapsed":191735,"internal_node_id":"0.0-8.0-0.17","subject":"v8sfmwv9fduajsk","sona":"5164"},{"rt":null,"stimulus":"<div style=\"font-size:60px;\">+</div>","key_press":null,"trial_type":"html-keyboard-response","trial_index":76,"time_elapsed":193738,"internal_node_id":"0.0-8.0-1.17","subject":"v8sfmwv9fduajsk","sona":"5164"},{"trial_type":"turing-test","trial_index":77,"time_elapsed":199551,"internal_node_id":"0.0-8.0-2.17","subject":"v8sfmwv9fduajsk","sona":"5164"},{"rt":429,"stimulus":"<p>Welche Sequenz haben Sie als natürlicher empfunden?</p>","key_press":74,"test_part":"response","test_stimulus":{"position":0,"left":"bvh/pass-bottle-training4-lines.txt","right":"bvh/vr_prediction_models/model(tmp)-dataset(pass-bottle)-numprim(8)-hold(4)/final-lines.txt","att_check":false},"trial_type":"html-keyboard-response","trial_index":78,"time_elapsed":199989,"internal_node_id":"0.0-8.0-3.17","subject":"v8sfmwv9fduajsk","sona":"5164"},{"rt":314,"stimulus":"<p>Bereit?</p>","key_press":32,"trial_type":"html-keyboard-response","trial_index":79,"time_elapsed":200307,"internal_node_id":"0.0-8.0-0.18","subject":"v8sfmwv9fduajsk","sona":"5164"},{"rt":null,"stimulus":"<div style=\"font-size:60px;\">+</div>","key_press":null,"trial_type":"html-keyboard-response","trial_index":80,"time_elapsed":202312,"internal_node_id":"0.0-8.0-1.18","subject":"v8sfmwv9fduajsk","sona":"5164"},{"trial_type":"turing-test","trial_index":81,"time_elapsed":205805,"internal_node_id":"0.0-8.0-2.18","subject":"v8sfmwv9fduajsk","sona":"5164"},{"rt":449,"stimulus":"<p>Welche Sequenz haben Sie als natürlicher empfunden?</p>","key_press":74,"test_part":"response","test_stimulus":{"position":1,"left":"bvh/vr_prediction_models/model(vcgpdm)-dataset(pass-bottle-hold)-mode(ELBO)-parts(1)-dyn(20)-lvm(20)-hold(0)/final-lines.txt","right":"bvh/pass-bottle-hold-training0-lines.txt","att_check":false},"trial_type":"html-keyboard-response","trial_index":82,"time_elapsed":206259,"internal_node_id":"0.0-8.0-3.18","subject":"v8sfmwv9fduajsk","sona":"5164"},{"rt":374,"stimulus":"<p>Bereit?</p>","key_press":32,"trial_type":"html-keyboard-response","trial_index":83,"time_elapsed":206637,"internal_node_id":"0.0-8.0-0.19","subject":"v8sfmwv9fduajsk","sona":"5164"},{"rt":null,"stimulus":"<div style=\"font-size:60px;\">+</div>","key_press":null,"trial_type":"html-keyboard-response","trial_index":84,"time_elapsed":208640,"internal_node_id":"0.0-8.0-1.19","subject":"v8sfmwv9fduajsk","sona":"5164"},{"trial_type":"turing-test","trial_index":85,"time_elapsed":214232,"internal_node_id":"0.0-8.0-2.19","subject":"v8sfmwv9fduajsk","sona":"5164"},{"rt":351,"stimulus":"<p>Welche Sequenz haben Sie als natürlicher empfunden?</p>","key_press":74,"test_part":"response","test_stimulus":{"position":1,"left":"bvh/vr_prediction_models/model(vcgpdm)-dataset(pass-bottle)-mode(ELBO)-parts(3)-dyn(25)-lvm(30)-hold(1)/final-lines.txt","right":"bvh/pass-bottle-training1-lines.txt","att_check":false},"trial_type":"html-keyboard-response","trial_index":86,"time_elapsed":214591,"internal_node_id":"0.0-8.0-3.19","subject":"v8sfmwv9fduajsk","sona":"5164"},{"rt":301,"stimulus":"<p>Bereit?</p>","key_press":32,"trial_type":"html-keyboard-response","trial_index":87,"time_elapsed":214900,"internal_node_id":"0.0-8.0-0.20","subject":"v8sfmwv9fduajsk","sona":"5164"},{"rt":null,"stimulus":"<div style=\"font-size:60px;\">+</div>","key_press":null,"trial_type":"html-keyboard-response","trial_index":88,"time_elapsed":216901,"internal_node_id":"0.0-8.0-1.20","subject":"v8sfmwv9fduajsk","sona":"5164"},{"trial_type":"turing-test","trial_index":89,"time_elapsed":220386,"internal_node_id":"0.0-8.0-2.20","subject":"v8sfmwv9fduajsk","sona":"5164"},{"rt":356,"stimulus":"<p>Welche Sequenz haben Sie als natürlicher empfunden?</p>","key_press":74,"test_part":"response","test_stimulus":{"position":1,"left":"bvh/vr_prediction_models/model(vcgpdm)-dataset(return-bottle-hold)-mode(ELBO)-parts(1)-dyn(10)-lvm(25)-hold(1)/final-lines.txt","right":"bvh/return-bottle-hold-training1-lines.txt","att_check":false},"trial_type":"html-keyboard-response","trial_index":90,"time_elapsed":220754,"internal_node_id":"0.0-8.0-3.20","subject":"v8sfmwv9fduajsk","sona":"5164"},{"rt":9829,"stimulus":"<p>Bereit?</p>","key_press":32,"trial_type":"html-keyboard-response","trial_index":91,"time_elapsed":230590,"internal_node_id":"0.0-8.0-0.21","subject":"v8sfmwv9fduajsk","sona":"5164"},{"rt":null,"stimulus":"<div style=\"font-size:60px;\">+</div>","key_press":null,"trial_type":"html-keyboard-response","trial_index":92,"time_elapsed":232593,"internal_node_id":"0.0-8.0-1.21","subject":"v8sfmwv9fduajsk","sona":"5164"},{"trial_type":"turing-test","trial_index":93,"time_elapsed":236190,"internal_node_id":"0.0-8.0-2.21","subject":"v8sfmwv9fduajsk","sona":"5164"},{"rt":303,"stimulus":"<p>Welche Sequenz haben Sie als natürlicher empfunden?</p>","key_press":74,"test_part":"response","test_stimulus":{"position":1,"left":"bvh/vr_prediction_models/model(tmp)-dataset(pass-bottle-hold)-numprim(4)-hold(3)/final-lines.txt","right":"bvh/pass-bottle-hold-training3-lines.txt","att_check":false},"trial_type":"html-keyboard-response","trial_index":94,"time_elapsed":236501,"internal_node_id":"0.0-8.0-3.21","subject":"v8sfmwv9fduajsk","sona":"5164"},{"rt":252,"stimulus":"<p>Bereit?</p>","key_press":32,"trial_type":"html-keyboard-response","trial_index":95,"time_elapsed":236762,"internal_node_id":"0.0-8.0-0.22","subject":"v8sfmwv9fduajsk","sona":"5164"},{"rt":null,"stimulus":"<div style=\"font-size:60px;\">+</div>","key_press":null,"trial_type":"html-keyboard-response","trial_index":96,"time_elapsed":238764,"internal_node_id":"0.0-8.0-1.22","subject":"v8sfmwv9fduajsk","sona":"5164"},{"trial_type":"turing-test","trial_index":97,"time_elapsed":244582,"internal_node_id":"0.0-8.0-2.22","subject":"v8sfmwv9fduajsk","sona":"5164"},{"rt":387,"stimulus":"<p>Welche Sequenz haben Sie als natürlicher empfunden?</p>","key_press":70,"test_part":"response","test_stimulus":{"position":0,"left":"bvh/return-bottle-training4-lines.txt","right":"bvh/vr_prediction_models/model(tmp)-dataset(return-bottle)-numprim(11)-hold(4)/final-lines.txt","att_check":false},"trial_type":"html-keyboard-response","trial_index":98,"time_elapsed":244979,"internal_node_id":"0.0-8.0-3.22","subject":"v8sfmwv9fduajsk","sona":"5164"},{"rt":251,"stimulus":"<p>Bereit?</p>","key_press":32,"trial_type":"html-keyboard-response","trial_index":99,"time_elapsed":245239,"internal_node_id":"0.0-8.0-0.23","subject":"v8sfmwv9fduajsk","sona":"5164"},{"rt":null,"stimulus":"<div style=\"font-size:60px;\">+</div>","key_press":null,"trial_type":"html-keyboard-response","trial_index":100,"time_elapsed":247243,"internal_node_id":"0.0-8.0-1.23","subject":"v8sfmwv9fduajsk","sona":"5164"},{"trial_type":"turing-test","trial_index":101,"time_elapsed":251030,"internal_node_id":"0.0-8.0-2.23","subject":"v8sfmwv9fduajsk","sona":"5164"},{"rt":414,"stimulus":"<p>Welche Sequenz haben Sie als natürlicher empfunden?</p>","key_press":74,"test_part":"response","test_stimulus":{"position":0,"left":"bvh/return-bottle-hold-training3-lines.txt","right":"bvh/vr_prediction_models/model(vcgpdm)-dataset(return-bottle-hold)-mode(ELBO)-parts(1)-dyn(35)-lvm(10)-hold(3)/final-lines.txt","att_check":false},"trial_type":"html-keyboard-response","trial_index":102,"time_elapsed":251453,"internal_node_id":"0.0-8.0-3.23","subject":"v8sfmwv9fduajsk","sona":"5164"},{"rt":251,"stimulus":"<p>Bereit?</p>","key_press":32,"trial_type":"html-keyboard-response","trial_index":103,"time_elapsed":251711,"internal_node_id":"0.0-8.0-0.24","subject":"v8sfmwv9fduajsk","sona":"5164"},{"rt":null,"stimulus":"<div style=\"font-size:60px;\">+</div>","key_press":null,"trial_type":"html-keyboard-response","trial_index":104,"time_elapsed":253713,"internal_node_id":"0.0-8.0-1.24","subject":"v8sfmwv9fduajsk","sona":"5164"},{"trial_type":"turing-test","trial_index":105,"time_elapsed":257309,"internal_node_id":"0.0-8.0-2.24","subject":"v8sfmwv9fduajsk","sona":"5164"},{"rt":491,"stimulus":"<p>Welche Sequenz haben Sie als natürlicher empfunden?</p>","key_press":70,"test_part":"response","test_stimulus":{"position":0,"left":"bvh/return-bottle-hold-training2-lines.txt","right":"bvh/vr_prediction_models/model(dmp)-dataset(return-bottle-hold)-npsi(70)-hold(2)/final-lines.txt","att_check":false},"trial_type":"html-keyboard-response","trial_index":106,"time_elapsed":257810,"internal_node_id":"0.0-8.0-3.24","subject":"v8sfmwv9fduajsk","sona":"5164"},{"rt":279,"stimulus":"<p>Bereit?</p>","key_press":32,"trial_type":"html-keyboard-response","trial_index":107,"time_elapsed":258095,"internal_node_id":"0.0-8.0-0.25","subject":"v8sfmwv9fduajsk","sona":"5164"},{"rt":null,"stimulus":"<div style=\"font-size:60px;\">+</div>","key_press":null,"trial_type":"html-keyboard-response","trial_index":108,"time_elapsed":260098,"internal_node_id":"0.0-8.0-1.25","subject":"v8sfmwv9fduajsk","sona":"5164"},{"trial_type":"turing-test","trial_index":109,"time_elapsed":266897,"internal_node_id":"0.0-8.0-2.25","subject":"v8sfmwv9fduajsk","sona":"5164"},{"rt":378,"stimulus":"<p>Welche Sequenz haben Sie als natürlicher empfunden?</p>","key_press":74,"test_part":"response","test_stimulus":{"position":1,"left":"bvh/vr_prediction_models/model(tmp)-dataset(pass-bottle)-numprim(14)-hold(0)/final-lines.txt","right":"bvh/pass-bottle-training0-lines.txt","att_check":false},"trial_type":"html-keyboard-response","trial_index":110,"time_elapsed":267285,"internal_node_id":"0.0-8.0-3.25","subject":"v8sfmwv9fduajsk","sona":"5164"},{"rt":368,"stimulus":"<p>Bereit?</p>","key_press":32,"trial_type":"html-keyboard-response","trial_index":111,"time_elapsed":267660,"internal_node_id":"0.0-8.0-0.26","subject":"v8sfmwv9fduajsk","sona":"5164"},{"rt":null,"stimulus":"<div style=\"font-size:60px;\">+</div>","key_press":null,"trial_type":"html-keyboard-response","trial_index":112,"time_elapsed":269664,"internal_node_id":"0.0-8.0-1.26","subject":"v8sfmwv9fduajsk","sona":"5164"},{"trial_type":"turing-test","trial_index":113,"time_elapsed":275154,"internal_node_id":"0.0-8.0-2.26","subject":"v8sfmwv9fduajsk","sona":"5164"},{"rt":383,"stimulus":"<p>Welche Sequenz haben Sie als natürlicher empfunden?</p>","key_press":70,"test_part":"response","test_stimulus":{"position":1,"left":"bvh/vr_prediction_models/model(tmp)-dataset(return-bottle)-numprim(14)-hold(0)/final-lines.txt","right":"bvh/return-bottle-training0-lines.txt","att_check":false},"trial_type":"html-keyboard-response","trial_index":114,"time_elapsed":275546,"internal_node_id":"0.0-8.0-3.26","subject":"v8sfmwv9fduajsk","sona":"5164"},{"rt":303,"stimulus":"<p>Bereit?</p>","key_press":32,"trial_type":"html-keyboard-response","trial_index":115,"time_elapsed":275856,"internal_node_id":"0.0-8.0-0.27","subject":"v8sfmwv9fduajsk","sona":"5164"},{"rt":null,"stimulus":"<div style=\"font-size:60px;\">+</div>","key_press":null,"trial_type":"html-keyboard-response","trial_index":116,"time_elapsed":277857,"internal_node_id":"0.0-8.0-1.27","subject":"v8sfmwv9fduajsk","sona":"5164"},{"trial_type":"turing-test","trial_index":117,"time_elapsed":283800,"internal_node_id":"0.0-8.0-2.27","subject":"v8sfmwv9fduajsk","sona":"5164"},{"rt":321,"stimulus":"<p>Welche Sequenz haben Sie als natürlicher empfunden?</p>","key_press":74,"test_part":"response","test_stimulus":{"position":1,"left":"bvh/vr_prediction_models/model(vcgpdm)-dataset(pass-bottle)-mode(ELBO)-parts(1)-dyn(10)-lvm(25)-hold(3)/final-lines.txt","right":"bvh/pass-bottle-training3-lines.txt","att_check":false},"trial_type":"html-keyboard-response","trial_index":118,"time_elapsed":284130,"internal_node_id":"0.0-8.0-3.27","subject":"v8sfmwv9fduajsk","sona":"5164"},{"rt":258,"stimulus":"<p>Bereit?</p>","key_press":32,"trial_type":"html-keyboard-response","trial_index":119,"time_elapsed":284396,"internal_node_id":"0.0-8.0-0.28","subject":"v8sfmwv9fduajsk","sona":"5164"},{"rt":null,"stimulus":"<div style=\"font-size:60px;\">+</div>","key_press":null,"trial_type":"html-keyboard-response","trial_index":120,"time_elapsed":286398,"internal_node_id":"0.0-8.0-1.28","subject":"v8sfmwv9fduajsk","sona":"5164"},{"trial_type":"turing-test","trial_index":121,"time_elapsed":289843,"internal_node_id":"0.0-8.0-2.28","subject":"v8sfmwv9fduajsk","sona":"5164"},{"rt":330,"stimulus":"<p>Welche Sequenz haben Sie als natürlicher empfunden?</p>","key_press":70,"test_part":"response","test_stimulus":{"position":0,"left":"bvh/return-bottle-hold-training1-lines.txt","right":"bvh/vr_prediction_models/model(tmp)-dataset(return-bottle-hold)-numprim(12)-hold(1)/final-lines.txt","att_check":false},"trial_type":"html-keyboard-response","trial_index":122,"time_elapsed":290181,"internal_node_id":"0.0-8.0-3.28","subject":"v8sfmwv9fduajsk","sona":"5164"},{"rt":259,"stimulus":"<p>Bereit?</p>","key_press":32,"trial_type":"html-keyboard-response","trial_index":123,"time_elapsed":290449,"internal_node_id":"0.0-8.0-0.29","subject":"v8sfmwv9fduajsk","sona":"5164"},{"rt":null,"stimulus":"<div style=\"font-size:60px;\">+</div>","key_press":null,"trial_type":"html-keyboard-response","trial_index":124,"time_elapsed":292450,"internal_node_id":"0.0-8.0-1.29","subject":"v8sfmwv9fduajsk","sona":"5164"},{"trial_type":"turing-test","trial_index":125,"time_elapsed":298331,"internal_node_id":"0.0-8.0-2.29","subject":"v8sfmwv9fduajsk","sona":"5164"},{"rt":281,"stimulus":"<p>Welche Sequenz haben Sie als natürlicher empfunden?</p>","key_press":74,"test_part":"response","test_stimulus":{"position":1,"left":"bvh/vr_prediction_models/model(tmp)-dataset(return-bottle)-numprim(14)-hold(4)/final-lines.txt","right":"bvh/return-bottle-training4-lines.txt","att_check":false},"trial_type":"html-keyboard-response","trial_index":126,"time_elapsed":298621,"internal_node_id":"0.0-8.0-3.29","subject":"v8sfmwv9fduajsk","sona":"5164"},{"rt":230,"stimulus":"<p>Bereit?</p>","key_press":32,"trial_type":"html-keyboard-response","trial_index":127,"time_elapsed":298859,"internal_node_id":"0.0-8.0-0.30","subject":"v8sfmwv9fduajsk","sona":"5164"},{"rt":null,"stimulus":"<div style=\"font-size:60px;\">+</div>","key_press":null,"trial_type":"html-keyboard-response","trial_index":128,"time_elapsed":300861,"internal_node_id":"0.0-8.0-1.30","subject":"v8sfmwv9fduajsk","sona":"5164"},{"trial_type":"turing-test","trial_index":129,"time_elapsed":306702,"internal_node_id":"0.0-8.0-2.30","subject":"v8sfmwv9fduajsk","sona":"5164"},{"rt":384,"stimulus":"<p>Welche Sequenz haben Sie als natürlicher empfunden?</p>","key_press":70,"test_part":"response","test_stimulus":{"position":0,"left":"bvh/return-bottle-training4-lines.txt","right":"bvh/vr_prediction_models/model(tmp)-dataset(return-bottle)-numprim(6)-hold(4)/final-lines.txt","att_check":false},"trial_type":"html-keyboard-response","trial_index":130,"time_elapsed":307096,"internal_node_id":"0.0-8.0-3.30","subject":"v8sfmwv9fduajsk","sona":"5164"},{"rt":346,"stimulus":"<p>Bereit?</p>","key_press":32,"trial_type":"html-keyboard-response","trial_index":131,"time_elapsed":307449,"internal_node_id":"0.0-8.0-0.31","subject":"v8sfmwv9fduajsk","sona":"5164"},{"rt":null,"stimulus":"<div style=\"font-size:60px;\">+</div>","key_press":null,"trial_type":"html-keyboard-response","trial_index":132,"time_elapsed":309450,"internal_node_id":"0.0-8.0-1.31","subject":"v8sfmwv9fduajsk","sona":"5164"},{"trial_type":"turing-test","trial_index":133,"time_elapsed":314953,"internal_node_id":"0.0-8.0-2.31","subject":"v8sfmwv9fduajsk","sona":"5164"},{"rt":364,"stimulus":"<p>Welche Sequenz haben Sie als natürlicher empfunden?</p>","key_press":70,"test_part":"response","test_stimulus":{"position":0,"left":"bvh/return-bottle-training0-lines.txt","right":"bvh/vr_prediction_models/model(vcgpdm)-dataset(return-bottle)-mode(ELBO)-parts(1)-dyn(10)-lvm(5)-hold(0)/final-lines.txt","att_check":false},"trial_type":"html-keyboard-response","trial_index":134,"time_elapsed":315326,"internal_node_id":"0.0-8.0-3.31","subject":"v8sfmwv9fduajsk","sona":"5164"},{"rt":269,"stimulus":"<p>Bereit?</p>","key_press":32,"trial_type":"html-keyboard-response","trial_index":135,"time_elapsed":315602,"internal_node_id":"0.0-8.0-0.32","subject":"v8sfmwv9fduajsk","sona":"5164"},{"rt":null,"stimulus":"<div style=\"font-size:60px;\">+</div>","key_press":null,"trial_type":"html-keyboard-response","trial_index":136,"time_elapsed":317605,"internal_node_id":"0.0-8.0-1.32","subject":"v8sfmwv9fduajsk","sona":"5164"},{"trial_type":"turing-test","trial_index":137,"time_elapsed":324421,"internal_node_id":"0.0-8.0-2.32","subject":"v8sfmwv9fduajsk","sona":"5164"},{"rt":331,"stimulus":"<p>Welche Sequenz haben Sie als natürlicher empfunden?</p>","key_press":70,"test_part":"response","test_stimulus":{"position":0,"left":"bvh/return-bottle-training2-lines.txt","right":"bvh/vr_prediction_models/model(vcgpdm)-dataset(return-bottle)-mode(ELBO)-parts(3)-dyn(10)-lvm(30)-hold(2)/final-lines.txt","att_check":false},"trial_type":"html-keyboard-response","trial_index":138,"time_elapsed":324764,"internal_node_id":"0.0-8.0-3.32","subject":"v8sfmwv9fduajsk","sona":"5164"},{"rt":264,"stimulus":"<p>Bereit?</p>","key_press":32,"trial_type":"html-keyboard-response","trial_index":139,"time_elapsed":325033,"internal_node_id":"0.0-8.0-0.33","subject":"v8sfmwv9fduajsk","sona":"5164"},{"rt":null,"stimulus":"<div style=\"font-size:60px;\">+</div>","key_press":null,"trial_type":"html-keyboard-response","trial_index":140,"time_elapsed":327036,"internal_node_id":"0.0-8.0-1.33","subject":"v8sfmwv9fduajsk","sona":"5164"},{"trial_type":"turing-test","trial_index":141,"time_elapsed":330744,"internal_node_id":"0.0-8.0-2.33","subject":"v8sfmwv9fduajsk","sona":"5164"},{"rt":143,"stimulus":"<p>Welche Sequenz haben Sie als natürlicher empfunden?</p>","key_press":74,"test_part":"response","test_stimulus":{"position":1,"left":"bvh/vr_prediction_models/model(dmp)-dataset(pass-bottle-hold)-npsi(80)-hold(4)/final-lines.txt","right":"bvh/pass-bottle-hold-training4-lines.txt","att_check":false},"trial_type":"html-keyboard-response","trial_index":142,"time_elapsed":330897,"internal_node_id":"0.0-8.0-3.33","subject":"v8sfmwv9fduajsk","sona":"5164"},{"rt":278,"stimulus":"<p>Bereit?</p>","key_press":32,"trial_type":"html-keyboard-response","trial_index":143,"time_elapsed":331181,"internal_node_id":"0.0-8.0-0.34","subject":"v8sfmwv9fduajsk","sona":"5164"},{"rt":null,"stimulus":"<div style=\"font-size:60px;\">+</div>","key_press":null,"trial_type":"html-keyboard-response","trial_index":144,"time_elapsed":333185,"internal_node_id":"0.0-8.0-1.34","subject":"v8sfmwv9fduajsk","sona":"5164"},{"trial_type":"turing-test","trial_index":145,"time_elapsed":338958,"internal_node_id":"0.0-8.0-2.34","subject":"v8sfmwv9fduajsk","sona":"5164"},{"rt":368,"stimulus":"<p>Welche Sequenz haben Sie als natürlicher empfunden?</p>","key_press":70,"test_part":"response","test_stimulus":{"position":0,"left":"bvh/return-bottle-training4-lines.txt","right":"bvh/vr_prediction_models/model(vcgpdm)-dataset(return-bottle)-mode(ELBO)-parts(3)-dyn(25)-lvm(30)-hold(4)/final-lines.txt","att_check":false},"trial_type":"html-keyboard-response","trial_index":146,"time_elapsed":339335,"internal_node_id":"0.0-8.0-3.34","subject":"v8sfmwv9fduajsk","sona":"5164"},{"rt":292,"stimulus":"<p>Bereit?</p>","key_press":32,"trial_type":"html-keyboard-response","trial_index":147,"time_elapsed":339636,"internal_node_id":"0.0-8.0-0.35","subject":"v8sfmwv9fduajsk","sona":"5164"},{"rt":null,"stimulus":"<div style=\"font-size:60px;\">+</div>","key_press":null,"trial_type":"html-keyboard-response","trial_index":148,"time_elapsed":341640,"internal_node_id":"0.0-8.0-1.35","subject":"v8sfmwv9fduajsk","sona":"5164"},{"trial_type":"turing-test","trial_index":149,"time_elapsed":345443,"internal_node_id":"0.0-8.0-2.35","subject":"v8sfmwv9fduajsk","sona":"5164"},{"rt":344,"stimulus":"<p>Welche Sequenz haben Sie als natürlicher empfunden?</p>","key_press":70,"test_part":"response","test_stimulus":{"position":0,"left":"bvh/return-bottle-hold-training4-lines.txt","right":"bvh/vr_prediction_models/model(tmp)-dataset(return-bottle-hold)-numprim(9)-hold(4)/final-lines.txt","att_check":false},"trial_type":"html-keyboard-response","trial_index":150,"time_elapsed":345797,"internal_node_id":"0.0-8.0-3.35","subject":"v8sfmwv9fduajsk","sona":"5164"},{"rt":253,"stimulus":"<p>Bereit?</p>","key_press":32,"trial_type":"html-keyboard-response","trial_index":151,"time_elapsed":346056,"internal_node_id":"0.0-8.0-0.36","subject":"v8sfmwv9fduajsk","sona":"5164"},{"rt":null,"stimulus":"<div style=\"font-size:60px;\">+</div>","key_press":null,"trial_type":"html-keyboard-response","trial_index":152,"time_elapsed":348058,"internal_node_id":"0.0-8.0-1.36","subject":"v8sfmwv9fduajsk","sona":"5164"},{"trial_type":"turing-test","trial_index":153,"time_elapsed":351419,"internal_node_id":"0.0-8.0-2.36","subject":"v8sfmwv9fduajsk","sona":"5164"},{"rt":364,"stimulus":"<p>Welche Sequenz haben Sie als natürlicher empfunden?</p>","key_press":74,"test_part":"response","test_stimulus":{"position":1,"left":"bvh/vr_prediction_models/model(vcgpdm)-dataset(pass-bottle-hold)-mode(ELBO)-parts(1)-dyn(15)-lvm(35)-hold(1)/final-lines.txt","right":"bvh/pass-bottle-hold-training1-lines.txt","att_check":false},"trial_type":"html-keyboard-response","trial_index":154,"time_elapsed":351793,"internal_node_id":"0.0-8.0-3.36","subject":"v8sfmwv9fduajsk","sona":"5164"},{"rt":230,"stimulus":"<p>Bereit?</p>","key_press":32,"trial_type":"html-keyboard-response","trial_index":155,"time_elapsed":352032,"internal_node_id":"0.0-8.0-0.37","subject":"v8sfmwv9fduajsk","sona":"5164"},{"rt":null,"stimulus":"<div style=\"font-size:60px;\">+</div>","key_press":null,"trial_type":"html-keyboard-response","trial_index":156,"time_elapsed":354034,"internal_node_id":"0.0-8.0-1.37","subject":"v8sfmwv9fduajsk","sona":"5164"},{"trial_type":"turing-test","trial_index":157,"time_elapsed":357870,"internal_node_id":"0.0-8.0-2.37","subject":"v8sfmwv9fduajsk","sona":"5164"},{"rt":384,"stimulus":"<p>Welche Sequenz haben Sie als natürlicher empfunden?</p>","key_press":74,"test_part":"response","test_stimulus":{"position":1,"left":"bvh/vr_prediction_models/model(vcgpdm)-dataset(pass-bottle-hold)-mode(ELBO)-parts(1)-dyn(15)-lvm(35)-hold(3)/final-lines.txt","right":"bvh/pass-bottle-hold-training3-lines.txt","att_check":false},"trial_type":"html-keyboard-response","trial_index":158,"time_elapsed":358265,"internal_node_id":"0.0-8.0-3.37","subject":"v8sfmwv9fduajsk","sona":"5164"},{"rt":854,"stimulus":"<p>Bereit?</p>","key_press":32,"trial_type":"html-keyboard-response","trial_index":159,"time_elapsed":359125,"internal_node_id":"0.0-8.0-0.38","subject":"v8sfmwv9fduajsk","sona":"5164"},{"rt":null,"stimulus":"<div style=\"font-size:60px;\">+</div>","key_press":null,"trial_type":"html-keyboard-response","trial_index":160,"time_elapsed":361130,"internal_node_id":"0.0-8.0-1.38","subject":"v8sfmwv9fduajsk","sona":"5164"},{"trial_type":"turing-test","trial_index":161,"time_elapsed":366984,"internal_node_id":"0.0-8.0-2.38","subject":"v8sfmwv9fduajsk","sona":"5164"},{"rt":314,"stimulus":"<p>Welche Sequenz haben Sie als natürlicher empfunden?</p>","key_press":70,"test_part":"response","test_stimulus":{"position":0,"left":"bvh/pass-bottle-training4-lines.txt","right":"bvh/vr_prediction_models/model(vcgpdm)-dataset(pass-bottle)-mode(ELBO)-parts(1)-dyn(10)-lvm(5)-hold(4)/final-lines.txt","att_check":false},"trial_type":"html-keyboard-response","trial_index":162,"time_elapsed":367307,"internal_node_id":"0.0-8.0-3.38","subject":"v8sfmwv9fduajsk","sona":"5164"},{"rt":298,"stimulus":"<p>Bereit?</p>","key_press":32,"trial_type":"html-keyboard-response","trial_index":163,"time_elapsed":367613,"internal_node_id":"0.0-8.0-0.39","subject":"v8sfmwv9fduajsk","sona":"5164"},{"rt":null,"stimulus":"<div style=\"font-size:60px;\">+</div>","key_press":null,"trial_type":"html-keyboard-response","trial_index":164,"time_elapsed":369617,"internal_node_id":"0.0-8.0-1.39","subject":"v8sfmwv9fduajsk","sona":"5164"},{"trial_type":"turing-test","trial_index":165,"time_elapsed":373521,"internal_node_id":"0.0-8.0-2.39","subject":"v8sfmwv9fduajsk","sona":"5164"},{"rt":446,"stimulus":"<p>Welche Sequenz haben Sie als natürlicher empfunden?</p>","key_press":70,"test_part":"response","test_stimulus":{"position":1,"left":"bvh/vr_prediction_models/model(vcgpdm)-dataset(return-bottle-hold)-mode(ELBO)-parts(1)-dyn(15)-lvm(35)-hold(4)/final-lines.txt","right":"bvh/return-bottle-hold-training4-lines.txt","att_check":false},"trial_type":"html-keyboard-response","trial_index":166,"time_elapsed":373977,"internal_node_id":"0.0-8.0-3.39","subject":"v8sfmwv9fduajsk","sona":"5164"},{"rt":309,"stimulus":"<p>Bereit?</p>","key_press":32,"trial_type":"html-keyboard-response","trial_index":167,"time_elapsed":374292,"internal_node_id":"0.0-8.0-0.40","subject":"v8sfmwv9fduajsk","sona":"5164"},{"rt":null,"stimulus":"<div style=\"font-size:60px;\">+</div>","key_press":null,"trial_type":"html-keyboard-response","trial_index":168,"time_elapsed":376294,"internal_node_id":"0.0-8.0-1.40","subject":"v8sfmwv9fduajsk","sona":"5164"},{"trial_type":"turing-test","trial_index":169,"time_elapsed":379783,"internal_node_id":"0.0-8.0-2.40","subject":"v8sfmwv9fduajsk","sona":"5164"},{"rt":466,"stimulus":"<p>Welche Sequenz haben Sie als natürlicher empfunden?</p>","key_press":74,"test_part":"response","test_stimulus":{"position":1,"left":"bvh/vr_prediction_models/model(vcgpdm)-dataset(pass-bottle-hold)-mode(ELBO)-parts(1)-dyn(35)-lvm(30)-hold(2)/final-lines.txt","right":"bvh/pass-bottle-hold-training2-lines.txt","att_check":false},"trial_type":"html-keyboard-response","trial_index":170,"time_elapsed":380251,"internal_node_id":"0.0-8.0-3.40","subject":"v8sfmwv9fduajsk","sona":"5164"},{"rt":334,"stimulus":"<p>Bereit?</p>","key_press":32,"trial_type":"html-keyboard-response","trial_index":171,"time_elapsed":380587,"internal_node_id":"0.0-8.0-0.41","subject":"v8sfmwv9fduajsk","sona":"5164"},{"rt":null,"stimulus":"<div style=\"font-size:60px;\">+</div>","key_press":null,"trial_type":"html-keyboard-response","trial_index":172,"time_elapsed":382589,"internal_node_id":"0.0-8.0-1.41","subject":"v8sfmwv9fduajsk","sona":"5164"},{"trial_type":"turing-test","trial_index":173,"time_elapsed":387823,"internal_node_id":"0.0-8.0-2.41","subject":"v8sfmwv9fduajsk","sona":"5164"},{"rt":355,"stimulus":"<p>Welche Sequenz haben Sie als natürlicher empfunden?</p>","key_press":70,"test_part":"response","test_stimulus":{"position":0,"left":"bvh/return-bottle-hold-training0-lines.txt","right":"bvh/vr_prediction_models/model(vcgpdm)-dataset(return-bottle-hold)-mode(ELBO)-parts(3)-dyn(25)-lvm(15)-hold(0)/final-lines.txt","att_check":false},"trial_type":"html-keyboard-response","trial_index":174,"time_elapsed":388184,"internal_node_id":"0.0-8.0-3.41","subject":"v8sfmwv9fduajsk","sona":"5164"},{"rt":339,"stimulus":"<p>Bereit?</p>","key_press":32,"trial_type":"html-keyboard-response","trial_index":175,"time_elapsed":388528,"internal_node_id":"0.0-8.0-0.42","subject":"v8sfmwv9fduajsk","sona":"5164"},{"rt":null,"stimulus":"<div style=\"font-size:60px;\">+</div>","key_press":null,"trial_type":"html-keyboard-response","trial_index":176,"time_elapsed":390530,"internal_node_id":"0.0-8.0-1.42","subject":"v8sfmwv9fduajsk","sona":"5164"},{"trial_type":"turing-test","trial_index":177,"time_elapsed":396395,"internal_node_id":"0.0-8.0-2.42","subject":"v8sfmwv9fduajsk","sona":"5164"},{"rt":271,"stimulus":"<p>Welche Sequenz haben Sie als natürlicher empfunden?</p>","key_press":74,"test_part":"response","test_stimulus":{"position":1,"left":"bvh/vr_prediction_models/model(vcgpdm)-dataset(return-bottle)-mode(ELBO)-parts(3)-dyn(35)-lvm(20)-hold(3)/final-lines.txt","right":"bvh/return-bottle-training3-lines.txt","att_check":false},"trial_type":"html-keyboard-response","trial_index":178,"time_elapsed":396672,"internal_node_id":"0.0-8.0-3.42","subject":"v8sfmwv9fduajsk","sona":"5164"},{"rt":305,"stimulus":"<p>Bereit?</p>","key_press":32,"trial_type":"html-keyboard-response","trial_index":179,"time_elapsed":396982,"internal_node_id":"0.0-8.0-0.43","subject":"v8sfmwv9fduajsk","sona":"5164"},{"rt":null,"stimulus":"<div style=\"font-size:60px;\">+</div>","key_press":null,"trial_type":"html-keyboard-response","trial_index":180,"time_elapsed":398986,"internal_node_id":"0.0-8.0-1.43","subject":"v8sfmwv9fduajsk","sona":"5164"},{"trial_type":"turing-test","trial_index":181,"time_elapsed":402640,"internal_node_id":"0.0-8.0-2.43","subject":"v8sfmwv9fduajsk","sona":"5164"},{"rt":529,"stimulus":"<p>Welche Sequenz haben Sie als natürlicher empfunden?</p>","key_press":74,"test_part":"response","test_stimulus":{"position":1,"left":"bvh/vr_prediction_models/model(vcgpdm)-dataset(return-bottle-hold)-mode(ELBO)-parts(1)-dyn(30)-lvm(30)-hold(4)/final-lines.txt","right":"bvh/return-bottle-hold-training4-lines.txt","att_check":false},"trial_type":"html-keyboard-response","trial_index":182,"time_elapsed":403178,"internal_node_id":"0.0-8.0-3.43","subject":"v8sfmwv9fduajsk","sona":"5164"},{"rt":285,"stimulus":"<p>Bereit?</p>","key_press":32,"trial_type":"html-keyboard-response","trial_index":183,"time_elapsed":403468,"internal_node_id":"0.0-8.0-0.44","subject":"v8sfmwv9fduajsk","sona":"5164"},{"rt":null,"stimulus":"<div style=\"font-size:60px;\">+</div>","key_press":null,"trial_type":"html-keyboard-response","trial_index":184,"time_elapsed":405471,"internal_node_id":"0.0-8.0-1.44","subject":"v8sfmwv9fduajsk","sona":"5164"},{"trial_type":"turing-test","trial_index":185,"time_elapsed":411269,"internal_node_id":"0.0-8.0-2.44","subject":"v8sfmwv9fduajsk","sona":"5164"},{"rt":435,"stimulus":"<p>Welche Sequenz haben Sie als natürlicher empfunden?</p>","key_press":74,"test_part":"response","test_stimulus":{"position":1,"left":"bvh/vr_prediction_models/model(dmp)-dataset(pass-bottle)-npsi(100)-hold(4)/final-lines.txt","right":"bvh/pass-bottle-training4-lines.txt","att_check":false},"trial_type":"html-keyboard-response","trial_index":186,"time_elapsed":411709,"internal_node_id":"0.0-8.0-3.44","subject":"v8sfmwv9fduajsk","sona":"5164"},{"rt":335,"stimulus":"<p>Bereit?</p>","key_press":32,"trial_type":"html-keyboard-response","trial_index":187,"time_elapsed":412051,"internal_node_id":"0.0-8.0-0.45","subject":"v8sfmwv9fduajsk","sona":"5164"},{"rt":null,"stimulus":"<div style=\"font-size:60px;\">+</div>","key_press":null,"trial_type":"html-keyboard-response","trial_index":188,"time_elapsed":414054,"internal_node_id":"0.0-8.0-1.45","subject":"v8sfmwv9fduajsk","sona":"5164"},{"trial_type":"turing-test","trial_index":189,"time_elapsed":417497,"internal_node_id":"0.0-8.0-2.45","subject":"v8sfmwv9fduajsk","sona":"5164"},{"rt":615,"stimulus":"<p>Welche Sequenz haben Sie als natürlicher empfunden?</p>","key_press":70,"test_part":"response","test_stimulus":{"position":0,"left":"bvh/pass-bottle-hold-training0-lines.txt","right":"bvh/vr_prediction_models/model(dmp)-dataset(pass-bottle-hold)-npsi(20)-hold(0)/final-lines.txt","att_check":false},"trial_type":"html-keyboard-response","trial_index":190,"time_elapsed":418115,"internal_node_id":"0.0-8.0-3.45","subject":"v8sfmwv9fduajsk","sona":"5164"},{"rt":259,"stimulus":"<p>Bereit?</p>","key_press":32,"trial_type":"html-keyboard-response","trial_index":191,"time_elapsed":418381,"internal_node_id":"0.0-8.0-0.46","subject":"v8sfmwv9fduajsk","sona":"5164"},{"rt":null,"stimulus":"<div style=\"font-size:60px;\">+</div>","key_press":null,"trial_type":"html-keyboard-response","trial_index":192,"time_elapsed":420384,"internal_node_id":"0.0-8.0-1.46","subject":"v8sfmwv9fduajsk","sona":"5164"},{"trial_type":"turing-test","trial_index":193,"time_elapsed":424161,"internal_node_id":"0.0-8.0-2.46","subject":"v8sfmwv9fduajsk","sona":"5164"},{"rt":259,"stimulus":"<p>Welche Sequenz haben Sie als natürlicher empfunden?</p>","key_press":70,"test_part":"response","test_stimulus":{"position":0,"left":"bvh/return-bottle-hold-training3-lines.txt","right":"bvh/vr_prediction_models/model(vcgpdm)-dataset(return-bottle-hold)-mode(ELBO)-parts(1)-dyn(20)-lvm(20)-hold(3)/final-lines.txt","att_check":false},"trial_type":"html-keyboard-response","trial_index":194,"time_elapsed":424427,"internal_node_id":"0.0-8.0-3.46","subject":"v8sfmwv9fduajsk","sona":"5164"},{"rt":254,"stimulus":"<p>Bereit?</p>","key_press":32,"trial_type":"html-keyboard-response","trial_index":195,"time_elapsed":424686,"internal_node_id":"0.0-8.0-0.47","subject":"v8sfmwv9fduajsk","sona":"5164"},{"rt":null,"stimulus":"<div style=\"font-size:60px;\">+</div>","key_press":null,"trial_type":"html-keyboard-response","trial_index":196,"time_elapsed":426690,"internal_node_id":"0.0-8.0-1.47","subject":"v8sfmwv9fduajsk","sona":"5164"},{"trial_type":"turing-test","trial_index":197,"time_elapsed":430503,"internal_node_id":"0.0-8.0-2.47","subject":"v8sfmwv9fduajsk","sona":"5164"},{"rt":317,"stimulus":"<p>Welche Sequenz haben Sie als natürlicher empfunden?</p>","key_press":70,"test_part":"response","test_stimulus":{"position":1,"left":"bvh/vr_prediction_models/model(vcgpdm)-dataset(return-bottle-hold)-mode(ELBO)-parts(1)-dyn(10)-lvm(5)-hold(3)/final-lines.txt","right":"bvh/return-bottle-hold-training3-lines.txt","att_check":false},"trial_type":"html-keyboard-response","trial_index":198,"time_elapsed":430826,"internal_node_id":"0.0-8.0-3.47","subject":"v8sfmwv9fduajsk","sona":"5164"},{"rt":214,"stimulus":"<p>Bereit?</p>","key_press":32,"trial_type":"html-keyboard-response","trial_index":199,"time_elapsed":431047,"internal_node_id":"0.0-8.0-0.48","subject":"v8sfmwv9fduajsk","sona":"5164"},{"rt":null,"stimulus":"<div style=\"font-size:60px;\">+</div>","key_press":null,"trial_type":"html-keyboard-response","trial_index":200,"time_elapsed":433051,"internal_node_id":"0.0-8.0-1.48","subject":"v8sfmwv9fduajsk","sona":"5164"},{"trial_type":"turing-test","trial_index":201,"time_elapsed":439120,"internal_node_id":"0.0-8.0-2.48","subject":"v8sfmwv9fduajsk","sona":"5164"},{"rt":397,"stimulus":"<p>Welche Sequenz haben Sie als natürlicher empfunden?</p>","key_press":74,"test_part":"response","test_stimulus":{"position":1,"left":"bvh/vr_prediction_models/model(vcgpdm)-dataset(pass-bottle)-mode(ELBO)-parts(1)-dyn(15)-lvm(35)-hold(3)/final-lines.txt","right":"bvh/pass-bottle-training3-lines.txt","att_check":false},"trial_type":"html-keyboard-response","trial_index":202,"time_elapsed":439527,"internal_node_id":"0.0-8.0-3.48","subject":"v8sfmwv9fduajsk","sona":"5164"},{"rt":232,"stimulus":"<p>Bereit?</p>","key_press":32,"trial_type":"html-keyboard-response","trial_index":203,"time_elapsed":439766,"internal_node_id":"0.0-8.0-0.49","subject":"v8sfmwv9fduajsk","sona":"5164"},{"rt":null,"stimulus":"<div style=\"font-size:60px;\">+</div>","key_press":null,"trial_type":"html-keyboard-response","trial_index":204,"time_elapsed":441767,"internal_node_id":"0.0-8.0-1.49","subject":"v8sfmwv9fduajsk","sona":"5164"},{"trial_type":"turing-test","trial_index":205,"time_elapsed":447378,"internal_node_id":"0.0-8.0-2.49","subject":"v8sfmwv9fduajsk","sona":"5164"},{"rt":606,"stimulus":"<p>Welche Sequenz haben Sie als natürlicher empfunden?</p>","key_press":74,"test_part":"response","test_stimulus":{"position":1,"left":"bvh/vr_prediction_models/model(vcgpdm)-dataset(return-bottle)-mode(ELBO)-parts(1)-dyn(20)-lvm(5)-hold(0)/final-lines.txt","right":"bvh/return-bottle-training0-lines.txt","att_check":false},"trial_type":"html-keyboard-response","trial_index":206,"time_elapsed":447990,"internal_node_id":"0.0-8.0-3.49","subject":"v8sfmwv9fduajsk","sona":"5164"},{"rt":649,"stimulus":"<p>Bereit?</p>","key_press":32,"trial_type":"html-keyboard-response","trial_index":207,"time_elapsed":448645,"internal_node_id":"0.0-8.0-0.50","subject":"v8sfmwv9fduajsk","sona":"5164"},{"rt":null,"stimulus":"<div style=\"font-size:60px;\">+</div>","key_press":null,"trial_type":"html-keyboard-response","trial_index":208,"time_elapsed":450647,"internal_node_id":"0.0-8.0-1.50","subject":"v8sfmwv9fduajsk","sona":"5164"},{"trial_type":"turing-test","trial_index":209,"time_elapsed":456551,"internal_node_id":"0.0-8.0-2.50","subject":"v8sfmwv9fduajsk","sona":"5164"},{"rt":272,"stimulus":"<p>Welche Sequenz haben Sie als natürlicher empfunden?</p>","key_press":74,"test_part":"response","test_stimulus":{"position":1,"left":"bvh/vr_prediction_models/model(vcgpdm)-dataset(pass-bottle)-mode(ELBO)-parts(3)-dyn(10)-lvm(10)-hold(4)/final-lines.txt","right":"bvh/pass-bottle-training4-lines.txt","att_check":false},"trial_type":"html-keyboard-response","trial_index":210,"time_elapsed":456829,"internal_node_id":"0.0-8.0-3.50","subject":"v8sfmwv9fduajsk","sona":"5164"},{"rt":270,"stimulus":"<p>Bereit?</p>","key_press":32,"trial_type":"html-keyboard-response","trial_index":211,"time_elapsed":457103,"internal_node_id":"0.0-8.0-0.51","subject":"v8sfmwv9fduajsk","sona":"5164"},{"rt":null,"stimulus":"<div style=\"font-size:60px;\">+</div>","key_press":null,"trial_type":"html-keyboard-response","trial_index":212,"time_elapsed":459105,"internal_node_id":"0.0-8.0-1.51","subject":"v8sfmwv9fduajsk","sona":"5164"},{"trial_type":"turing-test","trial_index":213,"time_elapsed":462694,"internal_node_id":"0.0-8.0-2.51","subject":"v8sfmwv9fduajsk","sona":"5164"},{"rt":287,"stimulus":"<p>Welche Sequenz haben Sie als natürlicher empfunden?</p>","key_press":74,"test_part":"response","test_stimulus":{"position":1,"left":"bvh/vr_prediction_models/model(vcgpdm)-dataset(return-bottle-hold)-mode(ELBO)-parts(3)-dyn(25)-lvm(15)-hold(2)/final-lines.txt","right":"bvh/return-bottle-hold-training2-lines.txt","att_check":false},"trial_type":"html-keyboard-response","trial_index":214,"time_elapsed":462991,"internal_node_id":"0.0-8.0-3.51","subject":"v8sfmwv9fduajsk","sona":"5164"},{"rt":223,"stimulus":"<p>Bereit?</p>","key_press":32,"trial_type":"html-keyboard-response","trial_index":215,"time_elapsed":463219,"internal_node_id":"0.0-8.0-0.52","subject":"v8sfmwv9fduajsk","sona":"5164"},{"rt":null,"stimulus":"<div style=\"font-size:60px;\">+</div>","key_press":null,"trial_type":"html-keyboard-response","trial_index":216,"time_elapsed":465221,"internal_node_id":"0.0-8.0-1.52","subject":"v8sfmwv9fduajsk","sona":"5164"},{"trial_type":"turing-test","trial_index":217,"time_elapsed":470893,"internal_node_id":"0.0-8.0-2.52","subject":"v8sfmwv9fduajsk","sona":"5164"},{"rt":410,"stimulus":"<p>Welche Sequenz haben Sie als natürlicher empfunden?</p>","key_press":70,"test_part":"response","test_stimulus":{"position":0,"left":"bvh/pass-bottle-training4-lines.txt","right":"bvh/vr_prediction_models/model(dmp)-dataset(pass-bottle)-npsi(100)-hold(4)/final-lines.txt","att_check":false},"trial_type":"html-keyboard-response","trial_index":218,"time_elapsed":471309,"internal_node_id":"0.0-8.0-3.52","subject":"v8sfmwv9fduajsk","sona":"5164"},{"rt":335,"stimulus":"<p>Bereit?</p>","key_press":32,"trial_type":"html-keyboard-response","trial_index":219,"time_elapsed":471649,"internal_node_id":"0.0-8.0-0.53","subject":"v8sfmwv9fduajsk","sona":"5164"},{"rt":null,"stimulus":"<div style=\"font-size:60px;\">+</div>","key_press":null,"trial_type":"html-keyboard-response","trial_index":220,"time_elapsed":473653,"internal_node_id":"0.0-8.0-1.53","subject":"v8sfmwv9fduajsk","sona":"5164"},{"trial_type":"turing-test","trial_index":221,"time_elapsed":477154,"internal_node_id":"0.0-8.0-2.53","subject":"v8sfmwv9fduajsk","sona":"5164"},{"rt":410,"stimulus":"<p>Welche Sequenz haben Sie als natürlicher empfunden?</p>","key_press":70,"test_part":"response","test_stimulus":{"position":1,"left":"bvh/vr_prediction_models/model(vcgpdm)-dataset(return-bottle-hold)-mode(ELBO)-parts(1)-dyn(30)-lvm(30)-hold(1)/final-lines.txt","right":"bvh/return-bottle-hold-training1-lines.txt","att_check":false},"trial_type":"html-keyboard-response","trial_index":222,"time_elapsed":477571,"internal_node_id":"0.0-8.0-3.53","subject":"v8sfmwv9fduajsk","sona":"5164"},{"rt":222,"stimulus":"<p>Bereit?</p>","key_press":32,"trial_type":"html-keyboard-response","trial_index":223,"time_elapsed":477800,"internal_node_id":"0.0-8.0-0.54","subject":"v8sfmwv9fduajsk","sona":"5164"},{"rt":null,"stimulus":"<div style=\"font-size:60px;\">+</div>","key_press":null,"trial_type":"html-keyboard-response","trial_index":224,"time_elapsed":479804,"internal_node_id":"0.0-8.0-1.54","subject":"v8sfmwv9fduajsk","sona":"5164"},{"trial_type":"turing-test","trial_index":225,"time_elapsed":485696,"internal_node_id":"0.0-8.0-2.54","subject":"v8sfmwv9fduajsk","sona":"5164"},{"rt":505,"stimulus":"<p>Welche Sequenz haben Sie als natürlicher empfunden?</p>","key_press":70,"test_part":"response","test_stimulus":{"position":0,"left":"bvh/pass-bottle-training3-lines.txt","right":"bvh/vr_prediction_models/model(dmp)-dataset(pass-bottle)-npsi(60)-hold(3)/final-lines.txt","att_check":false},"trial_type":"html-keyboard-response","trial_index":226,"time_elapsed":486209,"internal_node_id":"0.0-8.0-3.54","subject":"v8sfmwv9fduajsk","sona":"5164"},{"rt":236,"stimulus":"<p>Bereit?</p>","key_press":32,"trial_type":"html-keyboard-response","trial_index":227,"time_elapsed":486454,"internal_node_id":"0.0-8.0-0.55","subject":"v8sfmwv9fduajsk","sona":"5164"},{"rt":null,"stimulus":"<div style=\"font-size:60px;\">+</div>","key_press":null,"trial_type":"html-keyboard-response","trial_index":228,"time_elapsed":488457,"internal_node_id":"0.0-8.0-1.55","subject":"v8sfmwv9fduajsk","sona":"5164"},{"trial_type":"turing-test","trial_index":229,"time_elapsed":491945,"internal_node_id":"0.0-8.0-2.55","subject":"v8sfmwv9fduajsk","sona":"5164"},{"rt":317,"stimulus":"<p>Welche Sequenz haben Sie als natürlicher empfunden?</p>","key_press":70,"test_part":"response","test_stimulus":{"position":0,"left":"bvh/pass-bottle-hold-training0-lines.txt","right":"bvh/vr_prediction_models/model(vcgpdm)-dataset(pass-bottle-hold)-mode(ELBO)-parts(3)-dyn(25)-lvm(25)-hold(0)/final-lines.txt","att_check":false},"trial_type":"html-keyboard-response","trial_index":230,"time_elapsed":492268,"internal_node_id":"0.0-8.0-3.55","subject":"v8sfmwv9fduajsk","sona":"5164"},{"rt":203,"stimulus":"<p>Bereit?</p>","key_press":32,"trial_type":"html-keyboard-response","trial_index":231,"time_elapsed":492483,"internal_node_id":"0.0-8.0-0.56","subject":"v8sfmwv9fduajsk","sona":"5164"},{"rt":null,"stimulus":"<div style=\"font-size:60px;\">+</div>","key_press":null,"trial_type":"html-keyboard-response","trial_index":232,"time_elapsed":494486,"internal_node_id":"0.0-8.0-1.56","subject":"v8sfmwv9fduajsk","sona":"5164"},{"trial_type":"turing-test","trial_index":233,"time_elapsed":498029,"internal_node_id":"0.0-8.0-2.56","subject":"v8sfmwv9fduajsk","sona":"5164"},{"rt":406,"stimulus":"<p>Welche Sequenz haben Sie als natürlicher empfunden?</p>","key_press":70,"test_part":"response","test_stimulus":{"position":0,"left":"bvh/pass-bottle-hold-training0-lines.txt","right":"bvh/vr_prediction_models/model(vcgpdm)-dataset(pass-bottle-hold)-mode(ELBO)-parts(1)-dyn(5)-lvm(5)-hold(0)/final-lines.txt","att_check":false},"trial_type":"html-keyboard-response","trial_index":234,"time_elapsed":498441,"internal_node_id":"0.0-8.0-3.56","subject":"v8sfmwv9fduajsk","sona":"5164"},{"rt":264,"stimulus":"<p>Bereit?</p>","key_press":32,"trial_type":"html-keyboard-response","trial_index":235,"time_elapsed":498713,"internal_node_id":"0.0-8.0-0.57","subject":"v8sfmwv9fduajsk","sona":"5164"},{"rt":null,"stimulus":"<div style=\"font-size:60px;\">+</div>","key_press":null,"trial_type":"html-keyboard-response","trial_index":236,"time_elapsed":500715,"internal_node_id":"0.0-8.0-1.57","subject":"v8sfmwv9fduajsk","sona":"5164"},{"trial_type":"turing-test","trial_index":237,"time_elapsed":504096,"internal_node_id":"0.0-8.0-2.57","subject":"v8sfmwv9fduajsk","sona":"5164"},{"rt":547,"stimulus":"<p>Welche Sequenz haben Sie als natürlicher empfunden?</p>","key_press":74,"test_part":"response","test_stimulus":{"position":0,"left":"bvh/return-bottle-hold-training1-lines.txt","right":"bvh/vr_prediction_models/model(tmp)-dataset(return-bottle-hold)-numprim(15)-hold(1)/final-lines.txt","att_check":false},"trial_type":"html-keyboard-response","trial_index":238,"time_elapsed":504649,"internal_node_id":"0.0-8.0-3.57","subject":"v8sfmwv9fduajsk","sona":"5164"},{"rt":229,"stimulus":"<p>Bereit?</p>","key_press":32,"trial_type":"html-keyboard-response","trial_index":239,"time_elapsed":504884,"internal_node_id":"0.0-8.0-0.58","subject":"v8sfmwv9fduajsk","sona":"5164"},{"rt":null,"stimulus":"<div style=\"font-size:60px;\">+</div>","key_press":null,"trial_type":"html-keyboard-response","trial_index":240,"time_elapsed":506886,"internal_node_id":"0.0-8.0-1.58","subject":"v8sfmwv9fduajsk","sona":"5164"},{"trial_type":"turing-test","trial_index":241,"time_elapsed":512873,"internal_node_id":"0.0-8.0-2.58","subject":"v8sfmwv9fduajsk","sona":"5164"},{"rt":434,"stimulus":"<p>Welche Sequenz haben Sie als natürlicher empfunden?</p>","key_press":70,"test_part":"response","test_stimulus":{"position":0,"left":"bvh/return-bottle-training1-lines.txt","right":"bvh/vr_prediction_models/model(vcgpdm)-dataset(return-bottle)-mode(ELBO)-parts(3)-dyn(25)-lvm(15)-hold(1)/final-lines.txt","att_check":false},"trial_type":"html-keyboard-response","trial_index":242,"time_elapsed":513313,"internal_node_id":"0.0-8.0-3.58","subject":"v8sfmwv9fduajsk","sona":"5164"},{"rt":233,"stimulus":"<p>Bereit?</p>","key_press":32,"trial_type":"html-keyboard-response","trial_index":243,"time_elapsed":513553,"internal_node_id":"0.0-8.0-0.59","subject":"v8sfmwv9fduajsk","sona":"5164"},{"rt":null,"stimulus":"<div style=\"font-size:60px;\">+</div>","key_press":null,"trial_type":"html-keyboard-response","trial_index":244,"time_elapsed":515555,"internal_node_id":"0.0-8.0-1.59","subject":"v8sfmwv9fduajsk","sona":"5164"},{"trial_type":"turing-test","trial_index":245,"time_elapsed":522372,"internal_node_id":"0.0-8.0-2.59","subject":"v8sfmwv9fduajsk","sona":"5164"},{"rt":292,"stimulus":"<p>Welche Sequenz haben Sie als natürlicher empfunden?</p>","key_press":74,"test_part":"response","test_stimulus":{"position":1,"left":"bvh/vr_prediction_models/model(tmp)-dataset(pass-bottle)-numprim(5)-hold(0)/final-lines.txt","right":"bvh/pass-bottle-training0-lines.txt","att_check":false},"trial_type":"html-keyboard-response","trial_index":246,"time_elapsed":522671,"internal_node_id":"0.0-8.0-3.59","subject":"v8sfmwv9fduajsk","sona":"5164"},{"rt":262,"stimulus":"<p>Bereit?</p>","key_press":32,"trial_type":"html-keyboard-response","trial_index":247,"time_elapsed":522940,"internal_node_id":"0.0-8.0-0.60","subject":"v8sfmwv9fduajsk","sona":"5164"},{"rt":null,"stimulus":"<div style=\"font-size:60px;\">+</div>","key_press":null,"trial_type":"html-keyboard-response","trial_index":248,"time_elapsed":524942,"internal_node_id":"0.0-8.0-1.60","subject":"v8sfmwv9fduajsk","sona":"5164"},{"trial_type":"turing-test","trial_index":249,"time_elapsed":528674,"internal_node_id":"0.0-8.0-2.60","subject":"v8sfmwv9fduajsk","sona":"5164"},{"rt":717,"stimulus":"<p>Welche Sequenz haben Sie als natürlicher empfunden?</p>","key_press":74,"test_part":"response","test_stimulus":{"position":0,"left":"bvh/return-bottle-hold-training3-lines.txt","right":"bvh/vr_prediction_models/model(dmp)-dataset(return-bottle-hold)-npsi(70)-hold(3)/final-lines.txt","att_check":false},"trial_type":"html-keyboard-response","trial_index":250,"time_elapsed":529398,"internal_node_id":"0.0-8.0-3.60","subject":"v8sfmwv9fduajsk","sona":"5164"},{"rt":140,"stimulus":"<p>Bereit?</p>","key_press":32,"trial_type":"html-keyboard-response","trial_index":251,"time_elapsed":529546,"internal_node_id":"0.0-8.0-0.61","subject":"v8sfmwv9fduajsk","sona":"5164"},{"rt":null,"stimulus":"<div style=\"font-size:60px;\">+</div>","key_press":null,"trial_type":"html-keyboard-response","trial_index":252,"time_elapsed":531551,"internal_node_id":"0.0-8.0-1.61","subject":"v8sfmwv9fduajsk","sona":"5164"},{"trial_type":"turing-test","trial_index":253,"time_elapsed":534942,"internal_node_id":"0.0-8.0-2.61","subject":"v8sfmwv9fduajsk","sona":"5164"},{"rt":422,"stimulus":"<p>Welche Sequenz haben Sie als natürlicher empfunden?</p>","key_press":70,"test_part":"response","test_stimulus":{"position":0,"left":"bvh/return-bottle-hold-training1-lines.txt","right":"bvh/vr_prediction_models/model(dmp)-dataset(return-bottle-hold)-npsi(10)-hold(1)/final-lines.txt","att_check":true},"trial_type":"html-keyboard-response","trial_index":254,"time_elapsed":535373,"internal_node_id":"0.0-8.0-3.61","subject":"v8sfmwv9fduajsk","sona":"5164"},{"rt":204,"stimulus":"<p>Bereit?</p>","key_press":32,"trial_type":"html-keyboard-response","trial_index":255,"time_elapsed":535584,"internal_node_id":"0.0-8.0-0.62","subject":"v8sfmwv9fduajsk","sona":"5164"},{"rt":null,"stimulus":"<div style=\"font-size:60px;\">+</div>","key_press":null,"trial_type":"html-keyboard-response","trial_index":256,"time_elapsed":537586,"internal_node_id":"0.0-8.0-1.62","subject":"v8sfmwv9fduajsk","sona":"5164"},{"trial_type":"turing-test","trial_index":257,"time_elapsed":541228,"internal_node_id":"0.0-8.0-2.62","subject":"v8sfmwv9fduajsk","sona":"5164"},{"rt":357,"stimulus":"<p>Welche Sequenz haben Sie als natürlicher empfunden?</p>","key_press":70,"test_part":"response","test_stimulus":{"position":0,"left":"bvh/return-bottle-hold-training2-lines.txt","right":"bvh/vr_prediction_models/model(vcgpdm)-dataset(return-bottle-hold)-mode(ELBO)-parts(3)-dyn(15)-lvm(30)-hold(2)/final-lines.txt","att_check":false},"trial_type":"html-keyboard-response","trial_index":258,"time_elapsed":541593,"internal_node_id":"0.0-8.0-3.62","subject":"v8sfmwv9fduajsk","sona":"5164"},{"rt":248,"stimulus":"<p>Bereit?</p>","key_press":32,"trial_type":"html-keyboard-response","trial_index":259,"time_elapsed":541848,"internal_node_id":"0.0-8.0-0.63","subject":"v8sfmwv9fduajsk","sona":"5164"},{"rt":null,"stimulus":"<div style=\"font-size:60px;\">+</div>","key_press":null,"trial_type":"html-keyboard-response","trial_index":260,"time_elapsed":543852,"internal_node_id":"0.0-8.0-1.63","subject":"v8sfmwv9fduajsk","sona":"5164"},{"trial_type":"turing-test","trial_index":261,"time_elapsed":549989,"internal_node_id":"0.0-8.0-2.63","subject":"v8sfmwv9fduajsk","sona":"5164"},{"rt":377,"stimulus":"<p>Welche Sequenz haben Sie als natürlicher empfunden?</p>","key_press":70,"test_part":"response","test_stimulus":{"position":0,"left":"bvh/return-bottle-training1-lines.txt","right":"bvh/vr_prediction_models/model(tmp)-dataset(return-bottle)-numprim(11)-hold(1)/final-lines.txt","att_check":false},"trial_type":"html-keyboard-response","trial_index":262,"time_elapsed":550370,"internal_node_id":"0.0-8.0-3.63","subject":"v8sfmwv9fduajsk","sona":"5164"},{"rt":264,"stimulus":"<p>Bereit?</p>","key_press":32,"trial_type":"html-keyboard-response","trial_index":263,"time_elapsed":550641,"internal_node_id":"0.0-8.0-0.64","subject":"v8sfmwv9fduajsk","sona":"5164"},{"rt":null,"stimulus":"<div style=\"font-size:60px;\">+</div>","key_press":null,"trial_type":"html-keyboard-response","trial_index":264,"time_elapsed":552643,"internal_node_id":"0.0-8.0-1.64","subject":"v8sfmwv9fduajsk","sona":"5164"},{"trial_type":"turing-test","trial_index":265,"time_elapsed":558451,"internal_node_id":"0.0-8.0-2.64","subject":"v8sfmwv9fduajsk","sona":"5164"},{"rt":321,"stimulus":"<p>Welche Sequenz haben Sie als natürlicher empfunden?</p>","key_press":74,"test_part":"response","test_stimulus":{"position":0,"left":"bvh/return-bottle-training3-lines.txt","right":"bvh/vr_prediction_models/model(tmp)-dataset(return-bottle)-numprim(8)-hold(3)/final-lines.txt","att_check":false},"trial_type":"html-keyboard-response","trial_index":266,"time_elapsed":558780,"internal_node_id":"0.0-8.0-3.64","subject":"v8sfmwv9fduajsk","sona":"5164"},{"rt":265,"stimulus":"<p>Bereit?</p>","key_press":32,"trial_type":"html-keyboard-response","trial_index":267,"time_elapsed":559052,"internal_node_id":"0.0-8.0-0.65","subject":"v8sfmwv9fduajsk","sona":"5164"},{"rt":null,"stimulus":"<div style=\"font-size:60px;\">+</div>","key_press":null,"trial_type":"html-keyboard-response","trial_index":268,"time_elapsed":561055,"internal_node_id":"0.0-8.0-1.65","subject":"v8sfmwv9fduajsk","sona":"5164"},{"trial_type":"turing-test","trial_index":269,"time_elapsed":567183,"internal_node_id":"0.0-8.0-2.65","subject":"v8sfmwv9fduajsk","sona":"5164"},{"rt":350,"stimulus":"<p>Welche Sequenz haben Sie als natürlicher empfunden?</p>","key_press":70,"test_part":"response","test_stimulus":{"position":0,"left":"bvh/return-bottle-training1-lines.txt","right":"bvh/vr_prediction_models/model(dmp)-dataset(return-bottle)-npsi(50)-hold(1)/final-lines.txt","att_check":false},"trial_type":"html-keyboard-response","trial_index":270,"time_elapsed":567541,"internal_node_id":"0.0-8.0-3.65","subject":"v8sfmwv9fduajsk","sona":"5164"},{"rt":213,"stimulus":"<p>Bereit?</p>","key_press":32,"trial_type":"html-keyboard-response","trial_index":271,"time_elapsed":567760,"internal_node_id":"0.0-8.0-0.66","subject":"v8sfmwv9fduajsk","sona":"5164"},{"rt":null,"stimulus":"<div style=\"font-size:60px;\">+</div>","key_press":null,"trial_type":"html-keyboard-response","trial_index":272,"time_elapsed":569763,"internal_node_id":"0.0-8.0-1.66","subject":"v8sfmwv9fduajsk","sona":"5164"},{"trial_type":"turing-test","trial_index":273,"time_elapsed":575542,"internal_node_id":"0.0-8.0-2.66","subject":"v8sfmwv9fduajsk","sona":"5164"},{"rt":721,"stimulus":"<p>Welche Sequenz haben Sie als natürlicher empfunden?</p>","key_press":74,"test_part":"response","test_stimulus":{"position":0,"left":"bvh/return-bottle-training4-lines.txt","right":"bvh/vr_prediction_models/model(dmp)-dataset(return-bottle)-npsi(10)-hold(4)/final-lines.txt","att_check":true},"trial_type":"html-keyboard-response","trial_index":274,"time_elapsed":576266,"internal_node_id":"0.0-8.0-3.66","subject":"v8sfmwv9fduajsk","sona":"5164"},{"rt":212,"stimulus":"<p>Bereit?</p>","key_press":32,"trial_type":"html-keyboard-response","trial_index":275,"time_elapsed":576485,"internal_node_id":"0.0-8.0-0.67","subject":"v8sfmwv9fduajsk","sona":"5164"},{"rt":null,"stimulus":"<div style=\"font-size:60px;\">+</div>","key_press":null,"trial_type":"html-keyboard-response","trial_index":276,"time_elapsed":578488,"internal_node_id":"0.0-8.0-1.67","subject":"v8sfmwv9fduajsk","sona":"5164"},{"trial_type":"turing-test","trial_index":277,"time_elapsed":584826,"internal_node_id":"0.0-8.0-2.67","subject":"v8sfmwv9fduajsk","sona":"5164"},{"rt":323,"stimulus":"<p>Welche Sequenz haben Sie als natürlicher empfunden?</p>","key_press":74,"test_part":"response","test_stimulus":{"position":1,"left":"bvh/vr_prediction_models/model(vcgpdm)-dataset(pass-bottle)-mode(ELBO)-parts(3)-dyn(20)-lvm(20)-hold(2)/final-lines.txt","right":"bvh/pass-bottle-training2-lines.txt","att_check":false},"trial_type":"html-keyboard-response","trial_index":278,"time_elapsed":585157,"internal_node_id":"0.0-8.0-3.67","subject":"v8sfmwv9fduajsk","sona":"5164"},{"rt":297,"stimulus":"<p>Bereit?</p>","key_press":32,"trial_type":"html-keyboard-response","trial_index":279,"time_elapsed":585460,"internal_node_id":"0.0-8.0-0.68","subject":"v8sfmwv9fduajsk","sona":"5164"},{"rt":null,"stimulus":"<div style=\"font-size:60px;\">+</div>","key_press":null,"trial_type":"html-keyboard-response","trial_index":280,"time_elapsed":587463,"internal_node_id":"0.0-8.0-1.68","subject":"v8sfmwv9fduajsk","sona":"5164"},{"trial_type":"turing-test","trial_index":281,"time_elapsed":590748,"internal_node_id":"0.0-8.0-2.68","subject":"v8sfmwv9fduajsk","sona":"5164"},{"rt":341,"stimulus":"<p>Welche Sequenz haben Sie als natürlicher empfunden?</p>","key_press":70,"test_part":"response","test_stimulus":{"position":0,"left":"bvh/pass-bottle-hold-training0-lines.txt","right":"bvh/vr_prediction_models/model(vcgpdm)-dataset(pass-bottle-hold)-mode(ELBO)-parts(3)-dyn(20)-lvm(20)-hold(0)/final-lines.txt","att_check":false},"trial_type":"html-keyboard-response","trial_index":282,"time_elapsed":591097,"internal_node_id":"0.0-8.0-3.68","subject":"v8sfmwv9fduajsk","sona":"5164"},{"rt":121,"stimulus":"<p>Bereit?</p>","key_press":32,"trial_type":"html-keyboard-response","trial_index":283,"time_elapsed":591227,"internal_node_id":"0.0-8.0-0.69","subject":"v8sfmwv9fduajsk","sona":"5164"},{"rt":null,"stimulus":"<div style=\"font-size:60px;\">+</div>","key_press":null,"trial_type":"html-keyboard-response","trial_index":284,"time_elapsed":593228,"internal_node_id":"0.0-8.0-1.69","subject":"v8sfmwv9fduajsk","sona":"5164"},{"trial_type":"turing-test","trial_index":285,"time_elapsed":596907,"internal_node_id":"0.0-8.0-2.69","subject":"v8sfmwv9fduajsk","sona":"5164"},{"rt":278,"stimulus":"<p>Welche Sequenz haben Sie als natürlicher empfunden?</p>","key_press":74,"test_part":"response","test_stimulus":{"position":0,"left":"bvh/return-bottle-hold-training3-lines.txt","right":"bvh/vr_prediction_models/model(tmp)-dataset(return-bottle-hold)-numprim(5)-hold(3)/final-lines.txt","att_check":false},"trial_type":"html-keyboard-response","trial_index":286,"time_elapsed":597193,"internal_node_id":"0.0-8.0-3.69","subject":"v8sfmwv9fduajsk","sona":"5164"},{"rt":202,"stimulus":"<p>Bereit?</p>","key_press":32,"trial_type":"html-keyboard-response","trial_index":287,"time_elapsed":597402,"internal_node_id":"0.0-8.0-0.70","subject":"v8sfmwv9fduajsk","sona":"5164"},{"rt":null,"stimulus":"<div style=\"font-size:60px;\">+</div>","key_press":null,"trial_type":"html-keyboard-response","trial_index":288,"time_elapsed":599404,"internal_node_id":"0.0-8.0-1.70","subject":"v8sfmwv9fduajsk","sona":"5164"},{"trial_type":"turing-test","trial_index":289,"time_elapsed":603253,"internal_node_id":"0.0-8.0-2.70","subject":"v8sfmwv9fduajsk","sona":"5164"},{"rt":512,"stimulus":"<p>Welche Sequenz haben Sie als natürlicher empfunden?</p>","key_press":70,"test_part":"response","test_stimulus":{"position":0,"left":"bvh/return-bottle-hold-training4-lines.txt","right":"bvh/vr_prediction_models/model(vcgpdm)-dataset(return-bottle-hold)-mode(ELBO)-parts(1)-dyn(30)-lvm(35)-hold(4)/final-lines.txt","att_check":false},"trial_type":"html-keyboard-response","trial_index":290,"time_elapsed":603770,"internal_node_id":"0.0-8.0-3.70","subject":"v8sfmwv9fduajsk","sona":"5164"},{"rt":147,"stimulus":"<p>Bereit?</p>","key_press":32,"trial_type":"html-keyboard-response","trial_index":291,"time_elapsed":603923,"internal_node_id":"0.0-8.0-0.71","subject":"v8sfmwv9fduajsk","sona":"5164"},{"rt":null,"stimulus":"<div style=\"font-size:60px;\">+</div>","key_press":null,"trial_type":"html-keyboard-response","trial_index":292,"time_elapsed":605925,"internal_node_id":"0.0-8.0-1.71","subject":"v8sfmwv9fduajsk","sona":"5164"},{"trial_type":"turing-test","trial_index":293,"time_elapsed":611396,"internal_node_id":"0.0-8.0-2.71","subject":"v8sfmwv9fduajsk","sona":"5164"},{"rt":313,"stimulus":"<p>Welche Sequenz haben Sie als natürlicher empfunden?</p>","key_press":74,"test_part":"response","test_stimulus":{"position":1,"left":"bvh/vr_prediction_models/model(dmp)-dataset(return-bottle)-npsi(40)-hold(0)/final-lines.txt","right":"bvh/return-bottle-training0-lines.txt","att_check":false},"trial_type":"html-keyboard-response","trial_index":294,"time_elapsed":611715,"internal_node_id":"0.0-8.0-3.71","subject":"v8sfmwv9fduajsk","sona":"5164"},{"rt":226,"stimulus":"<p>Bereit?</p>","key_press":32,"trial_type":"html-keyboard-response","trial_index":295,"time_elapsed":611951,"internal_node_id":"0.0-8.0-0.72","subject":"v8sfmwv9fduajsk","sona":"5164"},{"rt":null,"stimulus":"<div style=\"font-size:60px;\">+</div>","key_press":null,"trial_type":"html-keyboard-response","trial_index":296,"time_elapsed":613954,"internal_node_id":"0.0-8.0-1.72","subject":"v8sfmwv9fduajsk","sona":"5164"},{"trial_type":"turing-test","trial_index":297,"time_elapsed":619851,"internal_node_id":"0.0-8.0-2.72","subject":"v8sfmwv9fduajsk","sona":"5164"},{"rt":325,"stimulus":"<p>Welche Sequenz haben Sie als natürlicher empfunden?</p>","key_press":74,"test_part":"response","test_stimulus":{"position":1,"left":"bvh/vr_prediction_models/model(vcgpdm)-dataset(return-bottle)-mode(ELBO)-parts(1)-dyn(35)-lvm(10)-hold(3)/final-lines.txt","right":"bvh/return-bottle-training3-lines.txt","att_check":false},"trial_type":"html-keyboard-response","trial_index":298,"time_elapsed":620186,"internal_node_id":"0.0-8.0-3.72","subject":"v8sfmwv9fduajsk","sona":"5164"},{"rt":642,"stimulus":"<p>Bereit?</p>","key_press":32,"trial_type":"html-keyboard-response","trial_index":299,"time_elapsed":620837,"internal_node_id":"0.0-8.0-0.73","subject":"v8sfmwv9fduajsk","sona":"5164"},{"rt":null,"stimulus":"<div style=\"font-size:60px;\">+</div>","key_press":null,"trial_type":"html-keyboard-response","trial_index":300,"time_elapsed":622842,"internal_node_id":"0.0-8.0-1.73","subject":"v8sfmwv9fduajsk","sona":"5164"},{"trial_type":"turing-test","trial_index":301,"time_elapsed":626561,"internal_node_id":"0.0-8.0-2.73","subject":"v8sfmwv9fduajsk","sona":"5164"},{"rt":301,"stimulus":"<p>Welche Sequenz haben Sie als natürlicher empfunden?</p>","key_press":74,"test_part":"response","test_stimulus":{"position":0,"left":"bvh/pass-bottle-hold-training3-lines.txt","right":"bvh/vr_prediction_models/model(vcgpdm)-dataset(pass-bottle-hold)-mode(ELBO)-parts(1)-dyn(20)-lvm(30)-hold(3)/final-lines.txt","att_check":false},"trial_type":"html-keyboard-response","trial_index":302,"time_elapsed":626870,"internal_node_id":"0.0-8.0-3.73","subject":"v8sfmwv9fduajsk","sona":"5164"},{"rt":257,"stimulus":"<p>Bereit?</p>","key_press":32,"trial_type":"html-keyboard-response","trial_index":303,"time_elapsed":627134,"internal_node_id":"0.0-8.0-0.74","subject":"v8sfmwv9fduajsk","sona":"5164"},{"rt":null,"stimulus":"<div style=\"font-size:60px;\">+</div>","key_press":null,"trial_type":"html-keyboard-response","trial_index":304,"time_elapsed":629135,"internal_node_id":"0.0-8.0-1.74","subject":"v8sfmwv9fduajsk","sona":"5164"},{"trial_type":"turing-test","trial_index":305,"time_elapsed":635324,"internal_node_id":"0.0-8.0-2.74","subject":"v8sfmwv9fduajsk","sona":"5164"},{"rt":428,"stimulus":"<p>Welche Sequenz haben Sie als natürlicher empfunden?</p>","key_press":70,"test_part":"response","test_stimulus":{"position":0,"left":"bvh/pass-bottle-training2-lines.txt","right":"bvh/vr_prediction_models/model(dmp)-dataset(pass-bottle)-npsi(50)-hold(2)/final-lines.txt","att_check":false},"trial_type":"html-keyboard-response","trial_index":306,"time_elapsed":635761,"internal_node_id":"0.0-8.0-3.74","subject":"v8sfmwv9fduajsk","sona":"5164"},{"rt":328,"stimulus":"<p>Bereit?</p>","key_press":32,"trial_type":"html-keyboard-response","trial_index":307,"time_elapsed":636096,"internal_node_id":"0.0-8.0-0.75","subject":"v8sfmwv9fduajsk","sona":"5164"},{"rt":null,"stimulus":"<div style=\"font-size:60px;\">+</div>","key_press":null,"trial_type":"html-keyboard-response","trial_index":308,"time_elapsed":638098,"internal_node_id":"0.0-8.0-1.75","subject":"v8sfmwv9fduajsk","sona":"5164"},{"trial_type":"turing-test","trial_index":309,"time_elapsed":643912,"internal_node_id":"0.0-8.0-2.75","subject":"v8sfmwv9fduajsk","sona":"5164"},{"rt":314,"stimulus":"<p>Welche Sequenz haben Sie als natürlicher empfunden?</p>","key_press":74,"test_part":"response","test_stimulus":{"position":1,"left":"bvh/vr_prediction_models/model(tmp)-dataset(return-bottle)-numprim(5)-hold(3)/final-lines.txt","right":"bvh/return-bottle-training3-lines.txt","att_check":false},"trial_type":"html-keyboard-response","trial_index":310,"time_elapsed":644233,"internal_node_id":"0.0-8.0-3.75","subject":"v8sfmwv9fduajsk","sona":"5164"},{"rt":228,"stimulus":"<p>Bereit?</p>","key_press":32,"trial_type":"html-keyboard-response","trial_index":311,"time_elapsed":644469,"internal_node_id":"0.0-8.0-0.76","subject":"v8sfmwv9fduajsk","sona":"5164"},{"rt":null,"stimulus":"<div style=\"font-size:60px;\">+</div>","key_press":null,"trial_type":"html-keyboard-response","trial_index":312,"time_elapsed":646470,"internal_node_id":"0.0-8.0-1.76","subject":"v8sfmwv9fduajsk","sona":"5164"},{"trial_type":"turing-test","trial_index":313,"time_elapsed":652276,"internal_node_id":"0.0-8.0-2.76","subject":"v8sfmwv9fduajsk","sona":"5164"},{"rt":308,"stimulus":"<p>Welche Sequenz haben Sie als natürlicher empfunden?</p>","key_press":70,"test_part":"response","test_stimulus":{"position":0,"left":"bvh/return-bottle-training3-lines.txt","right":"bvh/vr_prediction_models/model(vcgpdm)-dataset(return-bottle)-mode(ELBO)-parts(3)-dyn(20)-lvm(35)-hold(3)/final-lines.txt","att_check":false},"trial_type":"html-keyboard-response","trial_index":314,"time_elapsed":652596,"internal_node_id":"0.0-8.0-3.76","subject":"v8sfmwv9fduajsk","sona":"5164"},{"rt":201,"stimulus":"<p>Bereit?</p>","key_press":32,"trial_type":"html-keyboard-response","trial_index":315,"time_elapsed":652802,"internal_node_id":"0.0-8.0-0.77","subject":"v8sfmwv9fduajsk","sona":"5164"},{"rt":null,"stimulus":"<div style=\"font-size:60px;\">+</div>","key_press":null,"trial_type":"html-keyboard-response","trial_index":316,"time_elapsed":654805,"internal_node_id":"0.0-8.0-1.77","subject":"v8sfmwv9fduajsk","sona":"5164"},{"trial_type":"turing-test","trial_index":317,"time_elapsed":660102,"internal_node_id":"0.0-8.0-2.77","subject":"v8sfmwv9fduajsk","sona":"5164"},{"rt":510,"stimulus":"<p>Welche Sequenz haben Sie als natürlicher empfunden?</p>","key_press":70,"test_part":"response","test_stimulus":{"position":1,"left":"bvh/vr_prediction_models/model(vcgpdm)-dataset(return-bottle-hold)-mode(ELBO)-parts(1)-dyn(20)-lvm(30)-hold(0)/final-lines.txt","right":"bvh/return-bottle-hold-training0-lines.txt","att_check":false},"trial_type":"html-keyboard-response","trial_index":318,"time_elapsed":660618,"internal_node_id":"0.0-8.0-3.77","subject":"v8sfmwv9fduajsk","sona":"5164"},{"rt":333,"stimulus":"<p>Bereit?</p>","key_press":32,"trial_type":"html-keyboard-response","trial_index":319,"time_elapsed":660958,"internal_node_id":"0.0-8.0-0.78","subject":"v8sfmwv9fduajsk","sona":"5164"},{"rt":null,"stimulus":"<div style=\"font-size:60px;\">+</div>","key_press":null,"trial_type":"html-keyboard-response","trial_index":320,"time_elapsed":662961,"internal_node_id":"0.0-8.0-1.78","subject":"v8sfmwv9fduajsk","sona":"5164"},{"trial_type":"turing-test","trial_index":321,"time_elapsed":668944,"internal_node_id":"0.0-8.0-2.78","subject":"v8sfmwv9fduajsk","sona":"5164"},{"rt":326,"stimulus":"<p>Welche Sequenz haben Sie als natürlicher empfunden?</p>","key_press":74,"test_part":"response","test_stimulus":{"position":1,"left":"bvh/vr_prediction_models/model(vcgpdm)-dataset(pass-bottle)-mode(ELBO)-parts(3)-dyn(10)-lvm(10)-hold(3)/final-lines.txt","right":"bvh/pass-bottle-training3-lines.txt","att_check":false},"trial_type":"html-keyboard-response","trial_index":322,"time_elapsed":669277,"internal_node_id":"0.0-8.0-3.78","subject":"v8sfmwv9fduajsk","sona":"5164"},{"rt":274,"stimulus":"<p>Bereit?</p>","key_press":32,"trial_type":"html-keyboard-response","trial_index":323,"time_elapsed":669557,"internal_node_id":"0.0-8.0-0.79","subject":"v8sfmwv9fduajsk","sona":"5164"},{"rt":null,"stimulus":"<div style=\"font-size:60px;\">+</div>","key_press":null,"trial_type":"html-keyboard-response","trial_index":324,"time_elapsed":671559,"internal_node_id":"0.0-8.0-1.79","subject":"v8sfmwv9fduajsk","sona":"5164"},{"trial_type":"turing-test","trial_index":325,"time_elapsed":677187,"internal_node_id":"0.0-8.0-2.79","subject":"v8sfmwv9fduajsk","sona":"5164"},{"rt":384,"stimulus":"<p>Welche Sequenz haben Sie als natürlicher empfunden?</p>","key_press":74,"test_part":"response","test_stimulus":{"position":1,"left":"bvh/vr_prediction_models/model(vcgpdm)-dataset(pass-bottle)-mode(ELBO)-parts(3)-dyn(20)-lvm(35)-hold(1)/final-lines.txt","right":"bvh/pass-bottle-training1-lines.txt","att_check":false},"trial_type":"html-keyboard-response","trial_index":326,"time_elapsed":677581,"internal_node_id":"0.0-8.0-3.79","subject":"v8sfmwv9fduajsk","sona":"5164"},{"rt":7473,"responses":"{\"age\":\"21\",\"gender\":\"weiblich\"}","trial_type":"survey-text","trial_index":327,"time_elapsed":685078,"internal_node_id":"0.0-10.0-0.0","subject":"v8sfmwv9fduajsk","sona":"5164"}]