[{"rt":3982,"stimulus":"<p>Welcome!<br> Please choose your language to start the experiment in the chosen language.</p><p>Willkommen!<br> Bitte wählen Sie eine Sprache, um das Experiment in der ausgewählten Sprache zu starten</p>","button_pressed":"1","trial_type":"html-button-response","trial_index":0,"time_elapsed":3990,"internal_node_id":"0.0-0.0","subject":"869n66novs7gcdx","sona":"7675"},{"view_history":"[{\"page_index\":0,\"viewing_time\":3496},{\"page_index\":1,\"viewing_time\":5100},{\"page_index\":2,\"viewing_time\":3599},{\"page_index\":3,\"viewing_time\":4900},{\"page_index\":4,\"viewing_time\":2498}]","rt":19594,"trial_type":"instructions","trial_index":1,"time_elapsed":23587,"internal_node_id":"0.0-1.0-0.0","subject":"869n66novs7gcdx","sona":"7675"},{"rt":1372,"stimulus":"<p>Bereit?</p>","key_press":32,"trial_type":"html-keyboard-response","trial_index":2,"time_elapsed":24961,"internal_node_id":"0.0-3.0","subject":"869n66novs7gcdx","sona":"7675"},{"rt":null,"stimulus":"<div style=\"font-size:60px;\">+</div>","key_press":null,"trial_type":"html-keyboard-response","trial_index":3,"time_elapsed":26982,"internal_node_id":"0.0-4.0","subject":"869n66novs7gcdx","sona":"7675"},{"trial_type":"training","trial_index":4,"time_elapsed":30342,"internal_node_id":"0.0-5.0","subject":"869n66novs7gcdx","sona":"7675"},{"rt":525,"stimulus":"<p>Welche Sequenz haben Sie als natürlicher empfunden?</p>","key_press":70,"trial_type":"html-keyboard-response","trial_index":5,"time_elapsed":30869,"internal_node_id":"0.0-6.0","subject":"869n66novs7gcdx","sona":"7675"},{"rt":2477,"stimulus":"<p>Das Experiment startet nun.</p><p><small>Bitte drücken Sie den Knopf, wenn Sie bereit sind.</small></p>","button_pressed":"0","trial_type":"html-button-response","trial_index":6,"time_elapsed":33346,"internal_node_id":"0.0-7.0","subject":"869n66novs7gcdx","sona":"7675"},{"rt":887,"stimulus":"<p>Bereit?</p>","key_press":32,"trial_type":"html-keyboard-response","trial_index":7,"time_elapsed":34235,"internal_node_id":"0.0-8.0-0.0","subject":"869n66novs7gcdx","sona":"7675"},{"rt":null,"stimulus":"<div style=\"font-size:60px;\">+</div>","key_press":null,"trial_type":"html-keyboard-response","trial_index":8,"time_elapsed":36272,"internal_node_id":"0.0-8.0-1.0","subject":"869n66novs7gcdx","sona":"7675"},{"trial_type":"turing-test","trial_index":9,"time_elapsed":41832,"internal_node_id":"0.0-8.0-2.0","subject":"869n66novs7gcdx","sona":"7675"},{"rt":850,"stimulus":"<p>Welche Sequenz haben Sie als natürlicher empfunden?</p>","key_press":74,"test_part":"response","test_stimulus":{"position":0,"left":"bvh/pass-bottle-training1-lines.txt","right":"bvh/vr_prediction_models/model(vcgpdm)-dataset(pass-bottle)-mode(ELBO)-parts(3)-dyn(35)-lvm(20)-hold(1)/final-lines.txt","att_check":false},"trial_type":"html-keyboard-response","trial_index":10,"time_elapsed":42684,"internal_node_id":"0.0-8.0-3.0","subject":"869n66novs7gcdx","sona":"7675"},{"rt":768,"stimulus":"<p>Bereit?</p>","key_press":32,"trial_type":"html-keyboard-response","trial_index":11,"time_elapsed":43453,"internal_node_id":"0.0-8.0-0.1","subject":"869n66novs7gcdx","sona":"7675"},{"rt":null,"stimulus":"<div style=\"font-size:60px;\">+</div>","key_press":null,"trial_type":"html-keyboard-response","trial_index":12,"time_elapsed":45482,"internal_node_id":"0.0-8.0-1.1","subject":"869n66novs7gcdx","sona":"7675"},{"trial_type":"turing-test","trial_index":13,"time_elapsed":51340,"internal_node_id":"0.0-8.0-2.1","subject":"869n66novs7gcdx","sona":"7675"},{"rt":691,"stimulus":"<p>Welche Sequenz haben Sie als natürlicher empfunden?</p>","key_press":74,"test_part":"response","test_stimulus":{"position":0,"left":"bvh/return-bottle-training3-lines.txt","right":"bvh/vr_prediction_models/model(vcgpdm)-dataset(return-bottle)-mode(ELBO)-parts(1)-dyn(25)-lvm(35)-hold(3)/final-lines.txt","att_check":false},"trial_type":"html-keyboard-response","trial_index":14,"time_elapsed":52032,"internal_node_id":"0.0-8.0-3.1","subject":"869n66novs7gcdx","sona":"7675"},{"rt":269,"stimulus":"<p>Bereit?</p>","key_press":32,"trial_type":"html-keyboard-response","trial_index":15,"time_elapsed":52302,"internal_node_id":"0.0-8.0-0.2","subject":"869n66novs7gcdx","sona":"7675"},{"rt":null,"stimulus":"<div style=\"font-size:60px;\">+</div>","key_press":null,"trial_type":"html-keyboard-response","trial_index":16,"time_elapsed":54338,"internal_node_id":"0.0-8.0-1.2","subject":"869n66novs7gcdx","sona":"7675"},{"trial_type":"turing-test","trial_index":17,"time_elapsed":60180,"internal_node_id":"0.0-8.0-2.2","subject":"869n66novs7gcdx","sona":"7675"},{"rt":670,"stimulus":"<p>Welche Sequenz haben Sie als natürlicher empfunden?</p>","key_press":74,"test_part":"response","test_stimulus":{"position":1,"left":"bvh/vr_prediction_models/model(dmp)-dataset(return-bottle)-npsi(80)-hold(4)/final-lines.txt","right":"bvh/return-bottle-training4-lines.txt","att_check":false},"trial_type":"html-keyboard-response","trial_index":18,"time_elapsed":60852,"internal_node_id":"0.0-8.0-3.2","subject":"869n66novs7gcdx","sona":"7675"},{"rt":328,"stimulus":"<p>Bereit?</p>","key_press":32,"trial_type":"html-keyboard-response","trial_index":19,"time_elapsed":61181,"internal_node_id":"0.0-8.0-0.3","subject":"869n66novs7gcdx","sona":"7675"},{"rt":null,"stimulus":"<div style=\"font-size:60px;\">+</div>","key_press":null,"trial_type":"html-keyboard-response","trial_index":20,"time_elapsed":63209,"internal_node_id":"0.0-8.0-1.3","subject":"869n66novs7gcdx","sona":"7675"},{"trial_type":"turing-test","trial_index":21,"time_elapsed":66899,"internal_node_id":"0.0-8.0-2.3","subject":"869n66novs7gcdx","sona":"7675"},{"rt":380,"stimulus":"<p>Welche Sequenz haben Sie als natürlicher empfunden?</p>","key_press":70,"test_part":"response","test_stimulus":{"position":1,"left":"bvh/vr_prediction_models/model(tmp)-dataset(return-bottle-hold)-numprim(9)-hold(4)/final-lines.txt","right":"bvh/return-bottle-hold-training4-lines.txt","att_check":false},"trial_type":"html-keyboard-response","trial_index":22,"time_elapsed":67281,"internal_node_id":"0.0-8.0-3.3","subject":"869n66novs7gcdx","sona":"7675"},{"rt":368,"stimulus":"<p>Bereit?</p>","key_press":32,"trial_type":"html-keyboard-response","trial_index":23,"time_elapsed":67651,"internal_node_id":"0.0-8.0-0.4","subject":"869n66novs7gcdx","sona":"7675"},{"rt":null,"stimulus":"<div style=\"font-size:60px;\">+</div>","key_press":null,"trial_type":"html-keyboard-response","trial_index":24,"time_elapsed":69679,"internal_node_id":"0.0-8.0-1.4","subject":"869n66novs7gcdx","sona":"7675"},{"trial_type":"turing-test","trial_index":25,"time_elapsed":73380,"internal_node_id":"0.0-8.0-2.4","subject":"869n66novs7gcdx","sona":"7675"},{"rt":600,"stimulus":"<p>Welche Sequenz haben Sie als natürlicher empfunden?</p>","key_press":70,"test_part":"response","test_stimulus":{"position":1,"left":"bvh/vr_prediction_models/model(vcgpdm)-dataset(pass-bottle-hold)-mode(ELBO)-parts(3)-dyn(30)-lvm(15)-hold(4)/final-lines.txt","right":"bvh/pass-bottle-hold-training4-lines.txt","att_check":false},"trial_type":"html-keyboard-response","trial_index":26,"time_elapsed":73982,"internal_node_id":"0.0-8.0-3.4","subject":"869n66novs7gcdx","sona":"7675"},{"rt":288,"stimulus":"<p>Bereit?</p>","key_press":32,"trial_type":"html-keyboard-response","trial_index":27,"time_elapsed":74271,"internal_node_id":"0.0-8.0-0.5","subject":"869n66novs7gcdx","sona":"7675"},{"rt":null,"stimulus":"<div style=\"font-size:60px;\">+</div>","key_press":null,"trial_type":"html-keyboard-response","trial_index":28,"time_elapsed":76290,"internal_node_id":"0.0-8.0-1.5","subject":"869n66novs7gcdx","sona":"7675"},{"trial_type":"turing-test","trial_index":29,"time_elapsed":79610,"internal_node_id":"0.0-8.0-2.5","subject":"869n66novs7gcdx","sona":"7675"},{"rt":598,"stimulus":"<p>Welche Sequenz haben Sie als natürlicher empfunden?</p>","key_press":74,"test_part":"response","test_stimulus":{"position":0,"left":"bvh/pass-bottle-hold-training2-lines.txt","right":"bvh/vr_prediction_models/model(tmp)-dataset(pass-bottle-hold)-numprim(15)-hold(2)/final-lines.txt","att_check":false},"trial_type":"html-keyboard-response","trial_index":30,"time_elapsed":80209,"internal_node_id":"0.0-8.0-3.5","subject":"869n66novs7gcdx","sona":"7675"},{"rt":299,"stimulus":"<p>Bereit?</p>","key_press":32,"trial_type":"html-keyboard-response","trial_index":31,"time_elapsed":80510,"internal_node_id":"0.0-8.0-0.6","subject":"869n66novs7gcdx","sona":"7675"},{"rt":null,"stimulus":"<div style=\"font-size:60px;\">+</div>","key_press":null,"trial_type":"html-keyboard-response","trial_index":32,"time_elapsed":82550,"internal_node_id":"0.0-8.0-1.6","subject":"869n66novs7gcdx","sona":"7675"},{"trial_type":"turing-test","trial_index":33,"time_elapsed":88330,"internal_node_id":"0.0-8.0-2.6","subject":"869n66novs7gcdx","sona":"7675"},{"rt":955,"stimulus":"<p>Welche Sequenz haben Sie als natürlicher empfunden?</p>","key_press":74,"test_part":"response","test_stimulus":{"position":1,"left":"bvh/vr_prediction_models/model(vcgpdm)-dataset(return-bottle)-mode(ELBO)-parts(1)-dyn(10)-lvm(25)-hold(3)/final-lines.txt","right":"bvh/return-bottle-training3-lines.txt","att_check":false},"trial_type":"html-keyboard-response","trial_index":34,"time_elapsed":89286,"internal_node_id":"0.0-8.0-3.6","subject":"869n66novs7gcdx","sona":"7675"},{"rt":314,"stimulus":"<p>Bereit?</p>","key_press":32,"trial_type":"html-keyboard-response","trial_index":35,"time_elapsed":89601,"internal_node_id":"0.0-8.0-0.7","subject":"869n66novs7gcdx","sona":"7675"},{"rt":null,"stimulus":"<div style=\"font-size:60px;\">+</div>","key_press":null,"trial_type":"html-keyboard-response","trial_index":36,"time_elapsed":91638,"internal_node_id":"0.0-8.0-1.7","subject":"869n66novs7gcdx","sona":"7675"},{"trial_type":"turing-test","trial_index":37,"time_elapsed":95259,"internal_node_id":"0.0-8.0-2.7","subject":"869n66novs7gcdx","sona":"7675"},{"rt":447,"stimulus":"<p>Welche Sequenz haben Sie als natürlicher empfunden?</p>","key_press":74,"test_part":"response","test_stimulus":{"position":1,"left":"bvh/vr_prediction_models/model(tmp)-dataset(return-bottle-hold)-numprim(12)-hold(3)/final-lines.txt","right":"bvh/return-bottle-hold-training3-lines.txt","att_check":false},"trial_type":"html-keyboard-response","trial_index":38,"time_elapsed":95708,"internal_node_id":"0.0-8.0-3.7","subject":"869n66novs7gcdx","sona":"7675"},{"rt":410,"stimulus":"<p>Bereit?</p>","key_press":32,"trial_type":"html-keyboard-response","trial_index":39,"time_elapsed":96120,"internal_node_id":"0.0-8.0-0.8","subject":"869n66novs7gcdx","sona":"7675"},{"rt":null,"stimulus":"<div style=\"font-size:60px;\">+</div>","key_press":null,"trial_type":"html-keyboard-response","trial_index":40,"time_elapsed":98139,"internal_node_id":"0.0-8.0-1.8","subject":"869n66novs7gcdx","sona":"7675"},{"trial_type":"turing-test","trial_index":41,"time_elapsed":105014,"internal_node_id":"0.0-8.0-2.8","subject":"869n66novs7gcdx","sona":"7675"},{"rt":603,"stimulus":"<p>Welche Sequenz haben Sie als natürlicher empfunden?</p>","key_press":70,"test_part":"response","test_stimulus":{"position":0,"left":"bvh/pass-bottle-training0-lines.txt","right":"bvh/vr_prediction_models/model(vcgpdm)-dataset(pass-bottle)-mode(ELBO)-parts(3)-dyn(10)-lvm(25)-hold(0)/final-lines.txt","att_check":false},"trial_type":"html-keyboard-response","trial_index":42,"time_elapsed":105618,"internal_node_id":"0.0-8.0-3.8","subject":"869n66novs7gcdx","sona":"7675"},{"rt":665,"stimulus":"<p>Bereit?</p>","key_press":32,"trial_type":"html-keyboard-response","trial_index":43,"time_elapsed":106284,"internal_node_id":"0.0-8.0-0.9","subject":"869n66novs7gcdx","sona":"7675"},{"rt":null,"stimulus":"<div style=\"font-size:60px;\">+</div>","key_press":null,"trial_type":"html-keyboard-response","trial_index":44,"time_elapsed":108303,"internal_node_id":"0.0-8.0-1.9","subject":"869n66novs7gcdx","sona":"7675"},{"trial_type":"turing-test","trial_index":45,"time_elapsed":114163,"internal_node_id":"0.0-8.0-2.9","subject":"869n66novs7gcdx","sona":"7675"},{"rt":524,"stimulus":"<p>Welche Sequenz haben Sie als natürlicher empfunden?</p>","key_press":70,"test_part":"response","test_stimulus":{"position":0,"left":"bvh/pass-bottle-training3-lines.txt","right":"bvh/vr_prediction_models/model(tmp)-dataset(pass-bottle)-numprim(9)-hold(3)/final-lines.txt","att_check":false},"trial_type":"html-keyboard-response","trial_index":46,"time_elapsed":114690,"internal_node_id":"0.0-8.0-3.9","subject":"869n66novs7gcdx","sona":"7675"},{"rt":444,"stimulus":"<p>Bereit?</p>","key_press":32,"trial_type":"html-keyboard-response","trial_index":47,"time_elapsed":115135,"internal_node_id":"0.0-8.0-0.10","subject":"869n66novs7gcdx","sona":"7675"},{"rt":null,"stimulus":"<div style=\"font-size:60px;\">+</div>","key_press":null,"trial_type":"html-keyboard-response","trial_index":48,"time_elapsed":117172,"internal_node_id":"0.0-8.0-1.10","subject":"869n66novs7gcdx","sona":"7675"},{"trial_type":"turing-test","trial_index":49,"time_elapsed":122943,"internal_node_id":"0.0-8.0-2.10","subject":"869n66novs7gcdx","sona":"7675"},{"rt":1177,"stimulus":"<p>Welche Sequenz haben Sie als natürlicher empfunden?</p>","key_press":74,"test_part":"response","test_stimulus":{"position":1,"left":"bvh/vr_prediction_models/model(tmp)-dataset(return-bottle)-numprim(10)-hold(4)/final-lines.txt","right":"bvh/return-bottle-training4-lines.txt","att_check":false},"trial_type":"html-keyboard-response","trial_index":50,"time_elapsed":124121,"internal_node_id":"0.0-8.0-3.10","subject":"869n66novs7gcdx","sona":"7675"},{"rt":568,"stimulus":"<p>Bereit?</p>","key_press":32,"trial_type":"html-keyboard-response","trial_index":51,"time_elapsed":124691,"internal_node_id":"0.0-8.0-0.11","subject":"869n66novs7gcdx","sona":"7675"},{"rt":null,"stimulus":"<div style=\"font-size:60px;\">+</div>","key_press":null,"trial_type":"html-keyboard-response","trial_index":52,"time_elapsed":126723,"internal_node_id":"0.0-8.0-1.11","subject":"869n66novs7gcdx","sona":"7675"},{"trial_type":"turing-test","trial_index":53,"time_elapsed":133323,"internal_node_id":"0.0-8.0-2.11","subject":"869n66novs7gcdx","sona":"7675"},{"rt":589,"stimulus":"<p>Welche Sequenz haben Sie als natürlicher empfunden?</p>","key_press":74,"test_part":"response","test_stimulus":{"position":1,"left":"bvh/vr_prediction_models/model(dmp)-dataset(return-bottle)-npsi(60)-hold(2)/final-lines.txt","right":"bvh/return-bottle-training2-lines.txt","att_check":false},"trial_type":"html-keyboard-response","trial_index":54,"time_elapsed":133914,"internal_node_id":"0.0-8.0-3.11","subject":"869n66novs7gcdx","sona":"7675"},{"rt":364,"stimulus":"<p>Bereit?</p>","key_press":32,"trial_type":"html-keyboard-response","trial_index":55,"time_elapsed":134278,"internal_node_id":"0.0-8.0-0.12","subject":"869n66novs7gcdx","sona":"7675"},{"rt":null,"stimulus":"<div style=\"font-size:60px;\">+</div>","key_press":null,"trial_type":"html-keyboard-response","trial_index":56,"time_elapsed":136302,"internal_node_id":"0.0-8.0-1.12","subject":"869n66novs7gcdx","sona":"7675"},{"trial_type":"turing-test","trial_index":57,"time_elapsed":139918,"internal_node_id":"0.0-8.0-2.12","subject":"869n66novs7gcdx","sona":"7675"},{"rt":877,"stimulus":"<p>Welche Sequenz haben Sie als natürlicher empfunden?</p>","key_press":74,"test_part":"response","test_stimulus":{"position":1,"left":"bvh/vr_prediction_models/model(vcgpdm)-dataset(return-bottle-hold)-mode(ELBO)-parts(1)-dyn(15)-lvm(35)-hold(2)/final-lines.txt","right":"bvh/return-bottle-hold-training2-lines.txt","att_check":false},"trial_type":"html-keyboard-response","trial_index":58,"time_elapsed":140798,"internal_node_id":"0.0-8.0-3.12","subject":"869n66novs7gcdx","sona":"7675"},{"rt":473,"stimulus":"<p>Bereit?</p>","key_press":32,"trial_type":"html-keyboard-response","trial_index":59,"time_elapsed":141273,"internal_node_id":"0.0-8.0-0.13","subject":"869n66novs7gcdx","sona":"7675"},{"rt":null,"stimulus":"<div style=\"font-size:60px;\">+</div>","key_press":null,"trial_type":"html-keyboard-response","trial_index":60,"time_elapsed":143308,"internal_node_id":"0.0-8.0-1.13","subject":"869n66novs7gcdx","sona":"7675"},{"trial_type":"turing-test","trial_index":61,"time_elapsed":149997,"internal_node_id":"0.0-8.0-2.13","subject":"869n66novs7gcdx","sona":"7675"},{"rt":545,"stimulus":"<p>Welche Sequenz haben Sie als natürlicher empfunden?</p>","key_press":70,"test_part":"response","test_stimulus":{"position":1,"left":"bvh/vr_prediction_models/model(tmp)-dataset(pass-bottle)-numprim(6)-hold(0)/final-lines.txt","right":"bvh/pass-bottle-training0-lines.txt","att_check":false},"trial_type":"html-keyboard-response","trial_index":62,"time_elapsed":150543,"internal_node_id":"0.0-8.0-3.13","subject":"869n66novs7gcdx","sona":"7675"},{"rt":373,"stimulus":"<p>Bereit?</p>","key_press":32,"trial_type":"html-keyboard-response","trial_index":63,"time_elapsed":150920,"internal_node_id":"0.0-8.0-0.14","subject":"869n66novs7gcdx","sona":"7675"},{"rt":null,"stimulus":"<div style=\"font-size:60px;\">+</div>","key_press":null,"trial_type":"html-keyboard-response","trial_index":64,"time_elapsed":152929,"internal_node_id":"0.0-8.0-1.14","subject":"869n66novs7gcdx","sona":"7675"},{"trial_type":"turing-test","trial_index":65,"time_elapsed":158578,"internal_node_id":"0.0-8.0-2.14","subject":"869n66novs7gcdx","sona":"7675"},{"rt":875,"stimulus":"<p>Welche Sequenz haben Sie als natürlicher empfunden?</p>","key_press":70,"test_part":"response","test_stimulus":{"position":0,"left":"bvh/return-bottle-training4-lines.txt","right":"bvh/vr_prediction_models/model(tmp)-dataset(return-bottle)-numprim(10)-hold(4)/final-lines.txt","att_check":false},"trial_type":"html-keyboard-response","trial_index":66,"time_elapsed":159456,"internal_node_id":"0.0-8.0-3.14","subject":"869n66novs7gcdx","sona":"7675"},{"rt":359,"stimulus":"<p>Bereit?</p>","key_press":32,"trial_type":"html-keyboard-response","trial_index":67,"time_elapsed":159816,"internal_node_id":"0.0-8.0-0.15","subject":"869n66novs7gcdx","sona":"7675"},{"rt":null,"stimulus":"<div style=\"font-size:60px;\">+</div>","key_press":null,"trial_type":"html-keyboard-response","trial_index":68,"time_elapsed":161819,"internal_node_id":"0.0-8.0-1.15","subject":"869n66novs7gcdx","sona":"7675"},{"trial_type":"turing-test","trial_index":69,"time_elapsed":167218,"internal_node_id":"0.0-8.0-2.15","subject":"869n66novs7gcdx","sona":"7675"},{"rt":731,"stimulus":"<p>Welche Sequenz haben Sie als natürlicher empfunden?</p>","key_press":74,"test_part":"response","test_stimulus":{"position":0,"left":"bvh/pass-bottle-training1-lines.txt","right":"bvh/vr_prediction_models/model(tmp)-dataset(pass-bottle)-numprim(6)-hold(1)/final-lines.txt","att_check":false},"trial_type":"html-keyboard-response","trial_index":70,"time_elapsed":167951,"internal_node_id":"0.0-8.0-3.15","subject":"869n66novs7gcdx","sona":"7675"},{"rt":454,"stimulus":"<p>Bereit?</p>","key_press":32,"trial_type":"html-keyboard-response","trial_index":71,"time_elapsed":168405,"internal_node_id":"0.0-8.0-0.16","subject":"869n66novs7gcdx","sona":"7675"},{"rt":null,"stimulus":"<div style=\"font-size:60px;\">+</div>","key_press":null,"trial_type":"html-keyboard-response","trial_index":72,"time_elapsed":170438,"internal_node_id":"0.0-8.0-1.16","subject":"869n66novs7gcdx","sona":"7675"},{"trial_type":"turing-test","trial_index":73,"time_elapsed":173868,"internal_node_id":"0.0-8.0-2.16","subject":"869n66novs7gcdx","sona":"7675"},{"rt":99,"stimulus":"<p>Welche Sequenz haben Sie als natürlicher empfunden?</p>","key_press":70,"test_part":"response","test_stimulus":{"position":0,"left":"bvh/return-bottle-hold-training2-lines.txt","right":"bvh/vr_prediction_models/model(tmp)-dataset(return-bottle-hold)-numprim(7)-hold(2)/final-lines.txt","att_check":false},"trial_type":"html-keyboard-response","trial_index":74,"time_elapsed":173969,"internal_node_id":"0.0-8.0-3.16","subject":"869n66novs7gcdx","sona":"7675"},{"rt":830,"stimulus":"<p>Bereit?</p>","key_press":32,"trial_type":"html-keyboard-response","trial_index":75,"time_elapsed":174801,"internal_node_id":"0.0-8.0-0.17","subject":"869n66novs7gcdx","sona":"7675"},{"rt":null,"stimulus":"<div style=\"font-size:60px;\">+</div>","key_press":null,"trial_type":"html-keyboard-response","trial_index":76,"time_elapsed":176819,"internal_node_id":"0.0-8.0-1.17","subject":"869n66novs7gcdx","sona":"7675"},{"trial_type":"turing-test","trial_index":77,"time_elapsed":180357,"internal_node_id":"0.0-8.0-2.17","subject":"869n66novs7gcdx","sona":"7675"},{"rt":872,"stimulus":"<p>Welche Sequenz haben Sie als natürlicher empfunden?</p>","key_press":70,"test_part":"response","test_stimulus":{"position":0,"left":"bvh/pass-bottle-hold-training4-lines.txt","right":"bvh/vr_prediction_models/model(dmp)-dataset(pass-bottle-hold)-npsi(100)-hold(4)/final-lines.txt","att_check":false},"trial_type":"html-keyboard-response","trial_index":78,"time_elapsed":181231,"internal_node_id":"0.0-8.0-3.17","subject":"869n66novs7gcdx","sona":"7675"},{"rt":359,"stimulus":"<p>Bereit?</p>","key_press":32,"trial_type":"html-keyboard-response","trial_index":79,"time_elapsed":181592,"internal_node_id":"0.0-8.0-0.18","subject":"869n66novs7gcdx","sona":"7675"},{"rt":null,"stimulus":"<div style=\"font-size:60px;\">+</div>","key_press":null,"trial_type":"html-keyboard-response","trial_index":80,"time_elapsed":183598,"internal_node_id":"0.0-8.0-1.18","subject":"869n66novs7gcdx","sona":"7675"},{"trial_type":"turing-test","trial_index":81,"time_elapsed":189778,"internal_node_id":"0.0-8.0-2.18","subject":"869n66novs7gcdx","sona":"7675"},{"rt":443,"stimulus":"<p>Welche Sequenz haben Sie als natürlicher empfunden?</p>","key_press":70,"test_part":"response","test_stimulus":{"position":0,"left":"bvh/return-bottle-training1-lines.txt","right":"bvh/vr_prediction_models/model(vcgpdm)-dataset(return-bottle)-mode(ELBO)-parts(1)-dyn(10)-lvm(5)-hold(1)/final-lines.txt","att_check":false},"trial_type":"html-keyboard-response","trial_index":82,"time_elapsed":190224,"internal_node_id":"0.0-8.0-3.18","subject":"869n66novs7gcdx","sona":"7675"},{"rt":536,"stimulus":"<p>Bereit?</p>","key_press":32,"trial_type":"html-keyboard-response","trial_index":83,"time_elapsed":190762,"internal_node_id":"0.0-8.0-0.19","subject":"869n66novs7gcdx","sona":"7675"},{"rt":null,"stimulus":"<div style=\"font-size:60px;\">+</div>","key_press":null,"trial_type":"html-keyboard-response","trial_index":84,"time_elapsed":192779,"internal_node_id":"0.0-8.0-1.19","subject":"869n66novs7gcdx","sona":"7675"},{"trial_type":"turing-test","trial_index":85,"time_elapsed":196358,"internal_node_id":"0.0-8.0-2.19","subject":"869n66novs7gcdx","sona":"7675"},{"rt":458,"stimulus":"<p>Welche Sequenz haben Sie als natürlicher empfunden?</p>","key_press":74,"test_part":"response","test_stimulus":{"position":1,"left":"bvh/vr_prediction_models/model(tmp)-dataset(pass-bottle-hold)-numprim(3)-hold(4)/final-lines.txt","right":"bvh/pass-bottle-hold-training4-lines.txt","att_check":false},"trial_type":"html-keyboard-response","trial_index":86,"time_elapsed":196819,"internal_node_id":"0.0-8.0-3.19","subject":"869n66novs7gcdx","sona":"7675"},{"rt":392,"stimulus":"<p>Bereit?</p>","key_press":32,"trial_type":"html-keyboard-response","trial_index":87,"time_elapsed":197214,"internal_node_id":"0.0-8.0-0.20","subject":"869n66novs7gcdx","sona":"7675"},{"rt":null,"stimulus":"<div style=\"font-size:60px;\">+</div>","key_press":null,"trial_type":"html-keyboard-response","trial_index":88,"time_elapsed":199238,"internal_node_id":"0.0-8.0-1.20","subject":"869n66novs7gcdx","sona":"7675"},{"trial_type":"turing-test","trial_index":89,"time_elapsed":204978,"internal_node_id":"0.0-8.0-2.20","subject":"869n66novs7gcdx","sona":"7675"},{"rt":1354,"stimulus":"<p>Welche Sequenz haben Sie als natürlicher empfunden?</p>","key_press":74,"test_part":"response","test_stimulus":{"position":0,"left":"bvh/return-bottle-training4-lines.txt","right":"bvh/vr_prediction_models/model(tmp)-dataset(return-bottle)-numprim(3)-hold(4)/final-lines.txt","att_check":false},"trial_type":"html-keyboard-response","trial_index":90,"time_elapsed":206335,"internal_node_id":"0.0-8.0-3.20","subject":"869n66novs7gcdx","sona":"7675"},{"rt":395,"stimulus":"<p>Bereit?</p>","key_press":32,"trial_type":"html-keyboard-response","trial_index":91,"time_elapsed":206732,"internal_node_id":"0.0-8.0-0.21","subject":"869n66novs7gcdx","sona":"7675"},{"rt":null,"stimulus":"<div style=\"font-size:60px;\">+</div>","key_press":null,"trial_type":"html-keyboard-response","trial_index":92,"time_elapsed":208768,"internal_node_id":"0.0-8.0-1.21","subject":"869n66novs7gcdx","sona":"7675"},{"trial_type":"turing-test","trial_index":93,"time_elapsed":215468,"internal_node_id":"0.0-8.0-2.21","subject":"869n66novs7gcdx","sona":"7675"},{"rt":385,"stimulus":"<p>Welche Sequenz haben Sie als natürlicher empfunden?</p>","key_press":70,"test_part":"response","test_stimulus":{"position":0,"left":"bvh/pass-bottle-training0-lines.txt","right":"bvh/vr_prediction_models/model(tmp)-dataset(pass-bottle)-numprim(14)-hold(0)/final-lines.txt","att_check":false},"trial_type":"html-keyboard-response","trial_index":94,"time_elapsed":215855,"internal_node_id":"0.0-8.0-3.21","subject":"869n66novs7gcdx","sona":"7675"},{"rt":484,"stimulus":"<p>Bereit?</p>","key_press":32,"trial_type":"html-keyboard-response","trial_index":95,"time_elapsed":216341,"internal_node_id":"0.0-8.0-0.22","subject":"869n66novs7gcdx","sona":"7675"},{"rt":null,"stimulus":"<div style=\"font-size:60px;\">+</div>","key_press":null,"trial_type":"html-keyboard-response","trial_index":96,"time_elapsed":218379,"internal_node_id":"0.0-8.0-1.22","subject":"869n66novs7gcdx","sona":"7675"},{"trial_type":"turing-test","trial_index":97,"time_elapsed":224168,"internal_node_id":"0.0-8.0-2.22","subject":"869n66novs7gcdx","sona":"7675"},{"rt":758,"stimulus":"<p>Welche Sequenz haben Sie als natürlicher empfunden?</p>","key_press":74,"test_part":"response","test_stimulus":{"position":1,"left":"bvh/vr_prediction_models/model(dmp)-dataset(pass-bottle)-npsi(100)-hold(3)/final-lines.txt","right":"bvh/pass-bottle-training3-lines.txt","att_check":false},"trial_type":"html-keyboard-response","trial_index":98,"time_elapsed":224927,"internal_node_id":"0.0-8.0-3.22","subject":"869n66novs7gcdx","sona":"7675"},{"rt":236,"stimulus":"<p>Bereit?</p>","key_press":32,"trial_type":"html-keyboard-response","trial_index":99,"time_elapsed":225165,"internal_node_id":"0.0-8.0-0.23","subject":"869n66novs7gcdx","sona":"7675"},{"rt":null,"stimulus":"<div style=\"font-size:60px;\">+</div>","key_press":null,"trial_type":"html-keyboard-response","trial_index":100,"time_elapsed":227197,"internal_node_id":"0.0-8.0-1.23","subject":"869n66novs7gcdx","sona":"7675"},{"trial_type":"turing-test","trial_index":101,"time_elapsed":230858,"internal_node_id":"0.0-8.0-2.23","subject":"869n66novs7gcdx","sona":"7675"},{"rt":633,"stimulus":"<p>Welche Sequenz haben Sie als natürlicher empfunden?</p>","key_press":74,"test_part":"response","test_stimulus":{"position":1,"left":"bvh/vr_prediction_models/model(vcgpdm)-dataset(pass-bottle-hold)-mode(ELBO)-parts(1)-dyn(30)-lvm(35)-hold(3)/final-lines.txt","right":"bvh/pass-bottle-hold-training3-lines.txt","att_check":false},"trial_type":"html-keyboard-response","trial_index":102,"time_elapsed":231493,"internal_node_id":"0.0-8.0-3.23","subject":"869n66novs7gcdx","sona":"7675"},{"rt":252,"stimulus":"<p>Bereit?</p>","key_press":32,"trial_type":"html-keyboard-response","trial_index":103,"time_elapsed":231747,"internal_node_id":"0.0-8.0-0.24","subject":"869n66novs7gcdx","sona":"7675"},{"rt":null,"stimulus":"<div style=\"font-size:60px;\">+</div>","key_press":null,"trial_type":"html-keyboard-response","trial_index":104,"time_elapsed":233759,"internal_node_id":"0.0-8.0-1.24","subject":"869n66novs7gcdx","sona":"7675"},{"trial_type":"turing-test","trial_index":105,"time_elapsed":239559,"internal_node_id":"0.0-8.0-2.24","subject":"869n66novs7gcdx","sona":"7675"},{"rt":717,"stimulus":"<p>Welche Sequenz haben Sie als natürlicher empfunden?</p>","key_press":74,"test_part":"response","test_stimulus":{"position":0,"left":"bvh/return-bottle-training3-lines.txt","right":"bvh/vr_prediction_models/model(vcgpdm)-dataset(return-bottle)-mode(ELBO)-parts(3)-dyn(25)-lvm(25)-hold(3)/final-lines.txt","att_check":false},"trial_type":"html-keyboard-response","trial_index":106,"time_elapsed":240278,"internal_node_id":"0.0-8.0-3.24","subject":"869n66novs7gcdx","sona":"7675"},{"rt":269,"stimulus":"<p>Bereit?</p>","key_press":32,"trial_type":"html-keyboard-response","trial_index":107,"time_elapsed":240550,"internal_node_id":"0.0-8.0-0.25","subject":"869n66novs7gcdx","sona":"7675"},{"rt":null,"stimulus":"<div style=\"font-size:60px;\">+</div>","key_press":null,"trial_type":"html-keyboard-response","trial_index":108,"time_elapsed":242577,"internal_node_id":"0.0-8.0-1.25","subject":"869n66novs7gcdx","sona":"7675"},{"trial_type":"turing-test","trial_index":109,"time_elapsed":247999,"internal_node_id":"0.0-8.0-2.25","subject":"869n66novs7gcdx","sona":"7675"},{"rt":478,"stimulus":"<p>Welche Sequenz haben Sie als natürlicher empfunden?</p>","key_press":70,"test_part":"response","test_stimulus":{"position":0,"left":"bvh/pass-bottle-training1-lines.txt","right":"bvh/vr_prediction_models/model(dmp)-dataset(pass-bottle)-npsi(30)-hold(1)/final-lines.txt","att_check":false},"trial_type":"html-keyboard-response","trial_index":110,"time_elapsed":248480,"internal_node_id":"0.0-8.0-3.25","subject":"869n66novs7gcdx","sona":"7675"},{"rt":335,"stimulus":"<p>Bereit?</p>","key_press":32,"trial_type":"html-keyboard-response","trial_index":111,"time_elapsed":248816,"internal_node_id":"0.0-8.0-0.26","subject":"869n66novs7gcdx","sona":"7675"},{"rt":null,"stimulus":"<div style=\"font-size:60px;\">+</div>","key_press":null,"trial_type":"html-keyboard-response","trial_index":112,"time_elapsed":250838,"internal_node_id":"0.0-8.0-1.26","subject":"869n66novs7gcdx","sona":"7675"},{"trial_type":"turing-test","trial_index":113,"time_elapsed":257053,"internal_node_id":"0.0-8.0-2.26","subject":"869n66novs7gcdx","sona":"7675"},{"rt":429,"stimulus":"<p>Welche Sequenz haben Sie als natürlicher empfunden?</p>","key_press":70,"test_part":"response","test_stimulus":{"position":0,"left":"bvh/pass-bottle-training2-lines.txt","right":"bvh/vr_prediction_models/model(vcgpdm)-dataset(pass-bottle)-mode(ELBO)-parts(3)-dyn(25)-lvm(30)-hold(2)/final-lines.txt","att_check":false},"trial_type":"html-keyboard-response","trial_index":114,"time_elapsed":257485,"internal_node_id":"0.0-8.0-3.26","subject":"869n66novs7gcdx","sona":"7675"},{"rt":462,"stimulus":"<p>Bereit?</p>","key_press":32,"trial_type":"html-keyboard-response","trial_index":115,"time_elapsed":257949,"internal_node_id":"0.0-8.0-0.27","subject":"869n66novs7gcdx","sona":"7675"},{"rt":null,"stimulus":"<div style=\"font-size:60px;\">+</div>","key_press":null,"trial_type":"html-keyboard-response","trial_index":116,"time_elapsed":259973,"internal_node_id":"0.0-8.0-1.27","subject":"869n66novs7gcdx","sona":"7675"},{"trial_type":"turing-test","trial_index":117,"time_elapsed":263163,"internal_node_id":"0.0-8.0-2.27","subject":"869n66novs7gcdx","sona":"7675"},{"rt":356,"stimulus":"<p>Welche Sequenz haben Sie als natürlicher empfunden?</p>","key_press":70,"test_part":"response","test_stimulus":{"position":0,"left":"bvh/pass-bottle-hold-training1-lines.txt","right":"bvh/vr_prediction_models/model(tmp)-dataset(pass-bottle-hold)-numprim(15)-hold(1)/final-lines.txt","att_check":false},"trial_type":"html-keyboard-response","trial_index":118,"time_elapsed":263522,"internal_node_id":"0.0-8.0-3.27","subject":"869n66novs7gcdx","sona":"7675"},{"rt":411,"stimulus":"<p>Bereit?</p>","key_press":32,"trial_type":"html-keyboard-response","trial_index":119,"time_elapsed":263935,"internal_node_id":"0.0-8.0-0.28","subject":"869n66novs7gcdx","sona":"7675"},{"rt":null,"stimulus":"<div style=\"font-size:60px;\">+</div>","key_press":null,"trial_type":"html-keyboard-response","trial_index":120,"time_elapsed":265943,"internal_node_id":"0.0-8.0-1.28","subject":"869n66novs7gcdx","sona":"7675"},{"trial_type":"turing-test","trial_index":121,"time_elapsed":269503,"internal_node_id":"0.0-8.0-2.28","subject":"869n66novs7gcdx","sona":"7675"},{"rt":2387,"stimulus":"<p>Welche Sequenz haben Sie als natürlicher empfunden?</p>","key_press":74,"test_part":"response","test_stimulus":{"position":0,"left":"bvh/return-bottle-hold-training2-lines.txt","right":"bvh/vr_prediction_models/model(vcgpdm)-dataset(return-bottle-hold)-mode(ELBO)-parts(3)-dyn(35)-lvm(20)-hold(2)/final-lines.txt","att_check":false},"trial_type":"html-keyboard-response","trial_index":122,"time_elapsed":271894,"internal_node_id":"0.0-8.0-3.28","subject":"869n66novs7gcdx","sona":"7675"},{"rt":919,"stimulus":"<p>Bereit?</p>","key_press":32,"trial_type":"html-keyboard-response","trial_index":123,"time_elapsed":272815,"internal_node_id":"0.0-8.0-0.29","subject":"869n66novs7gcdx","sona":"7675"},{"rt":null,"stimulus":"<div style=\"font-size:60px;\">+</div>","key_press":null,"trial_type":"html-keyboard-response","trial_index":124,"time_elapsed":274843,"internal_node_id":"0.0-8.0-1.29","subject":"869n66novs7gcdx","sona":"7675"},{"trial_type":"turing-test","trial_index":125,"time_elapsed":280883,"internal_node_id":"0.0-8.0-2.29","subject":"869n66novs7gcdx","sona":"7675"},{"rt":649,"stimulus":"<p>Welche Sequenz haben Sie als natürlicher empfunden?</p>","key_press":70,"test_part":"response","test_stimulus":{"position":0,"left":"bvh/return-bottle-training1-lines.txt","right":"bvh/vr_prediction_models/model(tmp)-dataset(return-bottle)-numprim(12)-hold(1)/final-lines.txt","att_check":false},"trial_type":"html-keyboard-response","trial_index":126,"time_elapsed":281535,"internal_node_id":"0.0-8.0-3.29","subject":"869n66novs7gcdx","sona":"7675"},{"rt":342,"stimulus":"<p>Bereit?</p>","key_press":32,"trial_type":"html-keyboard-response","trial_index":127,"time_elapsed":281879,"internal_node_id":"0.0-8.0-0.30","subject":"869n66novs7gcdx","sona":"7675"},{"rt":null,"stimulus":"<div style=\"font-size:60px;\">+</div>","key_press":null,"trial_type":"html-keyboard-response","trial_index":128,"time_elapsed":283913,"internal_node_id":"0.0-8.0-1.30","subject":"869n66novs7gcdx","sona":"7675"},{"trial_type":"turing-test","trial_index":129,"time_elapsed":287233,"internal_node_id":"0.0-8.0-2.30","subject":"869n66novs7gcdx","sona":"7675"},{"rt":523,"stimulus":"<p>Welche Sequenz haben Sie als natürlicher empfunden?</p>","key_press":70,"test_part":"response","test_stimulus":{"position":0,"left":"bvh/pass-bottle-hold-training1-lines.txt","right":"bvh/vr_prediction_models/model(vcgpdm)-dataset(pass-bottle-hold)-mode(ELBO)-parts(3)-dyn(25)-lvm(15)-hold(1)/final-lines.txt","att_check":false},"trial_type":"html-keyboard-response","trial_index":130,"time_elapsed":287759,"internal_node_id":"0.0-8.0-3.30","subject":"869n66novs7gcdx","sona":"7675"},{"rt":348,"stimulus":"<p>Bereit?</p>","key_press":32,"trial_type":"html-keyboard-response","trial_index":131,"time_elapsed":288108,"internal_node_id":"0.0-8.0-0.31","subject":"869n66novs7gcdx","sona":"7675"},{"rt":null,"stimulus":"<div style=\"font-size:60px;\">+</div>","key_press":null,"trial_type":"html-keyboard-response","trial_index":132,"time_elapsed":290133,"internal_node_id":"0.0-8.0-1.31","subject":"869n66novs7gcdx","sona":"7675"},{"trial_type":"turing-test","trial_index":133,"time_elapsed":295375,"internal_node_id":"0.0-8.0-2.31","subject":"869n66novs7gcdx","sona":"7675"},{"rt":59,"stimulus":"<p>Welche Sequenz haben Sie als natürlicher empfunden?</p>","key_press":74,"test_part":"response","test_stimulus":{"position":0,"left":"bvh/return-bottle-hold-training0-lines.txt","right":"bvh/vr_prediction_models/model(vcgpdm)-dataset(return-bottle-hold)-mode(ELBO)-parts(3)-dyn(15)-lvm(30)-hold(0)/final-lines.txt","att_check":false},"trial_type":"html-keyboard-response","trial_index":134,"time_elapsed":295436,"internal_node_id":"0.0-8.0-3.31","subject":"869n66novs7gcdx","sona":"7675"},{"rt":365,"stimulus":"<p>Bereit?</p>","key_press":32,"trial_type":"html-keyboard-response","trial_index":135,"time_elapsed":295803,"internal_node_id":"0.0-8.0-0.32","subject":"869n66novs7gcdx","sona":"7675"},{"rt":null,"stimulus":"<div style=\"font-size:60px;\">+</div>","key_press":null,"trial_type":"html-keyboard-response","trial_index":136,"time_elapsed":297836,"internal_node_id":"0.0-8.0-1.32","subject":"869n66novs7gcdx","sona":"7675"},{"trial_type":"turing-test","trial_index":137,"time_elapsed":301094,"internal_node_id":"0.0-8.0-2.32","subject":"869n66novs7gcdx","sona":"7675"},{"rt":632,"stimulus":"<p>Welche Sequenz haben Sie als natürlicher empfunden?</p>","key_press":70,"test_part":"response","test_stimulus":{"position":0,"left":"bvh/pass-bottle-hold-training0-lines.txt","right":"bvh/vr_prediction_models/model(tmp)-dataset(pass-bottle-hold)-numprim(7)-hold(0)/final-lines.txt","att_check":false},"trial_type":"html-keyboard-response","trial_index":138,"time_elapsed":301729,"internal_node_id":"0.0-8.0-3.32","subject":"869n66novs7gcdx","sona":"7675"},{"rt":251,"stimulus":"<p>Bereit?</p>","key_press":32,"trial_type":"html-keyboard-response","trial_index":139,"time_elapsed":301982,"internal_node_id":"0.0-8.0-0.33","subject":"869n66novs7gcdx","sona":"7675"},{"rt":null,"stimulus":"<div style=\"font-size:60px;\">+</div>","key_press":null,"trial_type":"html-keyboard-response","trial_index":140,"time_elapsed":303995,"internal_node_id":"0.0-8.0-1.33","subject":"869n66novs7gcdx","sona":"7675"},{"trial_type":"turing-test","trial_index":141,"time_elapsed":307154,"internal_node_id":"0.0-8.0-2.33","subject":"869n66novs7gcdx","sona":"7675"},{"rt":449,"stimulus":"<p>Welche Sequenz haben Sie als natürlicher empfunden?</p>","key_press":74,"test_part":"response","test_stimulus":{"position":1,"left":"bvh/vr_prediction_models/model(tmp)-dataset(pass-bottle-hold)-numprim(14)-hold(1)/final-lines.txt","right":"bvh/pass-bottle-hold-training1-lines.txt","att_check":false},"trial_type":"html-keyboard-response","trial_index":142,"time_elapsed":307607,"internal_node_id":"0.0-8.0-3.33","subject":"869n66novs7gcdx","sona":"7675"},{"rt":361,"stimulus":"<p>Bereit?</p>","key_press":32,"trial_type":"html-keyboard-response","trial_index":143,"time_elapsed":307969,"internal_node_id":"0.0-8.0-0.34","subject":"869n66novs7gcdx","sona":"7675"},{"rt":null,"stimulus":"<div style=\"font-size:60px;\">+</div>","key_press":null,"trial_type":"html-keyboard-response","trial_index":144,"time_elapsed":309995,"internal_node_id":"0.0-8.0-1.34","subject":"869n66novs7gcdx","sona":"7675"},{"trial_type":"turing-test","trial_index":145,"time_elapsed":313759,"internal_node_id":"0.0-8.0-2.34","subject":"869n66novs7gcdx","sona":"7675"},{"rt":582,"stimulus":"<p>Welche Sequenz haben Sie als natürlicher empfunden?</p>","key_press":74,"test_part":"response","test_stimulus":{"position":1,"left":"bvh/vr_prediction_models/model(vcgpdm)-dataset(pass-bottle-hold)-mode(ELBO)-parts(1)-dyn(30)-lvm(30)-hold(4)/final-lines.txt","right":"bvh/pass-bottle-hold-training4-lines.txt","att_check":false},"trial_type":"html-keyboard-response","trial_index":146,"time_elapsed":314343,"internal_node_id":"0.0-8.0-3.34","subject":"869n66novs7gcdx","sona":"7675"},{"rt":299,"stimulus":"<p>Bereit?</p>","key_press":32,"trial_type":"html-keyboard-response","trial_index":147,"time_elapsed":314645,"internal_node_id":"0.0-8.0-0.35","subject":"869n66novs7gcdx","sona":"7675"},{"rt":null,"stimulus":"<div style=\"font-size:60px;\">+</div>","key_press":null,"trial_type":"html-keyboard-response","trial_index":148,"time_elapsed":316659,"internal_node_id":"0.0-8.0-1.35","subject":"869n66novs7gcdx","sona":"7675"},{"trial_type":"turing-test","trial_index":149,"time_elapsed":321778,"internal_node_id":"0.0-8.0-2.35","subject":"869n66novs7gcdx","sona":"7675"},{"rt":1015,"stimulus":"<p>Welche Sequenz haben Sie als natürlicher empfunden?</p>","key_press":74,"test_part":"response","test_stimulus":{"position":0,"left":"bvh/return-bottle-hold-training0-lines.txt","right":"bvh/vr_prediction_models/model(vcgpdm)-dataset(return-bottle-hold)-mode(ELBO)-parts(1)-dyn(35)-lvm(30)-hold(0)/final-lines.txt","att_check":false},"trial_type":"html-keyboard-response","trial_index":150,"time_elapsed":322796,"internal_node_id":"0.0-8.0-3.35","subject":"869n66novs7gcdx","sona":"7675"},{"rt":3797,"stimulus":"<p>Bereit?</p>","key_press":32,"trial_type":"html-keyboard-response","trial_index":151,"time_elapsed":326596,"internal_node_id":"0.0-8.0-0.36","subject":"869n66novs7gcdx","sona":"7675"},{"rt":null,"stimulus":"<div style=\"font-size:60px;\">+</div>","key_press":null,"trial_type":"html-keyboard-response","trial_index":152,"time_elapsed":328618,"internal_node_id":"0.0-8.0-1.36","subject":"869n66novs7gcdx","sona":"7675"},{"trial_type":"turing-test","trial_index":153,"time_elapsed":331938,"internal_node_id":"0.0-8.0-2.36","subject":"869n66novs7gcdx","sona":"7675"},{"rt":1062,"stimulus":"<p>Welche Sequenz haben Sie als natürlicher empfunden?</p>","key_press":70,"test_part":"response","test_stimulus":{"position":0,"left":"bvh/return-bottle-hold-training1-lines.txt","right":"bvh/vr_prediction_models/model(dmp)-dataset(return-bottle-hold)-npsi(80)-hold(1)/final-lines.txt","att_check":false},"trial_type":"html-keyboard-response","trial_index":154,"time_elapsed":333004,"internal_node_id":"0.0-8.0-3.36","subject":"869n66novs7gcdx","sona":"7675"},{"rt":390,"stimulus":"<p>Bereit?</p>","key_press":32,"trial_type":"html-keyboard-response","trial_index":155,"time_elapsed":333396,"internal_node_id":"0.0-8.0-0.37","subject":"869n66novs7gcdx","sona":"7675"},{"rt":null,"stimulus":"<div style=\"font-size:60px;\">+</div>","key_press":null,"trial_type":"html-keyboard-response","trial_index":156,"time_elapsed":335413,"internal_node_id":"0.0-8.0-1.37","subject":"869n66novs7gcdx","sona":"7675"},{"trial_type":"turing-test","trial_index":157,"time_elapsed":338958,"internal_node_id":"0.0-8.0-2.37","subject":"869n66novs7gcdx","sona":"7675"},{"rt":2583,"stimulus":"<p>Welche Sequenz haben Sie als natürlicher empfunden?</p>","key_press":74,"test_part":"response","test_stimulus":{"position":1,"left":"bvh/vr_prediction_models/model(dmp)-dataset(pass-bottle-hold)-npsi(10)-hold(4)/final-lines.txt","right":"bvh/pass-bottle-hold-training4-lines.txt","att_check":false},"trial_type":"html-keyboard-response","trial_index":158,"time_elapsed":341546,"internal_node_id":"0.0-8.0-3.37","subject":"869n66novs7gcdx","sona":"7675"},{"rt":297,"stimulus":"<p>Bereit?</p>","key_press":32,"trial_type":"html-keyboard-response","trial_index":159,"time_elapsed":341845,"internal_node_id":"0.0-8.0-0.38","subject":"869n66novs7gcdx","sona":"7675"},{"rt":null,"stimulus":"<div style=\"font-size:60px;\">+</div>","key_press":null,"trial_type":"html-keyboard-response","trial_index":160,"time_elapsed":343869,"internal_node_id":"0.0-8.0-1.38","subject":"869n66novs7gcdx","sona":"7675"},{"trial_type":"turing-test","trial_index":161,"time_elapsed":349650,"internal_node_id":"0.0-8.0-2.38","subject":"869n66novs7gcdx","sona":"7675"},{"rt":1344,"stimulus":"<p>Welche Sequenz haben Sie als natürlicher empfunden?</p>","key_press":70,"test_part":"response","test_stimulus":{"position":0,"left":"bvh/return-bottle-training4-lines.txt","right":"bvh/vr_prediction_models/model(tmp)-dataset(return-bottle)-numprim(6)-hold(4)/final-lines.txt","att_check":false},"trial_type":"html-keyboard-response","trial_index":162,"time_elapsed":350996,"internal_node_id":"0.0-8.0-3.38","subject":"869n66novs7gcdx","sona":"7675"},{"rt":658,"stimulus":"<p>Bereit?</p>","key_press":32,"trial_type":"html-keyboard-response","trial_index":163,"time_elapsed":351657,"internal_node_id":"0.0-8.0-0.39","subject":"869n66novs7gcdx","sona":"7675"},{"rt":null,"stimulus":"<div style=\"font-size:60px;\">+</div>","key_press":null,"trial_type":"html-keyboard-response","trial_index":164,"time_elapsed":353689,"internal_node_id":"0.0-8.0-1.39","subject":"869n66novs7gcdx","sona":"7675"},{"trial_type":"turing-test","trial_index":165,"time_elapsed":359604,"internal_node_id":"0.0-8.0-2.39","subject":"869n66novs7gcdx","sona":"7675"},{"rt":1084,"stimulus":"<p>Welche Sequenz haben Sie als natürlicher empfunden?</p>","key_press":70,"test_part":"response","test_stimulus":{"position":0,"left":"bvh/return-bottle-training4-lines.txt","right":"bvh/vr_prediction_models/model(vcgpdm)-dataset(return-bottle)-mode(ELBO)-parts(1)-dyn(30)-lvm(30)-hold(4)/final-lines.txt","att_check":false},"trial_type":"html-keyboard-response","trial_index":166,"time_elapsed":360692,"internal_node_id":"0.0-8.0-3.39","subject":"869n66novs7gcdx","sona":"7675"},{"rt":349,"stimulus":"<p>Bereit?</p>","key_press":32,"trial_type":"html-keyboard-response","trial_index":167,"time_elapsed":361042,"internal_node_id":"0.0-8.0-0.40","subject":"869n66novs7gcdx","sona":"7675"},{"rt":null,"stimulus":"<div style=\"font-size:60px;\">+</div>","key_press":null,"trial_type":"html-keyboard-response","trial_index":168,"time_elapsed":363054,"internal_node_id":"0.0-8.0-1.40","subject":"869n66novs7gcdx","sona":"7675"},{"trial_type":"turing-test","trial_index":169,"time_elapsed":368755,"internal_node_id":"0.0-8.0-2.40","subject":"869n66novs7gcdx","sona":"7675"},{"rt":1467,"stimulus":"<p>Welche Sequenz haben Sie als natürlicher empfunden?</p>","key_press":74,"test_part":"response","test_stimulus":{"position":1,"left":"bvh/vr_prediction_models/model(tmp)-dataset(return-bottle)-numprim(7)-hold(3)/final-lines.txt","right":"bvh/return-bottle-training3-lines.txt","att_check":false},"trial_type":"html-keyboard-response","trial_index":170,"time_elapsed":370224,"internal_node_id":"0.0-8.0-3.40","subject":"869n66novs7gcdx","sona":"7675"},{"rt":1024,"stimulus":"<p>Bereit?</p>","key_press":32,"trial_type":"html-keyboard-response","trial_index":171,"time_elapsed":371251,"internal_node_id":"0.0-8.0-0.41","subject":"869n66novs7gcdx","sona":"7675"},{"rt":null,"stimulus":"<div style=\"font-size:60px;\">+</div>","key_press":null,"trial_type":"html-keyboard-response","trial_index":172,"time_elapsed":373265,"internal_node_id":"0.0-8.0-1.41","subject":"869n66novs7gcdx","sona":"7675"},{"trial_type":"turing-test","trial_index":173,"time_elapsed":376685,"internal_node_id":"0.0-8.0-2.41","subject":"869n66novs7gcdx","sona":"7675"},{"rt":465,"stimulus":"<p>Welche Sequenz haben Sie als natürlicher empfunden?</p>","key_press":70,"test_part":"response","test_stimulus":{"position":0,"left":"bvh/return-bottle-hold-training2-lines.txt","right":"bvh/vr_prediction_models/model(dmp)-dataset(return-bottle-hold)-npsi(10)-hold(2)/final-lines.txt","att_check":false},"trial_type":"html-keyboard-response","trial_index":174,"time_elapsed":377152,"internal_node_id":"0.0-8.0-3.41","subject":"869n66novs7gcdx","sona":"7675"},{"rt":412,"stimulus":"<p>Bereit?</p>","key_press":32,"trial_type":"html-keyboard-response","trial_index":175,"time_elapsed":377565,"internal_node_id":"0.0-8.0-0.42","subject":"869n66novs7gcdx","sona":"7675"},{"rt":null,"stimulus":"<div style=\"font-size:60px;\">+</div>","key_press":null,"trial_type":"html-keyboard-response","trial_index":176,"time_elapsed":379605,"internal_node_id":"0.0-8.0-1.42","subject":"869n66novs7gcdx","sona":"7675"},{"trial_type":"turing-test","trial_index":177,"time_elapsed":383275,"internal_node_id":"0.0-8.0-2.42","subject":"869n66novs7gcdx","sona":"7675"},{"rt":1178,"stimulus":"<p>Welche Sequenz haben Sie als natürlicher empfunden?</p>","key_press":70,"test_part":"response","test_stimulus":{"position":0,"left":"bvh/return-bottle-hold-training4-lines.txt","right":"bvh/vr_prediction_models/model(tmp)-dataset(return-bottle-hold)-numprim(14)-hold(4)/final-lines.txt","att_check":false},"trial_type":"html-keyboard-response","trial_index":178,"time_elapsed":384456,"internal_node_id":"0.0-8.0-3.42","subject":"869n66novs7gcdx","sona":"7675"},{"rt":327,"stimulus":"<p>Bereit?</p>","key_press":32,"trial_type":"html-keyboard-response","trial_index":179,"time_elapsed":384784,"internal_node_id":"0.0-8.0-0.43","subject":"869n66novs7gcdx","sona":"7675"},{"rt":null,"stimulus":"<div style=\"font-size:60px;\">+</div>","key_press":null,"trial_type":"html-keyboard-response","trial_index":180,"time_elapsed":386795,"internal_node_id":"0.0-8.0-1.43","subject":"869n66novs7gcdx","sona":"7675"},{"trial_type":"turing-test","trial_index":181,"time_elapsed":390035,"internal_node_id":"0.0-8.0-2.43","subject":"869n66novs7gcdx","sona":"7675"},{"rt":1288,"stimulus":"<p>Welche Sequenz haben Sie als natürlicher empfunden?</p>","key_press":74,"test_part":"response","test_stimulus":{"position":1,"left":"bvh/vr_prediction_models/model(tmp)-dataset(pass-bottle-hold)-numprim(7)-hold(0)/final-lines.txt","right":"bvh/pass-bottle-hold-training0-lines.txt","att_check":false},"trial_type":"html-keyboard-response","trial_index":182,"time_elapsed":391324,"internal_node_id":"0.0-8.0-3.43","subject":"869n66novs7gcdx","sona":"7675"},{"rt":407,"stimulus":"<p>Bereit?</p>","key_press":32,"trial_type":"html-keyboard-response","trial_index":183,"time_elapsed":391734,"internal_node_id":"0.0-8.0-0.44","subject":"869n66novs7gcdx","sona":"7675"},{"rt":null,"stimulus":"<div style=\"font-size:60px;\">+</div>","key_press":null,"trial_type":"html-keyboard-response","trial_index":184,"time_elapsed":393755,"internal_node_id":"0.0-8.0-1.44","subject":"869n66novs7gcdx","sona":"7675"},{"trial_type":"turing-test","trial_index":185,"time_elapsed":399634,"internal_node_id":"0.0-8.0-2.44","subject":"869n66novs7gcdx","sona":"7675"},{"rt":658,"stimulus":"<p>Welche Sequenz haben Sie als natürlicher empfunden?</p>","key_press":74,"test_part":"response","test_stimulus":{"position":1,"left":"bvh/vr_prediction_models/model(vcgpdm)-dataset(pass-bottle)-mode(ELBO)-parts(1)-dyn(25)-lvm(35)-hold(3)/final-lines.txt","right":"bvh/pass-bottle-training3-lines.txt","att_check":false},"trial_type":"html-keyboard-response","trial_index":186,"time_elapsed":400296,"internal_node_id":"0.0-8.0-3.44","subject":"869n66novs7gcdx","sona":"7675"},{"rt":247,"stimulus":"<p>Bereit?</p>","key_press":32,"trial_type":"html-keyboard-response","trial_index":187,"time_elapsed":400547,"internal_node_id":"0.0-8.0-0.45","subject":"869n66novs7gcdx","sona":"7675"},{"rt":null,"stimulus":"<div style=\"font-size:60px;\">+</div>","key_press":null,"trial_type":"html-keyboard-response","trial_index":188,"time_elapsed":402575,"internal_node_id":"0.0-8.0-1.45","subject":"869n66novs7gcdx","sona":"7675"},{"trial_type":"turing-test","trial_index":189,"time_elapsed":406314,"internal_node_id":"0.0-8.0-2.45","subject":"869n66novs7gcdx","sona":"7675"},{"rt":1850,"stimulus":"<p>Welche Sequenz haben Sie als natürlicher empfunden?</p>","key_press":74,"test_part":"response","test_stimulus":{"position":0,"left":"bvh/return-bottle-hold-training3-lines.txt","right":"bvh/vr_prediction_models/model(vcgpdm)-dataset(return-bottle-hold)-mode(ELBO)-parts(3)-dyn(30)-lvm(15)-hold(3)/final-lines.txt","att_check":false},"trial_type":"html-keyboard-response","trial_index":190,"time_elapsed":408167,"internal_node_id":"0.0-8.0-3.45","subject":"869n66novs7gcdx","sona":"7675"},{"rt":145,"stimulus":"<p>Bereit?</p>","key_press":32,"trial_type":"html-keyboard-response","trial_index":191,"time_elapsed":408314,"internal_node_id":"0.0-8.0-0.46","subject":"869n66novs7gcdx","sona":"7675"},{"rt":null,"stimulus":"<div style=\"font-size:60px;\">+</div>","key_press":null,"trial_type":"html-keyboard-response","trial_index":192,"time_elapsed":410344,"internal_node_id":"0.0-8.0-1.46","subject":"869n66novs7gcdx","sona":"7675"},{"trial_type":"turing-test","trial_index":193,"time_elapsed":413775,"internal_node_id":"0.0-8.0-2.46","subject":"869n66novs7gcdx","sona":"7675"},{"rt":85,"stimulus":"<p>Welche Sequenz haben Sie als natürlicher empfunden?</p>","key_press":70,"test_part":"response","test_stimulus":{"position":0,"left":"bvh/pass-bottle-hold-training0-lines.txt","right":"bvh/vr_prediction_models/model(vcgpdm)-dataset(pass-bottle-hold)-mode(ELBO)-parts(3)-dyn(20)-lvm(20)-hold(0)/final-lines.txt","att_check":false},"trial_type":"html-keyboard-response","trial_index":194,"time_elapsed":413862,"internal_node_id":"0.0-8.0-3.46","subject":"869n66novs7gcdx","sona":"7675"},{"rt":521,"stimulus":"<p>Bereit?</p>","key_press":32,"trial_type":"html-keyboard-response","trial_index":195,"time_elapsed":414385,"internal_node_id":"0.0-8.0-0.47","subject":"869n66novs7gcdx","sona":"7675"},{"rt":null,"stimulus":"<div style=\"font-size:60px;\">+</div>","key_press":null,"trial_type":"html-keyboard-response","trial_index":196,"time_elapsed":416395,"internal_node_id":"0.0-8.0-1.47","subject":"869n66novs7gcdx","sona":"7675"},{"trial_type":"turing-test","trial_index":197,"time_elapsed":421605,"internal_node_id":"0.0-8.0-2.47","subject":"869n66novs7gcdx","sona":"7675"},{"rt":495,"stimulus":"<p>Welche Sequenz haben Sie als natürlicher empfunden?</p>","key_press":70,"test_part":"response","test_stimulus":{"position":1,"left":"bvh/vr_prediction_models/model(vcgpdm)-dataset(return-bottle-hold)-mode(ELBO)-parts(3)-dyn(20)-lvm(15)-hold(0)/final-lines.txt","right":"bvh/return-bottle-hold-training0-lines.txt","att_check":false},"trial_type":"html-keyboard-response","trial_index":198,"time_elapsed":422101,"internal_node_id":"0.0-8.0-3.47","subject":"869n66novs7gcdx","sona":"7675"},{"rt":271,"stimulus":"<p>Bereit?</p>","key_press":32,"trial_type":"html-keyboard-response","trial_index":199,"time_elapsed":422375,"internal_node_id":"0.0-8.0-0.48","subject":"869n66novs7gcdx","sona":"7675"},{"rt":null,"stimulus":"<div style=\"font-size:60px;\">+</div>","key_press":null,"trial_type":"html-keyboard-response","trial_index":200,"time_elapsed":424394,"internal_node_id":"0.0-8.0-1.48","subject":"869n66novs7gcdx","sona":"7675"},{"trial_type":"turing-test","trial_index":201,"time_elapsed":429454,"internal_node_id":"0.0-8.0-2.48","subject":"869n66novs7gcdx","sona":"7675"},{"rt":524,"stimulus":"<p>Welche Sequenz haben Sie als natürlicher empfunden?</p>","key_press":74,"test_part":"response","test_stimulus":{"position":0,"left":"bvh/return-bottle-hold-training0-lines.txt","right":"bvh/vr_prediction_models/model(tmp)-dataset(return-bottle-hold)-numprim(14)-hold(0)/final-lines.txt","att_check":false},"trial_type":"html-keyboard-response","trial_index":202,"time_elapsed":429982,"internal_node_id":"0.0-8.0-3.48","subject":"869n66novs7gcdx","sona":"7675"},{"rt":183,"stimulus":"<p>Bereit?</p>","key_press":32,"trial_type":"html-keyboard-response","trial_index":203,"time_elapsed":430166,"internal_node_id":"0.0-8.0-0.49","subject":"869n66novs7gcdx","sona":"7675"},{"rt":null,"stimulus":"<div style=\"font-size:60px;\">+</div>","key_press":null,"trial_type":"html-keyboard-response","trial_index":204,"time_elapsed":432185,"internal_node_id":"0.0-8.0-1.49","subject":"869n66novs7gcdx","sona":"7675"},{"trial_type":"turing-test","trial_index":205,"time_elapsed":437744,"internal_node_id":"0.0-8.0-2.49","subject":"869n66novs7gcdx","sona":"7675"},{"rt":809,"stimulus":"<p>Welche Sequenz haben Sie als natürlicher empfunden?</p>","key_press":74,"test_part":"response","test_stimulus":{"position":0,"left":"bvh/return-bottle-training0-lines.txt","right":"bvh/vr_prediction_models/model(vcgpdm)-dataset(return-bottle)-mode(MAP)-parts(1)-hold(0)/final-lines.txt","att_check":false},"trial_type":"html-keyboard-response","trial_index":206,"time_elapsed":438556,"internal_node_id":"0.0-8.0-3.49","subject":"869n66novs7gcdx","sona":"7675"},{"rt":210,"stimulus":"<p>Bereit?</p>","key_press":32,"trial_type":"html-keyboard-response","trial_index":207,"time_elapsed":438768,"internal_node_id":"0.0-8.0-0.50","subject":"869n66novs7gcdx","sona":"7675"},{"rt":null,"stimulus":"<div style=\"font-size:60px;\">+</div>","key_press":null,"trial_type":"html-keyboard-response","trial_index":208,"time_elapsed":440785,"internal_node_id":"0.0-8.0-1.50","subject":"869n66novs7gcdx","sona":"7675"},{"trial_type":"turing-test","trial_index":209,"time_elapsed":447484,"internal_node_id":"0.0-8.0-2.50","subject":"869n66novs7gcdx","sona":"7675"},{"rt":524,"stimulus":"<p>Welche Sequenz haben Sie als natürlicher empfunden?</p>","key_press":70,"test_part":"response","test_stimulus":{"position":0,"left":"bvh/pass-bottle-training0-lines.txt","right":"bvh/vr_prediction_models/model(dmp)-dataset(pass-bottle)-npsi(20)-hold(0)/final-lines.txt","att_check":true},"trial_type":"html-keyboard-response","trial_index":210,"time_elapsed":448011,"internal_node_id":"0.0-8.0-3.50","subject":"869n66novs7gcdx","sona":"7675"},{"rt":272,"stimulus":"<p>Bereit?</p>","key_press":32,"trial_type":"html-keyboard-response","trial_index":211,"time_elapsed":448285,"internal_node_id":"0.0-8.0-0.51","subject":"869n66novs7gcdx","sona":"7675"},{"rt":null,"stimulus":"<div style=\"font-size:60px;\">+</div>","key_press":null,"trial_type":"html-keyboard-response","trial_index":212,"time_elapsed":450314,"internal_node_id":"0.0-8.0-1.51","subject":"869n66novs7gcdx","sona":"7675"},{"trial_type":"turing-test","trial_index":213,"time_elapsed":453594,"internal_node_id":"0.0-8.0-2.51","subject":"869n66novs7gcdx","sona":"7675"},{"rt":1837,"stimulus":"<p>Welche Sequenz haben Sie als natürlicher empfunden?</p>","key_press":74,"test_part":"response","test_stimulus":{"position":0,"left":"bvh/pass-bottle-hold-training2-lines.txt","right":"bvh/vr_prediction_models/model(tmp)-dataset(pass-bottle-hold)-numprim(8)-hold(2)/final-lines.txt","att_check":false},"trial_type":"html-keyboard-response","trial_index":214,"time_elapsed":455435,"internal_node_id":"0.0-8.0-3.51","subject":"869n66novs7gcdx","sona":"7675"},{"rt":156,"stimulus":"<p>Bereit?</p>","key_press":32,"trial_type":"html-keyboard-response","trial_index":215,"time_elapsed":455592,"internal_node_id":"0.0-8.0-0.52","subject":"869n66novs7gcdx","sona":"7675"},{"rt":null,"stimulus":"<div style=\"font-size:60px;\">+</div>","key_press":null,"trial_type":"html-keyboard-response","trial_index":216,"time_elapsed":457624,"internal_node_id":"0.0-8.0-1.52","subject":"869n66novs7gcdx","sona":"7675"},{"trial_type":"turing-test","trial_index":217,"time_elapsed":464324,"internal_node_id":"0.0-8.0-2.52","subject":"869n66novs7gcdx","sona":"7675"},{"rt":1234,"stimulus":"<p>Welche Sequenz haben Sie als natürlicher empfunden?</p>","key_press":74,"test_part":"response","test_stimulus":{"position":1,"left":"bvh/vr_prediction_models/model(dmp)-dataset(pass-bottle)-npsi(80)-hold(0)/final-lines.txt","right":"bvh/pass-bottle-training0-lines.txt","att_check":false},"trial_type":"html-keyboard-response","trial_index":218,"time_elapsed":465562,"internal_node_id":"0.0-8.0-3.52","subject":"869n66novs7gcdx","sona":"7675"},{"rt":174,"stimulus":"<p>Bereit?</p>","key_press":32,"trial_type":"html-keyboard-response","trial_index":219,"time_elapsed":465739,"internal_node_id":"0.0-8.0-0.53","subject":"869n66novs7gcdx","sona":"7675"},{"rt":null,"stimulus":"<div style=\"font-size:60px;\">+</div>","key_press":null,"trial_type":"html-keyboard-response","trial_index":220,"time_elapsed":467745,"internal_node_id":"0.0-8.0-1.53","subject":"869n66novs7gcdx","sona":"7675"},{"trial_type":"turing-test","trial_index":221,"time_elapsed":471413,"internal_node_id":"0.0-8.0-2.53","subject":"869n66novs7gcdx","sona":"7675"},{"rt":1347,"stimulus":"<p>Welche Sequenz haben Sie als natürlicher empfunden?</p>","key_press":74,"test_part":"response","test_stimulus":{"position":1,"left":"bvh/vr_prediction_models/model(vcgpdm)-dataset(pass-bottle-hold)-mode(ELBO)-parts(1)-dyn(25)-lvm(35)-hold(3)/final-lines.txt","right":"bvh/pass-bottle-hold-training3-lines.txt","att_check":false},"trial_type":"html-keyboard-response","trial_index":222,"time_elapsed":472761,"internal_node_id":"0.0-8.0-3.53","subject":"869n66novs7gcdx","sona":"7675"},{"rt":170,"stimulus":"<p>Bereit?</p>","key_press":32,"trial_type":"html-keyboard-response","trial_index":223,"time_elapsed":472932,"internal_node_id":"0.0-8.0-0.54","subject":"869n66novs7gcdx","sona":"7675"},{"rt":null,"stimulus":"<div style=\"font-size:60px;\">+</div>","key_press":null,"trial_type":"html-keyboard-response","trial_index":224,"time_elapsed":474939,"internal_node_id":"0.0-8.0-1.54","subject":"869n66novs7gcdx","sona":"7675"},{"trial_type":"turing-test","trial_index":225,"time_elapsed":480298,"internal_node_id":"0.0-8.0-2.54","subject":"869n66novs7gcdx","sona":"7675"},{"rt":1528,"stimulus":"<p>Welche Sequenz haben Sie als natürlicher empfunden?</p>","key_press":74,"test_part":"response","test_stimulus":{"position":0,"left":"bvh/return-bottle-training0-lines.txt","right":"bvh/vr_prediction_models/model(dmp)-dataset(return-bottle)-npsi(70)-hold(0)/final-lines.txt","att_check":false},"trial_type":"html-keyboard-response","trial_index":226,"time_elapsed":481830,"internal_node_id":"0.0-8.0-3.54","subject":"869n66novs7gcdx","sona":"7675"},{"rt":168,"stimulus":"<p>Bereit?</p>","key_press":32,"trial_type":"html-keyboard-response","trial_index":227,"time_elapsed":481999,"internal_node_id":"0.0-8.0-0.55","subject":"869n66novs7gcdx","sona":"7675"},{"rt":null,"stimulus":"<div style=\"font-size:60px;\">+</div>","key_press":null,"trial_type":"html-keyboard-response","trial_index":228,"time_elapsed":484018,"internal_node_id":"0.0-8.0-1.55","subject":"869n66novs7gcdx","sona":"7675"},{"trial_type":"turing-test","trial_index":229,"time_elapsed":490292,"internal_node_id":"0.0-8.0-2.55","subject":"869n66novs7gcdx","sona":"7675"},{"rt":1827,"stimulus":"<p>Welche Sequenz haben Sie als natürlicher empfunden?</p>","key_press":70,"test_part":"response","test_stimulus":{"position":0,"left":"bvh/pass-bottle-training2-lines.txt","right":"bvh/vr_prediction_models/model(vcgpdm)-dataset(pass-bottle)-mode(ELBO)-parts(3)-dyn(30)-lvm(15)-hold(2)/final-lines.txt","att_check":false},"trial_type":"html-keyboard-response","trial_index":230,"time_elapsed":492122,"internal_node_id":"0.0-8.0-3.55","subject":"869n66novs7gcdx","sona":"7675"},{"rt":171,"stimulus":"<p>Bereit?</p>","key_press":32,"trial_type":"html-keyboard-response","trial_index":231,"time_elapsed":492296,"internal_node_id":"0.0-8.0-0.56","subject":"869n66novs7gcdx","sona":"7675"},{"rt":null,"stimulus":"<div style=\"font-size:60px;\">+</div>","key_press":null,"trial_type":"html-keyboard-response","trial_index":232,"time_elapsed":494322,"internal_node_id":"0.0-8.0-1.56","subject":"869n66novs7gcdx","sona":"7675"},{"trial_type":"turing-test","trial_index":233,"time_elapsed":499433,"internal_node_id":"0.0-8.0-2.56","subject":"869n66novs7gcdx","sona":"7675"},{"rt":1273,"stimulus":"<p>Welche Sequenz haben Sie als natürlicher empfunden?</p>","key_press":74,"test_part":"response","test_stimulus":{"position":1,"left":"bvh/vr_prediction_models/model(dmp)-dataset(return-bottle-hold)-npsi(80)-hold(0)/final-lines.txt","right":"bvh/return-bottle-hold-training0-lines.txt","att_check":true},"trial_type":"html-keyboard-response","trial_index":234,"time_elapsed":500707,"internal_node_id":"0.0-8.0-3.56","subject":"869n66novs7gcdx","sona":"7675"},{"rt":347,"stimulus":"<p>Bereit?</p>","key_press":32,"trial_type":"html-keyboard-response","trial_index":235,"time_elapsed":501057,"internal_node_id":"0.0-8.0-0.57","subject":"869n66novs7gcdx","sona":"7675"},{"rt":null,"stimulus":"<div style=\"font-size:60px;\">+</div>","key_press":null,"trial_type":"html-keyboard-response","trial_index":236,"time_elapsed":503082,"internal_node_id":"0.0-8.0-1.57","subject":"869n66novs7gcdx","sona":"7675"},{"trial_type":"turing-test","trial_index":237,"time_elapsed":508688,"internal_node_id":"0.0-8.0-2.57","subject":"869n66novs7gcdx","sona":"7675"},{"rt":1312,"stimulus":"<p>Welche Sequenz haben Sie als natürlicher empfunden?</p>","key_press":74,"test_part":"response","test_stimulus":{"position":0,"left":"bvh/pass-bottle-training1-lines.txt","right":"bvh/vr_prediction_models/model(vcgpdm)-dataset(pass-bottle)-mode(ELBO)-parts(1)-dyn(25)-lvm(35)-hold(1)/final-lines.txt","att_check":false},"trial_type":"html-keyboard-response","trial_index":238,"time_elapsed":510002,"internal_node_id":"0.0-8.0-3.57","subject":"869n66novs7gcdx","sona":"7675"},{"rt":167,"stimulus":"<p>Bereit?</p>","key_press":32,"trial_type":"html-keyboard-response","trial_index":239,"time_elapsed":510172,"internal_node_id":"0.0-8.0-0.58","subject":"869n66novs7gcdx","sona":"7675"},{"rt":null,"stimulus":"<div style=\"font-size:60px;\">+</div>","key_press":null,"trial_type":"html-keyboard-response","trial_index":240,"time_elapsed":512199,"internal_node_id":"0.0-8.0-1.58","subject":"869n66novs7gcdx","sona":"7675"},{"trial_type":"turing-test","trial_index":241,"time_elapsed":516038,"internal_node_id":"0.0-8.0-2.58","subject":"869n66novs7gcdx","sona":"7675"},{"rt":3038,"stimulus":"<p>Welche Sequenz haben Sie als natürlicher empfunden?</p>","key_press":70,"test_part":"response","test_stimulus":{"position":0,"left":"bvh/return-bottle-hold-training4-lines.txt","right":"bvh/vr_prediction_models/model(vcgpdm)-dataset(return-bottle-hold)-mode(ELBO)-parts(3)-dyn(25)-lvm(25)-hold(4)/final-lines.txt","att_check":false},"trial_type":"html-keyboard-response","trial_index":242,"time_elapsed":519077,"internal_node_id":"0.0-8.0-3.58","subject":"869n66novs7gcdx","sona":"7675"},{"rt":205,"stimulus":"<p>Bereit?</p>","key_press":32,"trial_type":"html-keyboard-response","trial_index":243,"time_elapsed":519285,"internal_node_id":"0.0-8.0-0.59","subject":"869n66novs7gcdx","sona":"7675"},{"rt":null,"stimulus":"<div style=\"font-size:60px;\">+</div>","key_press":null,"trial_type":"html-keyboard-response","trial_index":244,"time_elapsed":521298,"internal_node_id":"0.0-8.0-1.59","subject":"869n66novs7gcdx","sona":"7675"},{"trial_type":"turing-test","trial_index":245,"time_elapsed":524838,"internal_node_id":"0.0-8.0-2.59","subject":"869n66novs7gcdx","sona":"7675"},{"rt":601,"stimulus":"<p>Welche Sequenz haben Sie als natürlicher empfunden?</p>","key_press":74,"test_part":"response","test_stimulus":{"position":1,"left":"bvh/vr_prediction_models/model(tmp)-dataset(pass-bottle-hold)-numprim(9)-hold(3)/final-lines.txt","right":"bvh/pass-bottle-hold-training3-lines.txt","att_check":false},"trial_type":"html-keyboard-response","trial_index":246,"time_elapsed":525443,"internal_node_id":"0.0-8.0-3.59","subject":"869n66novs7gcdx","sona":"7675"},{"rt":404,"stimulus":"<p>Bereit?</p>","key_press":32,"trial_type":"html-keyboard-response","trial_index":247,"time_elapsed":525849,"internal_node_id":"0.0-8.0-0.60","subject":"869n66novs7gcdx","sona":"7675"},{"rt":null,"stimulus":"<div style=\"font-size:60px;\">+</div>","key_press":null,"trial_type":"html-keyboard-response","trial_index":248,"time_elapsed":527878,"internal_node_id":"0.0-8.0-1.60","subject":"869n66novs7gcdx","sona":"7675"},{"trial_type":"turing-test","trial_index":249,"time_elapsed":534448,"internal_node_id":"0.0-8.0-2.60","subject":"869n66novs7gcdx","sona":"7675"},{"rt":1111,"stimulus":"<p>Welche Sequenz haben Sie als natürlicher empfunden?</p>","key_press":74,"test_part":"response","test_stimulus":{"position":1,"left":"bvh/vr_prediction_models/model(tmp)-dataset(return-bottle)-numprim(9)-hold(2)/final-lines.txt","right":"bvh/return-bottle-training2-lines.txt","att_check":false},"trial_type":"html-keyboard-response","trial_index":250,"time_elapsed":535562,"internal_node_id":"0.0-8.0-3.60","subject":"869n66novs7gcdx","sona":"7675"},{"rt":142,"stimulus":"<p>Bereit?</p>","key_press":32,"trial_type":"html-keyboard-response","trial_index":251,"time_elapsed":535706,"internal_node_id":"0.0-8.0-0.61","subject":"869n66novs7gcdx","sona":"7675"},{"rt":null,"stimulus":"<div style=\"font-size:60px;\">+</div>","key_press":null,"trial_type":"html-keyboard-response","trial_index":252,"time_elapsed":537719,"internal_node_id":"0.0-8.0-1.61","subject":"869n66novs7gcdx","sona":"7675"},{"trial_type":"turing-test","trial_index":253,"time_elapsed":543598,"internal_node_id":"0.0-8.0-2.61","subject":"869n66novs7gcdx","sona":"7675"},{"rt":895,"stimulus":"<p>Welche Sequenz haben Sie als natürlicher empfunden?</p>","key_press":70,"test_part":"response","test_stimulus":{"position":1,"left":"bvh/vr_prediction_models/model(vcgpdm)-dataset(return-bottle)-mode(ELBO)-parts(1)-dyn(20)-lvm(5)-hold(4)/final-lines.txt","right":"bvh/return-bottle-training4-lines.txt","att_check":false},"trial_type":"html-keyboard-response","trial_index":254,"time_elapsed":544497,"internal_node_id":"0.0-8.0-3.61","subject":"869n66novs7gcdx","sona":"7675"},{"rt":178,"stimulus":"<p>Bereit?</p>","key_press":32,"trial_type":"html-keyboard-response","trial_index":255,"time_elapsed":544677,"internal_node_id":"0.0-8.0-0.62","subject":"869n66novs7gcdx","sona":"7675"},{"rt":null,"stimulus":"<div style=\"font-size:60px;\">+</div>","key_press":null,"trial_type":"html-keyboard-response","trial_index":256,"time_elapsed":546680,"internal_node_id":"0.0-8.0-1.62","subject":"869n66novs7gcdx","sona":"7675"},{"trial_type":"turing-test","trial_index":257,"time_elapsed":552389,"internal_node_id":"0.0-8.0-2.62","subject":"869n66novs7gcdx","sona":"7675"},{"rt":507,"stimulus":"<p>Welche Sequenz haben Sie als natürlicher empfunden?</p>","key_press":70,"test_part":"response","test_stimulus":{"position":1,"left":"bvh/vr_prediction_models/model(dmp)-dataset(return-bottle)-npsi(80)-hold(3)/final-lines.txt","right":"bvh/return-bottle-training3-lines.txt","att_check":false},"trial_type":"html-keyboard-response","trial_index":258,"time_elapsed":552899,"internal_node_id":"0.0-8.0-3.62","subject":"869n66novs7gcdx","sona":"7675"},{"rt":158,"stimulus":"<p>Bereit?</p>","key_press":32,"trial_type":"html-keyboard-response","trial_index":259,"time_elapsed":553059,"internal_node_id":"0.0-8.0-0.63","subject":"869n66novs7gcdx","sona":"7675"},{"rt":null,"stimulus":"<div style=\"font-size:60px;\">+</div>","key_press":null,"trial_type":"html-keyboard-response","trial_index":260,"time_elapsed":555079,"internal_node_id":"0.0-8.0-1.63","subject":"869n66novs7gcdx","sona":"7675"},{"trial_type":"turing-test","trial_index":261,"time_elapsed":559145,"internal_node_id":"0.0-8.0-2.63","subject":"869n66novs7gcdx","sona":"7675"},{"rt":1471,"stimulus":"<p>Welche Sequenz haben Sie als natürlicher empfunden?</p>","key_press":74,"test_part":"response","test_stimulus":{"position":0,"left":"bvh/return-bottle-hold-training4-lines.txt","right":"bvh/vr_prediction_models/model(vcgpdm)-dataset(return-bottle-hold)-mode(ELBO)-parts(3)-dyn(25)-lvm(15)-hold(4)/final-lines.txt","att_check":false},"trial_type":"html-keyboard-response","trial_index":262,"time_elapsed":560620,"internal_node_id":"0.0-8.0-3.63","subject":"869n66novs7gcdx","sona":"7675"},{"rt":84,"stimulus":"<p>Bereit?</p>","key_press":32,"trial_type":"html-keyboard-response","trial_index":263,"time_elapsed":560708,"internal_node_id":"0.0-8.0-0.64","subject":"869n66novs7gcdx","sona":"7675"},{"rt":null,"stimulus":"<div style=\"font-size:60px;\">+</div>","key_press":null,"trial_type":"html-keyboard-response","trial_index":264,"time_elapsed":562735,"internal_node_id":"0.0-8.0-1.64","subject":"869n66novs7gcdx","sona":"7675"},{"trial_type":"turing-test","trial_index":265,"time_elapsed":568297,"internal_node_id":"0.0-8.0-2.64","subject":"869n66novs7gcdx","sona":"7675"},{"rt":1703,"stimulus":"<p>Welche Sequenz haben Sie als natürlicher empfunden?</p>","key_press":74,"test_part":"response","test_stimulus":{"position":1,"left":"bvh/vr_prediction_models/model(vcgpdm)-dataset(return-bottle)-mode(ELBO)-parts(3)-dyn(25)-lvm(30)-hold(0)/final-lines.txt","right":"bvh/return-bottle-training0-lines.txt","att_check":false},"trial_type":"html-keyboard-response","trial_index":266,"time_elapsed":570003,"internal_node_id":"0.0-8.0-3.64","subject":"869n66novs7gcdx","sona":"7675"},{"rt":114,"stimulus":"<p>Bereit?</p>","key_press":32,"trial_type":"html-keyboard-response","trial_index":267,"time_elapsed":570119,"internal_node_id":"0.0-8.0-0.65","subject":"869n66novs7gcdx","sona":"7675"},{"rt":null,"stimulus":"<div style=\"font-size:60px;\">+</div>","key_press":null,"trial_type":"html-keyboard-response","trial_index":268,"time_elapsed":572148,"internal_node_id":"0.0-8.0-1.65","subject":"869n66novs7gcdx","sona":"7675"},{"trial_type":"turing-test","trial_index":269,"time_elapsed":577907,"internal_node_id":"0.0-8.0-2.65","subject":"869n66novs7gcdx","sona":"7675"},{"rt":5954,"stimulus":"<p>Welche Sequenz haben Sie als natürlicher empfunden?</p>","key_press":74,"test_part":"response","test_stimulus":{"position":0,"left":"bvh/return-bottle-training4-lines.txt","right":"bvh/vr_prediction_models/model(dmp)-dataset(return-bottle)-npsi(90)-hold(4)/final-lines.txt","att_check":false},"trial_type":"html-keyboard-response","trial_index":270,"time_elapsed":583866,"internal_node_id":"0.0-8.0-3.65","subject":"869n66novs7gcdx","sona":"7675"},{"rt":183,"stimulus":"<p>Bereit?</p>","key_press":32,"trial_type":"html-keyboard-response","trial_index":271,"time_elapsed":584051,"internal_node_id":"0.0-8.0-0.66","subject":"869n66novs7gcdx","sona":"7675"},{"rt":null,"stimulus":"<div style=\"font-size:60px;\">+</div>","key_press":null,"trial_type":"html-keyboard-response","trial_index":272,"time_elapsed":586078,"internal_node_id":"0.0-8.0-1.66","subject":"869n66novs7gcdx","sona":"7675"},{"trial_type":"turing-test","trial_index":273,"time_elapsed":591858,"internal_node_id":"0.0-8.0-2.66","subject":"869n66novs7gcdx","sona":"7675"},{"rt":589,"stimulus":"<p>Welche Sequenz haben Sie als natürlicher empfunden?</p>","key_press":70,"test_part":"response","test_stimulus":{"position":1,"left":"bvh/vr_prediction_models/model(tmp)-dataset(pass-bottle)-numprim(5)-hold(4)/final-lines.txt","right":"bvh/pass-bottle-training4-lines.txt","att_check":false},"trial_type":"html-keyboard-response","trial_index":274,"time_elapsed":592449,"internal_node_id":"0.0-8.0-3.66","subject":"869n66novs7gcdx","sona":"7675"},{"rt":113,"stimulus":"<p>Bereit?</p>","key_press":32,"trial_type":"html-keyboard-response","trial_index":275,"time_elapsed":592565,"internal_node_id":"0.0-8.0-0.67","subject":"869n66novs7gcdx","sona":"7675"},{"rt":null,"stimulus":"<div style=\"font-size:60px;\">+</div>","key_press":null,"trial_type":"html-keyboard-response","trial_index":276,"time_elapsed":594597,"internal_node_id":"0.0-8.0-1.67","subject":"869n66novs7gcdx","sona":"7675"},{"trial_type":"turing-test","trial_index":277,"time_elapsed":598098,"internal_node_id":"0.0-8.0-2.67","subject":"869n66novs7gcdx","sona":"7675"},{"rt":1203,"stimulus":"<p>Welche Sequenz haben Sie als natürlicher empfunden?</p>","key_press":74,"test_part":"response","test_stimulus":{"position":0,"left":"bvh/pass-bottle-hold-training4-lines.txt","right":"bvh/vr_prediction_models/model(vcgpdm)-dataset(pass-bottle-hold)-mode(ELBO)-parts(3)-dyn(30)-lvm(15)-hold(4)/final-lines.txt","att_check":false},"trial_type":"html-keyboard-response","trial_index":278,"time_elapsed":599305,"internal_node_id":"0.0-8.0-3.67","subject":"869n66novs7gcdx","sona":"7675"},{"rt":160,"stimulus":"<p>Bereit?</p>","key_press":32,"trial_type":"html-keyboard-response","trial_index":279,"time_elapsed":599467,"internal_node_id":"0.0-8.0-0.68","subject":"869n66novs7gcdx","sona":"7675"},{"rt":null,"stimulus":"<div style=\"font-size:60px;\">+</div>","key_press":null,"trial_type":"html-keyboard-response","trial_index":280,"time_elapsed":601497,"internal_node_id":"0.0-8.0-1.68","subject":"869n66novs7gcdx","sona":"7675"},{"trial_type":"turing-test","trial_index":281,"time_elapsed":608227,"internal_node_id":"0.0-8.0-2.68","subject":"869n66novs7gcdx","sona":"7675"},{"rt":578,"stimulus":"<p>Welche Sequenz haben Sie als natürlicher empfunden?</p>","key_press":70,"test_part":"response","test_stimulus":{"position":0,"left":"bvh/pass-bottle-training0-lines.txt","right":"bvh/vr_prediction_models/model(dmp)-dataset(pass-bottle)-npsi(50)-hold(0)/final-lines.txt","att_check":false},"trial_type":"html-keyboard-response","trial_index":282,"time_elapsed":608810,"internal_node_id":"0.0-8.0-3.68","subject":"869n66novs7gcdx","sona":"7675"},{"rt":347,"stimulus":"<p>Bereit?</p>","key_press":32,"trial_type":"html-keyboard-response","trial_index":283,"time_elapsed":609159,"internal_node_id":"0.0-8.0-0.69","subject":"869n66novs7gcdx","sona":"7675"},{"rt":null,"stimulus":"<div style=\"font-size:60px;\">+</div>","key_press":null,"trial_type":"html-keyboard-response","trial_index":284,"time_elapsed":611198,"internal_node_id":"0.0-8.0-1.69","subject":"869n66novs7gcdx","sona":"7675"},{"trial_type":"turing-test","trial_index":285,"time_elapsed":617484,"internal_node_id":"0.0-8.0-2.69","subject":"869n66novs7gcdx","sona":"7675"},{"rt":603,"stimulus":"<p>Welche Sequenz haben Sie als natürlicher empfunden?</p>","key_press":70,"test_part":"response","test_stimulus":{"position":0,"left":"bvh/pass-bottle-training2-lines.txt","right":"bvh/vr_prediction_models/model(vcgpdm)-dataset(pass-bottle)-mode(ELBO)-parts(1)-dyn(20)-lvm(20)-hold(2)/final-lines.txt","att_check":false},"trial_type":"html-keyboard-response","trial_index":286,"time_elapsed":618091,"internal_node_id":"0.0-8.0-3.69","subject":"869n66novs7gcdx","sona":"7675"},{"rt":234,"stimulus":"<p>Bereit?</p>","key_press":32,"trial_type":"html-keyboard-response","trial_index":287,"time_elapsed":618328,"internal_node_id":"0.0-8.0-0.70","subject":"869n66novs7gcdx","sona":"7675"},{"rt":null,"stimulus":"<div style=\"font-size:60px;\">+</div>","key_press":null,"trial_type":"html-keyboard-response","trial_index":288,"time_elapsed":620364,"internal_node_id":"0.0-8.0-1.70","subject":"869n66novs7gcdx","sona":"7675"},{"trial_type":"turing-test","trial_index":289,"time_elapsed":623830,"internal_node_id":"0.0-8.0-2.70","subject":"869n66novs7gcdx","sona":"7675"},{"rt":1621,"stimulus":"<p>Welche Sequenz haben Sie als natürlicher empfunden?</p>","key_press":70,"test_part":"response","test_stimulus":{"position":1,"left":"bvh/vr_prediction_models/model(vcgpdm)-dataset(pass-bottle-hold)-mode(ELBO)-parts(3)-dyn(15)-lvm(30)-hold(2)/final-lines.txt","right":"bvh/pass-bottle-hold-training2-lines.txt","att_check":false},"trial_type":"html-keyboard-response","trial_index":290,"time_elapsed":625455,"internal_node_id":"0.0-8.0-3.70","subject":"869n66novs7gcdx","sona":"7675"},{"rt":95,"stimulus":"<p>Bereit?</p>","key_press":32,"trial_type":"html-keyboard-response","trial_index":291,"time_elapsed":625552,"internal_node_id":"0.0-8.0-0.71","subject":"869n66novs7gcdx","sona":"7675"},{"rt":null,"stimulus":"<div style=\"font-size:60px;\">+</div>","key_press":null,"trial_type":"html-keyboard-response","trial_index":292,"time_elapsed":627570,"internal_node_id":"0.0-8.0-1.71","subject":"869n66novs7gcdx","sona":"7675"},{"trial_type":"turing-test","trial_index":293,"time_elapsed":631410,"internal_node_id":"0.0-8.0-2.71","subject":"869n66novs7gcdx","sona":"7675"},{"rt":1281,"stimulus":"<p>Welche Sequenz haben Sie als natürlicher empfunden?</p>","key_press":74,"test_part":"response","test_stimulus":{"position":1,"left":"bvh/vr_prediction_models/model(vcgpdm)-dataset(return-bottle-hold)-mode(ELBO)-parts(3)-dyn(10)-lvm(30)-hold(4)/final-lines.txt","right":"bvh/return-bottle-hold-training4-lines.txt","att_check":false},"trial_type":"html-keyboard-response","trial_index":294,"time_elapsed":632695,"internal_node_id":"0.0-8.0-3.71","subject":"869n66novs7gcdx","sona":"7675"},{"rt":107,"stimulus":"<p>Bereit?</p>","key_press":32,"trial_type":"html-keyboard-response","trial_index":295,"time_elapsed":632805,"internal_node_id":"0.0-8.0-0.72","subject":"869n66novs7gcdx","sona":"7675"},{"rt":null,"stimulus":"<div style=\"font-size:60px;\">+</div>","key_press":null,"trial_type":"html-keyboard-response","trial_index":296,"time_elapsed":634811,"internal_node_id":"0.0-8.0-1.72","subject":"869n66novs7gcdx","sona":"7675"},{"trial_type":"turing-test","trial_index":297,"time_elapsed":638500,"internal_node_id":"0.0-8.0-2.72","subject":"869n66novs7gcdx","sona":"7675"},{"rt":1384,"stimulus":"<p>Welche Sequenz haben Sie als natürlicher empfunden?</p>","key_press":74,"test_part":"response","test_stimulus":{"position":0,"left":"bvh/return-bottle-hold-training4-lines.txt","right":"bvh/vr_prediction_models/model(dmp)-dataset(return-bottle-hold)-npsi(90)-hold(4)/final-lines.txt","att_check":false},"trial_type":"html-keyboard-response","trial_index":298,"time_elapsed":639888,"internal_node_id":"0.0-8.0-3.72","subject":"869n66novs7gcdx","sona":"7675"},{"rt":95,"stimulus":"<p>Bereit?</p>","key_press":32,"trial_type":"html-keyboard-response","trial_index":299,"time_elapsed":639985,"internal_node_id":"0.0-8.0-0.73","subject":"869n66novs7gcdx","sona":"7675"},{"rt":null,"stimulus":"<div style=\"font-size:60px;\">+</div>","key_press":null,"trial_type":"html-keyboard-response","trial_index":300,"time_elapsed":642021,"internal_node_id":"0.0-8.0-1.73","subject":"869n66novs7gcdx","sona":"7675"},{"trial_type":"turing-test","trial_index":301,"time_elapsed":648237,"internal_node_id":"0.0-8.0-2.73","subject":"869n66novs7gcdx","sona":"7675"},{"rt":554,"stimulus":"<p>Welche Sequenz haben Sie als natürlicher empfunden?</p>","key_press":70,"test_part":"response","test_stimulus":{"position":0,"left":"bvh/return-bottle-training1-lines.txt","right":"bvh/vr_prediction_models/model(vcgpdm)-dataset(return-bottle)-mode(ELBO)-parts(3)-dyn(25)-lvm(30)-hold(1)/final-lines.txt","att_check":false},"trial_type":"html-keyboard-response","trial_index":302,"time_elapsed":648795,"internal_node_id":"0.0-8.0-3.73","subject":"869n66novs7gcdx","sona":"7675"},{"rt":100,"stimulus":"<p>Bereit?</p>","key_press":32,"trial_type":"html-keyboard-response","trial_index":303,"time_elapsed":648899,"internal_node_id":"0.0-8.0-0.74","subject":"869n66novs7gcdx","sona":"7675"},{"rt":null,"stimulus":"<div style=\"font-size:60px;\">+</div>","key_press":null,"trial_type":"html-keyboard-response","trial_index":304,"time_elapsed":650929,"internal_node_id":"0.0-8.0-1.74","subject":"869n66novs7gcdx","sona":"7675"},{"trial_type":"turing-test","trial_index":305,"time_elapsed":656444,"internal_node_id":"0.0-8.0-2.74","subject":"869n66novs7gcdx","sona":"7675"},{"rt":1042,"stimulus":"<p>Welche Sequenz haben Sie als natürlicher empfunden?</p>","key_press":70,"test_part":"response","test_stimulus":{"position":0,"left":"bvh/return-bottle-training0-lines.txt","right":"bvh/vr_prediction_models/model(vcgpdm)-dataset(return-bottle)-mode(ELBO)-parts(1)-dyn(20)-lvm(20)-hold(0)/final-lines.txt","att_check":false},"trial_type":"html-keyboard-response","trial_index":306,"time_elapsed":657491,"internal_node_id":"0.0-8.0-3.74","subject":"869n66novs7gcdx","sona":"7675"},{"rt":112,"stimulus":"<p>Bereit?</p>","key_press":32,"trial_type":"html-keyboard-response","trial_index":307,"time_elapsed":657606,"internal_node_id":"0.0-8.0-0.75","subject":"869n66novs7gcdx","sona":"7675"},{"rt":null,"stimulus":"<div style=\"font-size:60px;\">+</div>","key_press":null,"trial_type":"html-keyboard-response","trial_index":308,"time_elapsed":659625,"internal_node_id":"0.0-8.0-1.75","subject":"869n66novs7gcdx","sona":"7675"},{"trial_type":"turing-test","trial_index":309,"time_elapsed":663354,"internal_node_id":"0.0-8.0-2.75","subject":"869n66novs7gcdx","sona":"7675"},{"rt":931,"stimulus":"<p>Welche Sequenz haben Sie als natürlicher empfunden?</p>","key_press":70,"test_part":"response","test_stimulus":{"position":0,"left":"bvh/return-bottle-hold-training4-lines.txt","right":"bvh/vr_prediction_models/model(dmp)-dataset(return-bottle-hold)-npsi(20)-hold(4)/final-lines.txt","att_check":true},"trial_type":"html-keyboard-response","trial_index":310,"time_elapsed":664289,"internal_node_id":"0.0-8.0-3.75","subject":"869n66novs7gcdx","sona":"7675"},{"rt":4219,"stimulus":"<p>Bereit?</p>","key_press":32,"trial_type":"html-keyboard-response","trial_index":311,"time_elapsed":668509,"internal_node_id":"0.0-8.0-0.76","subject":"869n66novs7gcdx","sona":"7675"},{"rt":null,"stimulus":"<div style=\"font-size:60px;\">+</div>","key_press":null,"trial_type":"html-keyboard-response","trial_index":312,"time_elapsed":670534,"internal_node_id":"0.0-8.0-1.76","subject":"869n66novs7gcdx","sona":"7675"},{"trial_type":"turing-test","trial_index":313,"time_elapsed":677084,"internal_node_id":"0.0-8.0-2.76","subject":"869n66novs7gcdx","sona":"7675"},{"rt":1211,"stimulus":"<p>Welche Sequenz haben Sie als natürlicher empfunden?</p>","key_press":74,"test_part":"response","test_stimulus":{"position":1,"left":"bvh/vr_prediction_models/model(tmp)-dataset(return-bottle)-numprim(15)-hold(2)/final-lines.txt","right":"bvh/return-bottle-training2-lines.txt","att_check":false},"trial_type":"html-keyboard-response","trial_index":314,"time_elapsed":678299,"internal_node_id":"0.0-8.0-3.76","subject":"869n66novs7gcdx","sona":"7675"},{"rt":129,"stimulus":"<p>Bereit?</p>","key_press":32,"trial_type":"html-keyboard-response","trial_index":315,"time_elapsed":678429,"internal_node_id":"0.0-8.0-0.77","subject":"869n66novs7gcdx","sona":"7675"},{"rt":null,"stimulus":"<div style=\"font-size:60px;\">+</div>","key_press":null,"trial_type":"html-keyboard-response","trial_index":316,"time_elapsed":680455,"internal_node_id":"0.0-8.0-1.77","subject":"869n66novs7gcdx","sona":"7675"},{"trial_type":"turing-test","trial_index":317,"time_elapsed":686298,"internal_node_id":"0.0-8.0-2.77","subject":"869n66novs7gcdx","sona":"7675"},{"rt":952,"stimulus":"<p>Welche Sequenz haben Sie als natürlicher empfunden?</p>","key_press":70,"test_part":"response","test_stimulus":{"position":0,"left":"bvh/pass-bottle-training4-lines.txt","right":"bvh/vr_prediction_models/model(vcgpdm)-dataset(pass-bottle)-mode(ELBO)-parts(1)-dyn(35)-lvm(30)-hold(4)/final-lines.txt","att_check":false},"trial_type":"html-keyboard-response","trial_index":318,"time_elapsed":687255,"internal_node_id":"0.0-8.0-3.77","subject":"869n66novs7gcdx","sona":"7675"},{"rt":100,"stimulus":"<p>Bereit?</p>","key_press":32,"trial_type":"html-keyboard-response","trial_index":319,"time_elapsed":687356,"internal_node_id":"0.0-8.0-0.78","subject":"869n66novs7gcdx","sona":"7675"},{"rt":null,"stimulus":"<div style=\"font-size:60px;\">+</div>","key_press":null,"trial_type":"html-keyboard-response","trial_index":320,"time_elapsed":689360,"internal_node_id":"0.0-8.0-1.78","subject":"869n66novs7gcdx","sona":"7675"},{"trial_type":"turing-test","trial_index":321,"time_elapsed":694958,"internal_node_id":"0.0-8.0-2.78","subject":"869n66novs7gcdx","sona":"7675"},{"rt":682,"stimulus":"<p>Welche Sequenz haben Sie als natürlicher empfunden?</p>","key_press":74,"test_part":"response","test_stimulus":{"position":0,"left":"bvh/return-bottle-training0-lines.txt","right":"bvh/vr_prediction_models/model(vcgpdm)-dataset(return-bottle)-mode(ELBO)-parts(1)-dyn(10)-lvm(30)-hold(0)/final-lines.txt","att_check":false},"trial_type":"html-keyboard-response","trial_index":322,"time_elapsed":695643,"internal_node_id":"0.0-8.0-3.78","subject":"869n66novs7gcdx","sona":"7675"},{"rt":331,"stimulus":"<p>Bereit?</p>","key_press":32,"trial_type":"html-keyboard-response","trial_index":323,"time_elapsed":695977,"internal_node_id":"0.0-8.0-0.79","subject":"869n66novs7gcdx","sona":"7675"},{"rt":null,"stimulus":"<div style=\"font-size:60px;\">+</div>","key_press":null,"trial_type":"html-keyboard-response","trial_index":324,"time_elapsed":697979,"internal_node_id":"0.0-8.0-1.79","subject":"869n66novs7gcdx","sona":"7675"},{"trial_type":"turing-test","trial_index":325,"time_elapsed":704058,"internal_node_id":"0.0-8.0-2.79","subject":"869n66novs7gcdx","sona":"7675"},{"rt":1669,"stimulus":"<p>Welche Sequenz haben Sie als natürlicher empfunden?</p>","key_press":70,"test_part":"response","test_stimulus":{"position":1,"left":"bvh/vr_prediction_models/model(tmp)-dataset(return-bottle)-numprim(3)-hold(1)/final-lines.txt","right":"bvh/return-bottle-training1-lines.txt","att_check":false},"trial_type":"html-keyboard-response","trial_index":326,"time_elapsed":705731,"internal_node_id":"0.0-8.0-3.79","subject":"869n66novs7gcdx","sona":"7675"},{"rt":8603,"responses":"{\"age\":\" 20\",\"gender\":\"weiblich \"}","trial_type":"survey-text","trial_index":327,"time_elapsed":714344,"internal_node_id":"0.0-10.0-0.0","subject":"869n66novs7gcdx","sona":"7675"},{"rt":62823,"responses":"{\"area\":\"Arme\",\"Q1\":\"wenn künstlich wirkende Pausen zwischen Bewegungen  \",\"Q2\":\"wenn Figur sich hoch und runter bewegt \"}","trial_type":"survey-text","trial_index":328,"time_elapsed":777180,"internal_node_id":"0.0-10.0-1.0","subject":"869n66novs7gcdx","sona":"7675"}]