[{"rt":2183,"stimulus":"<p>Welcome!<br> Please choose your language to start the experiment in the chosen language.</p><p>Willkommen!<br> Bitte wählen Sie eine Sprache, um das Experiment in der ausgewählten Sprache zu starten</p>","button_pressed":"0","trial_type":"html-button-response","trial_index":0,"time_elapsed":2197,"internal_node_id":"0.0-0.0","subject":"wkkzs0hppfva4ya","sona":"7624"},{"view_history":"[{\"page_index\":0,\"viewing_time\":1283},{\"page_index\":1,\"viewing_time\":827},{\"page_index\":2,\"viewing_time\":415},{\"page_index\":3,\"viewing_time\":840},{\"page_index\":4,\"viewing_time\":802}]","rt":4168,"trial_type":"instructions","trial_index":1,"time_elapsed":6366,"internal_node_id":"0.0-2.0-0.0","subject":"wkkzs0hppfva4ya","sona":"7624"},{"rt":2722,"stimulus":"<p>Ready?</p>","key_press":32,"trial_type":"html-keyboard-response","trial_index":2,"time_elapsed":9089,"internal_node_id":"0.0-3.0","subject":"wkkzs0hppfva4ya","sona":"7624"},{"rt":null,"stimulus":"<div style=\"font-size:60px;\">+</div>","key_press":null,"trial_type":"html-keyboard-response","trial_index":3,"time_elapsed":11093,"internal_node_id":"0.0-4.0","subject":"wkkzs0hppfva4ya","sona":"7624"},{"trial_type":"training","trial_index":4,"time_elapsed":14338,"internal_node_id":"0.0-5.0","subject":"wkkzs0hppfva4ya","sona":"7624"},{"rt":468,"stimulus":"<p>Which sequence did you perceive as more natural?</p>","key_press":70,"trial_type":"html-keyboard-response","trial_index":5,"time_elapsed":14807,"internal_node_id":"0.0-6.0","subject":"wkkzs0hppfva4ya","sona":"7624"},{"rt":3037,"stimulus":"<p>The experiment starts now.</p><p><small>Please click the button if you are ready.</small></p>","button_pressed":"0","trial_type":"html-button-response","trial_index":6,"time_elapsed":17846,"internal_node_id":"0.0-7.0","subject":"wkkzs0hppfva4ya","sona":"7624"},{"rt":1713,"stimulus":"<p>Ready?</p>","key_press":32,"trial_type":"html-keyboard-response","trial_index":7,"time_elapsed":19560,"internal_node_id":"0.0-8.0-0.0","subject":"wkkzs0hppfva4ya","sona":"7624"},{"rt":null,"stimulus":"<div style=\"font-size:60px;\">+</div>","key_press":null,"trial_type":"html-keyboard-response","trial_index":8,"time_elapsed":21564,"internal_node_id":"0.0-8.0-1.0","subject":"wkkzs0hppfva4ya","sona":"7624"},{"trial_type":"turing-test","trial_index":9,"time_elapsed":27886,"internal_node_id":"0.0-8.0-2.0","subject":"wkkzs0hppfva4ya","sona":"7624"},{"rt":480,"stimulus":"<p>Which sequence did you perceive as more natural?</p>","key_press":70,"test_part":"response","test_stimulus":{"position":0,"left":"bvh/return-bottle-training1-lines.txt","right":"bvh/vr_prediction_models/model(vcgpdm)-dataset(return-bottle)-mode(ELBO)-parts(1)-dyn(20)-lvm(30)-hold(1)/final-lines.txt","att_check":false},"trial_type":"html-keyboard-response","trial_index":10,"time_elapsed":28368,"internal_node_id":"0.0-8.0-3.0","subject":"wkkzs0hppfva4ya","sona":"7624"},{"rt":254,"stimulus":"<p>Ready?</p>","key_press":32,"trial_type":"html-keyboard-response","trial_index":11,"time_elapsed":28624,"internal_node_id":"0.0-8.0-0.1","subject":"wkkzs0hppfva4ya","sona":"7624"},{"rt":null,"stimulus":"<div style=\"font-size:60px;\">+</div>","key_press":null,"trial_type":"html-keyboard-response","trial_index":12,"time_elapsed":30629,"internal_node_id":"0.0-8.0-1.1","subject":"wkkzs0hppfva4ya","sona":"7624"},{"trial_type":"turing-test","trial_index":13,"time_elapsed":34235,"internal_node_id":"0.0-8.0-2.1","subject":"wkkzs0hppfva4ya","sona":"7624"},{"rt":460,"stimulus":"<p>Which sequence did you perceive as more natural?</p>","key_press":74,"test_part":"response","test_stimulus":{"position":1,"left":"bvh/vr_prediction_models/model(dmp)-dataset(pass-bottle-hold)-npsi(80)-hold(4)/final-lines.txt","right":"bvh/pass-bottle-hold-training4-lines.txt","att_check":false},"trial_type":"html-keyboard-response","trial_index":14,"time_elapsed":34695,"internal_node_id":"0.0-8.0-3.1","subject":"wkkzs0hppfva4ya","sona":"7624"},{"rt":286,"stimulus":"<p>Ready?</p>","key_press":32,"trial_type":"html-keyboard-response","trial_index":15,"time_elapsed":34983,"internal_node_id":"0.0-8.0-0.2","subject":"wkkzs0hppfva4ya","sona":"7624"},{"rt":null,"stimulus":"<div style=\"font-size:60px;\">+</div>","key_press":null,"trial_type":"html-keyboard-response","trial_index":16,"time_elapsed":36990,"internal_node_id":"0.0-8.0-1.2","subject":"wkkzs0hppfva4ya","sona":"7624"},{"trial_type":"turing-test","trial_index":17,"time_elapsed":42579,"internal_node_id":"0.0-8.0-2.2","subject":"wkkzs0hppfva4ya","sona":"7624"},{"rt":371,"stimulus":"<p>Which sequence did you perceive as more natural?</p>","key_press":74,"test_part":"response","test_stimulus":{"position":1,"left":"bvh/vr_prediction_models/model(dmp)-dataset(pass-bottle)-npsi(80)-hold(4)/final-lines.txt","right":"bvh/pass-bottle-training4-lines.txt","att_check":true},"trial_type":"html-keyboard-response","trial_index":18,"time_elapsed":42951,"internal_node_id":"0.0-8.0-3.2","subject":"wkkzs0hppfva4ya","sona":"7624"},{"rt":319,"stimulus":"<p>Ready?</p>","key_press":32,"trial_type":"html-keyboard-response","trial_index":19,"time_elapsed":43272,"internal_node_id":"0.0-8.0-0.3","subject":"wkkzs0hppfva4ya","sona":"7624"},{"rt":null,"stimulus":"<div style=\"font-size:60px;\">+</div>","key_press":null,"trial_type":"html-keyboard-response","trial_index":20,"time_elapsed":45276,"internal_node_id":"0.0-8.0-1.3","subject":"wkkzs0hppfva4ya","sona":"7624"},{"trial_type":"turing-test","trial_index":21,"time_elapsed":48714,"internal_node_id":"0.0-8.0-2.3","subject":"wkkzs0hppfva4ya","sona":"7624"},{"rt":660,"stimulus":"<p>Which sequence did you perceive as more natural?</p>","key_press":74,"test_part":"response","test_stimulus":{"position":0,"left":"bvh/pass-bottle-hold-training1-lines.txt","right":"bvh/vr_prediction_models/model(vcgpdm)-dataset(pass-bottle-hold)-mode(ELBO)-parts(3)-dyn(10)-lvm(25)-hold(1)/final-lines.txt","att_check":false},"trial_type":"html-keyboard-response","trial_index":22,"time_elapsed":49376,"internal_node_id":"0.0-8.0-3.3","subject":"wkkzs0hppfva4ya","sona":"7624"},{"rt":272,"stimulus":"<p>Ready?</p>","key_press":32,"trial_type":"html-keyboard-response","trial_index":23,"time_elapsed":49648,"internal_node_id":"0.0-8.0-0.4","subject":"wkkzs0hppfva4ya","sona":"7624"},{"rt":null,"stimulus":"<div style=\"font-size:60px;\">+</div>","key_press":null,"trial_type":"html-keyboard-response","trial_index":24,"time_elapsed":51649,"internal_node_id":"0.0-8.0-1.4","subject":"wkkzs0hppfva4ya","sona":"7624"},{"trial_type":"turing-test","trial_index":25,"time_elapsed":56790,"internal_node_id":"0.0-8.0-2.4","subject":"wkkzs0hppfva4ya","sona":"7624"},{"rt":281,"stimulus":"<p>Which sequence did you perceive as more natural?</p>","key_press":70,"test_part":"response","test_stimulus":{"position":0,"left":"bvh/return-bottle-hold-training0-lines.txt","right":"bvh/vr_prediction_models/model(dmp)-dataset(return-bottle-hold)-npsi(60)-hold(0)/final-lines.txt","att_check":false},"trial_type":"html-keyboard-response","trial_index":26,"time_elapsed":57072,"internal_node_id":"0.0-8.0-3.4","subject":"wkkzs0hppfva4ya","sona":"7624"},{"rt":254,"stimulus":"<p>Ready?</p>","key_press":32,"trial_type":"html-keyboard-response","trial_index":27,"time_elapsed":57327,"internal_node_id":"0.0-8.0-0.5","subject":"wkkzs0hppfva4ya","sona":"7624"},{"rt":null,"stimulus":"<div style=\"font-size:60px;\">+</div>","key_press":null,"trial_type":"html-keyboard-response","trial_index":28,"time_elapsed":59331,"internal_node_id":"0.0-8.0-1.5","subject":"wkkzs0hppfva4ya","sona":"7624"},{"trial_type":"turing-test","trial_index":29,"time_elapsed":65853,"internal_node_id":"0.0-8.0-2.5","subject":"wkkzs0hppfva4ya","sona":"7624"},{"rt":331,"stimulus":"<p>Which sequence did you perceive as more natural?</p>","key_press":74,"test_part":"response","test_stimulus":{"position":1,"left":"bvh/vr_prediction_models/model(tmp)-dataset(return-bottle)-numprim(14)-hold(2)/final-lines.txt","right":"bvh/return-bottle-training2-lines.txt","att_check":false},"trial_type":"html-keyboard-response","trial_index":30,"time_elapsed":66184,"internal_node_id":"0.0-8.0-3.5","subject":"wkkzs0hppfva4ya","sona":"7624"},{"rt":255,"stimulus":"<p>Ready?</p>","key_press":32,"trial_type":"html-keyboard-response","trial_index":31,"time_elapsed":66440,"internal_node_id":"0.0-8.0-0.6","subject":"wkkzs0hppfva4ya","sona":"7624"},{"rt":null,"stimulus":"<div style=\"font-size:60px;\">+</div>","key_press":null,"trial_type":"html-keyboard-response","trial_index":32,"time_elapsed":68444,"internal_node_id":"0.0-8.0-1.6","subject":"wkkzs0hppfva4ya","sona":"7624"},{"trial_type":"turing-test","trial_index":33,"time_elapsed":74632,"internal_node_id":"0.0-8.0-2.6","subject":"wkkzs0hppfva4ya","sona":"7624"},{"rt":350,"stimulus":"<p>Which sequence did you perceive as more natural?</p>","key_press":74,"test_part":"response","test_stimulus":{"position":1,"left":"bvh/vr_prediction_models/model(tmp)-dataset(pass-bottle)-numprim(11)-hold(2)/final-lines.txt","right":"bvh/pass-bottle-training2-lines.txt","att_check":false},"trial_type":"html-keyboard-response","trial_index":34,"time_elapsed":74984,"internal_node_id":"0.0-8.0-3.6","subject":"wkkzs0hppfva4ya","sona":"7624"},{"rt":294,"stimulus":"<p>Ready?</p>","key_press":32,"trial_type":"html-keyboard-response","trial_index":35,"time_elapsed":75280,"internal_node_id":"0.0-8.0-0.7","subject":"wkkzs0hppfva4ya","sona":"7624"},{"rt":null,"stimulus":"<div style=\"font-size:60px;\">+</div>","key_press":null,"trial_type":"html-keyboard-response","trial_index":36,"time_elapsed":77284,"internal_node_id":"0.0-8.0-1.7","subject":"wkkzs0hppfva4ya","sona":"7624"},{"trial_type":"turing-test","trial_index":37,"time_elapsed":80431,"internal_node_id":"0.0-8.0-2.7","subject":"wkkzs0hppfva4ya","sona":"7624"},{"rt":512,"stimulus":"<p>Which sequence did you perceive as more natural?</p>","key_press":74,"test_part":"response","test_stimulus":{"position":0,"left":"bvh/pass-bottle-hold-training1-lines.txt","right":"bvh/vr_prediction_models/model(dmp)-dataset(pass-bottle-hold)-npsi(40)-hold(1)/final-lines.txt","att_check":true},"trial_type":"html-keyboard-response","trial_index":38,"time_elapsed":80945,"internal_node_id":"0.0-8.0-3.7","subject":"wkkzs0hppfva4ya","sona":"7624"},{"rt":246,"stimulus":"<p>Ready?</p>","key_press":32,"trial_type":"html-keyboard-response","trial_index":39,"time_elapsed":81193,"internal_node_id":"0.0-8.0-0.8","subject":"wkkzs0hppfva4ya","sona":"7624"},{"rt":null,"stimulus":"<div style=\"font-size:60px;\">+</div>","key_press":null,"trial_type":"html-keyboard-response","trial_index":40,"time_elapsed":83200,"internal_node_id":"0.0-8.0-1.8","subject":"wkkzs0hppfva4ya","sona":"7624"},{"trial_type":"turing-test","trial_index":41,"time_elapsed":87052,"internal_node_id":"0.0-8.0-2.8","subject":"wkkzs0hppfva4ya","sona":"7624"},{"rt":1102,"stimulus":"<p>Which sequence did you perceive as more natural?</p>","key_press":74,"test_part":"response","test_stimulus":{"position":0,"left":"bvh/pass-bottle-hold-training4-lines.txt","right":"bvh/vr_prediction_models/model(vcgpdm)-dataset(pass-bottle-hold)-mode(ELBO)-parts(1)-dyn(35)-lvm(10)-hold(4)/final-lines.txt","att_check":false},"trial_type":"html-keyboard-response","trial_index":42,"time_elapsed":88155,"internal_node_id":"0.0-8.0-3.8","subject":"wkkzs0hppfva4ya","sona":"7624"},{"rt":372,"stimulus":"<p>Ready?</p>","key_press":32,"trial_type":"html-keyboard-response","trial_index":43,"time_elapsed":88529,"internal_node_id":"0.0-8.0-0.9","subject":"wkkzs0hppfva4ya","sona":"7624"},{"rt":null,"stimulus":"<div style=\"font-size:60px;\">+</div>","key_press":null,"trial_type":"html-keyboard-response","trial_index":44,"time_elapsed":90535,"internal_node_id":"0.0-8.0-1.9","subject":"wkkzs0hppfva4ya","sona":"7624"},{"trial_type":"turing-test","trial_index":45,"time_elapsed":96228,"internal_node_id":"0.0-8.0-2.9","subject":"wkkzs0hppfva4ya","sona":"7624"},{"rt":340,"stimulus":"<p>Which sequence did you perceive as more natural?</p>","key_press":74,"test_part":"response","test_stimulus":{"position":1,"left":"bvh/vr_prediction_models/model(dmp)-dataset(return-bottle)-npsi(60)-hold(3)/final-lines.txt","right":"bvh/return-bottle-training3-lines.txt","att_check":false},"trial_type":"html-keyboard-response","trial_index":46,"time_elapsed":96569,"internal_node_id":"0.0-8.0-3.9","subject":"wkkzs0hppfva4ya","sona":"7624"},{"rt":358,"stimulus":"<p>Ready?</p>","key_press":32,"trial_type":"html-keyboard-response","trial_index":47,"time_elapsed":96929,"internal_node_id":"0.0-8.0-0.10","subject":"wkkzs0hppfva4ya","sona":"7624"},{"rt":null,"stimulus":"<div style=\"font-size:60px;\">+</div>","key_press":null,"trial_type":"html-keyboard-response","trial_index":48,"time_elapsed":98931,"internal_node_id":"0.0-8.0-1.10","subject":"wkkzs0hppfva4ya","sona":"7624"},{"trial_type":"turing-test","trial_index":49,"time_elapsed":102211,"internal_node_id":"0.0-8.0-2.10","subject":"wkkzs0hppfva4ya","sona":"7624"},{"rt":364,"stimulus":"<p>Which sequence did you perceive as more natural?</p>","key_press":74,"test_part":"response","test_stimulus":{"position":1,"left":"bvh/vr_prediction_models/model(dmp)-dataset(pass-bottle-hold)-npsi(100)-hold(0)/final-lines.txt","right":"bvh/pass-bottle-hold-training0-lines.txt","att_check":false},"trial_type":"html-keyboard-response","trial_index":50,"time_elapsed":102578,"internal_node_id":"0.0-8.0-3.10","subject":"wkkzs0hppfva4ya","sona":"7624"},{"rt":406,"stimulus":"<p>Ready?</p>","key_press":32,"trial_type":"html-keyboard-response","trial_index":51,"time_elapsed":102985,"internal_node_id":"0.0-8.0-0.11","subject":"wkkzs0hppfva4ya","sona":"7624"},{"rt":null,"stimulus":"<div style=\"font-size:60px;\">+</div>","key_press":null,"trial_type":"html-keyboard-response","trial_index":52,"time_elapsed":104988,"internal_node_id":"0.0-8.0-1.11","subject":"wkkzs0hppfva4ya","sona":"7624"},{"trial_type":"turing-test","trial_index":53,"time_elapsed":110378,"internal_node_id":"0.0-8.0-2.11","subject":"wkkzs0hppfva4ya","sona":"7624"},{"rt":294,"stimulus":"<p>Which sequence did you perceive as more natural?</p>","key_press":74,"test_part":"response","test_stimulus":{"position":0,"left":"bvh/return-bottle-training0-lines.txt","right":"bvh/vr_prediction_models/model(tmp)-dataset(return-bottle)-numprim(11)-hold(0)/final-lines.txt","att_check":false},"trial_type":"html-keyboard-response","trial_index":54,"time_elapsed":110674,"internal_node_id":"0.0-8.0-3.11","subject":"wkkzs0hppfva4ya","sona":"7624"},{"rt":303,"stimulus":"<p>Ready?</p>","key_press":32,"trial_type":"html-keyboard-response","trial_index":55,"time_elapsed":110977,"internal_node_id":"0.0-8.0-0.12","subject":"wkkzs0hppfva4ya","sona":"7624"},{"rt":null,"stimulus":"<div style=\"font-size:60px;\">+</div>","key_press":null,"trial_type":"html-keyboard-response","trial_index":56,"time_elapsed":112982,"internal_node_id":"0.0-8.0-1.12","subject":"wkkzs0hppfva4ya","sona":"7624"},{"trial_type":"turing-test","trial_index":57,"time_elapsed":116691,"internal_node_id":"0.0-8.0-2.12","subject":"wkkzs0hppfva4ya","sona":"7624"},{"rt":14,"stimulus":"<p>Which sequence did you perceive as more natural?</p>","key_press":70,"test_part":"response","test_stimulus":{"position":0,"left":"bvh/pass-bottle-hold-training0-lines.txt","right":"bvh/vr_prediction_models/model(vcgpdm)-dataset(pass-bottle-hold)-mode(ELBO)-parts(3)-dyn(20)-lvm(35)-hold(0)/final-lines.txt","att_check":false},"trial_type":"html-keyboard-response","trial_index":58,"time_elapsed":116706,"internal_node_id":"0.0-8.0-3.12","subject":"wkkzs0hppfva4ya","sona":"7624"},{"rt":2168,"stimulus":"<p>Ready?</p>","key_press":32,"trial_type":"html-keyboard-response","trial_index":59,"time_elapsed":118873,"internal_node_id":"0.0-8.0-0.13","subject":"wkkzs0hppfva4ya","sona":"7624"},{"rt":null,"stimulus":"<div style=\"font-size:60px;\">+</div>","key_press":null,"trial_type":"html-keyboard-response","trial_index":60,"time_elapsed":120876,"internal_node_id":"0.0-8.0-1.13","subject":"wkkzs0hppfva4ya","sona":"7624"},{"trial_type":"turing-test","trial_index":61,"time_elapsed":124007,"internal_node_id":"0.0-8.0-2.13","subject":"wkkzs0hppfva4ya","sona":"7624"},{"rt":504,"stimulus":"<p>Which sequence did you perceive as more natural?</p>","key_press":70,"test_part":"response","test_stimulus":{"position":0,"left":"bvh/pass-bottle-hold-training1-lines.txt","right":"bvh/vr_prediction_models/model(dmp)-dataset(pass-bottle-hold)-npsi(10)-hold(1)/final-lines.txt","att_check":false},"trial_type":"html-keyboard-response","trial_index":62,"time_elapsed":124513,"internal_node_id":"0.0-8.0-3.13","subject":"wkkzs0hppfva4ya","sona":"7624"},{"rt":223,"stimulus":"<p>Ready?</p>","key_press":32,"trial_type":"html-keyboard-response","trial_index":63,"time_elapsed":124737,"internal_node_id":"0.0-8.0-0.14","subject":"wkkzs0hppfva4ya","sona":"7624"},{"rt":null,"stimulus":"<div style=\"font-size:60px;\">+</div>","key_press":null,"trial_type":"html-keyboard-response","trial_index":64,"time_elapsed":126740,"internal_node_id":"0.0-8.0-1.14","subject":"wkkzs0hppfva4ya","sona":"7624"},{"trial_type":"turing-test","trial_index":65,"time_elapsed":132014,"internal_node_id":"0.0-8.0-2.14","subject":"wkkzs0hppfva4ya","sona":"7624"},{"rt":555,"stimulus":"<p>Which sequence did you perceive as more natural?</p>","key_press":70,"test_part":"response","test_stimulus":{"position":1,"left":"bvh/vr_prediction_models/model(vcgpdm)-dataset(return-bottle-hold)-mode(ELBO)-parts(1)-dyn(10)-lvm(5)-hold(0)/final-lines.txt","right":"bvh/return-bottle-hold-training0-lines.txt","att_check":false},"trial_type":"html-keyboard-response","trial_index":66,"time_elapsed":132570,"internal_node_id":"0.0-8.0-3.14","subject":"wkkzs0hppfva4ya","sona":"7624"},{"rt":286,"stimulus":"<p>Ready?</p>","key_press":32,"trial_type":"html-keyboard-response","trial_index":67,"time_elapsed":132858,"internal_node_id":"0.0-8.0-0.15","subject":"wkkzs0hppfva4ya","sona":"7624"},{"rt":null,"stimulus":"<div style=\"font-size:60px;\">+</div>","key_press":null,"trial_type":"html-keyboard-response","trial_index":68,"time_elapsed":134864,"internal_node_id":"0.0-8.0-1.15","subject":"wkkzs0hppfva4ya","sona":"7624"},{"trial_type":"turing-test","trial_index":69,"time_elapsed":138291,"internal_node_id":"0.0-8.0-2.15","subject":"wkkzs0hppfva4ya","sona":"7624"},{"rt":359,"stimulus":"<p>Which sequence did you perceive as more natural?</p>","key_press":70,"test_part":"response","test_stimulus":{"position":1,"left":"bvh/vr_prediction_models/model(dmp)-dataset(pass-bottle-hold)-npsi(20)-hold(3)/final-lines.txt","right":"bvh/pass-bottle-hold-training3-lines.txt","att_check":false},"trial_type":"html-keyboard-response","trial_index":70,"time_elapsed":138650,"internal_node_id":"0.0-8.0-3.15","subject":"wkkzs0hppfva4ya","sona":"7624"},{"rt":245,"stimulus":"<p>Ready?</p>","key_press":32,"trial_type":"html-keyboard-response","trial_index":71,"time_elapsed":138898,"internal_node_id":"0.0-8.0-0.16","subject":"wkkzs0hppfva4ya","sona":"7624"},{"rt":null,"stimulus":"<div style=\"font-size:60px;\">+</div>","key_press":null,"trial_type":"html-keyboard-response","trial_index":72,"time_elapsed":140899,"internal_node_id":"0.0-8.0-1.16","subject":"wkkzs0hppfva4ya","sona":"7624"},{"trial_type":"turing-test","trial_index":73,"time_elapsed":146916,"internal_node_id":"0.0-8.0-2.16","subject":"wkkzs0hppfva4ya","sona":"7624"},{"rt":335,"stimulus":"<p>Which sequence did you perceive as more natural?</p>","key_press":74,"test_part":"response","test_stimulus":{"position":1,"left":"bvh/vr_prediction_models/model(vcgpdm)-dataset(return-bottle)-mode(ELBO)-parts(1)-dyn(15)-lvm(35)-hold(4)/final-lines.txt","right":"bvh/return-bottle-training4-lines.txt","att_check":false},"trial_type":"html-keyboard-response","trial_index":74,"time_elapsed":147250,"internal_node_id":"0.0-8.0-3.16","subject":"wkkzs0hppfva4ya","sona":"7624"},{"rt":390,"stimulus":"<p>Ready?</p>","key_press":32,"trial_type":"html-keyboard-response","trial_index":75,"time_elapsed":147642,"internal_node_id":"0.0-8.0-0.17","subject":"wkkzs0hppfva4ya","sona":"7624"},{"rt":null,"stimulus":"<div style=\"font-size:60px;\">+</div>","key_press":null,"trial_type":"html-keyboard-response","trial_index":76,"time_elapsed":149649,"internal_node_id":"0.0-8.0-1.17","subject":"wkkzs0hppfva4ya","sona":"7624"},{"trial_type":"turing-test","trial_index":77,"time_elapsed":155054,"internal_node_id":"0.0-8.0-2.17","subject":"wkkzs0hppfva4ya","sona":"7624"},{"rt":339,"stimulus":"<p>Which sequence did you perceive as more natural?</p>","key_press":74,"test_part":"response","test_stimulus":{"position":1,"left":"bvh/vr_prediction_models/model(dmp)-dataset(pass-bottle)-npsi(10)-hold(1)/final-lines.txt","right":"bvh/pass-bottle-training1-lines.txt","att_check":false},"trial_type":"html-keyboard-response","trial_index":78,"time_elapsed":155394,"internal_node_id":"0.0-8.0-3.17","subject":"wkkzs0hppfva4ya","sona":"7624"},{"rt":280,"stimulus":"<p>Ready?</p>","key_press":32,"trial_type":"html-keyboard-response","trial_index":79,"time_elapsed":155674,"internal_node_id":"0.0-8.0-0.18","subject":"wkkzs0hppfva4ya","sona":"7624"},{"rt":null,"stimulus":"<div style=\"font-size:60px;\">+</div>","key_press":null,"trial_type":"html-keyboard-response","trial_index":80,"time_elapsed":157681,"internal_node_id":"0.0-8.0-1.18","subject":"wkkzs0hppfva4ya","sona":"7624"},{"trial_type":"turing-test","trial_index":81,"time_elapsed":161273,"internal_node_id":"0.0-8.0-2.18","subject":"wkkzs0hppfva4ya","sona":"7624"},{"rt":514,"stimulus":"<p>Which sequence did you perceive as more natural?</p>","key_press":74,"test_part":"response","test_stimulus":{"position":0,"left":"bvh/pass-bottle-hold-training1-lines.txt","right":"bvh/vr_prediction_models/model(vcgpdm)-dataset(pass-bottle-hold)-mode(ELBO)-parts(3)-dyn(30)-lvm(15)-hold(1)/final-lines.txt","att_check":false},"trial_type":"html-keyboard-response","trial_index":82,"time_elapsed":161788,"internal_node_id":"0.0-8.0-3.18","subject":"wkkzs0hppfva4ya","sona":"7624"},{"rt":332,"stimulus":"<p>Ready?</p>","key_press":32,"trial_type":"html-keyboard-response","trial_index":83,"time_elapsed":162122,"internal_node_id":"0.0-8.0-0.19","subject":"wkkzs0hppfva4ya","sona":"7624"},{"rt":null,"stimulus":"<div style=\"font-size:60px;\">+</div>","key_press":null,"trial_type":"html-keyboard-response","trial_index":84,"time_elapsed":164126,"internal_node_id":"0.0-8.0-1.19","subject":"wkkzs0hppfva4ya","sona":"7624"},{"trial_type":"turing-test","trial_index":85,"time_elapsed":167569,"internal_node_id":"0.0-8.0-2.19","subject":"wkkzs0hppfva4ya","sona":"7624"},{"rt":360,"stimulus":"<p>Which sequence did you perceive as more natural?</p>","key_press":74,"test_part":"response","test_stimulus":{"position":0,"left":"bvh/pass-bottle-hold-training1-lines.txt","right":"bvh/vr_prediction_models/model(vcgpdm)-dataset(pass-bottle-hold)-mode(ELBO)-parts(3)-dyn(15)-lvm(30)-hold(1)/final-lines.txt","att_check":false},"trial_type":"html-keyboard-response","trial_index":86,"time_elapsed":167931,"internal_node_id":"0.0-8.0-3.19","subject":"wkkzs0hppfva4ya","sona":"7624"},{"rt":303,"stimulus":"<p>Ready?</p>","key_press":32,"trial_type":"html-keyboard-response","trial_index":87,"time_elapsed":168234,"internal_node_id":"0.0-8.0-0.20","subject":"wkkzs0hppfva4ya","sona":"7624"},{"rt":null,"stimulus":"<div style=\"font-size:60px;\">+</div>","key_press":null,"trial_type":"html-keyboard-response","trial_index":88,"time_elapsed":170237,"internal_node_id":"0.0-8.0-1.20","subject":"wkkzs0hppfva4ya","sona":"7624"},{"trial_type":"turing-test","trial_index":89,"time_elapsed":176765,"internal_node_id":"0.0-8.0-2.20","subject":"wkkzs0hppfva4ya","sona":"7624"},{"rt":564,"stimulus":"<p>Which sequence did you perceive as more natural?</p>","key_press":70,"test_part":"response","test_stimulus":{"position":0,"left":"bvh/return-bottle-training2-lines.txt","right":"bvh/vr_prediction_models/model(dmp)-dataset(return-bottle)-npsi(70)-hold(2)/final-lines.txt","att_check":false},"trial_type":"html-keyboard-response","trial_index":90,"time_elapsed":177332,"internal_node_id":"0.0-8.0-3.20","subject":"wkkzs0hppfva4ya","sona":"7624"},{"rt":327,"stimulus":"<p>Ready?</p>","key_press":32,"trial_type":"html-keyboard-response","trial_index":91,"time_elapsed":177659,"internal_node_id":"0.0-8.0-0.21","subject":"wkkzs0hppfva4ya","sona":"7624"},{"rt":null,"stimulus":"<div style=\"font-size:60px;\">+</div>","key_press":null,"trial_type":"html-keyboard-response","trial_index":92,"time_elapsed":179661,"internal_node_id":"0.0-8.0-1.21","subject":"wkkzs0hppfva4ya","sona":"7624"},{"trial_type":"turing-test","trial_index":93,"time_elapsed":185758,"internal_node_id":"0.0-8.0-2.21","subject":"wkkzs0hppfva4ya","sona":"7624"},{"rt":613,"stimulus":"<p>Which sequence did you perceive as more natural?</p>","key_press":70,"test_part":"response","test_stimulus":{"position":0,"left":"bvh/pass-bottle-training2-lines.txt","right":"bvh/vr_prediction_models/model(dmp)-dataset(pass-bottle)-npsi(80)-hold(2)/final-lines.txt","att_check":false},"trial_type":"html-keyboard-response","trial_index":94,"time_elapsed":186371,"internal_node_id":"0.0-8.0-3.21","subject":"wkkzs0hppfva4ya","sona":"7624"},{"rt":390,"stimulus":"<p>Ready?</p>","key_press":32,"trial_type":"html-keyboard-response","trial_index":95,"time_elapsed":186763,"internal_node_id":"0.0-8.0-0.22","subject":"wkkzs0hppfva4ya","sona":"7624"},{"rt":null,"stimulus":"<div style=\"font-size:60px;\">+</div>","key_press":null,"trial_type":"html-keyboard-response","trial_index":96,"time_elapsed":188767,"internal_node_id":"0.0-8.0-1.22","subject":"wkkzs0hppfva4ya","sona":"7624"},{"trial_type":"turing-test","trial_index":97,"time_elapsed":192317,"internal_node_id":"0.0-8.0-2.22","subject":"wkkzs0hppfva4ya","sona":"7624"},{"rt":397,"stimulus":"<p>Which sequence did you perceive as more natural?</p>","key_press":74,"test_part":"response","test_stimulus":{"position":0,"left":"bvh/pass-bottle-hold-training0-lines.txt","right":"bvh/vr_prediction_models/model(vcgpdm)-dataset(pass-bottle-hold)-mode(ELBO)-parts(3)-dyn(35)-lvm(20)-hold(0)/final-lines.txt","att_check":false},"trial_type":"html-keyboard-response","trial_index":98,"time_elapsed":192715,"internal_node_id":"0.0-8.0-3.22","subject":"wkkzs0hppfva4ya","sona":"7624"},{"rt":535,"stimulus":"<p>Ready?</p>","key_press":32,"trial_type":"html-keyboard-response","trial_index":99,"time_elapsed":193251,"internal_node_id":"0.0-8.0-0.23","subject":"wkkzs0hppfva4ya","sona":"7624"},{"rt":null,"stimulus":"<div style=\"font-size:60px;\">+</div>","key_press":null,"trial_type":"html-keyboard-response","trial_index":100,"time_elapsed":195254,"internal_node_id":"0.0-8.0-1.23","subject":"wkkzs0hppfva4ya","sona":"7624"},{"trial_type":"turing-test","trial_index":101,"time_elapsed":198758,"internal_node_id":"0.0-8.0-2.23","subject":"wkkzs0hppfva4ya","sona":"7624"},{"rt":531,"stimulus":"<p>Which sequence did you perceive as more natural?</p>","key_press":70,"test_part":"response","test_stimulus":{"position":1,"left":"bvh/vr_prediction_models/model(tmp)-dataset(pass-bottle-hold)-numprim(7)-hold(3)/final-lines.txt","right":"bvh/pass-bottle-hold-training3-lines.txt","att_check":false},"trial_type":"html-keyboard-response","trial_index":102,"time_elapsed":199292,"internal_node_id":"0.0-8.0-3.23","subject":"wkkzs0hppfva4ya","sona":"7624"},{"rt":391,"stimulus":"<p>Ready?</p>","key_press":32,"trial_type":"html-keyboard-response","trial_index":103,"time_elapsed":199683,"internal_node_id":"0.0-8.0-0.24","subject":"wkkzs0hppfva4ya","sona":"7624"},{"rt":null,"stimulus":"<div style=\"font-size:60px;\">+</div>","key_press":null,"trial_type":"html-keyboard-response","trial_index":104,"time_elapsed":201687,"internal_node_id":"0.0-8.0-1.24","subject":"wkkzs0hppfva4ya","sona":"7624"},{"trial_type":"turing-test","trial_index":105,"time_elapsed":207397,"internal_node_id":"0.0-8.0-2.24","subject":"wkkzs0hppfva4ya","sona":"7624"},{"rt":324,"stimulus":"<p>Which sequence did you perceive as more natural?</p>","key_press":74,"test_part":"response","test_stimulus":{"position":1,"left":"bvh/vr_prediction_models/model(dmp)-dataset(pass-bottle)-npsi(60)-hold(4)/final-lines.txt","right":"bvh/pass-bottle-training4-lines.txt","att_check":true},"trial_type":"html-keyboard-response","trial_index":106,"time_elapsed":207723,"internal_node_id":"0.0-8.0-3.24","subject":"wkkzs0hppfva4ya","sona":"7624"},{"rt":303,"stimulus":"<p>Ready?</p>","key_press":32,"trial_type":"html-keyboard-response","trial_index":107,"time_elapsed":208029,"internal_node_id":"0.0-8.0-0.25","subject":"wkkzs0hppfva4ya","sona":"7624"},{"rt":null,"stimulus":"<div style=\"font-size:60px;\">+</div>","key_press":null,"trial_type":"html-keyboard-response","trial_index":108,"time_elapsed":210037,"internal_node_id":"0.0-8.0-1.25","subject":"wkkzs0hppfva4ya","sona":"7624"},{"trial_type":"turing-test","trial_index":109,"time_elapsed":217011,"internal_node_id":"0.0-8.0-2.25","subject":"wkkzs0hppfva4ya","sona":"7624"},{"rt":278,"stimulus":"<p>Which sequence did you perceive as more natural?</p>","key_press":70,"test_part":"response","test_stimulus":{"position":0,"left":"bvh/pass-bottle-training0-lines.txt","right":"bvh/vr_prediction_models/model(vcgpdm)-dataset(pass-bottle)-mode(ELBO)-parts(1)-dyn(20)-lvm(5)-hold(0)/final-lines.txt","att_check":false},"trial_type":"html-keyboard-response","trial_index":110,"time_elapsed":217292,"internal_node_id":"0.0-8.0-3.25","subject":"wkkzs0hppfva4ya","sona":"7624"},{"rt":247,"stimulus":"<p>Ready?</p>","key_press":32,"trial_type":"html-keyboard-response","trial_index":111,"time_elapsed":217540,"internal_node_id":"0.0-8.0-0.26","subject":"wkkzs0hppfva4ya","sona":"7624"},{"rt":null,"stimulus":"<div style=\"font-size:60px;\">+</div>","key_press":null,"trial_type":"html-keyboard-response","trial_index":112,"time_elapsed":219546,"internal_node_id":"0.0-8.0-1.26","subject":"wkkzs0hppfva4ya","sona":"7624"},{"trial_type":"turing-test","trial_index":113,"time_elapsed":223163,"internal_node_id":"0.0-8.0-2.26","subject":"wkkzs0hppfva4ya","sona":"7624"},{"rt":369,"stimulus":"<p>Which sequence did you perceive as more natural?</p>","key_press":74,"test_part":"response","test_stimulus":{"position":0,"left":"bvh/return-bottle-hold-training3-lines.txt","right":"bvh/vr_prediction_models/model(dmp)-dataset(return-bottle-hold)-npsi(40)-hold(3)/final-lines.txt","att_check":false},"trial_type":"html-keyboard-response","trial_index":114,"time_elapsed":223532,"internal_node_id":"0.0-8.0-3.26","subject":"wkkzs0hppfva4ya","sona":"7624"},{"rt":294,"stimulus":"<p>Ready?</p>","key_press":32,"trial_type":"html-keyboard-response","trial_index":115,"time_elapsed":223828,"internal_node_id":"0.0-8.0-0.27","subject":"wkkzs0hppfva4ya","sona":"7624"},{"rt":null,"stimulus":"<div style=\"font-size:60px;\">+</div>","key_press":null,"trial_type":"html-keyboard-response","trial_index":116,"time_elapsed":225832,"internal_node_id":"0.0-8.0-1.27","subject":"wkkzs0hppfva4ya","sona":"7624"},{"trial_type":"turing-test","trial_index":117,"time_elapsed":231585,"internal_node_id":"0.0-8.0-2.27","subject":"wkkzs0hppfva4ya","sona":"7624"},{"rt":339,"stimulus":"<p>Which sequence did you perceive as more natural?</p>","key_press":70,"test_part":"response","test_stimulus":{"position":1,"left":"bvh/vr_prediction_models/model(tmp)-dataset(return-bottle)-numprim(8)-hold(4)/final-lines.txt","right":"bvh/return-bottle-training4-lines.txt","att_check":false},"trial_type":"html-keyboard-response","trial_index":118,"time_elapsed":231925,"internal_node_id":"0.0-8.0-3.27","subject":"wkkzs0hppfva4ya","sona":"7624"},{"rt":206,"stimulus":"<p>Ready?</p>","key_press":32,"trial_type":"html-keyboard-response","trial_index":119,"time_elapsed":232133,"internal_node_id":"0.0-8.0-0.28","subject":"wkkzs0hppfva4ya","sona":"7624"},{"rt":null,"stimulus":"<div style=\"font-size:60px;\">+</div>","key_press":null,"trial_type":"html-keyboard-response","trial_index":120,"time_elapsed":234136,"internal_node_id":"0.0-8.0-1.28","subject":"wkkzs0hppfva4ya","sona":"7624"},{"trial_type":"turing-test","trial_index":121,"time_elapsed":237687,"internal_node_id":"0.0-8.0-2.28","subject":"wkkzs0hppfva4ya","sona":"7624"},{"rt":285,"stimulus":"<p>Which sequence did you perceive as more natural?</p>","key_press":74,"test_part":"response","test_stimulus":{"position":1,"left":"bvh/vr_prediction_models/model(tmp)-dataset(pass-bottle-hold)-numprim(7)-hold(4)/final-lines.txt","right":"bvh/pass-bottle-hold-training4-lines.txt","att_check":false},"trial_type":"html-keyboard-response","trial_index":122,"time_elapsed":237973,"internal_node_id":"0.0-8.0-3.28","subject":"wkkzs0hppfva4ya","sona":"7624"},{"rt":278,"stimulus":"<p>Ready?</p>","key_press":32,"trial_type":"html-keyboard-response","trial_index":123,"time_elapsed":238252,"internal_node_id":"0.0-8.0-0.29","subject":"wkkzs0hppfva4ya","sona":"7624"},{"rt":null,"stimulus":"<div style=\"font-size:60px;\">+</div>","key_press":null,"trial_type":"html-keyboard-response","trial_index":124,"time_elapsed":240258,"internal_node_id":"0.0-8.0-1.29","subject":"wkkzs0hppfva4ya","sona":"7624"},{"trial_type":"turing-test","trial_index":125,"time_elapsed":247202,"internal_node_id":"0.0-8.0-2.29","subject":"wkkzs0hppfva4ya","sona":"7624"},{"rt":313,"stimulus":"<p>Which sequence did you perceive as more natural?</p>","key_press":74,"test_part":"response","test_stimulus":{"position":1,"left":"bvh/vr_prediction_models/model(vcgpdm)-dataset(pass-bottle)-mode(ELBO)-parts(3)-dyn(25)-lvm(25)-hold(0)/final-lines.txt","right":"bvh/pass-bottle-training0-lines.txt","att_check":false},"trial_type":"html-keyboard-response","trial_index":126,"time_elapsed":247517,"internal_node_id":"0.0-8.0-3.29","subject":"wkkzs0hppfva4ya","sona":"7624"},{"rt":278,"stimulus":"<p>Ready?</p>","key_press":32,"trial_type":"html-keyboard-response","trial_index":127,"time_elapsed":247797,"internal_node_id":"0.0-8.0-0.30","subject":"wkkzs0hppfva4ya","sona":"7624"},{"rt":null,"stimulus":"<div style=\"font-size:60px;\">+</div>","key_press":null,"trial_type":"html-keyboard-response","trial_index":128,"time_elapsed":249803,"internal_node_id":"0.0-8.0-1.30","subject":"wkkzs0hppfva4ya","sona":"7624"},{"trial_type":"turing-test","trial_index":129,"time_elapsed":255943,"internal_node_id":"0.0-8.0-2.30","subject":"wkkzs0hppfva4ya","sona":"7624"},{"rt":364,"stimulus":"<p>Which sequence did you perceive as more natural?</p>","key_press":70,"test_part":"response","test_stimulus":{"position":0,"left":"bvh/pass-bottle-training3-lines.txt","right":"bvh/vr_prediction_models/model(vcgpdm)-dataset(pass-bottle)-mode(ELBO)-parts(1)-dyn(30)-lvm(20)-hold(3)/final-lines.txt","att_check":false},"trial_type":"html-keyboard-response","trial_index":130,"time_elapsed":256309,"internal_node_id":"0.0-8.0-3.30","subject":"wkkzs0hppfva4ya","sona":"7624"},{"rt":239,"stimulus":"<p>Ready?</p>","key_press":32,"trial_type":"html-keyboard-response","trial_index":131,"time_elapsed":256549,"internal_node_id":"0.0-8.0-0.31","subject":"wkkzs0hppfva4ya","sona":"7624"},{"rt":null,"stimulus":"<div style=\"font-size:60px;\">+</div>","key_press":null,"trial_type":"html-keyboard-response","trial_index":132,"time_elapsed":258553,"internal_node_id":"0.0-8.0-1.31","subject":"wkkzs0hppfva4ya","sona":"7624"},{"trial_type":"turing-test","trial_index":133,"time_elapsed":265144,"internal_node_id":"0.0-8.0-2.31","subject":"wkkzs0hppfva4ya","sona":"7624"},{"rt":412,"stimulus":"<p>Which sequence did you perceive as more natural?</p>","key_press":74,"test_part":"response","test_stimulus":{"position":1,"left":"bvh/vr_prediction_models/model(dmp)-dataset(return-bottle)-npsi(30)-hold(2)/final-lines.txt","right":"bvh/return-bottle-training2-lines.txt","att_check":false},"trial_type":"html-keyboard-response","trial_index":134,"time_elapsed":265558,"internal_node_id":"0.0-8.0-3.31","subject":"wkkzs0hppfva4ya","sona":"7624"},{"rt":246,"stimulus":"<p>Ready?</p>","key_press":32,"trial_type":"html-keyboard-response","trial_index":135,"time_elapsed":265805,"internal_node_id":"0.0-8.0-0.32","subject":"wkkzs0hppfva4ya","sona":"7624"},{"rt":null,"stimulus":"<div style=\"font-size:60px;\">+</div>","key_press":null,"trial_type":"html-keyboard-response","trial_index":136,"time_elapsed":267812,"internal_node_id":"0.0-8.0-1.32","subject":"wkkzs0hppfva4ya","sona":"7624"},{"trial_type":"turing-test","trial_index":137,"time_elapsed":273784,"internal_node_id":"0.0-8.0-2.32","subject":"wkkzs0hppfva4ya","sona":"7624"},{"rt":436,"stimulus":"<p>Which sequence did you perceive as more natural?</p>","key_press":74,"test_part":"response","test_stimulus":{"position":1,"left":"bvh/vr_prediction_models/model(vcgpdm)-dataset(return-bottle)-mode(ELBO)-parts(1)-dyn(25)-lvm(35)-hold(4)/final-lines.txt","right":"bvh/return-bottle-training4-lines.txt","att_check":false},"trial_type":"html-keyboard-response","trial_index":138,"time_elapsed":274222,"internal_node_id":"0.0-8.0-3.32","subject":"wkkzs0hppfva4ya","sona":"7624"},{"rt":286,"stimulus":"<p>Ready?</p>","key_press":32,"trial_type":"html-keyboard-response","trial_index":139,"time_elapsed":274510,"internal_node_id":"0.0-8.0-0.33","subject":"wkkzs0hppfva4ya","sona":"7624"},{"rt":null,"stimulus":"<div style=\"font-size:60px;\">+</div>","key_press":null,"trial_type":"html-keyboard-response","trial_index":140,"time_elapsed":276512,"internal_node_id":"0.0-8.0-1.33","subject":"wkkzs0hppfva4ya","sona":"7624"},{"trial_type":"turing-test","trial_index":141,"time_elapsed":282111,"internal_node_id":"0.0-8.0-2.33","subject":"wkkzs0hppfva4ya","sona":"7624"},{"rt":477,"stimulus":"<p>Which sequence did you perceive as more natural?</p>","key_press":74,"test_part":"response","test_stimulus":{"position":1,"left":"bvh/vr_prediction_models/model(tmp)-dataset(pass-bottle)-numprim(8)-hold(4)/final-lines.txt","right":"bvh/pass-bottle-training4-lines.txt","att_check":false},"trial_type":"html-keyboard-response","trial_index":142,"time_elapsed":282590,"internal_node_id":"0.0-8.0-3.33","subject":"wkkzs0hppfva4ya","sona":"7624"},{"rt":375,"stimulus":"<p>Ready?</p>","key_press":32,"trial_type":"html-keyboard-response","trial_index":143,"time_elapsed":282965,"internal_node_id":"0.0-8.0-0.34","subject":"wkkzs0hppfva4ya","sona":"7624"},{"rt":null,"stimulus":"<div style=\"font-size:60px;\">+</div>","key_press":null,"trial_type":"html-keyboard-response","trial_index":144,"time_elapsed":284968,"internal_node_id":"0.0-8.0-1.34","subject":"wkkzs0hppfva4ya","sona":"7624"},{"trial_type":"turing-test","trial_index":145,"time_elapsed":290686,"internal_node_id":"0.0-8.0-2.34","subject":"wkkzs0hppfva4ya","sona":"7624"},{"rt":383,"stimulus":"<p>Which sequence did you perceive as more natural?</p>","key_press":70,"test_part":"response","test_stimulus":{"position":0,"left":"bvh/return-bottle-training3-lines.txt","right":"bvh/vr_prediction_models/model(tmp)-dataset(return-bottle)-numprim(13)-hold(3)/final-lines.txt","att_check":false},"trial_type":"html-keyboard-response","trial_index":146,"time_elapsed":291070,"internal_node_id":"0.0-8.0-3.34","subject":"wkkzs0hppfva4ya","sona":"7624"},{"rt":351,"stimulus":"<p>Ready?</p>","key_press":32,"trial_type":"html-keyboard-response","trial_index":147,"time_elapsed":291422,"internal_node_id":"0.0-8.0-0.35","subject":"wkkzs0hppfva4ya","sona":"7624"},{"rt":null,"stimulus":"<div style=\"font-size:60px;\">+</div>","key_press":null,"trial_type":"html-keyboard-response","trial_index":148,"time_elapsed":293425,"internal_node_id":"0.0-8.0-1.35","subject":"wkkzs0hppfva4ya","sona":"7624"},{"trial_type":"turing-test","trial_index":149,"time_elapsed":296658,"internal_node_id":"0.0-8.0-2.35","subject":"wkkzs0hppfva4ya","sona":"7624"},{"rt":499,"stimulus":"<p>Which sequence did you perceive as more natural?</p>","key_press":74,"test_part":"response","test_stimulus":{"position":0,"left":"bvh/return-bottle-hold-training1-lines.txt","right":"bvh/vr_prediction_models/model(vcgpdm)-dataset(return-bottle-hold)-mode(ELBO)-parts(1)-dyn(20)-lvm(5)-hold(1)/final-lines.txt","att_check":false},"trial_type":"html-keyboard-response","trial_index":150,"time_elapsed":297159,"internal_node_id":"0.0-8.0-3.35","subject":"wkkzs0hppfva4ya","sona":"7624"},{"rt":295,"stimulus":"<p>Ready?</p>","key_press":32,"trial_type":"html-keyboard-response","trial_index":151,"time_elapsed":297454,"internal_node_id":"0.0-8.0-0.36","subject":"wkkzs0hppfva4ya","sona":"7624"},{"rt":null,"stimulus":"<div style=\"font-size:60px;\">+</div>","key_press":null,"trial_type":"html-keyboard-response","trial_index":152,"time_elapsed":299456,"internal_node_id":"0.0-8.0-1.36","subject":"wkkzs0hppfva4ya","sona":"7624"},{"trial_type":"turing-test","trial_index":153,"time_elapsed":305778,"internal_node_id":"0.0-8.0-2.36","subject":"wkkzs0hppfva4ya","sona":"7624"},{"rt":555,"stimulus":"<p>Which sequence did you perceive as more natural?</p>","key_press":74,"test_part":"response","test_stimulus":{"position":1,"left":"bvh/vr_prediction_models/model(vcgpdm)-dataset(pass-bottle)-mode(ELBO)-parts(3)-dyn(25)-lvm(30)-hold(2)/final-lines.txt","right":"bvh/pass-bottle-training2-lines.txt","att_check":false},"trial_type":"html-keyboard-response","trial_index":154,"time_elapsed":306335,"internal_node_id":"0.0-8.0-3.36","subject":"wkkzs0hppfva4ya","sona":"7624"},{"rt":287,"stimulus":"<p>Ready?</p>","key_press":32,"trial_type":"html-keyboard-response","trial_index":155,"time_elapsed":306623,"internal_node_id":"0.0-8.0-0.37","subject":"wkkzs0hppfva4ya","sona":"7624"},{"rt":null,"stimulus":"<div style=\"font-size:60px;\">+</div>","key_press":null,"trial_type":"html-keyboard-response","trial_index":156,"time_elapsed":308624,"internal_node_id":"0.0-8.0-1.37","subject":"wkkzs0hppfva4ya","sona":"7624"},{"trial_type":"turing-test","trial_index":157,"time_elapsed":314397,"internal_node_id":"0.0-8.0-2.37","subject":"wkkzs0hppfva4ya","sona":"7624"},{"rt":441,"stimulus":"<p>Which sequence did you perceive as more natural?</p>","key_press":74,"test_part":"response","test_stimulus":{"position":1,"left":"bvh/vr_prediction_models/model(dmp)-dataset(return-bottle)-npsi(50)-hold(4)/final-lines.txt","right":"bvh/return-bottle-training4-lines.txt","att_check":false},"trial_type":"html-keyboard-response","trial_index":158,"time_elapsed":314839,"internal_node_id":"0.0-8.0-3.37","subject":"wkkzs0hppfva4ya","sona":"7624"},{"rt":206,"stimulus":"<p>Ready?</p>","key_press":32,"trial_type":"html-keyboard-response","trial_index":159,"time_elapsed":315047,"internal_node_id":"0.0-8.0-0.38","subject":"wkkzs0hppfva4ya","sona":"7624"},{"rt":null,"stimulus":"<div style=\"font-size:60px;\">+</div>","key_press":null,"trial_type":"html-keyboard-response","trial_index":160,"time_elapsed":317054,"internal_node_id":"0.0-8.0-1.38","subject":"wkkzs0hppfva4ya","sona":"7624"},{"trial_type":"turing-test","trial_index":161,"time_elapsed":322439,"internal_node_id":"0.0-8.0-2.38","subject":"wkkzs0hppfva4ya","sona":"7624"},{"rt":1406,"stimulus":"<p>Which sequence did you perceive as more natural?</p>","key_press":70,"test_part":"response","test_stimulus":{"position":1,"left":"bvh/vr_prediction_models/model(tmp)-dataset(return-bottle)-numprim(3)-hold(0)/final-lines.txt","right":"bvh/return-bottle-training0-lines.txt","att_check":false},"trial_type":"html-keyboard-response","trial_index":162,"time_elapsed":323847,"internal_node_id":"0.0-8.0-3.38","subject":"wkkzs0hppfva4ya","sona":"7624"},{"rt":415,"stimulus":"<p>Ready?</p>","key_press":32,"trial_type":"html-keyboard-response","trial_index":163,"time_elapsed":324263,"internal_node_id":"0.0-8.0-0.39","subject":"wkkzs0hppfva4ya","sona":"7624"},{"rt":null,"stimulus":"<div style=\"font-size:60px;\">+</div>","key_press":null,"trial_type":"html-keyboard-response","trial_index":164,"time_elapsed":326268,"internal_node_id":"0.0-8.0-1.39","subject":"wkkzs0hppfva4ya","sona":"7624"},{"trial_type":"turing-test","trial_index":165,"time_elapsed":329831,"internal_node_id":"0.0-8.0-2.39","subject":"wkkzs0hppfva4ya","sona":"7624"},{"rt":1069,"stimulus":"<p>Which sequence did you perceive as more natural?</p>","key_press":74,"test_part":"response","test_stimulus":{"position":0,"left":"bvh/pass-bottle-hold-training0-lines.txt","right":"bvh/vr_prediction_models/model(vcgpdm)-dataset(pass-bottle-hold)-mode(ELBO)-parts(3)-dyn(15)-lvm(30)-hold(0)/final-lines.txt","att_check":false},"trial_type":"html-keyboard-response","trial_index":166,"time_elapsed":330904,"internal_node_id":"0.0-8.0-3.39","subject":"wkkzs0hppfva4ya","sona":"7624"},{"rt":223,"stimulus":"<p>Ready?</p>","key_press":32,"trial_type":"html-keyboard-response","trial_index":167,"time_elapsed":331127,"internal_node_id":"0.0-8.0-0.40","subject":"wkkzs0hppfva4ya","sona":"7624"},{"rt":null,"stimulus":"<div style=\"font-size:60px;\">+</div>","key_press":null,"trial_type":"html-keyboard-response","trial_index":168,"time_elapsed":333133,"internal_node_id":"0.0-8.0-1.40","subject":"wkkzs0hppfva4ya","sona":"7624"},{"trial_type":"turing-test","trial_index":169,"time_elapsed":339183,"internal_node_id":"0.0-8.0-2.40","subject":"wkkzs0hppfva4ya","sona":"7624"},{"rt":287,"stimulus":"<p>Which sequence did you perceive as more natural?</p>","key_press":70,"test_part":"response","test_stimulus":{"position":0,"left":"bvh/return-bottle-training1-lines.txt","right":"bvh/vr_prediction_models/model(tmp)-dataset(return-bottle)-numprim(4)-hold(1)/final-lines.txt","att_check":false},"trial_type":"html-keyboard-response","trial_index":170,"time_elapsed":339471,"internal_node_id":"0.0-8.0-3.40","subject":"wkkzs0hppfva4ya","sona":"7624"},{"rt":334,"stimulus":"<p>Ready?</p>","key_press":32,"trial_type":"html-keyboard-response","trial_index":171,"time_elapsed":339808,"internal_node_id":"0.0-8.0-0.41","subject":"wkkzs0hppfva4ya","sona":"7624"},{"rt":null,"stimulus":"<div style=\"font-size:60px;\">+</div>","key_press":null,"trial_type":"html-keyboard-response","trial_index":172,"time_elapsed":341812,"internal_node_id":"0.0-8.0-1.41","subject":"wkkzs0hppfva4ya","sona":"7624"},{"trial_type":"turing-test","trial_index":173,"time_elapsed":347774,"internal_node_id":"0.0-8.0-2.41","subject":"wkkzs0hppfva4ya","sona":"7624"},{"rt":608,"stimulus":"<p>Which sequence did you perceive as more natural?</p>","key_press":74,"test_part":"response","test_stimulus":{"position":1,"left":"bvh/vr_prediction_models/model(vcgpdm)-dataset(pass-bottle)-mode(ELBO)-parts(1)-dyn(10)-lvm(5)-hold(4)/final-lines.txt","right":"bvh/pass-bottle-training4-lines.txt","att_check":false},"trial_type":"html-keyboard-response","trial_index":174,"time_elapsed":348383,"internal_node_id":"0.0-8.0-3.41","subject":"wkkzs0hppfva4ya","sona":"7624"},{"rt":415,"stimulus":"<p>Ready?</p>","key_press":32,"trial_type":"html-keyboard-response","trial_index":175,"time_elapsed":348800,"internal_node_id":"0.0-8.0-0.42","subject":"wkkzs0hppfva4ya","sona":"7624"},{"rt":null,"stimulus":"<div style=\"font-size:60px;\">+</div>","key_press":null,"trial_type":"html-keyboard-response","trial_index":176,"time_elapsed":350802,"internal_node_id":"0.0-8.0-1.42","subject":"wkkzs0hppfva4ya","sona":"7624"},{"trial_type":"turing-test","trial_index":177,"time_elapsed":357240,"internal_node_id":"0.0-8.0-2.42","subject":"wkkzs0hppfva4ya","sona":"7624"},{"rt":470,"stimulus":"<p>Which sequence did you perceive as more natural?</p>","key_press":74,"test_part":"response","test_stimulus":{"position":1,"left":"bvh/vr_prediction_models/model(tmp)-dataset(return-bottle)-numprim(8)-hold(2)/final-lines.txt","right":"bvh/return-bottle-training2-lines.txt","att_check":false},"trial_type":"html-keyboard-response","trial_index":178,"time_elapsed":357712,"internal_node_id":"0.0-8.0-3.42","subject":"wkkzs0hppfva4ya","sona":"7624"},{"rt":247,"stimulus":"<p>Ready?</p>","key_press":32,"trial_type":"html-keyboard-response","trial_index":179,"time_elapsed":357960,"internal_node_id":"0.0-8.0-0.43","subject":"wkkzs0hppfva4ya","sona":"7624"},{"rt":null,"stimulus":"<div style=\"font-size:60px;\">+</div>","key_press":null,"trial_type":"html-keyboard-response","trial_index":180,"time_elapsed":359965,"internal_node_id":"0.0-8.0-1.43","subject":"wkkzs0hppfva4ya","sona":"7624"},{"trial_type":"turing-test","trial_index":181,"time_elapsed":363067,"internal_node_id":"0.0-8.0-2.43","subject":"wkkzs0hppfva4ya","sona":"7624"},{"rt":435,"stimulus":"<p>Which sequence did you perceive as more natural?</p>","key_press":70,"test_part":"response","test_stimulus":{"position":0,"left":"bvh/pass-bottle-hold-training1-lines.txt","right":"bvh/vr_prediction_models/model(vcgpdm)-dataset(pass-bottle-hold)-mode(ELBO)-parts(3)-dyn(20)-lvm(20)-hold(1)/final-lines.txt","att_check":false},"trial_type":"html-keyboard-response","trial_index":182,"time_elapsed":363504,"internal_node_id":"0.0-8.0-3.43","subject":"wkkzs0hppfva4ya","sona":"7624"},{"rt":245,"stimulus":"<p>Ready?</p>","key_press":32,"trial_type":"html-keyboard-response","trial_index":183,"time_elapsed":363751,"internal_node_id":"0.0-8.0-0.44","subject":"wkkzs0hppfva4ya","sona":"7624"},{"rt":null,"stimulus":"<div style=\"font-size:60px;\">+</div>","key_press":null,"trial_type":"html-keyboard-response","trial_index":184,"time_elapsed":365755,"internal_node_id":"0.0-8.0-1.44","subject":"wkkzs0hppfva4ya","sona":"7624"},{"trial_type":"turing-test","trial_index":185,"time_elapsed":369762,"internal_node_id":"0.0-8.0-2.44","subject":"wkkzs0hppfva4ya","sona":"7624"},{"rt":276,"stimulus":"<p>Which sequence did you perceive as more natural?</p>","key_press":74,"test_part":"response","test_stimulus":{"position":1,"left":"bvh/vr_prediction_models/model(vcgpdm)-dataset(return-bottle-hold)-mode(ELBO)-parts(1)-dyn(20)-lvm(30)-hold(4)/final-lines.txt","right":"bvh/return-bottle-hold-training4-lines.txt","att_check":false},"trial_type":"html-keyboard-response","trial_index":186,"time_elapsed":370040,"internal_node_id":"0.0-8.0-3.44","subject":"wkkzs0hppfva4ya","sona":"7624"},{"rt":271,"stimulus":"<p>Ready?</p>","key_press":32,"trial_type":"html-keyboard-response","trial_index":187,"time_elapsed":370312,"internal_node_id":"0.0-8.0-0.45","subject":"wkkzs0hppfva4ya","sona":"7624"},{"rt":null,"stimulus":"<div style=\"font-size:60px;\">+</div>","key_press":null,"trial_type":"html-keyboard-response","trial_index":188,"time_elapsed":372317,"internal_node_id":"0.0-8.0-1.45","subject":"wkkzs0hppfva4ya","sona":"7624"},{"trial_type":"turing-test","trial_index":189,"time_elapsed":377946,"internal_node_id":"0.0-8.0-2.45","subject":"wkkzs0hppfva4ya","sona":"7624"},{"rt":317,"stimulus":"<p>Which sequence did you perceive as more natural?</p>","key_press":74,"test_part":"response","test_stimulus":{"position":1,"left":"bvh/vr_prediction_models/model(vcgpdm)-dataset(return-bottle)-mode(MAP)-parts(1)-hold(0)/final-lines.txt","right":"bvh/return-bottle-training0-lines.txt","att_check":false},"trial_type":"html-keyboard-response","trial_index":190,"time_elapsed":378264,"internal_node_id":"0.0-8.0-3.45","subject":"wkkzs0hppfva4ya","sona":"7624"},{"rt":271,"stimulus":"<p>Ready?</p>","key_press":32,"trial_type":"html-keyboard-response","trial_index":191,"time_elapsed":378536,"internal_node_id":"0.0-8.0-0.46","subject":"wkkzs0hppfva4ya","sona":"7624"},{"rt":null,"stimulus":"<div style=\"font-size:60px;\">+</div>","key_press":null,"trial_type":"html-keyboard-response","trial_index":192,"time_elapsed":380543,"internal_node_id":"0.0-8.0-1.46","subject":"wkkzs0hppfva4ya","sona":"7624"},{"trial_type":"turing-test","trial_index":193,"time_elapsed":386478,"internal_node_id":"0.0-8.0-2.46","subject":"wkkzs0hppfva4ya","sona":"7624"},{"rt":369,"stimulus":"<p>Which sequence did you perceive as more natural?</p>","key_press":70,"test_part":"response","test_stimulus":{"position":0,"left":"bvh/pass-bottle-training4-lines.txt","right":"bvh/vr_prediction_models/model(vcgpdm)-dataset(pass-bottle)-mode(ELBO)-parts(3)-dyn(20)-lvm(35)-hold(4)/final-lines.txt","att_check":false},"trial_type":"html-keyboard-response","trial_index":194,"time_elapsed":386849,"internal_node_id":"0.0-8.0-3.46","subject":"wkkzs0hppfva4ya","sona":"7624"},{"rt":278,"stimulus":"<p>Ready?</p>","key_press":32,"trial_type":"html-keyboard-response","trial_index":195,"time_elapsed":387128,"internal_node_id":"0.0-8.0-0.47","subject":"wkkzs0hppfva4ya","sona":"7624"},{"rt":null,"stimulus":"<div style=\"font-size:60px;\">+</div>","key_press":null,"trial_type":"html-keyboard-response","trial_index":196,"time_elapsed":389136,"internal_node_id":"0.0-8.0-1.47","subject":"wkkzs0hppfva4ya","sona":"7624"},{"trial_type":"turing-test","trial_index":197,"time_elapsed":392682,"internal_node_id":"0.0-8.0-2.47","subject":"wkkzs0hppfva4ya","sona":"7624"},{"rt":349,"stimulus":"<p>Which sequence did you perceive as more natural?</p>","key_press":70,"test_part":"response","test_stimulus":{"position":1,"left":"bvh/vr_prediction_models/model(tmp)-dataset(return-bottle-hold)-numprim(4)-hold(2)/final-lines.txt","right":"bvh/return-bottle-hold-training2-lines.txt","att_check":false},"trial_type":"html-keyboard-response","trial_index":198,"time_elapsed":393033,"internal_node_id":"0.0-8.0-3.47","subject":"wkkzs0hppfva4ya","sona":"7624"},{"rt":253,"stimulus":"<p>Ready?</p>","key_press":32,"trial_type":"html-keyboard-response","trial_index":199,"time_elapsed":393289,"internal_node_id":"0.0-8.0-0.48","subject":"wkkzs0hppfva4ya","sona":"7624"},{"rt":null,"stimulus":"<div style=\"font-size:60px;\">+</div>","key_press":null,"trial_type":"html-keyboard-response","trial_index":200,"time_elapsed":395295,"internal_node_id":"0.0-8.0-1.48","subject":"wkkzs0hppfva4ya","sona":"7624"},{"trial_type":"turing-test","trial_index":201,"time_elapsed":398655,"internal_node_id":"0.0-8.0-2.48","subject":"wkkzs0hppfva4ya","sona":"7624"},{"rt":376,"stimulus":"<p>Which sequence did you perceive as more natural?</p>","key_press":74,"test_part":"response","test_stimulus":{"position":0,"left":"bvh/return-bottle-hold-training1-lines.txt","right":"bvh/vr_prediction_models/model(tmp)-dataset(return-bottle-hold)-numprim(10)-hold(1)/final-lines.txt","att_check":false},"trial_type":"html-keyboard-response","trial_index":202,"time_elapsed":399033,"internal_node_id":"0.0-8.0-3.48","subject":"wkkzs0hppfva4ya","sona":"7624"},{"rt":197,"stimulus":"<p>Ready?</p>","key_press":32,"trial_type":"html-keyboard-response","trial_index":203,"time_elapsed":399233,"internal_node_id":"0.0-8.0-0.49","subject":"wkkzs0hppfva4ya","sona":"7624"},{"rt":null,"stimulus":"<div style=\"font-size:60px;\">+</div>","key_press":null,"trial_type":"html-keyboard-response","trial_index":204,"time_elapsed":401236,"internal_node_id":"0.0-8.0-1.49","subject":"wkkzs0hppfva4ya","sona":"7624"},{"trial_type":"turing-test","trial_index":205,"time_elapsed":407998,"internal_node_id":"0.0-8.0-2.49","subject":"wkkzs0hppfva4ya","sona":"7624"},{"rt":296,"stimulus":"<p>Which sequence did you perceive as more natural?</p>","key_press":70,"test_part":"response","test_stimulus":{"position":0,"left":"bvh/return-bottle-training2-lines.txt","right":"bvh/vr_prediction_models/model(vcgpdm)-dataset(return-bottle)-mode(ELBO)-parts(3)-dyn(10)-lvm(10)-hold(2)/final-lines.txt","att_check":false},"trial_type":"html-keyboard-response","trial_index":206,"time_elapsed":408298,"internal_node_id":"0.0-8.0-3.49","subject":"wkkzs0hppfva4ya","sona":"7624"},{"rt":245,"stimulus":"<p>Ready?</p>","key_press":32,"trial_type":"html-keyboard-response","trial_index":207,"time_elapsed":408545,"internal_node_id":"0.0-8.0-0.50","subject":"wkkzs0hppfva4ya","sona":"7624"},{"rt":null,"stimulus":"<div style=\"font-size:60px;\">+</div>","key_press":null,"trial_type":"html-keyboard-response","trial_index":208,"time_elapsed":410548,"internal_node_id":"0.0-8.0-1.50","subject":"wkkzs0hppfva4ya","sona":"7624"},{"trial_type":"turing-test","trial_index":209,"time_elapsed":416082,"internal_node_id":"0.0-8.0-2.50","subject":"wkkzs0hppfva4ya","sona":"7624"},{"rt":390,"stimulus":"<p>Which sequence did you perceive as more natural?</p>","key_press":74,"test_part":"response","test_stimulus":{"position":1,"left":"bvh/vr_prediction_models/model(dmp)-dataset(pass-bottle)-npsi(90)-hold(1)/final-lines.txt","right":"bvh/pass-bottle-training1-lines.txt","att_check":false},"trial_type":"html-keyboard-response","trial_index":210,"time_elapsed":416474,"internal_node_id":"0.0-8.0-3.50","subject":"wkkzs0hppfva4ya","sona":"7624"},{"rt":279,"stimulus":"<p>Ready?</p>","key_press":32,"trial_type":"html-keyboard-response","trial_index":211,"time_elapsed":416753,"internal_node_id":"0.0-8.0-0.51","subject":"wkkzs0hppfva4ya","sona":"7624"},{"rt":null,"stimulus":"<div style=\"font-size:60px;\">+</div>","key_press":null,"trial_type":"html-keyboard-response","trial_index":212,"time_elapsed":418761,"internal_node_id":"0.0-8.0-1.51","subject":"wkkzs0hppfva4ya","sona":"7624"},{"trial_type":"turing-test","trial_index":213,"time_elapsed":422223,"internal_node_id":"0.0-8.0-2.51","subject":"wkkzs0hppfva4ya","sona":"7624"},{"rt":256,"stimulus":"<p>Which sequence did you perceive as more natural?</p>","key_press":70,"test_part":"response","test_stimulus":{"position":0,"left":"bvh/pass-bottle-hold-training1-lines.txt","right":"bvh/vr_prediction_models/model(vcgpdm)-dataset(pass-bottle-hold)-mode(ELBO)-parts(3)-dyn(10)-lvm(30)-hold(1)/final-lines.txt","att_check":false},"trial_type":"html-keyboard-response","trial_index":214,"time_elapsed":422482,"internal_node_id":"0.0-8.0-3.51","subject":"wkkzs0hppfva4ya","sona":"7624"},{"rt":278,"stimulus":"<p>Ready?</p>","key_press":32,"trial_type":"html-keyboard-response","trial_index":215,"time_elapsed":422762,"internal_node_id":"0.0-8.0-0.52","subject":"wkkzs0hppfva4ya","sona":"7624"},{"rt":null,"stimulus":"<div style=\"font-size:60px;\">+</div>","key_press":null,"trial_type":"html-keyboard-response","trial_index":216,"time_elapsed":424764,"internal_node_id":"0.0-8.0-1.52","subject":"wkkzs0hppfva4ya","sona":"7624"},{"trial_type":"turing-test","trial_index":217,"time_elapsed":431527,"internal_node_id":"0.0-8.0-2.52","subject":"wkkzs0hppfva4ya","sona":"7624"},{"rt":586,"stimulus":"<p>Which sequence did you perceive as more natural?</p>","key_press":70,"test_part":"response","test_stimulus":{"position":0,"left":"bvh/return-bottle-training2-lines.txt","right":"bvh/vr_prediction_models/model(vcgpdm)-dataset(return-bottle)-mode(MAP)-parts(1)-hold(2)/final-lines.txt","att_check":false},"trial_type":"html-keyboard-response","trial_index":218,"time_elapsed":432115,"internal_node_id":"0.0-8.0-3.52","subject":"wkkzs0hppfva4ya","sona":"7624"},{"rt":350,"stimulus":"<p>Ready?</p>","key_press":32,"trial_type":"html-keyboard-response","trial_index":219,"time_elapsed":432465,"internal_node_id":"0.0-8.0-0.53","subject":"wkkzs0hppfva4ya","sona":"7624"},{"rt":null,"stimulus":"<div style=\"font-size:60px;\">+</div>","key_press":null,"trial_type":"html-keyboard-response","trial_index":220,"time_elapsed":434473,"internal_node_id":"0.0-8.0-1.53","subject":"wkkzs0hppfva4ya","sona":"7624"},{"trial_type":"turing-test","trial_index":221,"time_elapsed":438014,"internal_node_id":"0.0-8.0-2.53","subject":"wkkzs0hppfva4ya","sona":"7624"},{"rt":282,"stimulus":"<p>Which sequence did you perceive as more natural?</p>","key_press":74,"test_part":"response","test_stimulus":{"position":0,"left":"bvh/pass-bottle-hold-training2-lines.txt","right":"bvh/vr_prediction_models/model(vcgpdm)-dataset(pass-bottle-hold)-mode(MAP)-parts(1)-hold(2)/final-lines.txt","att_check":false},"trial_type":"html-keyboard-response","trial_index":222,"time_elapsed":438298,"internal_node_id":"0.0-8.0-3.53","subject":"wkkzs0hppfva4ya","sona":"7624"},{"rt":238,"stimulus":"<p>Ready?</p>","key_press":32,"trial_type":"html-keyboard-response","trial_index":223,"time_elapsed":438538,"internal_node_id":"0.0-8.0-0.54","subject":"wkkzs0hppfva4ya","sona":"7624"},{"rt":null,"stimulus":"<div style=\"font-size:60px;\">+</div>","key_press":null,"trial_type":"html-keyboard-response","trial_index":224,"time_elapsed":440541,"internal_node_id":"0.0-8.0-1.54","subject":"wkkzs0hppfva4ya","sona":"7624"},{"trial_type":"turing-test","trial_index":225,"time_elapsed":446868,"internal_node_id":"0.0-8.0-2.54","subject":"wkkzs0hppfva4ya","sona":"7624"},{"rt":1131,"stimulus":"<p>Which sequence did you perceive as more natural?</p>","key_press":74,"test_part":"response","test_stimulus":{"position":1,"left":"bvh/vr_prediction_models/model(vcgpdm)-dataset(pass-bottle)-mode(ELBO)-parts(3)-dyn(10)-lvm(30)-hold(2)/final-lines.txt","right":"bvh/pass-bottle-training2-lines.txt","att_check":false},"trial_type":"html-keyboard-response","trial_index":226,"time_elapsed":448003,"internal_node_id":"0.0-8.0-3.54","subject":"wkkzs0hppfva4ya","sona":"7624"},{"rt":382,"stimulus":"<p>Ready?</p>","key_press":32,"trial_type":"html-keyboard-response","trial_index":227,"time_elapsed":448386,"internal_node_id":"0.0-8.0-0.55","subject":"wkkzs0hppfva4ya","sona":"7624"},{"rt":null,"stimulus":"<div style=\"font-size:60px;\">+</div>","key_press":null,"trial_type":"html-keyboard-response","trial_index":228,"time_elapsed":450390,"internal_node_id":"0.0-8.0-1.55","subject":"wkkzs0hppfva4ya","sona":"7624"},{"trial_type":"turing-test","trial_index":229,"time_elapsed":454146,"internal_node_id":"0.0-8.0-2.55","subject":"wkkzs0hppfva4ya","sona":"7624"},{"rt":389,"stimulus":"<p>Which sequence did you perceive as more natural?</p>","key_press":74,"test_part":"response","test_stimulus":{"position":0,"left":"bvh/pass-bottle-hold-training3-lines.txt","right":"bvh/vr_prediction_models/model(vcgpdm)-dataset(pass-bottle-hold)-mode(ELBO)-parts(3)-dyn(20)-lvm(15)-hold(3)/final-lines.txt","att_check":false},"trial_type":"html-keyboard-response","trial_index":230,"time_elapsed":454539,"internal_node_id":"0.0-8.0-3.55","subject":"wkkzs0hppfva4ya","sona":"7624"},{"rt":262,"stimulus":"<p>Ready?</p>","key_press":32,"trial_type":"html-keyboard-response","trial_index":231,"time_elapsed":454803,"internal_node_id":"0.0-8.0-0.56","subject":"wkkzs0hppfva4ya","sona":"7624"},{"rt":null,"stimulus":"<div style=\"font-size:60px;\">+</div>","key_press":null,"trial_type":"html-keyboard-response","trial_index":232,"time_elapsed":456811,"internal_node_id":"0.0-8.0-1.56","subject":"wkkzs0hppfva4ya","sona":"7624"},{"trial_type":"turing-test","trial_index":233,"time_elapsed":460276,"internal_node_id":"0.0-8.0-2.56","subject":"wkkzs0hppfva4ya","sona":"7624"},{"rt":349,"stimulus":"<p>Which sequence did you perceive as more natural?</p>","key_press":74,"test_part":"response","test_stimulus":{"position":1,"left":"bvh/vr_prediction_models/model(tmp)-dataset(pass-bottle-hold)-numprim(12)-hold(4)/final-lines.txt","right":"bvh/pass-bottle-hold-training4-lines.txt","att_check":false},"trial_type":"html-keyboard-response","trial_index":234,"time_elapsed":460627,"internal_node_id":"0.0-8.0-3.56","subject":"wkkzs0hppfva4ya","sona":"7624"},{"rt":229,"stimulus":"<p>Ready?</p>","key_press":32,"trial_type":"html-keyboard-response","trial_index":235,"time_elapsed":460859,"internal_node_id":"0.0-8.0-0.57","subject":"wkkzs0hppfva4ya","sona":"7624"},{"rt":null,"stimulus":"<div style=\"font-size:60px;\">+</div>","key_press":null,"trial_type":"html-keyboard-response","trial_index":236,"time_elapsed":462862,"internal_node_id":"0.0-8.0-1.57","subject":"wkkzs0hppfva4ya","sona":"7624"},{"trial_type":"turing-test","trial_index":237,"time_elapsed":466341,"internal_node_id":"0.0-8.0-2.57","subject":"wkkzs0hppfva4ya","sona":"7624"},{"rt":451,"stimulus":"<p>Which sequence did you perceive as more natural?</p>","key_press":70,"test_part":"response","test_stimulus":{"position":0,"left":"bvh/pass-bottle-hold-training1-lines.txt","right":"bvh/vr_prediction_models/model(vcgpdm)-dataset(pass-bottle-hold)-mode(ELBO)-parts(1)-dyn(20)-lvm(30)-hold(1)/final-lines.txt","att_check":false},"trial_type":"html-keyboard-response","trial_index":238,"time_elapsed":466796,"internal_node_id":"0.0-8.0-3.57","subject":"wkkzs0hppfva4ya","sona":"7624"},{"rt":286,"stimulus":"<p>Ready?</p>","key_press":32,"trial_type":"html-keyboard-response","trial_index":239,"time_elapsed":467083,"internal_node_id":"0.0-8.0-0.58","subject":"wkkzs0hppfva4ya","sona":"7624"},{"rt":null,"stimulus":"<div style=\"font-size:60px;\">+</div>","key_press":null,"trial_type":"html-keyboard-response","trial_index":240,"time_elapsed":469085,"internal_node_id":"0.0-8.0-1.58","subject":"wkkzs0hppfva4ya","sona":"7624"},{"trial_type":"turing-test","trial_index":241,"time_elapsed":475196,"internal_node_id":"0.0-8.0-2.58","subject":"wkkzs0hppfva4ya","sona":"7624"},{"rt":621,"stimulus":"<p>Which sequence did you perceive as more natural?</p>","key_press":70,"test_part":"response","test_stimulus":{"position":0,"left":"bvh/pass-bottle-training4-lines.txt","right":"bvh/vr_prediction_models/model(vcgpdm)-dataset(pass-bottle)-mode(ELBO)-parts(3)-dyn(15)-lvm(30)-hold(4)/final-lines.txt","att_check":false},"trial_type":"html-keyboard-response","trial_index":242,"time_elapsed":475820,"internal_node_id":"0.0-8.0-3.58","subject":"wkkzs0hppfva4ya","sona":"7624"},{"rt":1269,"stimulus":"<p>Ready?</p>","key_press":32,"trial_type":"html-keyboard-response","trial_index":243,"time_elapsed":477090,"internal_node_id":"0.0-8.0-0.59","subject":"wkkzs0hppfva4ya","sona":"7624"},{"rt":null,"stimulus":"<div style=\"font-size:60px;\">+</div>","key_press":null,"trial_type":"html-keyboard-response","trial_index":244,"time_elapsed":479096,"internal_node_id":"0.0-8.0-1.59","subject":"wkkzs0hppfva4ya","sona":"7624"},{"trial_type":"turing-test","trial_index":245,"time_elapsed":482392,"internal_node_id":"0.0-8.0-2.59","subject":"wkkzs0hppfva4ya","sona":"7624"},{"rt":385,"stimulus":"<p>Which sequence did you perceive as more natural?</p>","key_press":74,"test_part":"response","test_stimulus":{"position":1,"left":"bvh/vr_prediction_models/model(tmp)-dataset(pass-bottle-hold)-numprim(14)-hold(0)/final-lines.txt","right":"bvh/pass-bottle-hold-training0-lines.txt","att_check":false},"trial_type":"html-keyboard-response","trial_index":246,"time_elapsed":482779,"internal_node_id":"0.0-8.0-3.59","subject":"wkkzs0hppfva4ya","sona":"7624"},{"rt":222,"stimulus":"<p>Ready?</p>","key_press":32,"trial_type":"html-keyboard-response","trial_index":247,"time_elapsed":483003,"internal_node_id":"0.0-8.0-0.60","subject":"wkkzs0hppfva4ya","sona":"7624"},{"rt":null,"stimulus":"<div style=\"font-size:60px;\">+</div>","key_press":null,"trial_type":"html-keyboard-response","trial_index":248,"time_elapsed":485007,"internal_node_id":"0.0-8.0-1.60","subject":"wkkzs0hppfva4ya","sona":"7624"},{"trial_type":"turing-test","trial_index":249,"time_elapsed":488528,"internal_node_id":"0.0-8.0-2.60","subject":"wkkzs0hppfva4ya","sona":"7624"},{"rt":354,"stimulus":"<p>Which sequence did you perceive as more natural?</p>","key_press":74,"test_part":"response","test_stimulus":{"position":1,"left":"bvh/vr_prediction_models/model(tmp)-dataset(pass-bottle-hold)-numprim(14)-hold(3)/final-lines.txt","right":"bvh/pass-bottle-hold-training3-lines.txt","att_check":false},"trial_type":"html-keyboard-response","trial_index":250,"time_elapsed":488884,"internal_node_id":"0.0-8.0-3.60","subject":"wkkzs0hppfva4ya","sona":"7624"},{"rt":644,"stimulus":"<p>Ready?</p>","key_press":32,"trial_type":"html-keyboard-response","trial_index":251,"time_elapsed":489531,"internal_node_id":"0.0-8.0-0.61","subject":"wkkzs0hppfva4ya","sona":"7624"},{"rt":null,"stimulus":"<div style=\"font-size:60px;\">+</div>","key_press":null,"trial_type":"html-keyboard-response","trial_index":252,"time_elapsed":491535,"internal_node_id":"0.0-8.0-1.61","subject":"wkkzs0hppfva4ya","sona":"7624"},{"trial_type":"turing-test","trial_index":253,"time_elapsed":497810,"internal_node_id":"0.0-8.0-2.61","subject":"wkkzs0hppfva4ya","sona":"7624"},{"rt":320,"stimulus":"<p>Which sequence did you perceive as more natural?</p>","key_press":70,"test_part":"response","test_stimulus":{"position":0,"left":"bvh/pass-bottle-training3-lines.txt","right":"bvh/vr_prediction_models/model(vcgpdm)-dataset(pass-bottle)-mode(ELBO)-parts(3)-dyn(25)-lvm(30)-hold(3)/final-lines.txt","att_check":false},"trial_type":"html-keyboard-response","trial_index":254,"time_elapsed":498132,"internal_node_id":"0.0-8.0-3.61","subject":"wkkzs0hppfva4ya","sona":"7624"},{"rt":293,"stimulus":"<p>Ready?</p>","key_press":32,"trial_type":"html-keyboard-response","trial_index":255,"time_elapsed":498427,"internal_node_id":"0.0-8.0-0.62","subject":"wkkzs0hppfva4ya","sona":"7624"},{"rt":null,"stimulus":"<div style=\"font-size:60px;\">+</div>","key_press":null,"trial_type":"html-keyboard-response","trial_index":256,"time_elapsed":500434,"internal_node_id":"0.0-8.0-1.62","subject":"wkkzs0hppfva4ya","sona":"7624"},{"trial_type":"turing-test","trial_index":257,"time_elapsed":506181,"internal_node_id":"0.0-8.0-2.62","subject":"wkkzs0hppfva4ya","sona":"7624"},{"rt":325,"stimulus":"<p>Which sequence did you perceive as more natural?</p>","key_press":70,"test_part":"response","test_stimulus":{"position":0,"left":"bvh/pass-bottle-training3-lines.txt","right":"bvh/vr_prediction_models/model(tmp)-dataset(pass-bottle)-numprim(11)-hold(3)/final-lines.txt","att_check":false},"trial_type":"html-keyboard-response","trial_index":258,"time_elapsed":506508,"internal_node_id":"0.0-8.0-3.62","subject":"wkkzs0hppfva4ya","sona":"7624"},{"rt":262,"stimulus":"<p>Ready?</p>","key_press":32,"trial_type":"html-keyboard-response","trial_index":259,"time_elapsed":506772,"internal_node_id":"0.0-8.0-0.63","subject":"wkkzs0hppfva4ya","sona":"7624"},{"rt":null,"stimulus":"<div style=\"font-size:60px;\">+</div>","key_press":null,"trial_type":"html-keyboard-response","trial_index":260,"time_elapsed":508774,"internal_node_id":"0.0-8.0-1.63","subject":"wkkzs0hppfva4ya","sona":"7624"},{"trial_type":"turing-test","trial_index":261,"time_elapsed":514077,"internal_node_id":"0.0-8.0-2.63","subject":"wkkzs0hppfva4ya","sona":"7624"},{"rt":469,"stimulus":"<p>Which sequence did you perceive as more natural?</p>","key_press":70,"test_part":"response","test_stimulus":{"position":0,"left":"bvh/pass-bottle-training1-lines.txt","right":"bvh/vr_prediction_models/model(dmp)-dataset(pass-bottle)-npsi(70)-hold(1)/final-lines.txt","att_check":false},"trial_type":"html-keyboard-response","trial_index":262,"time_elapsed":514548,"internal_node_id":"0.0-8.0-3.63","subject":"wkkzs0hppfva4ya","sona":"7624"},{"rt":246,"stimulus":"<p>Ready?</p>","key_press":32,"trial_type":"html-keyboard-response","trial_index":263,"time_elapsed":514796,"internal_node_id":"0.0-8.0-0.64","subject":"wkkzs0hppfva4ya","sona":"7624"},{"rt":null,"stimulus":"<div style=\"font-size:60px;\">+</div>","key_press":null,"trial_type":"html-keyboard-response","trial_index":264,"time_elapsed":516800,"internal_node_id":"0.0-8.0-1.64","subject":"wkkzs0hppfva4ya","sona":"7624"},{"trial_type":"turing-test","trial_index":265,"time_elapsed":522260,"internal_node_id":"0.0-8.0-2.64","subject":"wkkzs0hppfva4ya","sona":"7624"},{"rt":272,"stimulus":"<p>Which sequence did you perceive as more natural?</p>","key_press":74,"test_part":"response","test_stimulus":{"position":0,"left":"bvh/return-bottle-hold-training0-lines.txt","right":"bvh/vr_prediction_models/model(vcgpdm)-dataset(return-bottle-hold)-mode(ELBO)-parts(1)-dyn(30)-lvm(30)-hold(0)/final-lines.txt","att_check":false},"trial_type":"html-keyboard-response","trial_index":266,"time_elapsed":522532,"internal_node_id":"0.0-8.0-3.64","subject":"wkkzs0hppfva4ya","sona":"7624"},{"rt":261,"stimulus":"<p>Ready?</p>","key_press":32,"trial_type":"html-keyboard-response","trial_index":267,"time_elapsed":522797,"internal_node_id":"0.0-8.0-0.65","subject":"wkkzs0hppfva4ya","sona":"7624"},{"rt":null,"stimulus":"<div style=\"font-size:60px;\">+</div>","key_press":null,"trial_type":"html-keyboard-response","trial_index":268,"time_elapsed":524800,"internal_node_id":"0.0-8.0-1.65","subject":"wkkzs0hppfva4ya","sona":"7624"},{"trial_type":"turing-test","trial_index":269,"time_elapsed":528183,"internal_node_id":"0.0-8.0-2.65","subject":"wkkzs0hppfva4ya","sona":"7624"},{"rt":1004,"stimulus":"<p>Which sequence did you perceive as more natural?</p>","key_press":70,"test_part":"response","test_stimulus":{"position":0,"left":"bvh/pass-bottle-hold-training1-lines.txt","right":"bvh/vr_prediction_models/model(vcgpdm)-dataset(pass-bottle-hold)-mode(MAP)-parts(3)-hold(1)/final-lines.txt","att_check":false},"trial_type":"html-keyboard-response","trial_index":270,"time_elapsed":529188,"internal_node_id":"0.0-8.0-3.65","subject":"wkkzs0hppfva4ya","sona":"7624"},{"rt":1119,"stimulus":"<p>Ready?</p>","key_press":32,"trial_type":"html-keyboard-response","trial_index":271,"time_elapsed":530308,"internal_node_id":"0.0-8.0-0.66","subject":"wkkzs0hppfva4ya","sona":"7624"},{"rt":null,"stimulus":"<div style=\"font-size:60px;\">+</div>","key_press":null,"trial_type":"html-keyboard-response","trial_index":272,"time_elapsed":532317,"internal_node_id":"0.0-8.0-1.66","subject":"wkkzs0hppfva4ya","sona":"7624"},{"trial_type":"turing-test","trial_index":273,"time_elapsed":536109,"internal_node_id":"0.0-8.0-2.66","subject":"wkkzs0hppfva4ya","sona":"7624"},{"rt":676,"stimulus":"<p>Which sequence did you perceive as more natural?</p>","key_press":74,"test_part":"response","test_stimulus":{"position":1,"left":"bvh/vr_prediction_models/model(vcgpdm)-dataset(return-bottle-hold)-mode(ELBO)-parts(3)-dyn(15)-lvm(30)-hold(2)/final-lines.txt","right":"bvh/return-bottle-hold-training2-lines.txt","att_check":false},"trial_type":"html-keyboard-response","trial_index":274,"time_elapsed":536788,"internal_node_id":"0.0-8.0-3.66","subject":"wkkzs0hppfva4ya","sona":"7624"},{"rt":215,"stimulus":"<p>Ready?</p>","key_press":32,"trial_type":"html-keyboard-response","trial_index":275,"time_elapsed":537005,"internal_node_id":"0.0-8.0-0.67","subject":"wkkzs0hppfva4ya","sona":"7624"},{"rt":null,"stimulus":"<div style=\"font-size:60px;\">+</div>","key_press":null,"trial_type":"html-keyboard-response","trial_index":276,"time_elapsed":539007,"internal_node_id":"0.0-8.0-1.67","subject":"wkkzs0hppfva4ya","sona":"7624"},{"trial_type":"turing-test","trial_index":277,"time_elapsed":545284,"internal_node_id":"0.0-8.0-2.67","subject":"wkkzs0hppfva4ya","sona":"7624"},{"rt":312,"stimulus":"<p>Which sequence did you perceive as more natural?</p>","key_press":74,"test_part":"response","test_stimulus":{"position":1,"left":"bvh/vr_prediction_models/model(vcgpdm)-dataset(return-bottle)-mode(ELBO)-parts(1)-dyn(25)-lvm(35)-hold(1)/final-lines.txt","right":"bvh/return-bottle-training1-lines.txt","att_check":false},"trial_type":"html-keyboard-response","trial_index":278,"time_elapsed":545597,"internal_node_id":"0.0-8.0-3.67","subject":"wkkzs0hppfva4ya","sona":"7624"},{"rt":229,"stimulus":"<p>Ready?</p>","key_press":32,"trial_type":"html-keyboard-response","trial_index":279,"time_elapsed":545828,"internal_node_id":"0.0-8.0-0.68","subject":"wkkzs0hppfva4ya","sona":"7624"},{"rt":null,"stimulus":"<div style=\"font-size:60px;\">+</div>","key_press":null,"trial_type":"html-keyboard-response","trial_index":280,"time_elapsed":547835,"internal_node_id":"0.0-8.0-1.68","subject":"wkkzs0hppfva4ya","sona":"7624"},{"trial_type":"turing-test","trial_index":281,"time_elapsed":553294,"internal_node_id":"0.0-8.0-2.68","subject":"wkkzs0hppfva4ya","sona":"7624"},{"rt":309,"stimulus":"<p>Which sequence did you perceive as more natural?</p>","key_press":74,"test_part":"response","test_stimulus":{"position":0,"left":"bvh/pass-bottle-training1-lines.txt","right":"bvh/vr_prediction_models/model(tmp)-dataset(pass-bottle)-numprim(7)-hold(1)/final-lines.txt","att_check":false},"trial_type":"html-keyboard-response","trial_index":282,"time_elapsed":553605,"internal_node_id":"0.0-8.0-3.68","subject":"wkkzs0hppfva4ya","sona":"7624"},{"rt":357,"stimulus":"<p>Ready?</p>","key_press":32,"trial_type":"html-keyboard-response","trial_index":283,"time_elapsed":553965,"internal_node_id":"0.0-8.0-0.69","subject":"wkkzs0hppfva4ya","sona":"7624"},{"rt":null,"stimulus":"<div style=\"font-size:60px;\">+</div>","key_press":null,"trial_type":"html-keyboard-response","trial_index":284,"time_elapsed":555966,"internal_node_id":"0.0-8.0-1.69","subject":"wkkzs0hppfva4ya","sona":"7624"},{"trial_type":"turing-test","trial_index":285,"time_elapsed":559282,"internal_node_id":"0.0-8.0-2.69","subject":"wkkzs0hppfva4ya","sona":"7624"},{"rt":345,"stimulus":"<p>Which sequence did you perceive as more natural?</p>","key_press":70,"test_part":"response","test_stimulus":{"position":1,"left":"bvh/vr_prediction_models/model(dmp)-dataset(pass-bottle-hold)-npsi(100)-hold(2)/final-lines.txt","right":"bvh/pass-bottle-hold-training2-lines.txt","att_check":false},"trial_type":"html-keyboard-response","trial_index":286,"time_elapsed":559630,"internal_node_id":"0.0-8.0-3.69","subject":"wkkzs0hppfva4ya","sona":"7624"},{"rt":215,"stimulus":"<p>Ready?</p>","key_press":32,"trial_type":"html-keyboard-response","trial_index":287,"time_elapsed":559845,"internal_node_id":"0.0-8.0-0.70","subject":"wkkzs0hppfva4ya","sona":"7624"},{"rt":null,"stimulus":"<div style=\"font-size:60px;\">+</div>","key_press":null,"trial_type":"html-keyboard-response","trial_index":288,"time_elapsed":561848,"internal_node_id":"0.0-8.0-1.70","subject":"wkkzs0hppfva4ya","sona":"7624"},{"trial_type":"turing-test","trial_index":289,"time_elapsed":567607,"internal_node_id":"0.0-8.0-2.70","subject":"wkkzs0hppfva4ya","sona":"7624"},{"rt":277,"stimulus":"<p>Which sequence did you perceive as more natural?</p>","key_press":74,"test_part":"response","test_stimulus":{"position":0,"left":"bvh/return-bottle-training4-lines.txt","right":"bvh/vr_prediction_models/model(tmp)-dataset(return-bottle)-numprim(11)-hold(4)/final-lines.txt","att_check":false},"trial_type":"html-keyboard-response","trial_index":290,"time_elapsed":567886,"internal_node_id":"0.0-8.0-3.70","subject":"wkkzs0hppfva4ya","sona":"7624"},{"rt":229,"stimulus":"<p>Ready?</p>","key_press":32,"trial_type":"html-keyboard-response","trial_index":291,"time_elapsed":568118,"internal_node_id":"0.0-8.0-0.71","subject":"wkkzs0hppfva4ya","sona":"7624"},{"rt":null,"stimulus":"<div style=\"font-size:60px;\">+</div>","key_press":null,"trial_type":"html-keyboard-response","trial_index":292,"time_elapsed":570123,"internal_node_id":"0.0-8.0-1.71","subject":"wkkzs0hppfva4ya","sona":"7624"},{"trial_type":"turing-test","trial_index":293,"time_elapsed":576222,"internal_node_id":"0.0-8.0-2.71","subject":"wkkzs0hppfva4ya","sona":"7624"},{"rt":981,"stimulus":"<p>Which sequence did you perceive as more natural?</p>","key_press":74,"test_part":"response","test_stimulus":{"position":1,"left":"bvh/vr_prediction_models/model(dmp)-dataset(pass-bottle)-npsi(70)-hold(2)/final-lines.txt","right":"bvh/pass-bottle-training2-lines.txt","att_check":false},"trial_type":"html-keyboard-response","trial_index":294,"time_elapsed":577206,"internal_node_id":"0.0-8.0-3.71","subject":"wkkzs0hppfva4ya","sona":"7624"},{"rt":261,"stimulus":"<p>Ready?</p>","key_press":32,"trial_type":"html-keyboard-response","trial_index":295,"time_elapsed":577470,"internal_node_id":"0.0-8.0-0.72","subject":"wkkzs0hppfva4ya","sona":"7624"},{"rt":null,"stimulus":"<div style=\"font-size:60px;\">+</div>","key_press":null,"trial_type":"html-keyboard-response","trial_index":296,"time_elapsed":579473,"internal_node_id":"0.0-8.0-1.72","subject":"wkkzs0hppfva4ya","sona":"7624"},{"trial_type":"turing-test","trial_index":297,"time_elapsed":585478,"internal_node_id":"0.0-8.0-2.72","subject":"wkkzs0hppfva4ya","sona":"7624"},{"rt":373,"stimulus":"<p>Which sequence did you perceive as more natural?</p>","key_press":74,"test_part":"response","test_stimulus":{"position":1,"left":"bvh/vr_prediction_models/model(vcgpdm)-dataset(return-bottle)-mode(ELBO)-parts(1)-dyn(30)-lvm(30)-hold(4)/final-lines.txt","right":"bvh/return-bottle-training4-lines.txt","att_check":false},"trial_type":"html-keyboard-response","trial_index":298,"time_elapsed":585854,"internal_node_id":"0.0-8.0-3.72","subject":"wkkzs0hppfva4ya","sona":"7624"},{"rt":382,"stimulus":"<p>Ready?</p>","key_press":32,"trial_type":"html-keyboard-response","trial_index":299,"time_elapsed":586237,"internal_node_id":"0.0-8.0-0.73","subject":"wkkzs0hppfva4ya","sona":"7624"},{"rt":null,"stimulus":"<div style=\"font-size:60px;\">+</div>","key_press":null,"trial_type":"html-keyboard-response","trial_index":300,"time_elapsed":588248,"internal_node_id":"0.0-8.0-1.73","subject":"wkkzs0hppfva4ya","sona":"7624"},{"trial_type":"turing-test","trial_index":301,"time_elapsed":592234,"internal_node_id":"0.0-8.0-2.73","subject":"wkkzs0hppfva4ya","sona":"7624"},{"rt":291,"stimulus":"<p>Which sequence did you perceive as more natural?</p>","key_press":70,"test_part":"response","test_stimulus":{"position":0,"left":"bvh/return-bottle-hold-training3-lines.txt","right":"bvh/vr_prediction_models/model(vcgpdm)-dataset(return-bottle-hold)-mode(ELBO)-parts(3)-dyn(35)-lvm(20)-hold(3)/final-lines.txt","att_check":false},"trial_type":"html-keyboard-response","trial_index":302,"time_elapsed":592526,"internal_node_id":"0.0-8.0-3.73","subject":"wkkzs0hppfva4ya","sona":"7624"},{"rt":245,"stimulus":"<p>Ready?</p>","key_press":32,"trial_type":"html-keyboard-response","trial_index":303,"time_elapsed":592773,"internal_node_id":"0.0-8.0-0.74","subject":"wkkzs0hppfva4ya","sona":"7624"},{"rt":null,"stimulus":"<div style=\"font-size:60px;\">+</div>","key_press":null,"trial_type":"html-keyboard-response","trial_index":304,"time_elapsed":594782,"internal_node_id":"0.0-8.0-1.74","subject":"wkkzs0hppfva4ya","sona":"7624"},{"trial_type":"turing-test","trial_index":305,"time_elapsed":600395,"internal_node_id":"0.0-8.0-2.74","subject":"wkkzs0hppfva4ya","sona":"7624"},{"rt":353,"stimulus":"<p>Which sequence did you perceive as more natural?</p>","key_press":70,"test_part":"response","test_stimulus":{"position":0,"left":"bvh/return-bottle-training3-lines.txt","right":"bvh/vr_prediction_models/model(vcgpdm)-dataset(return-bottle)-mode(ELBO)-parts(1)-dyn(35)-lvm(30)-hold(3)/final-lines.txt","att_check":false},"trial_type":"html-keyboard-response","trial_index":306,"time_elapsed":600750,"internal_node_id":"0.0-8.0-3.74","subject":"wkkzs0hppfva4ya","sona":"7624"},{"rt":260,"stimulus":"<p>Ready?</p>","key_press":32,"trial_type":"html-keyboard-response","trial_index":307,"time_elapsed":601014,"internal_node_id":"0.0-8.0-0.75","subject":"wkkzs0hppfva4ya","sona":"7624"},{"rt":null,"stimulus":"<div style=\"font-size:60px;\">+</div>","key_press":null,"trial_type":"html-keyboard-response","trial_index":308,"time_elapsed":603018,"internal_node_id":"0.0-8.0-1.75","subject":"wkkzs0hppfva4ya","sona":"7624"},{"trial_type":"turing-test","trial_index":309,"time_elapsed":608950,"internal_node_id":"0.0-8.0-2.75","subject":"wkkzs0hppfva4ya","sona":"7624"},{"rt":334,"stimulus":"<p>Which sequence did you perceive as more natural?</p>","key_press":74,"test_part":"response","test_stimulus":{"position":1,"left":"bvh/vr_prediction_models/model(tmp)-dataset(return-bottle)-numprim(10)-hold(1)/final-lines.txt","right":"bvh/return-bottle-training1-lines.txt","att_check":false},"trial_type":"html-keyboard-response","trial_index":310,"time_elapsed":609286,"internal_node_id":"0.0-8.0-3.75","subject":"wkkzs0hppfva4ya","sona":"7624"},{"rt":278,"stimulus":"<p>Ready?</p>","key_press":32,"trial_type":"html-keyboard-response","trial_index":311,"time_elapsed":609566,"internal_node_id":"0.0-8.0-0.76","subject":"wkkzs0hppfva4ya","sona":"7624"},{"rt":null,"stimulus":"<div style=\"font-size:60px;\">+</div>","key_press":null,"trial_type":"html-keyboard-response","trial_index":312,"time_elapsed":611570,"internal_node_id":"0.0-8.0-1.76","subject":"wkkzs0hppfva4ya","sona":"7624"},{"trial_type":"turing-test","trial_index":313,"time_elapsed":617220,"internal_node_id":"0.0-8.0-2.76","subject":"wkkzs0hppfva4ya","sona":"7624"},{"rt":921,"stimulus":"<p>Which sequence did you perceive as more natural?</p>","key_press":74,"test_part":"response","test_stimulus":{"position":0,"left":"bvh/return-bottle-training0-lines.txt","right":"bvh/vr_prediction_models/model(vcgpdm)-dataset(return-bottle)-mode(ELBO)-parts(1)-dyn(10)-lvm(5)-hold(0)/final-lines.txt","att_check":false},"trial_type":"html-keyboard-response","trial_index":314,"time_elapsed":618143,"internal_node_id":"0.0-8.0-3.76","subject":"wkkzs0hppfva4ya","sona":"7624"},{"rt":917,"stimulus":"<p>Ready?</p>","key_press":32,"trial_type":"html-keyboard-response","trial_index":315,"time_elapsed":619063,"internal_node_id":"0.0-8.0-0.77","subject":"wkkzs0hppfva4ya","sona":"7624"},{"rt":null,"stimulus":"<div style=\"font-size:60px;\">+</div>","key_press":null,"trial_type":"html-keyboard-response","trial_index":316,"time_elapsed":621065,"internal_node_id":"0.0-8.0-1.77","subject":"wkkzs0hppfva4ya","sona":"7624"},{"trial_type":"turing-test","trial_index":317,"time_elapsed":624442,"internal_node_id":"0.0-8.0-2.77","subject":"wkkzs0hppfva4ya","sona":"7624"},{"rt":347,"stimulus":"<p>Which sequence did you perceive as more natural?</p>","key_press":74,"test_part":"response","test_stimulus":{"position":1,"left":"bvh/vr_prediction_models/model(tmp)-dataset(return-bottle-hold)-numprim(15)-hold(2)/final-lines.txt","right":"bvh/return-bottle-hold-training2-lines.txt","att_check":false},"trial_type":"html-keyboard-response","trial_index":318,"time_elapsed":624791,"internal_node_id":"0.0-8.0-3.77","subject":"wkkzs0hppfva4ya","sona":"7624"},{"rt":245,"stimulus":"<p>Ready?</p>","key_press":32,"trial_type":"html-keyboard-response","trial_index":319,"time_elapsed":625039,"internal_node_id":"0.0-8.0-0.78","subject":"wkkzs0hppfva4ya","sona":"7624"},{"rt":null,"stimulus":"<div style=\"font-size:60px;\">+</div>","key_press":null,"trial_type":"html-keyboard-response","trial_index":320,"time_elapsed":627044,"internal_node_id":"0.0-8.0-1.78","subject":"wkkzs0hppfva4ya","sona":"7624"},{"trial_type":"turing-test","trial_index":321,"time_elapsed":632981,"internal_node_id":"0.0-8.0-2.78","subject":"wkkzs0hppfva4ya","sona":"7624"},{"rt":89,"stimulus":"<p>Which sequence did you perceive as more natural?</p>","key_press":74,"test_part":"response","test_stimulus":{"position":1,"left":"bvh/vr_prediction_models/model(vcgpdm)-dataset(return-bottle)-mode(ELBO)-parts(1)-dyn(20)-lvm(20)-hold(1)/final-lines.txt","right":"bvh/return-bottle-training1-lines.txt","att_check":false},"trial_type":"html-keyboard-response","trial_index":322,"time_elapsed":633072,"internal_node_id":"0.0-8.0-3.78","subject":"wkkzs0hppfva4ya","sona":"7624"},{"rt":317,"stimulus":"<p>Ready?</p>","key_press":32,"trial_type":"html-keyboard-response","trial_index":323,"time_elapsed":633391,"internal_node_id":"0.0-8.0-0.79","subject":"wkkzs0hppfva4ya","sona":"7624"},{"rt":null,"stimulus":"<div style=\"font-size:60px;\">+</div>","key_press":null,"trial_type":"html-keyboard-response","trial_index":324,"time_elapsed":635394,"internal_node_id":"0.0-8.0-1.79","subject":"wkkzs0hppfva4ya","sona":"7624"},{"trial_type":"turing-test","trial_index":325,"time_elapsed":638835,"internal_node_id":"0.0-8.0-2.79","subject":"wkkzs0hppfva4ya","sona":"7624"},{"rt":258,"stimulus":"<p>Which sequence did you perceive as more natural?</p>","key_press":70,"test_part":"response","test_stimulus":{"position":0,"left":"bvh/return-bottle-hold-training2-lines.txt","right":"bvh/vr_prediction_models/model(tmp)-dataset(return-bottle-hold)-numprim(14)-hold(2)/final-lines.txt","att_check":false},"trial_type":"html-keyboard-response","trial_index":326,"time_elapsed":639096,"internal_node_id":"0.0-8.0-3.79","subject":"wkkzs0hppfva4ya","sona":"7624"},{"rt":5938,"responses":"{\"age\":\"20\",\"gender\":\"male\"}","trial_type":"survey-text","trial_index":327,"time_elapsed":645040,"internal_node_id":"0.0-9.0-0.0","subject":"wkkzs0hppfva4ya","sona":"7624"},{"rt":1803,"responses":"{\"area\":\"\",\"Q1\":\"\",\"Q2\":\"\"}","trial_type":"survey-text","trial_index":328,"time_elapsed":646865,"internal_node_id":"0.0-9.0-1.0","subject":"wkkzs0hppfva4ya","sona":"7624"}]