[{"rt":1859.144999878481,"stimulus":"<p>Welcome!<br> Please choose your language to start the experiment in the chosen language.</p><p>Willkommen!<br> Bitte wählen Sie eine Sprache, um das Experiment in der ausgewählten Sprache zu starten</p>","button_pressed":"1","trial_type":"html-button-response","trial_index":0,"time_elapsed":1886,"internal_node_id":"0.0-0.0","subject":"012lqxyach8pl1r","sona":"7474"},{"view_history":"[{\"page_index\":0,\"viewing_time\":5608.735000016168},{\"page_index\":1,\"viewing_time\":1763.7999998405576},{\"page_index\":0,\"viewing_time\":3458.1300001591444},{\"page_index\":1,\"viewing_time\":2375.0799999106675},{\"page_index\":2,\"viewing_time\":3502.6450001168996},{\"page_index\":3,\"viewing_time\":7654.489999869838},{\"page_index\":4,\"viewing_time\":3164.9700000416487}]","rt":27530.12999985367,"trial_type":"instructions","trial_index":1,"time_elapsed":29417,"internal_node_id":"0.0-1.0-0.0","subject":"012lqxyach8pl1r","sona":"7474"},{"rt":1168.3549999725074,"stimulus":"<p>Bereit?</p>","key_press":32,"trial_type":"html-keyboard-response","trial_index":2,"time_elapsed":30587,"internal_node_id":"0.0-3.0","subject":"012lqxyach8pl1r","sona":"7474"},{"rt":null,"stimulus":"<div style=\"font-size:60px;\">+</div>","key_press":null,"trial_type":"html-keyboard-response","trial_index":3,"time_elapsed":32606,"internal_node_id":"0.0-4.0","subject":"012lqxyach8pl1r","sona":"7474"},{"trial_type":"training","trial_index":4,"time_elapsed":35981,"internal_node_id":"0.0-5.0","subject":"012lqxyach8pl1r","sona":"7474"},{"rt":1144.8500000406057,"stimulus":"<p>Welche Sequenz haben Sie als natürlicher empfunden?</p>","key_press":70,"trial_type":"html-keyboard-response","trial_index":5,"time_elapsed":37128,"internal_node_id":"0.0-6.0","subject":"012lqxyach8pl1r","sona":"7474"},{"rt":2327.769999857992,"stimulus":"<p>Das Experiment startet nun.</p><p><small>Bitte drücken Sie den Knopf, wenn Sie bereit sind.</small></p>","button_pressed":"0","trial_type":"html-button-response","trial_index":6,"time_elapsed":39458,"internal_node_id":"0.0-7.0","subject":"012lqxyach8pl1r","sona":"7474"},{"rt":4084.894999861717,"stimulus":"<p>Bereit?</p>","key_press":32,"trial_type":"html-keyboard-response","trial_index":7,"time_elapsed":43545,"internal_node_id":"0.0-8.0-0.0","subject":"012lqxyach8pl1r","sona":"7474"},{"rt":null,"stimulus":"<div style=\"font-size:60px;\">+</div>","key_press":null,"trial_type":"html-keyboard-response","trial_index":8,"time_elapsed":45553,"internal_node_id":"0.0-8.0-1.0","subject":"012lqxyach8pl1r","sona":"7474"},{"trial_type":"turing-test","trial_index":9,"time_elapsed":52228,"internal_node_id":"0.0-8.0-2.0","subject":"012lqxyach8pl1r","sona":"7474"},{"rt":1404.294999781996,"stimulus":"<p>Welche Sequenz haben Sie als natürlicher empfunden?</p>","key_press":70,"test_part":"response","test_stimulus":{"position":1,"left":"bvh/vr_prediction_models/model(tmp)-dataset(return-bottle)-numprim(13)-hold(2)/final-lines.txt","right":"bvh/return-bottle-training2-lines.txt","att_check":false},"trial_type":"html-keyboard-response","trial_index":10,"time_elapsed":53639,"internal_node_id":"0.0-8.0-3.0","subject":"012lqxyach8pl1r","sona":"7474"},{"rt":2203.995000105351,"stimulus":"<p>Bereit?</p>","key_press":32,"trial_type":"html-keyboard-response","trial_index":11,"time_elapsed":55847,"internal_node_id":"0.0-8.0-0.1","subject":"012lqxyach8pl1r","sona":"7474"},{"rt":null,"stimulus":"<div style=\"font-size:60px;\">+</div>","key_press":null,"trial_type":"html-keyboard-response","trial_index":12,"time_elapsed":57858,"internal_node_id":"0.0-8.0-1.1","subject":"012lqxyach8pl1r","sona":"7474"},{"trial_type":"turing-test","trial_index":13,"time_elapsed":61515,"internal_node_id":"0.0-8.0-2.1","subject":"012lqxyach8pl1r","sona":"7474"},{"rt":1233.3349999971688,"stimulus":"<p>Welche Sequenz haben Sie als natürlicher empfunden?</p>","key_press":70,"test_part":"response","test_stimulus":{"position":0,"left":"bvh/pass-bottle-hold-training4-lines.txt","right":"bvh/vr_prediction_models/model(tmp)-dataset(pass-bottle-hold)-numprim(10)-hold(4)/final-lines.txt","att_check":false},"trial_type":"html-keyboard-response","trial_index":14,"time_elapsed":62754,"internal_node_id":"0.0-8.0-3.1","subject":"012lqxyach8pl1r","sona":"7474"},{"rt":657.9650000203401,"stimulus":"<p>Bereit?</p>","key_press":32,"trial_type":"html-keyboard-response","trial_index":15,"time_elapsed":63415,"internal_node_id":"0.0-8.0-0.2","subject":"012lqxyach8pl1r","sona":"7474"},{"rt":null,"stimulus":"<div style=\"font-size:60px;\">+</div>","key_press":null,"trial_type":"html-keyboard-response","trial_index":16,"time_elapsed":65429,"internal_node_id":"0.0-8.0-1.2","subject":"012lqxyach8pl1r","sona":"7474"},{"trial_type":"turing-test","trial_index":17,"time_elapsed":69169,"internal_node_id":"0.0-8.0-2.2","subject":"012lqxyach8pl1r","sona":"7474"},{"rt":2291.3100000005215,"stimulus":"<p>Welche Sequenz haben Sie als natürlicher empfunden?</p>","key_press":74,"test_part":"response","test_stimulus":{"position":1,"left":"bvh/vr_prediction_models/model(vcgpdm)-dataset(pass-bottle-hold)-mode(ELBO)-parts(3)-dyn(35)-lvm(20)-hold(4)/final-lines.txt","right":"bvh/pass-bottle-hold-training4-lines.txt","att_check":false},"trial_type":"html-keyboard-response","trial_index":18,"time_elapsed":71467,"internal_node_id":"0.0-8.0-3.2","subject":"012lqxyach8pl1r","sona":"7474"},{"rt":565.3099999763072,"stimulus":"<p>Bereit?</p>","key_press":32,"trial_type":"html-keyboard-response","trial_index":19,"time_elapsed":72034,"internal_node_id":"0.0-8.0-0.3","subject":"012lqxyach8pl1r","sona":"7474"},{"rt":null,"stimulus":"<div style=\"font-size:60px;\">+</div>","key_press":null,"trial_type":"html-keyboard-response","trial_index":20,"time_elapsed":74044,"internal_node_id":"0.0-8.0-1.3","subject":"012lqxyach8pl1r","sona":"7474"},{"trial_type":"turing-test","trial_index":21,"time_elapsed":77982,"internal_node_id":"0.0-8.0-2.3","subject":"012lqxyach8pl1r","sona":"7474"},{"rt":999.4099999312311,"stimulus":"<p>Welche Sequenz haben Sie als natürlicher empfunden?</p>","key_press":74,"test_part":"response","test_stimulus":{"position":0,"left":"bvh/return-bottle-hold-training4-lines.txt","right":"bvh/vr_prediction_models/model(vcgpdm)-dataset(return-bottle-hold)-mode(ELBO)-parts(3)-dyn(35)-lvm(20)-hold(4)/final-lines.txt","att_check":false},"trial_type":"html-keyboard-response","trial_index":22,"time_elapsed":78986,"internal_node_id":"0.0-8.0-3.3","subject":"012lqxyach8pl1r","sona":"7474"},{"rt":507.54000013694167,"stimulus":"<p>Bereit?</p>","key_press":32,"trial_type":"html-keyboard-response","trial_index":23,"time_elapsed":79496,"internal_node_id":"0.0-8.0-0.4","subject":"012lqxyach8pl1r","sona":"7474"},{"rt":null,"stimulus":"<div style=\"font-size:60px;\">+</div>","key_press":null,"trial_type":"html-keyboard-response","trial_index":24,"time_elapsed":81506,"internal_node_id":"0.0-8.0-1.4","subject":"012lqxyach8pl1r","sona":"7474"},{"trial_type":"turing-test","trial_index":25,"time_elapsed":85380,"internal_node_id":"0.0-8.0-2.4","subject":"012lqxyach8pl1r","sona":"7474"},{"rt":1718.7699999194592,"stimulus":"<p>Welche Sequenz haben Sie als natürlicher empfunden?</p>","key_press":70,"test_part":"response","test_stimulus":{"position":0,"left":"bvh/return-bottle-hold-training3-lines.txt","right":"bvh/vr_prediction_models/model(vcgpdm)-dataset(return-bottle-hold)-mode(ELBO)-parts(1)-dyn(30)-lvm(20)-hold(3)/final-lines.txt","att_check":false},"trial_type":"html-keyboard-response","trial_index":26,"time_elapsed":87105,"internal_node_id":"0.0-8.0-3.4","subject":"012lqxyach8pl1r","sona":"7474"},{"rt":507.22000002861023,"stimulus":"<p>Bereit?</p>","key_press":32,"trial_type":"html-keyboard-response","trial_index":27,"time_elapsed":87615,"internal_node_id":"0.0-8.0-0.5","subject":"012lqxyach8pl1r","sona":"7474"},{"rt":null,"stimulus":"<div style=\"font-size:60px;\">+</div>","key_press":null,"trial_type":"html-keyboard-response","trial_index":28,"time_elapsed":89630,"internal_node_id":"0.0-8.0-1.5","subject":"012lqxyach8pl1r","sona":"7474"},{"trial_type":"turing-test","trial_index":29,"time_elapsed":95786,"internal_node_id":"0.0-8.0-2.5","subject":"012lqxyach8pl1r","sona":"7474"},{"rt":1158.449999988079,"stimulus":"<p>Welche Sequenz haben Sie als natürlicher empfunden?</p>","key_press":70,"test_part":"response","test_stimulus":{"position":0,"left":"bvh/return-bottle-training1-lines.txt","right":"bvh/vr_prediction_models/model(dmp)-dataset(return-bottle)-npsi(90)-hold(1)/final-lines.txt","att_check":false},"trial_type":"html-keyboard-response","trial_index":30,"time_elapsed":96949,"internal_node_id":"0.0-8.0-3.5","subject":"012lqxyach8pl1r","sona":"7474"},{"rt":483.17499994300306,"stimulus":"<p>Bereit?</p>","key_press":32,"trial_type":"html-keyboard-response","trial_index":31,"time_elapsed":97436,"internal_node_id":"0.0-8.0-0.6","subject":"012lqxyach8pl1r","sona":"7474"},{"rt":null,"stimulus":"<div style=\"font-size:60px;\">+</div>","key_press":null,"trial_type":"html-keyboard-response","trial_index":32,"time_elapsed":99445,"internal_node_id":"0.0-8.0-1.6","subject":"012lqxyach8pl1r","sona":"7474"},{"trial_type":"turing-test","trial_index":33,"time_elapsed":106103,"internal_node_id":"0.0-8.0-2.6","subject":"012lqxyach8pl1r","sona":"7474"},{"rt":1457.0499998517334,"stimulus":"<p>Welche Sequenz haben Sie als natürlicher empfunden?</p>","key_press":74,"test_part":"response","test_stimulus":{"position":0,"left":"bvh/return-bottle-training2-lines.txt","right":"bvh/vr_prediction_models/model(tmp)-dataset(return-bottle)-numprim(12)-hold(2)/final-lines.txt","att_check":false},"trial_type":"html-keyboard-response","trial_index":34,"time_elapsed":107567,"internal_node_id":"0.0-8.0-3.6","subject":"012lqxyach8pl1r","sona":"7474"},{"rt":2246.4250000193715,"stimulus":"<p>Bereit?</p>","key_press":32,"trial_type":"html-keyboard-response","trial_index":35,"time_elapsed":109816,"internal_node_id":"0.0-8.0-0.7","subject":"012lqxyach8pl1r","sona":"7474"},{"rt":null,"stimulus":"<div style=\"font-size:60px;\">+</div>","key_press":null,"trial_type":"html-keyboard-response","trial_index":36,"time_elapsed":111821,"internal_node_id":"0.0-8.0-1.7","subject":"012lqxyach8pl1r","sona":"7474"},{"trial_type":"turing-test","trial_index":37,"time_elapsed":115438,"internal_node_id":"0.0-8.0-2.7","subject":"012lqxyach8pl1r","sona":"7474"},{"rt":923.3099999837577,"stimulus":"<p>Welche Sequenz haben Sie als natürlicher empfunden?</p>","key_press":74,"test_part":"response","test_stimulus":{"position":1,"left":"bvh/vr_prediction_models/model(vcgpdm)-dataset(return-bottle-hold)-mode(ELBO)-parts(1)-dyn(30)-lvm(30)-hold(1)/final-lines.txt","right":"bvh/return-bottle-hold-training1-lines.txt","att_check":false},"trial_type":"html-keyboard-response","trial_index":38,"time_elapsed":116367,"internal_node_id":"0.0-8.0-3.7","subject":"012lqxyach8pl1r","sona":"7474"},{"rt":3009.5549998804927,"stimulus":"<p>Bereit?</p>","key_press":32,"trial_type":"html-keyboard-response","trial_index":39,"time_elapsed":119378,"internal_node_id":"0.0-8.0-0.8","subject":"012lqxyach8pl1r","sona":"7474"},{"rt":null,"stimulus":"<div style=\"font-size:60px;\">+</div>","key_press":null,"trial_type":"html-keyboard-response","trial_index":40,"time_elapsed":121387,"internal_node_id":"0.0-8.0-1.8","subject":"012lqxyach8pl1r","sona":"7474"},{"trial_type":"turing-test","trial_index":41,"time_elapsed":126606,"internal_node_id":"0.0-8.0-2.8","subject":"012lqxyach8pl1r","sona":"7474"},{"rt":1375.4499999340624,"stimulus":"<p>Welche Sequenz haben Sie als natürlicher empfunden?</p>","key_press":74,"test_part":"response","test_stimulus":{"position":1,"left":"bvh/vr_prediction_models/model(dmp)-dataset(return-bottle-hold)-npsi(90)-hold(0)/final-lines.txt","right":"bvh/return-bottle-hold-training0-lines.txt","att_check":false},"trial_type":"html-keyboard-response","trial_index":42,"time_elapsed":127986,"internal_node_id":"0.0-8.0-3.8","subject":"012lqxyach8pl1r","sona":"7474"},{"rt":525.6650000810623,"stimulus":"<p>Bereit?</p>","key_press":32,"trial_type":"html-keyboard-response","trial_index":43,"time_elapsed":128516,"internal_node_id":"0.0-8.0-0.9","subject":"012lqxyach8pl1r","sona":"7474"},{"rt":null,"stimulus":"<div style=\"font-size:60px;\">+</div>","key_press":null,"trial_type":"html-keyboard-response","trial_index":44,"time_elapsed":130528,"internal_node_id":"0.0-8.0-1.9","subject":"012lqxyach8pl1r","sona":"7474"},{"trial_type":"turing-test","trial_index":45,"time_elapsed":134366,"internal_node_id":"0.0-8.0-2.9","subject":"012lqxyach8pl1r","sona":"7474"},{"rt":976.6949999611825,"stimulus":"<p>Welche Sequenz haben Sie als natürlicher empfunden?</p>","key_press":74,"test_part":"response","test_stimulus":{"position":0,"left":"bvh/return-bottle-hold-training4-lines.txt","right":"bvh/vr_prediction_models/model(tmp)-dataset(return-bottle-hold)-numprim(10)-hold(4)/final-lines.txt","att_check":false},"trial_type":"html-keyboard-response","trial_index":46,"time_elapsed":135349,"internal_node_id":"0.0-8.0-3.9","subject":"012lqxyach8pl1r","sona":"7474"},{"rt":340.9949999768287,"stimulus":"<p>Bereit?</p>","key_press":32,"trial_type":"html-keyboard-response","trial_index":47,"time_elapsed":135694,"internal_node_id":"0.0-8.0-0.10","subject":"012lqxyach8pl1r","sona":"7474"},{"rt":null,"stimulus":"<div style=\"font-size:60px;\">+</div>","key_press":null,"trial_type":"html-keyboard-response","trial_index":48,"time_elapsed":137708,"internal_node_id":"0.0-8.0-1.10","subject":"012lqxyach8pl1r","sona":"7474"},{"trial_type":"turing-test","trial_index":49,"time_elapsed":141043,"internal_node_id":"0.0-8.0-2.10","subject":"012lqxyach8pl1r","sona":"7474"},{"rt":997.2300000954419,"stimulus":"<p>Welche Sequenz haben Sie als natürlicher empfunden?</p>","key_press":70,"test_part":"response","test_stimulus":{"position":0,"left":"bvh/pass-bottle-hold-training1-lines.txt","right":"bvh/vr_prediction_models/model(dmp)-dataset(pass-bottle-hold)-npsi(70)-hold(1)/final-lines.txt","att_check":false},"trial_type":"html-keyboard-response","trial_index":50,"time_elapsed":142047,"internal_node_id":"0.0-8.0-3.10","subject":"012lqxyach8pl1r","sona":"7474"},{"rt":274.5699998922646,"stimulus":"<p>Bereit?</p>","key_press":32,"trial_type":"html-keyboard-response","trial_index":51,"time_elapsed":142327,"internal_node_id":"0.0-8.0-0.11","subject":"012lqxyach8pl1r","sona":"7474"},{"rt":null,"stimulus":"<div style=\"font-size:60px;\">+</div>","key_press":null,"trial_type":"html-keyboard-response","trial_index":52,"time_elapsed":144339,"internal_node_id":"0.0-8.0-1.11","subject":"012lqxyach8pl1r","sona":"7474"},{"trial_type":"turing-test","trial_index":53,"time_elapsed":151125,"internal_node_id":"0.0-8.0-2.11","subject":"012lqxyach8pl1r","sona":"7474"},{"rt":1288.4299999568611,"stimulus":"<p>Welche Sequenz haben Sie als natürlicher empfunden?</p>","key_press":74,"test_part":"response","test_stimulus":{"position":0,"left":"bvh/return-bottle-training2-lines.txt","right":"bvh/vr_prediction_models/model(vcgpdm)-dataset(return-bottle)-mode(ELBO)-parts(1)-dyn(30)-lvm(30)-hold(2)/final-lines.txt","att_check":false},"trial_type":"html-keyboard-response","trial_index":54,"time_elapsed":152419,"internal_node_id":"0.0-8.0-3.11","subject":"012lqxyach8pl1r","sona":"7474"},{"rt":496.8900000676513,"stimulus":"<p>Bereit?</p>","key_press":32,"trial_type":"html-keyboard-response","trial_index":55,"time_elapsed":152917,"internal_node_id":"0.0-8.0-0.12","subject":"012lqxyach8pl1r","sona":"7474"},{"rt":null,"stimulus":"<div style=\"font-size:60px;\">+</div>","key_press":null,"trial_type":"html-keyboard-response","trial_index":56,"time_elapsed":154934,"internal_node_id":"0.0-8.0-1.12","subject":"012lqxyach8pl1r","sona":"7474"},{"trial_type":"turing-test","trial_index":57,"time_elapsed":158529,"internal_node_id":"0.0-8.0-2.12","subject":"012lqxyach8pl1r","sona":"7474"},{"rt":1571.250000037253,"stimulus":"<p>Welche Sequenz haben Sie als natürlicher empfunden?</p>","key_press":70,"test_part":"response","test_stimulus":{"position":0,"left":"bvh/pass-bottle-hold-training0-lines.txt","right":"bvh/vr_prediction_models/model(vcgpdm)-dataset(pass-bottle-hold)-mode(ELBO)-parts(1)-dyn(20)-lvm(5)-hold(0)/final-lines.txt","att_check":false},"trial_type":"html-keyboard-response","trial_index":58,"time_elapsed":160107,"internal_node_id":"0.0-8.0-3.12","subject":"012lqxyach8pl1r","sona":"7474"},{"rt":528.1800001394004,"stimulus":"<p>Bereit?</p>","key_press":32,"trial_type":"html-keyboard-response","trial_index":59,"time_elapsed":160637,"internal_node_id":"0.0-8.0-0.13","subject":"012lqxyach8pl1r","sona":"7474"},{"rt":null,"stimulus":"<div style=\"font-size:60px;\">+</div>","key_press":null,"trial_type":"html-keyboard-response","trial_index":60,"time_elapsed":162647,"internal_node_id":"0.0-8.0-1.13","subject":"012lqxyach8pl1r","sona":"7474"},{"trial_type":"turing-test","trial_index":61,"time_elapsed":168535,"internal_node_id":"0.0-8.0-2.13","subject":"012lqxyach8pl1r","sona":"7474"},{"rt":1120.3799999784678,"stimulus":"<p>Welche Sequenz haben Sie als natürlicher empfunden?</p>","key_press":74,"test_part":"response","test_stimulus":{"position":0,"left":"bvh/pass-bottle-training4-lines.txt","right":"bvh/vr_prediction_models/model(tmp)-dataset(pass-bottle)-numprim(11)-hold(4)/final-lines.txt","att_check":false},"trial_type":"html-keyboard-response","trial_index":62,"time_elapsed":169660,"internal_node_id":"0.0-8.0-3.13","subject":"012lqxyach8pl1r","sona":"7474"},{"rt":1576.2450001202524,"stimulus":"<p>Bereit?</p>","key_press":32,"trial_type":"html-keyboard-response","trial_index":63,"time_elapsed":171238,"internal_node_id":"0.0-8.0-0.14","subject":"012lqxyach8pl1r","sona":"7474"},{"rt":null,"stimulus":"<div style=\"font-size:60px;\">+</div>","key_press":null,"trial_type":"html-keyboard-response","trial_index":64,"time_elapsed":173251,"internal_node_id":"0.0-8.0-1.14","subject":"012lqxyach8pl1r","sona":"7474"},{"trial_type":"turing-test","trial_index":65,"time_elapsed":179607,"internal_node_id":"0.0-8.0-2.14","subject":"012lqxyach8pl1r","sona":"7474"},{"rt":1399.5099999010563,"stimulus":"<p>Welche Sequenz haben Sie als natürlicher empfunden?</p>","key_press":70,"test_part":"response","test_stimulus":{"position":0,"left":"bvh/pass-bottle-training4-lines.txt","right":"bvh/vr_prediction_models/model(vcgpdm)-dataset(pass-bottle)-mode(ELBO)-parts(1)-dyn(15)-lvm(35)-hold(4)/final-lines.txt","att_check":false},"trial_type":"html-keyboard-response","trial_index":66,"time_elapsed":181013,"internal_node_id":"0.0-8.0-3.14","subject":"012lqxyach8pl1r","sona":"7474"},{"rt":505.5350000038743,"stimulus":"<p>Bereit?</p>","key_press":32,"trial_type":"html-keyboard-response","trial_index":67,"time_elapsed":181523,"internal_node_id":"0.0-8.0-0.15","subject":"012lqxyach8pl1r","sona":"7474"},{"rt":null,"stimulus":"<div style=\"font-size:60px;\">+</div>","key_press":null,"trial_type":"html-keyboard-response","trial_index":68,"time_elapsed":183538,"internal_node_id":"0.0-8.0-1.15","subject":"012lqxyach8pl1r","sona":"7474"},{"trial_type":"turing-test","trial_index":69,"time_elapsed":187918,"internal_node_id":"0.0-8.0-2.15","subject":"012lqxyach8pl1r","sona":"7474"},{"rt":504.71000000834465,"stimulus":"<p>Welche Sequenz haben Sie als natürlicher empfunden?</p>","key_press":74,"test_part":"response","test_stimulus":{"position":1,"left":"bvh/vr_prediction_models/model(vcgpdm)-dataset(return-bottle-hold)-mode(ELBO)-parts(3)-dyn(20)-lvm(15)-hold(2)/final-lines.txt","right":"bvh/return-bottle-hold-training2-lines.txt","att_check":false},"trial_type":"html-keyboard-response","trial_index":70,"time_elapsed":188434,"internal_node_id":"0.0-8.0-3.15","subject":"012lqxyach8pl1r","sona":"7474"},{"rt":574.3399998173118,"stimulus":"<p>Bereit?</p>","key_press":32,"trial_type":"html-keyboard-response","trial_index":71,"time_elapsed":189013,"internal_node_id":"0.0-8.0-0.16","subject":"012lqxyach8pl1r","sona":"7474"},{"rt":null,"stimulus":"<div style=\"font-size:60px;\">+</div>","key_press":null,"trial_type":"html-keyboard-response","trial_index":72,"time_elapsed":191024,"internal_node_id":"0.0-8.0-1.16","subject":"012lqxyach8pl1r","sona":"7474"},{"trial_type":"turing-test","trial_index":73,"time_elapsed":197968,"internal_node_id":"0.0-8.0-2.16","subject":"012lqxyach8pl1r","sona":"7474"},{"rt":1230.405000038445,"stimulus":"<p>Welche Sequenz haben Sie als natürlicher empfunden?</p>","key_press":70,"test_part":"response","test_stimulus":{"position":1,"left":"bvh/vr_prediction_models/model(vcgpdm)-dataset(return-bottle)-mode(MAP)-parts(3)-hold(3)/final-lines.txt","right":"bvh/return-bottle-training3-lines.txt","att_check":false},"trial_type":"html-keyboard-response","trial_index":74,"time_elapsed":199203,"internal_node_id":"0.0-8.0-3.16","subject":"012lqxyach8pl1r","sona":"7474"},{"rt":288.2849997840822,"stimulus":"<p>Bereit?</p>","key_press":32,"trial_type":"html-keyboard-response","trial_index":75,"time_elapsed":199494,"internal_node_id":"0.0-8.0-0.17","subject":"012lqxyach8pl1r","sona":"7474"},{"rt":null,"stimulus":"<div style=\"font-size:60px;\">+</div>","key_press":null,"trial_type":"html-keyboard-response","trial_index":76,"time_elapsed":201499,"internal_node_id":"0.0-8.0-1.17","subject":"012lqxyach8pl1r","sona":"7474"},{"trial_type":"turing-test","trial_index":77,"time_elapsed":208620,"internal_node_id":"0.0-8.0-2.17","subject":"012lqxyach8pl1r","sona":"7474"},{"rt":791.8200001586229,"stimulus":"<p>Welche Sequenz haben Sie als natürlicher empfunden?</p>","key_press":70,"test_part":"response","test_stimulus":{"position":0,"left":"bvh/pass-bottle-training0-lines.txt","right":"bvh/vr_prediction_models/model(dmp)-dataset(pass-bottle)-npsi(60)-hold(0)/final-lines.txt","att_check":true},"trial_type":"html-keyboard-response","trial_index":78,"time_elapsed":209417,"internal_node_id":"0.0-8.0-3.17","subject":"012lqxyach8pl1r","sona":"7474"},{"rt":322.8150000795722,"stimulus":"<p>Bereit?</p>","key_press":32,"trial_type":"html-keyboard-response","trial_index":79,"time_elapsed":209744,"internal_node_id":"0.0-8.0-0.18","subject":"012lqxyach8pl1r","sona":"7474"},{"rt":null,"stimulus":"<div style=\"font-size:60px;\">+</div>","key_press":null,"trial_type":"html-keyboard-response","trial_index":80,"time_elapsed":211755,"internal_node_id":"0.0-8.0-1.18","subject":"012lqxyach8pl1r","sona":"7474"},{"trial_type":"turing-test","trial_index":81,"time_elapsed":215105,"internal_node_id":"0.0-8.0-2.18","subject":"012lqxyach8pl1r","sona":"7474"},{"rt":1035.4199998546392,"stimulus":"<p>Welche Sequenz haben Sie als natürlicher empfunden?</p>","key_press":70,"test_part":"response","test_stimulus":{"position":0,"left":"bvh/pass-bottle-hold-training1-lines.txt","right":"bvh/vr_prediction_models/model(dmp)-dataset(pass-bottle-hold)-npsi(90)-hold(1)/final-lines.txt","att_check":false},"trial_type":"html-keyboard-response","trial_index":82,"time_elapsed":216145,"internal_node_id":"0.0-8.0-3.18","subject":"012lqxyach8pl1r","sona":"7474"},{"rt":294.90000009536743,"stimulus":"<p>Bereit?</p>","key_press":32,"trial_type":"html-keyboard-response","trial_index":83,"time_elapsed":216445,"internal_node_id":"0.0-8.0-0.19","subject":"012lqxyach8pl1r","sona":"7474"},{"rt":null,"stimulus":"<div style=\"font-size:60px;\">+</div>","key_press":null,"trial_type":"html-keyboard-response","trial_index":84,"time_elapsed":218462,"internal_node_id":"0.0-8.0-1.19","subject":"012lqxyach8pl1r","sona":"7474"},{"trial_type":"turing-test","trial_index":85,"time_elapsed":224578,"internal_node_id":"0.0-8.0-2.19","subject":"012lqxyach8pl1r","sona":"7474"},{"rt":934.3400001525879,"stimulus":"<p>Welche Sequenz haben Sie als natürlicher empfunden?</p>","key_press":70,"test_part":"response","test_stimulus":{"position":0,"left":"bvh/pass-bottle-training4-lines.txt","right":"bvh/vr_prediction_models/model(tmp)-dataset(pass-bottle)-numprim(10)-hold(4)/final-lines.txt","att_check":false},"trial_type":"html-keyboard-response","trial_index":86,"time_elapsed":225518,"internal_node_id":"0.0-8.0-3.19","subject":"012lqxyach8pl1r","sona":"7474"},{"rt":531.6699999384582,"stimulus":"<p>Bereit?</p>","key_press":32,"trial_type":"html-keyboard-response","trial_index":87,"time_elapsed":226053,"internal_node_id":"0.0-8.0-0.20","subject":"012lqxyach8pl1r","sona":"7474"},{"rt":null,"stimulus":"<div style=\"font-size:60px;\">+</div>","key_press":null,"trial_type":"html-keyboard-response","trial_index":88,"time_elapsed":228061,"internal_node_id":"0.0-8.0-1.20","subject":"012lqxyach8pl1r","sona":"7474"},{"trial_type":"turing-test","trial_index":89,"time_elapsed":231556,"internal_node_id":"0.0-8.0-2.20","subject":"012lqxyach8pl1r","sona":"7474"},{"rt":1135.2250000927597,"stimulus":"<p>Welche Sequenz haben Sie als natürlicher empfunden?</p>","key_press":74,"test_part":"response","test_stimulus":{"position":0,"left":"bvh/return-bottle-hold-training2-lines.txt","right":"bvh/vr_prediction_models/model(tmp)-dataset(return-bottle-hold)-numprim(3)-hold(2)/final-lines.txt","att_check":false},"trial_type":"html-keyboard-response","trial_index":90,"time_elapsed":232696,"internal_node_id":"0.0-8.0-3.20","subject":"012lqxyach8pl1r","sona":"7474"},{"rt":233.4100001025945,"stimulus":"<p>Bereit?</p>","key_press":32,"trial_type":"html-keyboard-response","trial_index":91,"time_elapsed":232936,"internal_node_id":"0.0-8.0-0.21","subject":"012lqxyach8pl1r","sona":"7474"},{"rt":null,"stimulus":"<div style=\"font-size:60px;\">+</div>","key_press":null,"trial_type":"html-keyboard-response","trial_index":92,"time_elapsed":234938,"internal_node_id":"0.0-8.0-1.21","subject":"012lqxyach8pl1r","sona":"7474"},{"trial_type":"turing-test","trial_index":93,"time_elapsed":241268,"internal_node_id":"0.0-8.0-2.21","subject":"012lqxyach8pl1r","sona":"7474"},{"rt":1167.7200000267476,"stimulus":"<p>Welche Sequenz haben Sie als natürlicher empfunden?</p>","key_press":74,"test_part":"response","test_stimulus":{"position":1,"left":"bvh/vr_prediction_models/model(dmp)-dataset(pass-bottle)-npsi(80)-hold(2)/final-lines.txt","right":"bvh/pass-bottle-training2-lines.txt","att_check":false},"trial_type":"html-keyboard-response","trial_index":94,"time_elapsed":242444,"internal_node_id":"0.0-8.0-3.21","subject":"012lqxyach8pl1r","sona":"7474"},{"rt":335.1249999832362,"stimulus":"<p>Bereit?</p>","key_press":32,"trial_type":"html-keyboard-response","trial_index":95,"time_elapsed":242781,"internal_node_id":"0.0-8.0-0.22","subject":"012lqxyach8pl1r","sona":"7474"},{"rt":null,"stimulus":"<div style=\"font-size:60px;\">+</div>","key_press":null,"trial_type":"html-keyboard-response","trial_index":96,"time_elapsed":244796,"internal_node_id":"0.0-8.0-1.22","subject":"012lqxyach8pl1r","sona":"7474"},{"trial_type":"turing-test","trial_index":97,"time_elapsed":248152,"internal_node_id":"0.0-8.0-2.22","subject":"012lqxyach8pl1r","sona":"7474"},{"rt":991.6250000242144,"stimulus":"<p>Welche Sequenz haben Sie als natürlicher empfunden?</p>","key_press":74,"test_part":"response","test_stimulus":{"position":0,"left":"bvh/pass-bottle-hold-training1-lines.txt","right":"bvh/vr_prediction_models/model(dmp)-dataset(pass-bottle-hold)-npsi(10)-hold(1)/final-lines.txt","att_check":false},"trial_type":"html-keyboard-response","trial_index":98,"time_elapsed":249151,"internal_node_id":"0.0-8.0-3.22","subject":"012lqxyach8pl1r","sona":"7474"},{"rt":786.4999999292195,"stimulus":"<p>Bereit?</p>","key_press":32,"trial_type":"html-keyboard-response","trial_index":99,"time_elapsed":249942,"internal_node_id":"0.0-8.0-0.23","subject":"012lqxyach8pl1r","sona":"7474"},{"rt":null,"stimulus":"<div style=\"font-size:60px;\">+</div>","key_press":null,"trial_type":"html-keyboard-response","trial_index":100,"time_elapsed":251949,"internal_node_id":"0.0-8.0-1.23","subject":"012lqxyach8pl1r","sona":"7474"},{"trial_type":"turing-test","trial_index":101,"time_elapsed":255978,"internal_node_id":"0.0-8.0-2.23","subject":"012lqxyach8pl1r","sona":"7474"},{"rt":849.4049999862909,"stimulus":"<p>Welche Sequenz haben Sie als natürlicher empfunden?</p>","key_press":74,"test_part":"response","test_stimulus":{"position":0,"left":"bvh/pass-bottle-hold-training0-lines.txt","right":"bvh/vr_prediction_models/model(vcgpdm)-dataset(pass-bottle-hold)-mode(ELBO)-parts(1)-dyn(10)-lvm(5)-hold(0)/final-lines.txt","att_check":false},"trial_type":"html-keyboard-response","trial_index":102,"time_elapsed":256834,"internal_node_id":"0.0-8.0-3.23","subject":"012lqxyach8pl1r","sona":"7474"},{"rt":555.835000006482,"stimulus":"<p>Bereit?</p>","key_press":32,"trial_type":"html-keyboard-response","trial_index":103,"time_elapsed":257392,"internal_node_id":"0.0-8.0-0.24","subject":"012lqxyach8pl1r","sona":"7474"},{"rt":null,"stimulus":"<div style=\"font-size:60px;\">+</div>","key_press":null,"trial_type":"html-keyboard-response","trial_index":104,"time_elapsed":259399,"internal_node_id":"0.0-8.0-1.24","subject":"012lqxyach8pl1r","sona":"7474"},{"trial_type":"turing-test","trial_index":105,"time_elapsed":264854,"internal_node_id":"0.0-8.0-2.24","subject":"012lqxyach8pl1r","sona":"7474"},{"rt":1003.169999923557,"stimulus":"<p>Welche Sequenz haben Sie als natürlicher empfunden?</p>","key_press":70,"test_part":"response","test_stimulus":{"position":0,"left":"bvh/return-bottle-training0-lines.txt","right":"bvh/vr_prediction_models/model(dmp)-dataset(return-bottle)-npsi(20)-hold(0)/final-lines.txt","att_check":false},"trial_type":"html-keyboard-response","trial_index":106,"time_elapsed":265863,"internal_node_id":"0.0-8.0-3.24","subject":"012lqxyach8pl1r","sona":"7474"},{"rt":3292.875000042841,"stimulus":"<p>Bereit?</p>","key_press":32,"trial_type":"html-keyboard-response","trial_index":107,"time_elapsed":269164,"internal_node_id":"0.0-8.0-0.25","subject":"012lqxyach8pl1r","sona":"7474"},{"rt":null,"stimulus":"<div style=\"font-size:60px;\">+</div>","key_press":null,"trial_type":"html-keyboard-response","trial_index":108,"time_elapsed":271174,"internal_node_id":"0.0-8.0-1.25","subject":"012lqxyach8pl1r","sona":"7474"},{"trial_type":"turing-test","trial_index":109,"time_elapsed":276768,"internal_node_id":"0.0-8.0-2.25","subject":"012lqxyach8pl1r","sona":"7474"},{"rt":1049.265000037849,"stimulus":"<p>Welche Sequenz haben Sie als natürlicher empfunden?</p>","key_press":70,"test_part":"response","test_stimulus":{"position":0,"left":"bvh/pass-bottle-training1-lines.txt","right":"bvh/vr_prediction_models/model(dmp)-dataset(pass-bottle)-npsi(70)-hold(1)/final-lines.txt","att_check":false},"trial_type":"html-keyboard-response","trial_index":110,"time_elapsed":277824,"internal_node_id":"0.0-8.0-3.25","subject":"012lqxyach8pl1r","sona":"7474"},{"rt":404.68999999575317,"stimulus":"<p>Bereit?</p>","key_press":32,"trial_type":"html-keyboard-response","trial_index":111,"time_elapsed":278233,"internal_node_id":"0.0-8.0-0.26","subject":"012lqxyach8pl1r","sona":"7474"},{"rt":null,"stimulus":"<div style=\"font-size:60px;\">+</div>","key_press":null,"trial_type":"html-keyboard-response","trial_index":112,"time_elapsed":280243,"internal_node_id":"0.0-8.0-1.26","subject":"012lqxyach8pl1r","sona":"7474"},{"trial_type":"turing-test","trial_index":113,"time_elapsed":287283,"internal_node_id":"0.0-8.0-2.26","subject":"012lqxyach8pl1r","sona":"7474"},{"rt":963.3550001308322,"stimulus":"<p>Welche Sequenz haben Sie als natürlicher empfunden?</p>","key_press":74,"test_part":"response","test_stimulus":{"position":1,"left":"bvh/vr_prediction_models/model(vcgpdm)-dataset(return-bottle-hold)-mode(ELBO)-parts(1)-dyn(10)-lvm(5)-hold(0)/final-lines.txt","right":"bvh/return-bottle-hold-training0-lines.txt","att_check":false},"trial_type":"html-keyboard-response","trial_index":114,"time_elapsed":288253,"internal_node_id":"0.0-8.0-3.26","subject":"012lqxyach8pl1r","sona":"7474"},{"rt":274.7599999420345,"stimulus":"<p>Bereit?</p>","key_press":32,"trial_type":"html-keyboard-response","trial_index":115,"time_elapsed":288532,"internal_node_id":"0.0-8.0-0.27","subject":"012lqxyach8pl1r","sona":"7474"},{"rt":null,"stimulus":"<div style=\"font-size:60px;\">+</div>","key_press":null,"trial_type":"html-keyboard-response","trial_index":116,"time_elapsed":290550,"internal_node_id":"0.0-8.0-1.27","subject":"012lqxyach8pl1r","sona":"7474"},{"trial_type":"turing-test","trial_index":117,"time_elapsed":294537,"internal_node_id":"0.0-8.0-2.27","subject":"012lqxyach8pl1r","sona":"7474"},{"rt":731.9699998479337,"stimulus":"<p>Welche Sequenz haben Sie als natürlicher empfunden?</p>","key_press":74,"test_part":"response","test_stimulus":{"position":1,"left":"bvh/vr_prediction_models/model(vcgpdm)-dataset(return-bottle-hold)-mode(ELBO)-parts(3)-dyn(20)-lvm(35)-hold(2)/final-lines.txt","right":"bvh/return-bottle-hold-training2-lines.txt","att_check":false},"trial_type":"html-keyboard-response","trial_index":118,"time_elapsed":295274,"internal_node_id":"0.0-8.0-3.27","subject":"012lqxyach8pl1r","sona":"7474"},{"rt":274.53000005334616,"stimulus":"<p>Bereit?</p>","key_press":32,"trial_type":"html-keyboard-response","trial_index":119,"time_elapsed":295553,"internal_node_id":"0.0-8.0-0.28","subject":"012lqxyach8pl1r","sona":"7474"},{"rt":null,"stimulus":"<div style=\"font-size:60px;\">+</div>","key_press":null,"trial_type":"html-keyboard-response","trial_index":120,"time_elapsed":297562,"internal_node_id":"0.0-8.0-1.28","subject":"012lqxyach8pl1r","sona":"7474"},{"trial_type":"turing-test","trial_index":121,"time_elapsed":303590,"internal_node_id":"0.0-8.0-2.28","subject":"012lqxyach8pl1r","sona":"7474"},{"rt":2679.810000117868,"stimulus":"<p>Welche Sequenz haben Sie als natürlicher empfunden?</p>","key_press":74,"test_part":"response","test_stimulus":{"position":1,"left":"bvh/vr_prediction_models/model(dmp)-dataset(return-bottle)-npsi(60)-hold(4)/final-lines.txt","right":"bvh/return-bottle-training4-lines.txt","att_check":false},"trial_type":"html-keyboard-response","trial_index":122,"time_elapsed":306276,"internal_node_id":"0.0-8.0-3.28","subject":"012lqxyach8pl1r","sona":"7474"},{"rt":755.5350000038743,"stimulus":"<p>Bereit?</p>","key_press":32,"trial_type":"html-keyboard-response","trial_index":123,"time_elapsed":307036,"internal_node_id":"0.0-8.0-0.29","subject":"012lqxyach8pl1r","sona":"7474"},{"rt":null,"stimulus":"<div style=\"font-size:60px;\">+</div>","key_press":null,"trial_type":"html-keyboard-response","trial_index":124,"time_elapsed":309048,"internal_node_id":"0.0-8.0-1.29","subject":"012lqxyach8pl1r","sona":"7474"},{"trial_type":"turing-test","trial_index":125,"time_elapsed":315066,"internal_node_id":"0.0-8.0-2.29","subject":"012lqxyach8pl1r","sona":"7474"},{"rt":1826.850000070408,"stimulus":"<p>Welche Sequenz haben Sie als natürlicher empfunden?</p>","key_press":70,"test_part":"response","test_stimulus":{"position":0,"left":"bvh/return-bottle-training4-lines.txt","right":"bvh/vr_prediction_models/model(tmp)-dataset(return-bottle)-numprim(6)-hold(4)/final-lines.txt","att_check":false},"trial_type":"html-keyboard-response","trial_index":126,"time_elapsed":316899,"internal_node_id":"0.0-8.0-3.29","subject":"012lqxyach8pl1r","sona":"7474"},{"rt":5815.679999999702,"stimulus":"<p>Bereit?</p>","key_press":32,"trial_type":"html-keyboard-response","trial_index":127,"time_elapsed":322718,"internal_node_id":"0.0-8.0-0.30","subject":"012lqxyach8pl1r","sona":"7474"},{"rt":null,"stimulus":"<div style=\"font-size:60px;\">+</div>","key_press":null,"trial_type":"html-keyboard-response","trial_index":128,"time_elapsed":324735,"internal_node_id":"0.0-8.0-1.30","subject":"012lqxyach8pl1r","sona":"7474"},{"trial_type":"turing-test","trial_index":129,"time_elapsed":330515,"internal_node_id":"0.0-8.0-2.30","subject":"012lqxyach8pl1r","sona":"7474"},{"rt":1031.4050000160933,"stimulus":"<p>Welche Sequenz haben Sie als natürlicher empfunden?</p>","key_press":70,"test_part":"response","test_stimulus":{"position":0,"left":"bvh/pass-bottle-training4-lines.txt","right":"bvh/vr_prediction_models/model(dmp)-dataset(pass-bottle)-npsi(20)-hold(4)/final-lines.txt","att_check":false},"trial_type":"html-keyboard-response","trial_index":130,"time_elapsed":331549,"internal_node_id":"0.0-8.0-3.30","subject":"012lqxyach8pl1r","sona":"7474"},{"rt":766.3900000043213,"stimulus":"<p>Bereit?</p>","key_press":32,"trial_type":"html-keyboard-response","trial_index":131,"time_elapsed":332318,"internal_node_id":"0.0-8.0-0.31","subject":"012lqxyach8pl1r","sona":"7474"},{"rt":null,"stimulus":"<div style=\"font-size:60px;\">+</div>","key_press":null,"trial_type":"html-keyboard-response","trial_index":132,"time_elapsed":334334,"internal_node_id":"0.0-8.0-1.31","subject":"012lqxyach8pl1r","sona":"7474"},{"trial_type":"turing-test","trial_index":133,"time_elapsed":340571,"internal_node_id":"0.0-8.0-2.31","subject":"012lqxyach8pl1r","sona":"7474"},{"rt":972.770000109449,"stimulus":"<p>Welche Sequenz haben Sie als natürlicher empfunden?</p>","key_press":74,"test_part":"response","test_stimulus":{"position":1,"left":"bvh/vr_prediction_models/model(vcgpdm)-dataset(return-bottle)-mode(ELBO)-parts(1)-dyn(10)-lvm(30)-hold(4)/final-lines.txt","right":"bvh/return-bottle-training4-lines.txt","att_check":false},"trial_type":"html-keyboard-response","trial_index":134,"time_elapsed":341548,"internal_node_id":"0.0-8.0-3.31","subject":"012lqxyach8pl1r","sona":"7474"},{"rt":216.19999990798533,"stimulus":"<p>Bereit?</p>","key_press":32,"trial_type":"html-keyboard-response","trial_index":135,"time_elapsed":341770,"internal_node_id":"0.0-8.0-0.32","subject":"012lqxyach8pl1r","sona":"7474"},{"rt":null,"stimulus":"<div style=\"font-size:60px;\">+</div>","key_press":null,"trial_type":"html-keyboard-response","trial_index":136,"time_elapsed":343783,"internal_node_id":"0.0-8.0-1.32","subject":"012lqxyach8pl1r","sona":"7474"},{"trial_type":"turing-test","trial_index":137,"time_elapsed":347497,"internal_node_id":"0.0-8.0-2.32","subject":"012lqxyach8pl1r","sona":"7474"},{"rt":1054.7300002072006,"stimulus":"<p>Welche Sequenz haben Sie als natürlicher empfunden?</p>","key_press":70,"test_part":"response","test_stimulus":{"position":1,"left":"bvh/vr_prediction_models/model(dmp)-dataset(pass-bottle-hold)-npsi(30)-hold(2)/final-lines.txt","right":"bvh/pass-bottle-hold-training2-lines.txt","att_check":true},"trial_type":"html-keyboard-response","trial_index":138,"time_elapsed":348559,"internal_node_id":"0.0-8.0-3.32","subject":"012lqxyach8pl1r","sona":"7474"},{"rt":364.88499981351197,"stimulus":"<p>Bereit?</p>","key_press":32,"trial_type":"html-keyboard-response","trial_index":139,"time_elapsed":348928,"internal_node_id":"0.0-8.0-0.33","subject":"012lqxyach8pl1r","sona":"7474"},{"rt":null,"stimulus":"<div style=\"font-size:60px;\">+</div>","key_press":null,"trial_type":"html-keyboard-response","trial_index":140,"time_elapsed":350948,"internal_node_id":"0.0-8.0-1.33","subject":"012lqxyach8pl1r","sona":"7474"},{"trial_type":"turing-test","trial_index":141,"time_elapsed":356878,"internal_node_id":"0.0-8.0-2.33","subject":"012lqxyach8pl1r","sona":"7474"},{"rt":335.90500010177493,"stimulus":"<p>Welche Sequenz haben Sie als natürlicher empfunden?</p>","key_press":74,"test_part":"response","test_stimulus":{"position":1,"left":"bvh/vr_prediction_models/model(dmp)-dataset(return-bottle)-npsi(70)-hold(4)/final-lines.txt","right":"bvh/return-bottle-training4-lines.txt","att_check":true},"trial_type":"html-keyboard-response","trial_index":142,"time_elapsed":357221,"internal_node_id":"0.0-8.0-3.33","subject":"012lqxyach8pl1r","sona":"7474"},{"rt":321.59000006504357,"stimulus":"<p>Bereit?</p>","key_press":32,"trial_type":"html-keyboard-response","trial_index":143,"time_elapsed":357549,"internal_node_id":"0.0-8.0-0.34","subject":"012lqxyach8pl1r","sona":"7474"},{"rt":null,"stimulus":"<div style=\"font-size:60px;\">+</div>","key_press":null,"trial_type":"html-keyboard-response","trial_index":144,"time_elapsed":359560,"internal_node_id":"0.0-8.0-1.34","subject":"012lqxyach8pl1r","sona":"7474"},{"trial_type":"turing-test","trial_index":145,"time_elapsed":366593,"internal_node_id":"0.0-8.0-2.34","subject":"012lqxyach8pl1r","sona":"7474"},{"rt":326.3849997892976,"stimulus":"<p>Welche Sequenz haben Sie als natürlicher empfunden?</p>","key_press":74,"test_part":"response","test_stimulus":{"position":1,"left":"bvh/vr_prediction_models/model(vcgpdm)-dataset(return-bottle)-mode(ELBO)-parts(1)-dyn(30)-lvm(35)-hold(0)/final-lines.txt","right":"bvh/return-bottle-training0-lines.txt","att_check":false},"trial_type":"html-keyboard-response","trial_index":146,"time_elapsed":366926,"internal_node_id":"0.0-8.0-3.34","subject":"012lqxyach8pl1r","sona":"7474"},{"rt":526.7849999945611,"stimulus":"<p>Bereit?</p>","key_press":32,"trial_type":"html-keyboard-response","trial_index":147,"time_elapsed":367457,"internal_node_id":"0.0-8.0-0.35","subject":"012lqxyach8pl1r","sona":"7474"},{"rt":null,"stimulus":"<div style=\"font-size:60px;\">+</div>","key_press":null,"trial_type":"html-keyboard-response","trial_index":148,"time_elapsed":369465,"internal_node_id":"0.0-8.0-1.35","subject":"012lqxyach8pl1r","sona":"7474"},{"trial_type":"turing-test","trial_index":149,"time_elapsed":375760,"internal_node_id":"0.0-8.0-2.35","subject":"012lqxyach8pl1r","sona":"7474"},{"rt":1170.3550000675023,"stimulus":"<p>Welche Sequenz haben Sie als natürlicher empfunden?</p>","key_press":70,"test_part":"response","test_stimulus":{"position":0,"left":"bvh/return-bottle-training1-lines.txt","right":"bvh/vr_prediction_models/model(dmp)-dataset(return-bottle)-npsi(50)-hold(1)/final-lines.txt","att_check":false},"trial_type":"html-keyboard-response","trial_index":150,"time_elapsed":376938,"internal_node_id":"0.0-8.0-3.35","subject":"012lqxyach8pl1r","sona":"7474"},{"rt":274.1249999962747,"stimulus":"<p>Bereit?</p>","key_press":32,"trial_type":"html-keyboard-response","trial_index":151,"time_elapsed":377218,"internal_node_id":"0.0-8.0-0.36","subject":"012lqxyach8pl1r","sona":"7474"},{"rt":null,"stimulus":"<div style=\"font-size:60px;\">+</div>","key_press":null,"trial_type":"html-keyboard-response","trial_index":152,"time_elapsed":379228,"internal_node_id":"0.0-8.0-1.36","subject":"012lqxyach8pl1r","sona":"7474"},{"trial_type":"turing-test","trial_index":153,"time_elapsed":382823,"internal_node_id":"0.0-8.0-2.36","subject":"012lqxyach8pl1r","sona":"7474"},{"rt":896.6449999716133,"stimulus":"<p>Welche Sequenz haben Sie als natürlicher empfunden?</p>","key_press":74,"test_part":"response","test_stimulus":{"position":1,"left":"bvh/vr_prediction_models/model(dmp)-dataset(pass-bottle-hold)-npsi(70)-hold(0)/final-lines.txt","right":"bvh/pass-bottle-hold-training0-lines.txt","att_check":false},"trial_type":"html-keyboard-response","trial_index":154,"time_elapsed":383730,"internal_node_id":"0.0-8.0-3.36","subject":"012lqxyach8pl1r","sona":"7474"},{"rt":313.51500004529953,"stimulus":"<p>Bereit?</p>","key_press":32,"trial_type":"html-keyboard-response","trial_index":155,"time_elapsed":384048,"internal_node_id":"0.0-8.0-0.37","subject":"012lqxyach8pl1r","sona":"7474"},{"rt":null,"stimulus":"<div style=\"font-size:60px;\">+</div>","key_press":null,"trial_type":"html-keyboard-response","trial_index":156,"time_elapsed":386054,"internal_node_id":"0.0-8.0-1.37","subject":"012lqxyach8pl1r","sona":"7474"},{"trial_type":"turing-test","trial_index":157,"time_elapsed":389991,"internal_node_id":"0.0-8.0-2.37","subject":"012lqxyach8pl1r","sona":"7474"},{"rt":971.1649999953806,"stimulus":"<p>Welche Sequenz haben Sie als natürlicher empfunden?</p>","key_press":74,"test_part":"response","test_stimulus":{"position":1,"left":"bvh/vr_prediction_models/model(vcgpdm)-dataset(return-bottle-hold)-mode(ELBO)-parts(1)-dyn(10)-lvm(5)-hold(2)/final-lines.txt","right":"bvh/return-bottle-hold-training2-lines.txt","att_check":false},"trial_type":"html-keyboard-response","trial_index":158,"time_elapsed":390968,"internal_node_id":"0.0-8.0-3.37","subject":"012lqxyach8pl1r","sona":"7474"},{"rt":315.5300000216812,"stimulus":"<p>Bereit?</p>","key_press":32,"trial_type":"html-keyboard-response","trial_index":159,"time_elapsed":391288,"internal_node_id":"0.0-8.0-0.38","subject":"012lqxyach8pl1r","sona":"7474"},{"rt":null,"stimulus":"<div style=\"font-size:60px;\">+</div>","key_press":null,"trial_type":"html-keyboard-response","trial_index":160,"time_elapsed":393300,"internal_node_id":"0.0-8.0-1.38","subject":"012lqxyach8pl1r","sona":"7474"},{"trial_type":"turing-test","trial_index":161,"time_elapsed":397664,"internal_node_id":"0.0-8.0-2.38","subject":"012lqxyach8pl1r","sona":"7474"},{"rt":100.15000007115304,"stimulus":"<p>Welche Sequenz haben Sie als natürlicher empfunden?</p>","key_press":74,"test_part":"response","test_stimulus":{"position":0,"left":"bvh/pass-bottle-hold-training3-lines.txt","right":"bvh/vr_prediction_models/model(vcgpdm)-dataset(pass-bottle-hold)-mode(ELBO)-parts(3)-dyn(35)-lvm(20)-hold(3)/final-lines.txt","att_check":false},"trial_type":"html-keyboard-response","trial_index":162,"time_elapsed":397770,"internal_node_id":"0.0-8.0-3.38","subject":"012lqxyach8pl1r","sona":"7474"},{"rt":273.4600000549108,"stimulus":"<p>Bereit?</p>","key_press":32,"trial_type":"html-keyboard-response","trial_index":163,"time_elapsed":398048,"internal_node_id":"0.0-8.0-0.39","subject":"012lqxyach8pl1r","sona":"7474"},{"rt":null,"stimulus":"<div style=\"font-size:60px;\">+</div>","key_press":null,"trial_type":"html-keyboard-response","trial_index":164,"time_elapsed":400060,"internal_node_id":"0.0-8.0-1.39","subject":"012lqxyach8pl1r","sona":"7474"},{"trial_type":"turing-test","trial_index":165,"time_elapsed":406789,"internal_node_id":"0.0-8.0-2.39","subject":"012lqxyach8pl1r","sona":"7474"},{"rt":834.0999998617917,"stimulus":"<p>Welche Sequenz haben Sie als natürlicher empfunden?</p>","key_press":74,"test_part":"response","test_stimulus":{"position":1,"left":"bvh/vr_prediction_models/model(vcgpdm)-dataset(return-bottle)-mode(ELBO)-parts(1)-dyn(35)-lvm(10)-hold(1)/final-lines.txt","right":"bvh/return-bottle-training1-lines.txt","att_check":false},"trial_type":"html-keyboard-response","trial_index":166,"time_elapsed":407629,"internal_node_id":"0.0-8.0-3.39","subject":"012lqxyach8pl1r","sona":"7474"},{"rt":246.87999999150634,"stimulus":"<p>Bereit?</p>","key_press":32,"trial_type":"html-keyboard-response","trial_index":167,"time_elapsed":407881,"internal_node_id":"0.0-8.0-0.40","subject":"012lqxyach8pl1r","sona":"7474"},{"rt":null,"stimulus":"<div style=\"font-size:60px;\">+</div>","key_press":null,"trial_type":"html-keyboard-response","trial_index":168,"time_elapsed":409892,"internal_node_id":"0.0-8.0-1.40","subject":"012lqxyach8pl1r","sona":"7474"},{"trial_type":"turing-test","trial_index":169,"time_elapsed":413955,"internal_node_id":"0.0-8.0-2.40","subject":"012lqxyach8pl1r","sona":"7474"},{"rt":617.0050001237541,"stimulus":"<p>Welche Sequenz haben Sie als natürlicher empfunden?</p>","key_press":74,"test_part":"response","test_stimulus":{"position":1,"left":"bvh/vr_prediction_models/model(vcgpdm)-dataset(return-bottle-hold)-mode(ELBO)-parts(3)-dyn(10)-lvm(25)-hold(2)/final-lines.txt","right":"bvh/return-bottle-hold-training2-lines.txt","att_check":false},"trial_type":"html-keyboard-response","trial_index":170,"time_elapsed":414579,"internal_node_id":"0.0-8.0-3.40","subject":"012lqxyach8pl1r","sona":"7474"},{"rt":224.39500014297664,"stimulus":"<p>Bereit?</p>","key_press":32,"trial_type":"html-keyboard-response","trial_index":171,"time_elapsed":414809,"internal_node_id":"0.0-8.0-0.41","subject":"012lqxyach8pl1r","sona":"7474"},{"rt":null,"stimulus":"<div style=\"font-size:60px;\">+</div>","key_press":null,"trial_type":"html-keyboard-response","trial_index":172,"time_elapsed":416818,"internal_node_id":"0.0-8.0-1.41","subject":"012lqxyach8pl1r","sona":"7474"},{"trial_type":"turing-test","trial_index":173,"time_elapsed":422906,"internal_node_id":"0.0-8.0-2.41","subject":"012lqxyach8pl1r","sona":"7474"},{"rt":2408.555000089109,"stimulus":"<p>Welche Sequenz haben Sie als natürlicher empfunden?</p>","key_press":74,"test_part":"response","test_stimulus":{"position":1,"left":"bvh/vr_prediction_models/model(vcgpdm)-dataset(pass-bottle)-mode(ELBO)-parts(1)-dyn(10)-lvm(5)-hold(1)/final-lines.txt","right":"bvh/pass-bottle-training1-lines.txt","att_check":false},"trial_type":"html-keyboard-response","trial_index":174,"time_elapsed":425321,"internal_node_id":"0.0-8.0-3.41","subject":"012lqxyach8pl1r","sona":"7474"},{"rt":195.70499984547496,"stimulus":"<p>Bereit?</p>","key_press":32,"trial_type":"html-keyboard-response","trial_index":175,"time_elapsed":425519,"internal_node_id":"0.0-8.0-0.42","subject":"012lqxyach8pl1r","sona":"7474"},{"rt":null,"stimulus":"<div style=\"font-size:60px;\">+</div>","key_press":null,"trial_type":"html-keyboard-response","trial_index":176,"time_elapsed":427528,"internal_node_id":"0.0-8.0-1.42","subject":"012lqxyach8pl1r","sona":"7474"},{"trial_type":"turing-test","trial_index":177,"time_elapsed":433250,"internal_node_id":"0.0-8.0-2.42","subject":"012lqxyach8pl1r","sona":"7474"},{"rt":1375.1199999824166,"stimulus":"<p>Welche Sequenz haben Sie als natürlicher empfunden?</p>","key_press":70,"test_part":"response","test_stimulus":{"position":0,"left":"bvh/pass-bottle-training1-lines.txt","right":"bvh/vr_prediction_models/model(tmp)-dataset(pass-bottle)-numprim(10)-hold(1)/final-lines.txt","att_check":false},"trial_type":"html-keyboard-response","trial_index":178,"time_elapsed":434629,"internal_node_id":"0.0-8.0-3.42","subject":"012lqxyach8pl1r","sona":"7474"},{"rt":185.825000051409,"stimulus":"<p>Bereit?</p>","key_press":32,"trial_type":"html-keyboard-response","trial_index":179,"time_elapsed":434820,"internal_node_id":"0.0-8.0-0.43","subject":"012lqxyach8pl1r","sona":"7474"},{"rt":null,"stimulus":"<div style=\"font-size:60px;\">+</div>","key_press":null,"trial_type":"html-keyboard-response","trial_index":180,"time_elapsed":436827,"internal_node_id":"0.0-8.0-1.43","subject":"012lqxyach8pl1r","sona":"7474"},{"trial_type":"turing-test","trial_index":181,"time_elapsed":443064,"internal_node_id":"0.0-8.0-2.43","subject":"012lqxyach8pl1r","sona":"7474"},{"rt":703.0450000893325,"stimulus":"<p>Welche Sequenz haben Sie als natürlicher empfunden?</p>","key_press":70,"test_part":"response","test_stimulus":{"position":1,"left":"bvh/vr_prediction_models/model(vcgpdm)-dataset(return-bottle)-mode(ELBO)-parts(1)-dyn(10)-lvm(5)-hold(0)/final-lines.txt","right":"bvh/return-bottle-training0-lines.txt","att_check":false},"trial_type":"html-keyboard-response","trial_index":182,"time_elapsed":443772,"internal_node_id":"0.0-8.0-3.43","subject":"012lqxyach8pl1r","sona":"7474"},{"rt":235.57000001892447,"stimulus":"<p>Bereit?</p>","key_press":32,"trial_type":"html-keyboard-response","trial_index":183,"time_elapsed":444010,"internal_node_id":"0.0-8.0-0.44","subject":"012lqxyach8pl1r","sona":"7474"},{"rt":null,"stimulus":"<div style=\"font-size:60px;\">+</div>","key_press":null,"trial_type":"html-keyboard-response","trial_index":184,"time_elapsed":446019,"internal_node_id":"0.0-8.0-1.44","subject":"012lqxyach8pl1r","sona":"7474"},{"trial_type":"turing-test","trial_index":185,"time_elapsed":450372,"internal_node_id":"0.0-8.0-2.44","subject":"012lqxyach8pl1r","sona":"7474"},{"rt":192.07499991171062,"stimulus":"<p>Welche Sequenz haben Sie als natürlicher empfunden?</p>","key_press":74,"test_part":"response","test_stimulus":{"position":0,"left":"bvh/pass-bottle-hold-training4-lines.txt","right":"bvh/vr_prediction_models/model(vcgpdm)-dataset(pass-bottle-hold)-mode(ELBO)-parts(1)-dyn(30)-lvm(35)-hold(4)/final-lines.txt","att_check":false},"trial_type":"html-keyboard-response","trial_index":186,"time_elapsed":450570,"internal_node_id":"0.0-8.0-3.44","subject":"012lqxyach8pl1r","sona":"7474"},{"rt":287.0100000873208,"stimulus":"<p>Bereit?</p>","key_press":32,"trial_type":"html-keyboard-response","trial_index":187,"time_elapsed":450861,"internal_node_id":"0.0-8.0-0.45","subject":"012lqxyach8pl1r","sona":"7474"},{"rt":null,"stimulus":"<div style=\"font-size:60px;\">+</div>","key_press":null,"trial_type":"html-keyboard-response","trial_index":188,"time_elapsed":452872,"internal_node_id":"0.0-8.0-1.45","subject":"012lqxyach8pl1r","sona":"7474"},{"trial_type":"turing-test","trial_index":189,"time_elapsed":458608,"internal_node_id":"0.0-8.0-2.45","subject":"012lqxyach8pl1r","sona":"7474"},{"rt":851.2099999934435,"stimulus":"<p>Welche Sequenz haben Sie als natürlicher empfunden?</p>","key_press":70,"test_part":"response","test_stimulus":{"position":0,"left":"bvh/pass-bottle-training4-lines.txt","right":"bvh/vr_prediction_models/model(dmp)-dataset(pass-bottle)-npsi(80)-hold(4)/final-lines.txt","att_check":false},"trial_type":"html-keyboard-response","trial_index":190,"time_elapsed":459473,"internal_node_id":"0.0-8.0-3.45","subject":"012lqxyach8pl1r","sona":"7474"},{"rt":285.65499978139997,"stimulus":"<p>Bereit?</p>","key_press":32,"trial_type":"html-keyboard-response","trial_index":191,"time_elapsed":459761,"internal_node_id":"0.0-8.0-0.46","subject":"012lqxyach8pl1r","sona":"7474"},{"rt":null,"stimulus":"<div style=\"font-size:60px;\">+</div>","key_press":null,"trial_type":"html-keyboard-response","trial_index":192,"time_elapsed":461774,"internal_node_id":"0.0-8.0-1.46","subject":"012lqxyach8pl1r","sona":"7474"},{"trial_type":"turing-test","trial_index":193,"time_elapsed":465399,"internal_node_id":"0.0-8.0-2.46","subject":"012lqxyach8pl1r","sona":"7474"},{"rt":918.0600000545382,"stimulus":"<p>Welche Sequenz haben Sie als natürlicher empfunden?</p>","key_press":70,"test_part":"response","test_stimulus":{"position":0,"left":"bvh/return-bottle-hold-training1-lines.txt","right":"bvh/vr_prediction_models/model(dmp)-dataset(return-bottle-hold)-npsi(50)-hold(1)/final-lines.txt","att_check":false},"trial_type":"html-keyboard-response","trial_index":194,"time_elapsed":466321,"internal_node_id":"0.0-8.0-3.46","subject":"012lqxyach8pl1r","sona":"7474"},{"rt":245.36500009708107,"stimulus":"<p>Bereit?</p>","key_press":32,"trial_type":"html-keyboard-response","trial_index":195,"time_elapsed":466571,"internal_node_id":"0.0-8.0-0.47","subject":"012lqxyach8pl1r","sona":"7474"},{"rt":null,"stimulus":"<div style=\"font-size:60px;\">+</div>","key_press":null,"trial_type":"html-keyboard-response","trial_index":196,"time_elapsed":468584,"internal_node_id":"0.0-8.0-1.47","subject":"012lqxyach8pl1r","sona":"7474"},{"trial_type":"turing-test","trial_index":197,"time_elapsed":474424,"internal_node_id":"0.0-8.0-2.47","subject":"012lqxyach8pl1r","sona":"7474"},{"rt":1013.0000000353903,"stimulus":"<p>Welche Sequenz haben Sie als natürlicher empfunden?</p>","key_press":74,"test_part":"response","test_stimulus":{"position":1,"left":"bvh/vr_prediction_models/model(dmp)-dataset(return-bottle)-npsi(20)-hold(3)/final-lines.txt","right":"bvh/return-bottle-training3-lines.txt","att_check":false},"trial_type":"html-keyboard-response","trial_index":198,"time_elapsed":475444,"internal_node_id":"0.0-8.0-3.47","subject":"012lqxyach8pl1r","sona":"7474"},{"rt":194.6000000461936,"stimulus":"<p>Bereit?</p>","key_press":32,"trial_type":"html-keyboard-response","trial_index":199,"time_elapsed":475642,"internal_node_id":"0.0-8.0-0.48","subject":"012lqxyach8pl1r","sona":"7474"},{"rt":null,"stimulus":"<div style=\"font-size:60px;\">+</div>","key_press":null,"trial_type":"html-keyboard-response","trial_index":200,"time_elapsed":477646,"internal_node_id":"0.0-8.0-1.48","subject":"012lqxyach8pl1r","sona":"7474"},{"trial_type":"turing-test","trial_index":201,"time_elapsed":481609,"internal_node_id":"0.0-8.0-2.48","subject":"012lqxyach8pl1r","sona":"7474"},{"rt":670.9499999415129,"stimulus":"<p>Welche Sequenz haben Sie als natürlicher empfunden?</p>","key_press":74,"test_part":"response","test_stimulus":{"position":1,"left":"bvh/vr_prediction_models/model(dmp)-dataset(return-bottle-hold)-npsi(10)-hold(3)/final-lines.txt","right":"bvh/return-bottle-hold-training3-lines.txt","att_check":false},"trial_type":"html-keyboard-response","trial_index":202,"time_elapsed":482286,"internal_node_id":"0.0-8.0-3.48","subject":"012lqxyach8pl1r","sona":"7474"},{"rt":548.6599998548627,"stimulus":"<p>Bereit?</p>","key_press":32,"trial_type":"html-keyboard-response","trial_index":203,"time_elapsed":482837,"internal_node_id":"0.0-8.0-0.49","subject":"012lqxyach8pl1r","sona":"7474"},{"rt":null,"stimulus":"<div style=\"font-size:60px;\">+</div>","key_press":null,"trial_type":"html-keyboard-response","trial_index":204,"time_elapsed":484848,"internal_node_id":"0.0-8.0-1.49","subject":"012lqxyach8pl1r","sona":"7474"},{"trial_type":"turing-test","trial_index":205,"time_elapsed":488448,"internal_node_id":"0.0-8.0-2.49","subject":"012lqxyach8pl1r","sona":"7474"},{"rt":1012.794999871403,"stimulus":"<p>Welche Sequenz haben Sie als natürlicher empfunden?</p>","key_press":74,"test_part":"response","test_stimulus":{"position":1,"left":"bvh/vr_prediction_models/model(tmp)-dataset(pass-bottle-hold)-numprim(5)-hold(4)/final-lines.txt","right":"bvh/pass-bottle-hold-training4-lines.txt","att_check":false},"trial_type":"html-keyboard-response","trial_index":206,"time_elapsed":489469,"internal_node_id":"0.0-8.0-3.49","subject":"012lqxyach8pl1r","sona":"7474"},{"rt":214.8899999447167,"stimulus":"<p>Bereit?</p>","key_press":32,"trial_type":"html-keyboard-response","trial_index":207,"time_elapsed":489687,"internal_node_id":"0.0-8.0-0.50","subject":"012lqxyach8pl1r","sona":"7474"},{"rt":null,"stimulus":"<div style=\"font-size:60px;\">+</div>","key_press":null,"trial_type":"html-keyboard-response","trial_index":208,"time_elapsed":491699,"internal_node_id":"0.0-8.0-1.50","subject":"012lqxyach8pl1r","sona":"7474"},{"trial_type":"turing-test","trial_index":209,"time_elapsed":495358,"internal_node_id":"0.0-8.0-2.50","subject":"012lqxyach8pl1r","sona":"7474"},{"rt":1244.5799999404699,"stimulus":"<p>Welche Sequenz haben Sie als natürlicher empfunden?</p>","key_press":74,"test_part":"response","test_stimulus":{"position":1,"left":"bvh/vr_prediction_models/model(dmp)-dataset(pass-bottle-hold)-npsi(80)-hold(4)/final-lines.txt","right":"bvh/pass-bottle-hold-training4-lines.txt","att_check":false},"trial_type":"html-keyboard-response","trial_index":210,"time_elapsed":496607,"internal_node_id":"0.0-8.0-3.50","subject":"012lqxyach8pl1r","sona":"7474"},{"rt":214.93500005453825,"stimulus":"<p>Bereit?</p>","key_press":32,"trial_type":"html-keyboard-response","trial_index":211,"time_elapsed":496828,"internal_node_id":"0.0-8.0-0.51","subject":"012lqxyach8pl1r","sona":"7474"},{"rt":null,"stimulus":"<div style=\"font-size:60px;\">+</div>","key_press":null,"trial_type":"html-keyboard-response","trial_index":212,"time_elapsed":498840,"internal_node_id":"0.0-8.0-1.51","subject":"012lqxyach8pl1r","sona":"7474"},{"trial_type":"turing-test","trial_index":213,"time_elapsed":505885,"internal_node_id":"0.0-8.0-2.51","subject":"012lqxyach8pl1r","sona":"7474"},{"rt":1237.9050001036376,"stimulus":"<p>Welche Sequenz haben Sie als natürlicher empfunden?</p>","key_press":70,"test_part":"response","test_stimulus":{"position":0,"left":"bvh/pass-bottle-training0-lines.txt","right":"bvh/vr_prediction_models/model(dmp)-dataset(pass-bottle)-npsi(10)-hold(0)/final-lines.txt","att_check":false},"trial_type":"html-keyboard-response","trial_index":214,"time_elapsed":507131,"internal_node_id":"0.0-8.0-3.51","subject":"012lqxyach8pl1r","sona":"7474"},{"rt":233.8549999985844,"stimulus":"<p>Bereit?</p>","key_press":32,"trial_type":"html-keyboard-response","trial_index":215,"time_elapsed":507368,"internal_node_id":"0.0-8.0-0.52","subject":"012lqxyach8pl1r","sona":"7474"},{"rt":null,"stimulus":"<div style=\"font-size:60px;\">+</div>","key_press":null,"trial_type":"html-keyboard-response","trial_index":216,"time_elapsed":509377,"internal_node_id":"0.0-8.0-1.52","subject":"012lqxyach8pl1r","sona":"7474"},{"trial_type":"turing-test","trial_index":217,"time_elapsed":515830,"internal_node_id":"0.0-8.0-2.52","subject":"012lqxyach8pl1r","sona":"7474"},{"rt":1099.7299998998642,"stimulus":"<p>Welche Sequenz haben Sie als natürlicher empfunden?</p>","key_press":70,"test_part":"response","test_stimulus":{"position":0,"left":"bvh/pass-bottle-training3-lines.txt","right":"bvh/vr_prediction_models/model(vcgpdm)-dataset(pass-bottle)-mode(ELBO)-parts(1)-dyn(10)-lvm(25)-hold(3)/final-lines.txt","att_check":false},"trial_type":"html-keyboard-response","trial_index":218,"time_elapsed":516939,"internal_node_id":"0.0-8.0-3.52","subject":"012lqxyach8pl1r","sona":"7474"},{"rt":7666.36999999173,"stimulus":"<p>Bereit?</p>","key_press":32,"trial_type":"html-keyboard-response","trial_index":219,"time_elapsed":524611,"internal_node_id":"0.0-8.0-0.53","subject":"012lqxyach8pl1r","sona":"7474"},{"rt":null,"stimulus":"<div style=\"font-size:60px;\">+</div>","key_press":null,"trial_type":"html-keyboard-response","trial_index":220,"time_elapsed":526629,"internal_node_id":"0.0-8.0-1.53","subject":"012lqxyach8pl1r","sona":"7474"},{"trial_type":"turing-test","trial_index":221,"time_elapsed":530733,"internal_node_id":"0.0-8.0-2.53","subject":"012lqxyach8pl1r","sona":"7474"},{"rt":479.06000004149973,"stimulus":"<p>Welche Sequenz haben Sie als natürlicher empfunden?</p>","key_press":74,"test_part":"response","test_stimulus":{"position":1,"left":"bvh/vr_prediction_models/model(dmp)-dataset(return-bottle-hold)-npsi(30)-hold(4)/final-lines.txt","right":"bvh/return-bottle-hold-training4-lines.txt","att_check":false},"trial_type":"html-keyboard-response","trial_index":222,"time_elapsed":531219,"internal_node_id":"0.0-8.0-3.53","subject":"012lqxyach8pl1r","sona":"7474"},{"rt":210.72000009007752,"stimulus":"<p>Bereit?</p>","key_press":32,"trial_type":"html-keyboard-response","trial_index":223,"time_elapsed":531438,"internal_node_id":"0.0-8.0-0.54","subject":"012lqxyach8pl1r","sona":"7474"},{"rt":null,"stimulus":"<div style=\"font-size:60px;\">+</div>","key_press":null,"trial_type":"html-keyboard-response","trial_index":224,"time_elapsed":533452,"internal_node_id":"0.0-8.0-1.54","subject":"012lqxyach8pl1r","sona":"7474"},{"trial_type":"turing-test","trial_index":225,"time_elapsed":540561,"internal_node_id":"0.0-8.0-2.54","subject":"012lqxyach8pl1r","sona":"7474"},{"rt":1314.4849999807775,"stimulus":"<p>Welche Sequenz haben Sie als natürlicher empfunden?</p>","key_press":74,"test_part":"response","test_stimulus":{"position":0,"left":"bvh/pass-bottle-training0-lines.txt","right":"bvh/vr_prediction_models/model(tmp)-dataset(pass-bottle)-numprim(15)-hold(0)/final-lines.txt","att_check":false},"trial_type":"html-keyboard-response","trial_index":226,"time_elapsed":541879,"internal_node_id":"0.0-8.0-3.54","subject":"012lqxyach8pl1r","sona":"7474"},{"rt":182.73999984376132,"stimulus":"<p>Bereit?</p>","key_press":32,"trial_type":"html-keyboard-response","trial_index":227,"time_elapsed":542067,"internal_node_id":"0.0-8.0-0.55","subject":"012lqxyach8pl1r","sona":"7474"},{"rt":null,"stimulus":"<div style=\"font-size:60px;\">+</div>","key_press":null,"trial_type":"html-keyboard-response","trial_index":228,"time_elapsed":544080,"internal_node_id":"0.0-8.0-1.55","subject":"012lqxyach8pl1r","sona":"7474"},{"trial_type":"turing-test","trial_index":229,"time_elapsed":548347,"internal_node_id":"0.0-8.0-2.55","subject":"012lqxyach8pl1r","sona":"7474"},{"rt":422.844999935478,"stimulus":"<p>Welche Sequenz haben Sie als natürlicher empfunden?</p>","key_press":70,"test_part":"response","test_stimulus":{"position":0,"left":"bvh/return-bottle-hold-training3-lines.txt","right":"bvh/vr_prediction_models/model(vcgpdm)-dataset(return-bottle-hold)-mode(ELBO)-parts(1)-dyn(10)-lvm(30)-hold(3)/final-lines.txt","att_check":false},"trial_type":"html-keyboard-response","trial_index":230,"time_elapsed":548777,"internal_node_id":"0.0-8.0-3.55","subject":"012lqxyach8pl1r","sona":"7474"},{"rt":224.18999997898936,"stimulus":"<p>Bereit?</p>","key_press":32,"trial_type":"html-keyboard-response","trial_index":231,"time_elapsed":549007,"internal_node_id":"0.0-8.0-0.56","subject":"012lqxyach8pl1r","sona":"7474"},{"rt":null,"stimulus":"<div style=\"font-size:60px;\">+</div>","key_press":null,"trial_type":"html-keyboard-response","trial_index":232,"time_elapsed":551015,"internal_node_id":"0.0-8.0-1.56","subject":"012lqxyach8pl1r","sona":"7474"},{"trial_type":"turing-test","trial_index":233,"time_elapsed":557069,"internal_node_id":"0.0-8.0-2.56","subject":"012lqxyach8pl1r","sona":"7474"},{"rt":343.0999999400228,"stimulus":"<p>Welche Sequenz haben Sie als natürlicher empfunden?</p>","key_press":70,"test_part":"response","test_stimulus":{"position":0,"left":"bvh/return-bottle-training1-lines.txt","right":"bvh/vr_prediction_models/model(dmp)-dataset(return-bottle)-npsi(20)-hold(1)/final-lines.txt","att_check":false},"trial_type":"html-keyboard-response","trial_index":234,"time_elapsed":557420,"internal_node_id":"0.0-8.0-3.56","subject":"012lqxyach8pl1r","sona":"7474"},{"rt":272.9549999348819,"stimulus":"<p>Bereit?</p>","key_press":32,"trial_type":"html-keyboard-response","trial_index":235,"time_elapsed":557698,"internal_node_id":"0.0-8.0-0.57","subject":"012lqxyach8pl1r","sona":"7474"},{"rt":null,"stimulus":"<div style=\"font-size:60px;\">+</div>","key_press":null,"trial_type":"html-keyboard-response","trial_index":236,"time_elapsed":559710,"internal_node_id":"0.0-8.0-1.57","subject":"012lqxyach8pl1r","sona":"7474"},{"trial_type":"turing-test","trial_index":237,"time_elapsed":565711,"internal_node_id":"0.0-8.0-2.57","subject":"012lqxyach8pl1r","sona":"7474"},{"rt":559.7300000954419,"stimulus":"<p>Welche Sequenz haben Sie als natürlicher empfunden?</p>","key_press":74,"test_part":"response","test_stimulus":{"position":0,"left":"bvh/return-bottle-training0-lines.txt","right":"bvh/vr_prediction_models/model(vcgpdm)-dataset(return-bottle)-mode(ELBO)-parts(1)-dyn(30)-lvm(30)-hold(0)/final-lines.txt","att_check":false},"trial_type":"html-keyboard-response","trial_index":238,"time_elapsed":566278,"internal_node_id":"0.0-8.0-3.57","subject":"012lqxyach8pl1r","sona":"7474"},{"rt":225.499999942258,"stimulus":"<p>Bereit?</p>","key_press":32,"trial_type":"html-keyboard-response","trial_index":239,"time_elapsed":566508,"internal_node_id":"0.0-8.0-0.58","subject":"012lqxyach8pl1r","sona":"7474"},{"rt":null,"stimulus":"<div style=\"font-size:60px;\">+</div>","key_press":null,"trial_type":"html-keyboard-response","trial_index":240,"time_elapsed":568513,"internal_node_id":"0.0-8.0-1.58","subject":"012lqxyach8pl1r","sona":"7474"},{"trial_type":"turing-test","trial_index":241,"time_elapsed":572807,"internal_node_id":"0.0-8.0-2.58","subject":"012lqxyach8pl1r","sona":"7474"},{"rt":877.3700001183897,"stimulus":"<p>Welche Sequenz haben Sie als natürlicher empfunden?</p>","key_press":74,"test_part":"response","test_stimulus":{"position":1,"left":"bvh/vr_prediction_models/model(vcgpdm)-dataset(pass-bottle-hold)-mode(ELBO)-parts(1)-dyn(25)-lvm(35)-hold(4)/final-lines.txt","right":"bvh/pass-bottle-hold-training4-lines.txt","att_check":false},"trial_type":"html-keyboard-response","trial_index":242,"time_elapsed":573690,"internal_node_id":"0.0-8.0-3.58","subject":"012lqxyach8pl1r","sona":"7474"},{"rt":253.12000000849366,"stimulus":"<p>Bereit?</p>","key_press":32,"trial_type":"html-keyboard-response","trial_index":243,"time_elapsed":573948,"internal_node_id":"0.0-8.0-0.59","subject":"012lqxyach8pl1r","sona":"7474"},{"rt":null,"stimulus":"<div style=\"font-size:60px;\">+</div>","key_press":null,"trial_type":"html-keyboard-response","trial_index":244,"time_elapsed":575963,"internal_node_id":"0.0-8.0-1.59","subject":"012lqxyach8pl1r","sona":"7474"},{"trial_type":"turing-test","trial_index":245,"time_elapsed":582487,"internal_node_id":"0.0-8.0-2.59","subject":"012lqxyach8pl1r","sona":"7474"},{"rt":1141.5299999061972,"stimulus":"<p>Welche Sequenz haben Sie als natürlicher empfunden?</p>","key_press":74,"test_part":"response","test_stimulus":{"position":1,"left":"bvh/vr_prediction_models/model(vcgpdm)-dataset(return-bottle)-mode(ELBO)-parts(3)-dyn(10)-lvm(30)-hold(1)/final-lines.txt","right":"bvh/return-bottle-training1-lines.txt","att_check":false},"trial_type":"html-keyboard-response","trial_index":246,"time_elapsed":583639,"internal_node_id":"0.0-8.0-3.59","subject":"012lqxyach8pl1r","sona":"7474"},{"rt":245.61499990522861,"stimulus":"<p>Bereit?</p>","key_press":32,"trial_type":"html-keyboard-response","trial_index":247,"time_elapsed":583891,"internal_node_id":"0.0-8.0-0.60","subject":"012lqxyach8pl1r","sona":"7474"},{"rt":null,"stimulus":"<div style=\"font-size:60px;\">+</div>","key_press":null,"trial_type":"html-keyboard-response","trial_index":248,"time_elapsed":585900,"internal_node_id":"0.0-8.0-1.60","subject":"012lqxyach8pl1r","sona":"7474"},{"trial_type":"turing-test","trial_index":249,"time_elapsed":592727,"internal_node_id":"0.0-8.0-2.60","subject":"012lqxyach8pl1r","sona":"7474"},{"rt":662.2450000140816,"stimulus":"<p>Welche Sequenz haben Sie als natürlicher empfunden?</p>","key_press":74,"test_part":"response","test_stimulus":{"position":1,"left":"bvh/vr_prediction_models/model(vcgpdm)-dataset(pass-bottle)-mode(ELBO)-parts(3)-dyn(25)-lvm(15)-hold(2)/final-lines.txt","right":"bvh/pass-bottle-training2-lines.txt","att_check":false},"trial_type":"html-keyboard-response","trial_index":250,"time_elapsed":593399,"internal_node_id":"0.0-8.0-3.60","subject":"012lqxyach8pl1r","sona":"7474"},{"rt":340.0399999227375,"stimulus":"<p>Bereit?</p>","key_press":32,"trial_type":"html-keyboard-response","trial_index":251,"time_elapsed":593750,"internal_node_id":"0.0-8.0-0.61","subject":"012lqxyach8pl1r","sona":"7474"},{"rt":null,"stimulus":"<div style=\"font-size:60px;\">+</div>","key_press":null,"trial_type":"html-keyboard-response","trial_index":252,"time_elapsed":595764,"internal_node_id":"0.0-8.0-1.61","subject":"012lqxyach8pl1r","sona":"7474"},{"trial_type":"turing-test","trial_index":253,"time_elapsed":602178,"internal_node_id":"0.0-8.0-2.61","subject":"012lqxyach8pl1r","sona":"7474"},{"rt":977.2899998351932,"stimulus":"<p>Welche Sequenz haben Sie als natürlicher empfunden?</p>","key_press":74,"test_part":"response","test_stimulus":{"position":0,"left":"bvh/pass-bottle-training4-lines.txt","right":"bvh/vr_prediction_models/model(vcgpdm)-dataset(pass-bottle)-mode(ELBO)-parts(1)-dyn(20)-lvm(20)-hold(4)/final-lines.txt","att_check":false},"trial_type":"html-keyboard-response","trial_index":254,"time_elapsed":603162,"internal_node_id":"0.0-8.0-3.61","subject":"012lqxyach8pl1r","sona":"7474"},{"rt":245.48000004142523,"stimulus":"<p>Bereit?</p>","key_press":32,"trial_type":"html-keyboard-response","trial_index":255,"time_elapsed":603411,"internal_node_id":"0.0-8.0-0.62","subject":"012lqxyach8pl1r","sona":"7474"},{"rt":null,"stimulus":"<div style=\"font-size:60px;\">+</div>","key_press":null,"trial_type":"html-keyboard-response","trial_index":256,"time_elapsed":605425,"internal_node_id":"0.0-8.0-1.62","subject":"012lqxyach8pl1r","sona":"7474"},{"trial_type":"turing-test","trial_index":257,"time_elapsed":609749,"internal_node_id":"0.0-8.0-2.62","subject":"012lqxyach8pl1r","sona":"7474"},{"rt":477.99000004306436,"stimulus":"<p>Welche Sequenz haben Sie als natürlicher empfunden?</p>","key_press":74,"test_part":"response","test_stimulus":{"position":1,"left":"bvh/vr_prediction_models/model(vcgpdm)-dataset(pass-bottle-hold)-mode(ELBO)-parts(1)-dyn(25)-lvm(35)-hold(3)/final-lines.txt","right":"bvh/pass-bottle-hold-training3-lines.txt","att_check":false},"trial_type":"html-keyboard-response","trial_index":258,"time_elapsed":610231,"internal_node_id":"0.0-8.0-3.62","subject":"012lqxyach8pl1r","sona":"7474"},{"rt":387.0050001423806,"stimulus":"<p>Bereit?</p>","key_press":32,"trial_type":"html-keyboard-response","trial_index":259,"time_elapsed":610621,"internal_node_id":"0.0-8.0-0.63","subject":"012lqxyach8pl1r","sona":"7474"},{"rt":null,"stimulus":"<div style=\"font-size:60px;\">+</div>","key_press":null,"trial_type":"html-keyboard-response","trial_index":260,"time_elapsed":612634,"internal_node_id":"0.0-8.0-1.63","subject":"012lqxyach8pl1r","sona":"7474"},{"trial_type":"turing-test","trial_index":261,"time_elapsed":616520,"internal_node_id":"0.0-8.0-2.63","subject":"012lqxyach8pl1r","sona":"7474"},{"rt":568.1400001049042,"stimulus":"<p>Welche Sequenz haben Sie als natürlicher empfunden?</p>","key_press":74,"test_part":"response","test_stimulus":{"position":1,"left":"bvh/vr_prediction_models/model(vcgpdm)-dataset(pass-bottle-hold)-mode(ELBO)-parts(3)-dyn(30)-lvm(15)-hold(3)/final-lines.txt","right":"bvh/pass-bottle-hold-training3-lines.txt","att_check":false},"trial_type":"html-keyboard-response","trial_index":262,"time_elapsed":617092,"internal_node_id":"0.0-8.0-3.63","subject":"012lqxyach8pl1r","sona":"7474"},{"rt":436.5550000220537,"stimulus":"<p>Bereit?</p>","key_press":32,"trial_type":"html-keyboard-response","trial_index":263,"time_elapsed":617531,"internal_node_id":"0.0-8.0-0.64","subject":"012lqxyach8pl1r","sona":"7474"},{"rt":null,"stimulus":"<div style=\"font-size:60px;\">+</div>","key_press":null,"trial_type":"html-keyboard-response","trial_index":264,"time_elapsed":619543,"internal_node_id":"0.0-8.0-1.64","subject":"012lqxyach8pl1r","sona":"7474"},{"trial_type":"turing-test","trial_index":265,"time_elapsed":626651,"internal_node_id":"0.0-8.0-2.64","subject":"012lqxyach8pl1r","sona":"7474"},{"rt":257.7049999963492,"stimulus":"<p>Welche Sequenz haben Sie als natürlicher empfunden?</p>","key_press":70,"test_part":"response","test_stimulus":{"position":0,"left":"bvh/return-bottle-training2-lines.txt","right":"bvh/vr_prediction_models/model(dmp)-dataset(return-bottle)-npsi(20)-hold(2)/final-lines.txt","att_check":false},"trial_type":"html-keyboard-response","trial_index":266,"time_elapsed":626932,"internal_node_id":"0.0-8.0-3.64","subject":"012lqxyach8pl1r","sona":"7474"},{"rt":487.0499998796731,"stimulus":"<p>Bereit?</p>","key_press":32,"trial_type":"html-keyboard-response","trial_index":267,"time_elapsed":627423,"internal_node_id":"0.0-8.0-0.65","subject":"012lqxyach8pl1r","sona":"7474"},{"rt":null,"stimulus":"<div style=\"font-size:60px;\">+</div>","key_press":null,"trial_type":"html-keyboard-response","trial_index":268,"time_elapsed":629439,"internal_node_id":"0.0-8.0-1.65","subject":"012lqxyach8pl1r","sona":"7474"},{"trial_type":"turing-test","trial_index":269,"time_elapsed":635600,"internal_node_id":"0.0-8.0-2.65","subject":"012lqxyach8pl1r","sona":"7474"},{"rt":1066.0149999894202,"stimulus":"<p>Welche Sequenz haben Sie als natürlicher empfunden?</p>","key_press":70,"test_part":"response","test_stimulus":{"position":1,"left":"bvh/vr_prediction_models/model(tmp)-dataset(return-bottle)-numprim(10)-hold(3)/final-lines.txt","right":"bvh/return-bottle-training3-lines.txt","att_check":false},"trial_type":"html-keyboard-response","trial_index":270,"time_elapsed":636674,"internal_node_id":"0.0-8.0-3.65","subject":"012lqxyach8pl1r","sona":"7474"},{"rt":252.78500001877546,"stimulus":"<p>Bereit?</p>","key_press":32,"trial_type":"html-keyboard-response","trial_index":271,"time_elapsed":636934,"internal_node_id":"0.0-8.0-0.66","subject":"012lqxyach8pl1r","sona":"7474"},{"rt":null,"stimulus":"<div style=\"font-size:60px;\">+</div>","key_press":null,"trial_type":"html-keyboard-response","trial_index":272,"time_elapsed":638939,"internal_node_id":"0.0-8.0-1.66","subject":"012lqxyach8pl1r","sona":"7474"},{"trial_type":"turing-test","trial_index":273,"time_elapsed":643000,"internal_node_id":"0.0-8.0-2.66","subject":"012lqxyach8pl1r","sona":"7474"},{"rt":1227.0549999084324,"stimulus":"<p>Welche Sequenz haben Sie als natürlicher empfunden?</p>","key_press":70,"test_part":"response","test_stimulus":{"position":1,"left":"bvh/vr_prediction_models/model(tmp)-dataset(pass-bottle-hold)-numprim(6)-hold(4)/final-lines.txt","right":"bvh/pass-bottle-hold-training4-lines.txt","att_check":false},"trial_type":"html-keyboard-response","trial_index":274,"time_elapsed":644233,"internal_node_id":"0.0-8.0-3.66","subject":"012lqxyach8pl1r","sona":"7474"},{"rt":205.84499998949468,"stimulus":"<p>Bereit?</p>","key_press":32,"trial_type":"html-keyboard-response","trial_index":275,"time_elapsed":644444,"internal_node_id":"0.0-8.0-0.67","subject":"012lqxyach8pl1r","sona":"7474"},{"rt":null,"stimulus":"<div style=\"font-size:60px;\">+</div>","key_press":null,"trial_type":"html-keyboard-response","trial_index":276,"time_elapsed":646460,"internal_node_id":"0.0-8.0-1.67","subject":"012lqxyach8pl1r","sona":"7474"},{"trial_type":"turing-test","trial_index":277,"time_elapsed":653106,"internal_node_id":"0.0-8.0-2.67","subject":"012lqxyach8pl1r","sona":"7474"},{"rt":970.7700000144541,"stimulus":"<p>Welche Sequenz haben Sie als natürlicher empfunden?</p>","key_press":74,"test_part":"response","test_stimulus":{"position":1,"left":"bvh/vr_prediction_models/model(vcgpdm)-dataset(pass-bottle)-mode(MAP)-parts(1)-hold(4)/final-lines.txt","right":"bvh/pass-bottle-training4-lines.txt","att_check":false},"trial_type":"html-keyboard-response","trial_index":278,"time_elapsed":654083,"internal_node_id":"0.0-8.0-3.67","subject":"012lqxyach8pl1r","sona":"7474"},{"rt":270.3249999321997,"stimulus":"<p>Bereit?</p>","key_press":32,"trial_type":"html-keyboard-response","trial_index":279,"time_elapsed":654356,"internal_node_id":"0.0-8.0-0.68","subject":"012lqxyach8pl1r","sona":"7474"},{"rt":null,"stimulus":"<div style=\"font-size:60px;\">+</div>","key_press":null,"trial_type":"html-keyboard-response","trial_index":280,"time_elapsed":656369,"internal_node_id":"0.0-8.0-1.68","subject":"012lqxyach8pl1r","sona":"7474"},{"trial_type":"turing-test","trial_index":281,"time_elapsed":663748,"internal_node_id":"0.0-8.0-2.68","subject":"012lqxyach8pl1r","sona":"7474"},{"rt":309.8950001876801,"stimulus":"<p>Welche Sequenz haben Sie als natürlicher empfunden?</p>","key_press":74,"test_part":"response","test_stimulus":{"position":1,"left":"bvh/vr_prediction_models/model(vcgpdm)-dataset(return-bottle)-mode(MAP)-parts(3)-hold(2)/final-lines.txt","right":"bvh/return-bottle-training2-lines.txt","att_check":false},"trial_type":"html-keyboard-response","trial_index":282,"time_elapsed":664069,"internal_node_id":"0.0-8.0-3.68","subject":"012lqxyach8pl1r","sona":"7474"},{"rt":290.6749998219311,"stimulus":"<p>Bereit?</p>","key_press":32,"trial_type":"html-keyboard-response","trial_index":283,"time_elapsed":664371,"internal_node_id":"0.0-8.0-0.69","subject":"012lqxyach8pl1r","sona":"7474"},{"rt":null,"stimulus":"<div style=\"font-size:60px;\">+</div>","key_press":null,"trial_type":"html-keyboard-response","trial_index":284,"time_elapsed":666383,"internal_node_id":"0.0-8.0-1.69","subject":"012lqxyach8pl1r","sona":"7474"},{"trial_type":"turing-test","trial_index":285,"time_elapsed":673374,"internal_node_id":"0.0-8.0-2.69","subject":"012lqxyach8pl1r","sona":"7474"},{"rt":1130.8100000023842,"stimulus":"<p>Welche Sequenz haben Sie als natürlicher empfunden?</p>","key_press":74,"test_part":"response","test_stimulus":{"position":1,"left":"bvh/vr_prediction_models/model(dmp)-dataset(return-bottle)-npsi(100)-hold(2)/final-lines.txt","right":"bvh/return-bottle-training2-lines.txt","att_check":false},"trial_type":"html-keyboard-response","trial_index":286,"time_elapsed":674511,"internal_node_id":"0.0-8.0-3.69","subject":"012lqxyach8pl1r","sona":"7474"},{"rt":576.3499999884516,"stimulus":"<p>Bereit?</p>","key_press":32,"trial_type":"html-keyboard-response","trial_index":287,"time_elapsed":675089,"internal_node_id":"0.0-8.0-0.70","subject":"012lqxyach8pl1r","sona":"7474"},{"rt":null,"stimulus":"<div style=\"font-size:60px;\">+</div>","key_press":null,"trial_type":"html-keyboard-response","trial_index":288,"time_elapsed":677103,"internal_node_id":"0.0-8.0-1.70","subject":"012lqxyach8pl1r","sona":"7474"},{"trial_type":"turing-test","trial_index":289,"time_elapsed":681189,"internal_node_id":"0.0-8.0-2.70","subject":"012lqxyach8pl1r","sona":"7474"},{"rt":729.9699999857694,"stimulus":"<p>Welche Sequenz haben Sie als natürlicher empfunden?</p>","key_press":70,"test_part":"response","test_stimulus":{"position":0,"left":"bvh/pass-bottle-hold-training0-lines.txt","right":"bvh/vr_prediction_models/model(vcgpdm)-dataset(pass-bottle-hold)-mode(MAP)-parts(3)-hold(0)/final-lines.txt","att_check":false},"trial_type":"html-keyboard-response","trial_index":290,"time_elapsed":681930,"internal_node_id":"0.0-8.0-3.70","subject":"012lqxyach8pl1r","sona":"7474"},{"rt":212.07999996840954,"stimulus":"<p>Bereit?</p>","key_press":32,"trial_type":"html-keyboard-response","trial_index":291,"time_elapsed":682149,"internal_node_id":"0.0-8.0-0.71","subject":"012lqxyach8pl1r","sona":"7474"},{"rt":null,"stimulus":"<div style=\"font-size:60px;\">+</div>","key_press":null,"trial_type":"html-keyboard-response","trial_index":292,"time_elapsed":684161,"internal_node_id":"0.0-8.0-1.71","subject":"012lqxyach8pl1r","sona":"7474"},{"trial_type":"turing-test","trial_index":293,"time_elapsed":688166,"internal_node_id":"0.0-8.0-2.71","subject":"012lqxyach8pl1r","sona":"7474"},{"rt":457.1849999483675,"stimulus":"<p>Welche Sequenz haben Sie als natürlicher empfunden?</p>","key_press":70,"test_part":"response","test_stimulus":{"position":1,"left":"bvh/vr_prediction_models/model(vcgpdm)-dataset(pass-bottle-hold)-mode(ELBO)-parts(1)-dyn(30)-lvm(30)-hold(2)/final-lines.txt","right":"bvh/pass-bottle-hold-training2-lines.txt","att_check":false},"trial_type":"html-keyboard-response","trial_index":294,"time_elapsed":688631,"internal_node_id":"0.0-8.0-3.71","subject":"012lqxyach8pl1r","sona":"7474"},{"rt":235.14499980956316,"stimulus":"<p>Bereit?</p>","key_press":32,"trial_type":"html-keyboard-response","trial_index":295,"time_elapsed":688870,"internal_node_id":"0.0-8.0-0.72","subject":"012lqxyach8pl1r","sona":"7474"},{"rt":null,"stimulus":"<div style=\"font-size:60px;\">+</div>","key_press":null,"trial_type":"html-keyboard-response","trial_index":296,"time_elapsed":690880,"internal_node_id":"0.0-8.0-1.72","subject":"012lqxyach8pl1r","sona":"7474"},{"trial_type":"turing-test","trial_index":297,"time_elapsed":697483,"internal_node_id":"0.0-8.0-2.72","subject":"012lqxyach8pl1r","sona":"7474"},{"rt":2188.0850000306964,"stimulus":"<p>Welche Sequenz haben Sie als natürlicher empfunden?</p>","key_press":74,"test_part":"response","test_stimulus":{"position":0,"left":"bvh/pass-bottle-training2-lines.txt","right":"bvh/vr_prediction_models/model(tmp)-dataset(pass-bottle)-numprim(15)-hold(2)/final-lines.txt","att_check":false},"trial_type":"html-keyboard-response","trial_index":298,"time_elapsed":699683,"internal_node_id":"0.0-8.0-3.72","subject":"012lqxyach8pl1r","sona":"7474"},{"rt":908.1850000657141,"stimulus":"<p>Bereit?</p>","key_press":32,"trial_type":"html-keyboard-response","trial_index":299,"time_elapsed":700601,"internal_node_id":"0.0-8.0-0.73","subject":"012lqxyach8pl1r","sona":"7474"},{"rt":null,"stimulus":"<div style=\"font-size:60px;\">+</div>","key_press":null,"trial_type":"html-keyboard-response","trial_index":300,"time_elapsed":702609,"internal_node_id":"0.0-8.0-1.73","subject":"012lqxyach8pl1r","sona":"7474"},{"trial_type":"turing-test","trial_index":301,"time_elapsed":708313,"internal_node_id":"0.0-8.0-2.73","subject":"012lqxyach8pl1r","sona":"7474"},{"rt":866.880000103265,"stimulus":"<p>Welche Sequenz haben Sie als natürlicher empfunden?</p>","key_press":70,"test_part":"response","test_stimulus":{"position":0,"left":"bvh/return-bottle-training4-lines.txt","right":"bvh/vr_prediction_models/model(vcgpdm)-dataset(return-bottle)-mode(ELBO)-parts(1)-dyn(10)-lvm(30)-hold(4)/final-lines.txt","att_check":false},"trial_type":"html-keyboard-response","trial_index":302,"time_elapsed":709191,"internal_node_id":"0.0-8.0-3.73","subject":"012lqxyach8pl1r","sona":"7474"},{"rt":392.57000014185905,"stimulus":"<p>Bereit?</p>","key_press":32,"trial_type":"html-keyboard-response","trial_index":303,"time_elapsed":709590,"internal_node_id":"0.0-8.0-0.74","subject":"012lqxyach8pl1r","sona":"7474"},{"rt":null,"stimulus":"<div style=\"font-size:60px;\">+</div>","key_press":null,"trial_type":"html-keyboard-response","trial_index":304,"time_elapsed":711603,"internal_node_id":"0.0-8.0-1.74","subject":"012lqxyach8pl1r","sona":"7474"},{"trial_type":"turing-test","trial_index":305,"time_elapsed":717841,"internal_node_id":"0.0-8.0-2.74","subject":"012lqxyach8pl1r","sona":"7474"},{"rt":1112.2650001198053,"stimulus":"<p>Welche Sequenz haben Sie als natürlicher empfunden?</p>","key_press":74,"test_part":"response","test_stimulus":{"position":1,"left":"bvh/vr_prediction_models/model(vcgpdm)-dataset(return-bottle)-mode(ELBO)-parts(3)-dyn(15)-lvm(30)-hold(0)/final-lines.txt","right":"bvh/return-bottle-training0-lines.txt","att_check":false},"trial_type":"html-keyboard-response","trial_index":306,"time_elapsed":718961,"internal_node_id":"0.0-8.0-3.74","subject":"012lqxyach8pl1r","sona":"7474"},{"rt":327.70000002346933,"stimulus":"<p>Bereit?</p>","key_press":32,"trial_type":"html-keyboard-response","trial_index":307,"time_elapsed":719291,"internal_node_id":"0.0-8.0-0.75","subject":"012lqxyach8pl1r","sona":"7474"},{"rt":null,"stimulus":"<div style=\"font-size:60px;\">+</div>","key_press":null,"trial_type":"html-keyboard-response","trial_index":308,"time_elapsed":721296,"internal_node_id":"0.0-8.0-1.75","subject":"012lqxyach8pl1r","sona":"7474"},{"trial_type":"turing-test","trial_index":309,"time_elapsed":727744,"internal_node_id":"0.0-8.0-2.75","subject":"012lqxyach8pl1r","sona":"7474"},{"rt":1275.8249999023974,"stimulus":"<p>Welche Sequenz haben Sie als natürlicher empfunden?</p>","key_press":70,"test_part":"response","test_stimulus":{"position":0,"left":"bvh/return-bottle-training2-lines.txt","right":"bvh/vr_prediction_models/model(dmp)-dataset(return-bottle)-npsi(20)-hold(2)/final-lines.txt","att_check":false},"trial_type":"html-keyboard-response","trial_index":310,"time_elapsed":729032,"internal_node_id":"0.0-8.0-3.75","subject":"012lqxyach8pl1r","sona":"7474"},{"rt":286.23500000685453,"stimulus":"<p>Bereit?</p>","key_press":32,"trial_type":"html-keyboard-response","trial_index":311,"time_elapsed":729322,"internal_node_id":"0.0-8.0-0.76","subject":"012lqxyach8pl1r","sona":"7474"},{"rt":null,"stimulus":"<div style=\"font-size:60px;\">+</div>","key_press":null,"trial_type":"html-keyboard-response","trial_index":312,"time_elapsed":731329,"internal_node_id":"0.0-8.0-1.76","subject":"012lqxyach8pl1r","sona":"7474"},{"trial_type":"turing-test","trial_index":313,"time_elapsed":735517,"internal_node_id":"0.0-8.0-2.76","subject":"012lqxyach8pl1r","sona":"7474"},{"rt":886.6099999286234,"stimulus":"<p>Welche Sequenz haben Sie als natürlicher empfunden?</p>","key_press":70,"test_part":"response","test_stimulus":{"position":1,"left":"bvh/vr_prediction_models/model(vcgpdm)-dataset(pass-bottle-hold)-mode(ELBO)-parts(1)-dyn(35)-lvm(10)-hold(2)/final-lines.txt","right":"bvh/pass-bottle-hold-training2-lines.txt","att_check":false},"trial_type":"html-keyboard-response","trial_index":314,"time_elapsed":736413,"internal_node_id":"0.0-8.0-3.76","subject":"012lqxyach8pl1r","sona":"7474"},{"rt":275.41999984532595,"stimulus":"<p>Bereit?</p>","key_press":32,"trial_type":"html-keyboard-response","trial_index":315,"time_elapsed":736693,"internal_node_id":"0.0-8.0-0.77","subject":"012lqxyach8pl1r","sona":"7474"},{"rt":null,"stimulus":"<div style=\"font-size:60px;\">+</div>","key_press":null,"trial_type":"html-keyboard-response","trial_index":316,"time_elapsed":738703,"internal_node_id":"0.0-8.0-1.77","subject":"012lqxyach8pl1r","sona":"7474"},{"trial_type":"turing-test","trial_index":317,"time_elapsed":743957,"internal_node_id":"0.0-8.0-2.77","subject":"012lqxyach8pl1r","sona":"7474"},{"rt":962.7449999097735,"stimulus":"<p>Welche Sequenz haben Sie als natürlicher empfunden?</p>","key_press":70,"test_part":"response","test_stimulus":{"position":1,"left":"bvh/vr_prediction_models/model(tmp)-dataset(return-bottle-hold)-numprim(4)-hold(0)/final-lines.txt","right":"bvh/return-bottle-hold-training0-lines.txt","att_check":false},"trial_type":"html-keyboard-response","trial_index":318,"time_elapsed":744926,"internal_node_id":"0.0-8.0-3.77","subject":"012lqxyach8pl1r","sona":"7474"},{"rt":274.30000016465783,"stimulus":"<p>Bereit?</p>","key_press":32,"trial_type":"html-keyboard-response","trial_index":319,"time_elapsed":745203,"internal_node_id":"0.0-8.0-0.78","subject":"012lqxyach8pl1r","sona":"7474"},{"rt":null,"stimulus":"<div style=\"font-size:60px;\">+</div>","key_press":null,"trial_type":"html-keyboard-response","trial_index":320,"time_elapsed":747215,"internal_node_id":"0.0-8.0-1.78","subject":"012lqxyach8pl1r","sona":"7474"},{"trial_type":"turing-test","trial_index":321,"time_elapsed":751685,"internal_node_id":"0.0-8.0-2.78","subject":"012lqxyach8pl1r","sona":"7474"},{"rt":652.4900000076741,"stimulus":"<p>Welche Sequenz haben Sie als natürlicher empfunden?</p>","key_press":70,"test_part":"response","test_stimulus":{"position":1,"left":"bvh/vr_prediction_models/model(vcgpdm)-dataset(pass-bottle-hold)-mode(ELBO)-parts(1)-dyn(30)-lvm(20)-hold(4)/final-lines.txt","right":"bvh/pass-bottle-hold-training4-lines.txt","att_check":false},"trial_type":"html-keyboard-response","trial_index":322,"time_elapsed":752344,"internal_node_id":"0.0-8.0-3.78","subject":"012lqxyach8pl1r","sona":"7474"},{"rt":281.955000013113,"stimulus":"<p>Bereit?</p>","key_press":32,"trial_type":"html-keyboard-response","trial_index":323,"time_elapsed":752633,"internal_node_id":"0.0-8.0-0.79","subject":"012lqxyach8pl1r","sona":"7474"},{"rt":null,"stimulus":"<div style=\"font-size:60px;\">+</div>","key_press":null,"trial_type":"html-keyboard-response","trial_index":324,"time_elapsed":754647,"internal_node_id":"0.0-8.0-1.79","subject":"012lqxyach8pl1r","sona":"7474"},{"trial_type":"turing-test","trial_index":325,"time_elapsed":760610,"internal_node_id":"0.0-8.0-2.79","subject":"012lqxyach8pl1r","sona":"7474"},{"rt":1540.6249999068677,"stimulus":"<p>Welche Sequenz haben Sie als natürlicher empfunden?</p>","key_press":70,"test_part":"response","test_stimulus":{"position":1,"left":"bvh/vr_prediction_models/model(vcgpdm)-dataset(return-bottle)-mode(ELBO)-parts(3)-dyn(10)-lvm(30)-hold(1)/final-lines.txt","right":"bvh/return-bottle-training1-lines.txt","att_check":false},"trial_type":"html-keyboard-response","trial_index":326,"time_elapsed":762166,"internal_node_id":"0.0-8.0-3.79","subject":"012lqxyach8pl1r","sona":"7474"},{"rt":13143.510000081733,"responses":"{\"age\":\" 19\",\"gender\":\"weiblich\"}","trial_type":"survey-text","trial_index":327,"time_elapsed":775319,"internal_node_id":"0.0-10.0-0.0","subject":"012lqxyach8pl1r","sona":"7474"},{"rt":183532.77499997057,"responses":"{\"area\":\"Arme, Hals\",\"Q1\":\"Intuition\",\"Q2\":\"gesamte Figur bewegt sich im Raum\"}","trial_type":"survey-text","trial_index":328,"time_elapsed":958907,"internal_node_id":"0.0-10.0-1.0","subject":"012lqxyach8pl1r","sona":"7474"}]