[{"rt":2680,"stimulus":"<p>Welcome!<br> Please choose your language to start the experiment in the chosen language.</p><p>Willkommen!<br> Bitte wählen Sie eine Sprache, um das Experiment in der ausgewählten Sprache zu starten</p>","button_pressed":"1","trial_type":"html-button-response","trial_index":0,"time_elapsed":2698,"internal_node_id":"0.0-0.0","subject":"p8pqw0qfqh0s97q"},{"view_history":"[{\"page_index\":0,\"viewing_time\":524},{\"page_index\":1,\"viewing_time\":687.9999999999995},{\"page_index\":2,\"viewing_time\":348},{\"page_index\":3,\"viewing_time\":1018.0000000000009},{\"page_index\":4,\"viewing_time\":876.9999999999991}]","rt":3455.9999999999995,"trial_type":"instructions","trial_index":1,"time_elapsed":6155,"internal_node_id":"0.0-1.0-0.0","subject":"p8pqw0qfqh0s97q"},{"rt":783,"stimulus":"<p>Bereit?</p>","key_press":32,"trial_type":"html-keyboard-response","trial_index":2,"time_elapsed":6939,"internal_node_id":"0.0-3.0","subject":"p8pqw0qfqh0s97q"},{"rt":null,"stimulus":"<div style=\"font-size:60px;\">+</div>","key_press":null,"trial_type":"html-keyboard-response","trial_index":3,"time_elapsed":8942,"internal_node_id":"0.0-4.0","subject":"p8pqw0qfqh0s97q"},{"trial_type":"training","trial_index":4,"time_elapsed":12476,"internal_node_id":"0.0-5.0","subject":"p8pqw0qfqh0s97q"},{"rt":639,"stimulus":"<p>Welche Sequenz haben Sie als natürlicher empfunden?</p>","key_press":70,"trial_type":"html-keyboard-response","trial_index":5,"time_elapsed":13116,"internal_node_id":"0.0-6.0","subject":"p8pqw0qfqh0s97q"},{"rt":1750.9999999999982,"stimulus":"<p>Das Experiment startet nun.</p><p><small>Bitte drücken Sie den Knopf, wenn Sie bereit sind.</small></p>","button_pressed":"0","trial_type":"html-button-response","trial_index":6,"time_elapsed":14868,"internal_node_id":"0.0-7.0","subject":"p8pqw0qfqh0s97q"},{"rt":711,"stimulus":"<p>Bereit?</p>","key_press":32,"trial_type":"html-keyboard-response","trial_index":7,"time_elapsed":15580,"internal_node_id":"0.0-8.0-0.0","subject":"p8pqw0qfqh0s97q"},{"rt":null,"stimulus":"<div style=\"font-size:60px;\">+</div>","key_press":null,"trial_type":"html-keyboard-response","trial_index":8,"time_elapsed":17582,"internal_node_id":"0.0-8.0-1.0","subject":"p8pqw0qfqh0s97q"},{"trial_type":"turing-test","trial_index":9,"time_elapsed":23068,"internal_node_id":"0.0-8.0-2.0","subject":"p8pqw0qfqh0s97q"},{"rt":508.99999999999636,"stimulus":"<p>Welche Sequenz haben Sie als natürlicher empfunden?</p>","key_press":70,"test_part":"response","test_stimulus":{"position":0,"left":"bvh/pass-bottle-training1-lines.txt","right":"bvh/vr_prediction_models/model(tmp)-dataset(pass-bottle)-numprim(7)-hold(1)/final-lines.txt","att_check":false},"trial_type":"html-keyboard-response","trial_index":10,"time_elapsed":23579,"internal_node_id":"0.0-8.0-3.0","subject":"p8pqw0qfqh0s97q"},{"rt":526,"stimulus":"<p>Bereit?</p>","key_press":32,"trial_type":"html-keyboard-response","trial_index":11,"time_elapsed":24106,"internal_node_id":"0.0-8.0-0.1","subject":"p8pqw0qfqh0s97q"},{"rt":null,"stimulus":"<div style=\"font-size:60px;\">+</div>","key_press":null,"trial_type":"html-keyboard-response","trial_index":12,"time_elapsed":26110,"internal_node_id":"0.0-8.0-1.1","subject":"p8pqw0qfqh0s97q"},{"trial_type":"turing-test","trial_index":13,"time_elapsed":31955,"internal_node_id":"0.0-8.0-2.1","subject":"p8pqw0qfqh0s97q"},{"rt":421,"stimulus":"<p>Welche Sequenz haben Sie als natürlicher empfunden?</p>","key_press":74,"test_part":"response","test_stimulus":{"position":1,"left":"bvh/vr_prediction_models/model(vcgpdm)-dataset(return-bottle)-mode(ELBO)-parts(1)-dyn(20)-lvm(5)-hold(3)/final-lines.txt","right":"bvh/return-bottle-training3-lines.txt","att_check":false},"trial_type":"html-keyboard-response","trial_index":14,"time_elapsed":32379,"internal_node_id":"0.0-8.0-3.1","subject":"p8pqw0qfqh0s97q"},{"rt":350,"stimulus":"<p>Bereit?</p>","key_press":32,"trial_type":"html-keyboard-response","trial_index":15,"time_elapsed":32731,"internal_node_id":"0.0-8.0-0.2","subject":"p8pqw0qfqh0s97q"},{"rt":null,"stimulus":"<div style=\"font-size:60px;\">+</div>","key_press":null,"trial_type":"html-keyboard-response","trial_index":16,"time_elapsed":34734,"internal_node_id":"0.0-8.0-1.2","subject":"p8pqw0qfqh0s97q"},{"trial_type":"turing-test","trial_index":17,"time_elapsed":40176,"internal_node_id":"0.0-8.0-2.2","subject":"p8pqw0qfqh0s97q"},{"rt":417.0000000000073,"stimulus":"<p>Welche Sequenz haben Sie als natürlicher empfunden?</p>","key_press":74,"test_part":"response","test_stimulus":{"position":0,"left":"bvh/return-bottle-training0-lines.txt","right":"bvh/vr_prediction_models/model(tmp)-dataset(return-bottle)-numprim(14)-hold(0)/final-lines.txt","att_check":false},"trial_type":"html-keyboard-response","trial_index":18,"time_elapsed":40596,"internal_node_id":"0.0-8.0-3.2","subject":"p8pqw0qfqh0s97q"},{"rt":318,"stimulus":"<p>Bereit?</p>","key_press":32,"trial_type":"html-keyboard-response","trial_index":19,"time_elapsed":40915,"internal_node_id":"0.0-8.0-0.3","subject":"p8pqw0qfqh0s97q"},{"rt":null,"stimulus":"<div style=\"font-size:60px;\">+</div>","key_press":null,"trial_type":"html-keyboard-response","trial_index":20,"time_elapsed":42918,"internal_node_id":"0.0-8.0-1.3","subject":"p8pqw0qfqh0s97q"},{"trial_type":"turing-test","trial_index":21,"time_elapsed":48375,"internal_node_id":"0.0-8.0-2.3","subject":"p8pqw0qfqh0s97q"},{"rt":481,"stimulus":"<p>Welche Sequenz haben Sie als natürlicher empfunden?</p>","key_press":74,"test_part":"response","test_stimulus":{"position":1,"left":"bvh/vr_prediction_models/model(vcgpdm)-dataset(return-bottle)-mode(ELBO)-parts(1)-dyn(10)-lvm(30)-hold(0)/final-lines.txt","right":"bvh/return-bottle-training0-lines.txt","att_check":false},"trial_type":"html-keyboard-response","trial_index":22,"time_elapsed":48859,"internal_node_id":"0.0-8.0-3.3","subject":"p8pqw0qfqh0s97q"},{"rt":317,"stimulus":"<p>Bereit?</p>","key_press":32,"trial_type":"html-keyboard-response","trial_index":23,"time_elapsed":49178,"internal_node_id":"0.0-8.0-0.4","subject":"p8pqw0qfqh0s97q"},{"rt":null,"stimulus":"<div style=\"font-size:60px;\">+</div>","key_press":null,"trial_type":"html-keyboard-response","trial_index":24,"time_elapsed":51181,"internal_node_id":"0.0-8.0-1.4","subject":"p8pqw0qfqh0s97q"},{"trial_type":"turing-test","trial_index":25,"time_elapsed":54625,"internal_node_id":"0.0-8.0-2.4","subject":"p8pqw0qfqh0s97q"},{"rt":304,"stimulus":"<p>Welche Sequenz haben Sie als natürlicher empfunden?</p>","key_press":74,"test_part":"response","test_stimulus":{"position":1,"left":"bvh/vr_prediction_models/model(vcgpdm)-dataset(pass-bottle-hold)-mode(ELBO)-parts(3)-dyn(20)-lvm(15)-hold(2)/final-lines.txt","right":"bvh/pass-bottle-hold-training2-lines.txt","att_check":false},"trial_type":"html-keyboard-response","trial_index":26,"time_elapsed":54932,"internal_node_id":"0.0-8.0-3.4","subject":"p8pqw0qfqh0s97q"},{"rt":246,"stimulus":"<p>Bereit?</p>","key_press":32,"trial_type":"html-keyboard-response","trial_index":27,"time_elapsed":55179,"internal_node_id":"0.0-8.0-0.5","subject":"p8pqw0qfqh0s97q"},{"rt":null,"stimulus":"<div style=\"font-size:60px;\">+</div>","key_press":null,"trial_type":"html-keyboard-response","trial_index":28,"time_elapsed":57182,"internal_node_id":"0.0-8.0-1.5","subject":"p8pqw0qfqh0s97q"},{"trial_type":"turing-test","trial_index":29,"time_elapsed":62982,"internal_node_id":"0.0-8.0-2.5","subject":"p8pqw0qfqh0s97q"},{"rt":500,"stimulus":"<p>Welche Sequenz haben Sie als natürlicher empfunden?</p>","key_press":74,"test_part":"response","test_stimulus":{"position":0,"left":"bvh/return-bottle-training4-lines.txt","right":"bvh/vr_prediction_models/model(tmp)-dataset(return-bottle)-numprim(3)-hold(4)/final-lines.txt","att_check":false},"trial_type":"html-keyboard-response","trial_index":30,"time_elapsed":63484,"internal_node_id":"0.0-8.0-3.5","subject":"p8pqw0qfqh0s97q"},{"rt":317,"stimulus":"<p>Bereit?</p>","key_press":32,"trial_type":"html-keyboard-response","trial_index":31,"time_elapsed":63804,"internal_node_id":"0.0-8.0-0.6","subject":"p8pqw0qfqh0s97q"},{"rt":null,"stimulus":"<div style=\"font-size:60px;\">+</div>","key_press":null,"trial_type":"html-keyboard-response","trial_index":32,"time_elapsed":65805,"internal_node_id":"0.0-8.0-1.6","subject":"p8pqw0qfqh0s97q"},{"trial_type":"turing-test","trial_index":33,"time_elapsed":69460,"internal_node_id":"0.0-8.0-2.6","subject":"p8pqw0qfqh0s97q"},{"rt":413,"stimulus":"<p>Welche Sequenz haben Sie als natürlicher empfunden?</p>","key_press":74,"test_part":"response","test_stimulus":{"position":0,"left":"bvh/pass-bottle-hold-training3-lines.txt","right":"bvh/vr_prediction_models/model(vcgpdm)-dataset(pass-bottle-hold)-mode(ELBO)-parts(3)-dyn(20)-lvm(35)-hold(3)/final-lines.txt","att_check":false},"trial_type":"html-keyboard-response","trial_index":34,"time_elapsed":69880,"internal_node_id":"0.0-8.0-3.6","subject":"p8pqw0qfqh0s97q"},{"rt":305,"stimulus":"<p>Bereit?</p>","key_press":32,"trial_type":"html-keyboard-response","trial_index":35,"time_elapsed":70188,"internal_node_id":"0.0-8.0-0.7","subject":"p8pqw0qfqh0s97q"},{"rt":null,"stimulus":"<div style=\"font-size:60px;\">+</div>","key_press":null,"trial_type":"html-keyboard-response","trial_index":36,"time_elapsed":72192,"internal_node_id":"0.0-8.0-1.7","subject":"p8pqw0qfqh0s97q"},{"trial_type":"turing-test","trial_index":37,"time_elapsed":75829,"internal_node_id":"0.0-8.0-2.7","subject":"p8pqw0qfqh0s97q"},{"rt":589,"stimulus":"<p>Welche Sequenz haben Sie als natürlicher empfunden?</p>","key_press":74,"test_part":"response","test_stimulus":{"position":1,"left":"bvh/vr_prediction_models/model(dmp)-dataset(return-bottle-hold)-npsi(20)-hold(3)/final-lines.txt","right":"bvh/return-bottle-hold-training3-lines.txt","att_check":false},"trial_type":"html-keyboard-response","trial_index":38,"time_elapsed":76420,"internal_node_id":"0.0-8.0-3.7","subject":"p8pqw0qfqh0s97q"},{"rt":229,"stimulus":"<p>Bereit?</p>","key_press":32,"trial_type":"html-keyboard-response","trial_index":39,"time_elapsed":76650,"internal_node_id":"0.0-8.0-0.8","subject":"p8pqw0qfqh0s97q"},{"rt":null,"stimulus":"<div style=\"font-size:60px;\">+</div>","key_press":null,"trial_type":"html-keyboard-response","trial_index":40,"time_elapsed":78653,"internal_node_id":"0.0-8.0-1.8","subject":"p8pqw0qfqh0s97q"},{"trial_type":"turing-test","trial_index":41,"time_elapsed":82346,"internal_node_id":"0.0-8.0-2.8","subject":"p8pqw0qfqh0s97q"},{"rt":759,"stimulus":"<p>Welche Sequenz haben Sie als natürlicher empfunden?</p>","key_press":74,"test_part":"response","test_stimulus":{"position":0,"left":"bvh/pass-bottle-hold-training4-lines.txt","right":"bvh/vr_prediction_models/model(vcgpdm)-dataset(pass-bottle-hold)-mode(ELBO)-parts(1)-dyn(10)-lvm(5)-hold(4)/final-lines.txt","att_check":false},"trial_type":"html-keyboard-response","trial_index":42,"time_elapsed":83107,"internal_node_id":"0.0-8.0-3.8","subject":"p8pqw0qfqh0s97q"},{"rt":214,"stimulus":"<p>Bereit?</p>","key_press":32,"trial_type":"html-keyboard-response","trial_index":43,"time_elapsed":83323,"internal_node_id":"0.0-8.0-0.9","subject":"p8pqw0qfqh0s97q"},{"rt":null,"stimulus":"<div style=\"font-size:60px;\">+</div>","key_press":null,"trial_type":"html-keyboard-response","trial_index":44,"time_elapsed":85326,"internal_node_id":"0.0-8.0-1.9","subject":"p8pqw0qfqh0s97q"},{"trial_type":"turing-test","trial_index":45,"time_elapsed":91408,"internal_node_id":"0.0-8.0-2.9","subject":"p8pqw0qfqh0s97q"},{"rt":313,"stimulus":"<p>Welche Sequenz haben Sie als natürlicher empfunden?</p>","key_press":74,"test_part":"response","test_stimulus":{"position":0,"left":"bvh/return-bottle-training1-lines.txt","right":"bvh/vr_prediction_models/model(tmp)-dataset(return-bottle)-numprim(9)-hold(1)/final-lines.txt","att_check":false},"trial_type":"html-keyboard-response","trial_index":46,"time_elapsed":91724,"internal_node_id":"0.0-8.0-3.9","subject":"p8pqw0qfqh0s97q"},{"rt":213,"stimulus":"<p>Bereit?</p>","key_press":32,"trial_type":"html-keyboard-response","trial_index":47,"time_elapsed":91939,"internal_node_id":"0.0-8.0-0.10","subject":"p8pqw0qfqh0s97q"},{"rt":null,"stimulus":"<div style=\"font-size:60px;\">+</div>","key_press":null,"trial_type":"html-keyboard-response","trial_index":48,"time_elapsed":93942,"internal_node_id":"0.0-8.0-1.10","subject":"p8pqw0qfqh0s97q"},{"trial_type":"turing-test","trial_index":49,"time_elapsed":100105,"internal_node_id":"0.0-8.0-2.10","subject":"p8pqw0qfqh0s97q"},{"rt":3335,"stimulus":"<p>Welche Sequenz haben Sie als natürlicher empfunden?</p>","key_press":74,"test_part":"response","test_stimulus":{"position":1,"left":"bvh/vr_prediction_models/model(vcgpdm)-dataset(return-bottle)-mode(ELBO)-parts(1)-dyn(20)-lvm(20)-hold(1)/final-lines.txt","right":"bvh/return-bottle-training1-lines.txt","att_check":false},"trial_type":"html-keyboard-response","trial_index":50,"time_elapsed":103442,"internal_node_id":"0.0-8.0-3.10","subject":"p8pqw0qfqh0s97q"},{"rt":649,"stimulus":"<p>Bereit?</p>","key_press":32,"trial_type":"html-keyboard-response","trial_index":51,"time_elapsed":104093,"internal_node_id":"0.0-8.0-0.11","subject":"p8pqw0qfqh0s97q"},{"rt":null,"stimulus":"<div style=\"font-size:60px;\">+</div>","key_press":null,"trial_type":"html-keyboard-response","trial_index":52,"time_elapsed":106096,"internal_node_id":"0.0-8.0-1.11","subject":"p8pqw0qfqh0s97q"},{"trial_type":"turing-test","trial_index":53,"time_elapsed":109806,"internal_node_id":"0.0-8.0-2.11","subject":"p8pqw0qfqh0s97q"},{"rt":3716.0000000000146,"stimulus":"<p>Welche Sequenz haben Sie als natürlicher empfunden?</p>","key_press":74,"test_part":"response","test_stimulus":{"position":0,"left":"bvh/pass-bottle-hold-training4-lines.txt","right":"bvh/vr_prediction_models/model(vcgpdm)-dataset(pass-bottle-hold)-mode(ELBO)-parts(1)-dyn(20)-lvm(5)-hold(4)/final-lines.txt","att_check":false},"trial_type":"html-keyboard-response","trial_index":54,"time_elapsed":113524,"internal_node_id":"0.0-8.0-3.11","subject":"p8pqw0qfqh0s97q"},{"rt":582,"stimulus":"<p>Bereit?</p>","key_press":32,"trial_type":"html-keyboard-response","trial_index":55,"time_elapsed":114108,"internal_node_id":"0.0-8.0-0.12","subject":"p8pqw0qfqh0s97q"},{"rt":null,"stimulus":"<div style=\"font-size:60px;\">+</div>","key_press":null,"trial_type":"html-keyboard-response","trial_index":56,"time_elapsed":116109,"internal_node_id":"0.0-8.0-1.12","subject":"p8pqw0qfqh0s97q"},{"trial_type":"turing-test","trial_index":57,"time_elapsed":120931,"internal_node_id":"0.0-8.0-2.12","subject":"p8pqw0qfqh0s97q"}]