[{"rt":1866.8400000024121,"stimulus":"<p>Welcome!<br> Please choose your language to start the experiment in the chosen language.</p><p>Willkommen!<br> Bitte wählen Sie eine Sprache, um das Experiment in der ausgewählten Sprache zu starten</p>","button_pressed":"0","trial_type":"html-button-response","trial_index":0,"time_elapsed":1932,"internal_node_id":"0.0-0.0","subject":"8a9d0jmhhunf22r","sona":"7360"},{"view_history":"[{\"page_index\":0,\"viewing_time\":3651.5550000040093},{\"page_index\":1,\"viewing_time\":2361.864999998943},{\"page_index\":2,\"viewing_time\":2091.6199999919627},{\"page_index\":3,\"viewing_time\":3902.410000009695},{\"page_index\":4,\"viewing_time\":2108.0050000018673}]","rt":14116.21500000183,"trial_type":"instructions","trial_index":1,"time_elapsed":16049,"internal_node_id":"0.0-2.0-0.0","subject":"8a9d0jmhhunf22r","sona":"7360"},{"rt":1826.8800000078045,"stimulus":"<p>Ready?</p>","key_press":32,"trial_type":"html-keyboard-response","trial_index":2,"time_elapsed":17876,"internal_node_id":"0.0-3.0","subject":"8a9d0jmhhunf22r","sona":"7360"},{"rt":null,"stimulus":"<div style=\"font-size:60px;\">+</div>","key_press":null,"trial_type":"html-keyboard-response","trial_index":3,"time_elapsed":19879,"internal_node_id":"0.0-4.0","subject":"8a9d0jmhhunf22r","sona":"7360"},{"trial_type":"training","trial_index":4,"time_elapsed":23155,"internal_node_id":"0.0-5.0","subject":"8a9d0jmhhunf22r","sona":"7360"},{"rt":3103.625000003376,"stimulus":"<p>Which sequence did you perceive as more natural?</p>","key_press":70,"trial_type":"html-keyboard-response","trial_index":5,"time_elapsed":26260,"internal_node_id":"0.0-6.0","subject":"8a9d0jmhhunf22r","sona":"7360"},{"rt":3107.7950000035344,"stimulus":"<p>The experiment starts now.</p><p><small>Please click the button if you are ready.</small></p>","button_pressed":"0","trial_type":"html-button-response","trial_index":6,"time_elapsed":29368,"internal_node_id":"0.0-7.0","subject":"8a9d0jmhhunf22r","sona":"7360"},{"rt":1162.5950000016019,"stimulus":"<p>Ready?</p>","key_press":32,"trial_type":"html-keyboard-response","trial_index":7,"time_elapsed":30532,"internal_node_id":"0.0-8.0-0.0","subject":"8a9d0jmhhunf22r","sona":"7360"},{"rt":null,"stimulus":"<div style=\"font-size:60px;\">+</div>","key_press":null,"trial_type":"html-keyboard-response","trial_index":8,"time_elapsed":32534,"internal_node_id":"0.0-8.0-1.0","subject":"8a9d0jmhhunf22r","sona":"7360"},{"trial_type":"turing-test","trial_index":9,"time_elapsed":35816,"internal_node_id":"0.0-8.0-2.0","subject":"8a9d0jmhhunf22r","sona":"7360"},{"rt":2370.7050000084564,"stimulus":"<p>Which sequence did you perceive as more natural?</p>","key_press":74,"test_part":"response","test_stimulus":{"position":1,"left":"bvh/vr_prediction_models/model(dmp)-dataset(pass-bottle-hold)-npsi(40)-hold(2)/final-lines.txt","right":"bvh/pass-bottle-hold-training2-lines.txt","att_check":false},"trial_type":"html-keyboard-response","trial_index":10,"time_elapsed":38188,"internal_node_id":"0.0-8.0-3.0","subject":"8a9d0jmhhunf22r","sona":"7360"},{"rt":870.1650000002701,"stimulus":"<p>Ready?</p>","key_press":32,"trial_type":"html-keyboard-response","trial_index":11,"time_elapsed":39060,"internal_node_id":"0.0-8.0-0.1","subject":"8a9d0jmhhunf22r","sona":"7360"},{"rt":null,"stimulus":"<div style=\"font-size:60px;\">+</div>","key_press":null,"trial_type":"html-keyboard-response","trial_index":12,"time_elapsed":41063,"internal_node_id":"0.0-8.0-1.1","subject":"8a9d0jmhhunf22r","sona":"7360"},{"trial_type":"turing-test","trial_index":13,"time_elapsed":46728,"internal_node_id":"0.0-8.0-2.1","subject":"8a9d0jmhhunf22r","sona":"7360"},{"rt":586.2049999996088,"stimulus":"<p>Which sequence did you perceive as more natural?</p>","key_press":74,"test_part":"response","test_stimulus":{"position":1,"left":"bvh/vr_prediction_models/model(tmp)-dataset(pass-bottle)-numprim(7)-hold(4)/final-lines.txt","right":"bvh/pass-bottle-training4-lines.txt","att_check":false},"trial_type":"html-keyboard-response","trial_index":14,"time_elapsed":47315,"internal_node_id":"0.0-8.0-3.1","subject":"8a9d0jmhhunf22r","sona":"7360"},{"rt":646.9400000059977,"stimulus":"<p>Ready?</p>","key_press":32,"trial_type":"html-keyboard-response","trial_index":15,"time_elapsed":47963,"internal_node_id":"0.0-8.0-0.2","subject":"8a9d0jmhhunf22r","sona":"7360"},{"rt":null,"stimulus":"<div style=\"font-size:60px;\">+</div>","key_press":null,"trial_type":"html-keyboard-response","trial_index":16,"time_elapsed":49965,"internal_node_id":"0.0-8.0-1.2","subject":"8a9d0jmhhunf22r","sona":"7360"},{"trial_type":"turing-test","trial_index":17,"time_elapsed":56028,"internal_node_id":"0.0-8.0-2.2","subject":"8a9d0jmhhunf22r","sona":"7360"},{"rt":421.9849999935832,"stimulus":"<p>Which sequence did you perceive as more natural?</p>","key_press":70,"test_part":"response","test_stimulus":{"position":1,"left":"bvh/vr_prediction_models/model(vcgpdm)-dataset(return-bottle)-mode(ELBO)-parts(3)-dyn(25)-lvm(25)-hold(1)/final-lines.txt","right":"bvh/return-bottle-training1-lines.txt","att_check":false},"trial_type":"html-keyboard-response","trial_index":18,"time_elapsed":56452,"internal_node_id":"0.0-8.0-3.2","subject":"8a9d0jmhhunf22r","sona":"7360"},{"rt":622.6349999924423,"stimulus":"<p>Ready?</p>","key_press":32,"trial_type":"html-keyboard-response","trial_index":19,"time_elapsed":57076,"internal_node_id":"0.0-8.0-0.3","subject":"8a9d0jmhhunf22r","sona":"7360"},{"rt":null,"stimulus":"<div style=\"font-size:60px;\">+</div>","key_press":null,"trial_type":"html-keyboard-response","trial_index":20,"time_elapsed":59078,"internal_node_id":"0.0-8.0-1.3","subject":"8a9d0jmhhunf22r","sona":"7360"},{"trial_type":"turing-test","trial_index":21,"time_elapsed":62323,"internal_node_id":"0.0-8.0-2.3","subject":"8a9d0jmhhunf22r","sona":"7360"},{"rt":2432.004999995115,"stimulus":"<p>Which sequence did you perceive as more natural?</p>","key_press":70,"test_part":"response","test_stimulus":{"position":0,"left":"bvh/pass-bottle-hold-training0-lines.txt","right":"bvh/vr_prediction_models/model(tmp)-dataset(pass-bottle-hold)-numprim(12)-hold(0)/final-lines.txt","att_check":false},"trial_type":"html-keyboard-response","trial_index":22,"time_elapsed":64756,"internal_node_id":"0.0-8.0-3.3","subject":"8a9d0jmhhunf22r","sona":"7360"},{"rt":766.9800000003306,"stimulus":"<p>Ready?</p>","key_press":32,"trial_type":"html-keyboard-response","trial_index":23,"time_elapsed":65524,"internal_node_id":"0.0-8.0-0.4","subject":"8a9d0jmhhunf22r","sona":"7360"},{"rt":null,"stimulus":"<div style=\"font-size:60px;\">+</div>","key_press":null,"trial_type":"html-keyboard-response","trial_index":24,"time_elapsed":67526,"internal_node_id":"0.0-8.0-1.4","subject":"8a9d0jmhhunf22r","sona":"7360"},{"trial_type":"turing-test","trial_index":25,"time_elapsed":71123,"internal_node_id":"0.0-8.0-2.4","subject":"8a9d0jmhhunf22r","sona":"7360"},{"rt":479.40499999094754,"stimulus":"<p>Which sequence did you perceive as more natural?</p>","key_press":74,"test_part":"response","test_stimulus":{"position":1,"left":"bvh/vr_prediction_models/model(vcgpdm)-dataset(pass-bottle-hold)-mode(ELBO)-parts(1)-dyn(25)-lvm(35)-hold(4)/final-lines.txt","right":"bvh/pass-bottle-hold-training4-lines.txt","att_check":false},"trial_type":"html-keyboard-response","trial_index":26,"time_elapsed":71604,"internal_node_id":"0.0-8.0-3.4","subject":"8a9d0jmhhunf22r","sona":"7360"},{"rt":486.60999999265186,"stimulus":"<p>Ready?</p>","key_press":32,"trial_type":"html-keyboard-response","trial_index":27,"time_elapsed":72092,"internal_node_id":"0.0-8.0-0.5","subject":"8a9d0jmhhunf22r","sona":"7360"},{"rt":null,"stimulus":"<div style=\"font-size:60px;\">+</div>","key_press":null,"trial_type":"html-keyboard-response","trial_index":28,"time_elapsed":74094,"internal_node_id":"0.0-8.0-1.5","subject":"8a9d0jmhhunf22r","sona":"7360"},{"trial_type":"turing-test","trial_index":29,"time_elapsed":77663,"internal_node_id":"0.0-8.0-2.5","subject":"8a9d0jmhhunf22r","sona":"7360"},{"rt":1514.9600000004284,"stimulus":"<p>Which sequence did you perceive as more natural?</p>","key_press":70,"test_part":"response","test_stimulus":{"position":0,"left":"bvh/pass-bottle-hold-training4-lines.txt","right":"bvh/vr_prediction_models/model(vcgpdm)-dataset(pass-bottle-hold)-mode(MAP)-parts(1)-hold(4)/final-lines.txt","att_check":false},"trial_type":"html-keyboard-response","trial_index":30,"time_elapsed":79180,"internal_node_id":"0.0-8.0-3.5","subject":"8a9d0jmhhunf22r","sona":"7360"},{"rt":590.2249999926426,"stimulus":"<p>Ready?</p>","key_press":32,"trial_type":"html-keyboard-response","trial_index":31,"time_elapsed":79772,"internal_node_id":"0.0-8.0-0.6","subject":"8a9d0jmhhunf22r","sona":"7360"},{"rt":null,"stimulus":"<div style=\"font-size:60px;\">+</div>","key_press":null,"trial_type":"html-keyboard-response","trial_index":32,"time_elapsed":81775,"internal_node_id":"0.0-8.0-1.6","subject":"8a9d0jmhhunf22r","sona":"7360"},{"trial_type":"turing-test","trial_index":33,"time_elapsed":87269,"internal_node_id":"0.0-8.0-2.6","subject":"8a9d0jmhhunf22r","sona":"7360"},{"rt":357.1550000051502,"stimulus":"<p>Which sequence did you perceive as more natural?</p>","key_press":74,"test_part":"response","test_stimulus":{"position":0,"left":"bvh/pass-bottle-training1-lines.txt","right":"bvh/vr_prediction_models/model(vcgpdm)-dataset(pass-bottle)-mode(ELBO)-parts(1)-dyn(30)-lvm(35)-hold(1)/final-lines.txt","att_check":false},"trial_type":"html-keyboard-response","trial_index":34,"time_elapsed":87628,"internal_node_id":"0.0-8.0-3.6","subject":"8a9d0jmhhunf22r","sona":"7360"},{"rt":462.42999999958556,"stimulus":"<p>Ready?</p>","key_press":32,"trial_type":"html-keyboard-response","trial_index":35,"time_elapsed":88092,"internal_node_id":"0.0-8.0-0.7","subject":"8a9d0jmhhunf22r","sona":"7360"},{"rt":null,"stimulus":"<div style=\"font-size:60px;\">+</div>","key_press":null,"trial_type":"html-keyboard-response","trial_index":36,"time_elapsed":90094,"internal_node_id":"0.0-8.0-1.7","subject":"8a9d0jmhhunf22r","sona":"7360"},{"trial_type":"turing-test","trial_index":37,"time_elapsed":96065,"internal_node_id":"0.0-8.0-2.7","subject":"8a9d0jmhhunf22r","sona":"7360"},{"rt":504.3450000084704,"stimulus":"<p>Which sequence did you perceive as more natural?</p>","key_press":70,"test_part":"response","test_stimulus":{"position":0,"left":"bvh/return-bottle-training1-lines.txt","right":"bvh/vr_prediction_models/model(dmp)-dataset(return-bottle)-npsi(50)-hold(1)/final-lines.txt","att_check":false},"trial_type":"html-keyboard-response","trial_index":38,"time_elapsed":96572,"internal_node_id":"0.0-8.0-3.7","subject":"8a9d0jmhhunf22r","sona":"7360"},{"rt":382.6699999917764,"stimulus":"<p>Ready?</p>","key_press":32,"trial_type":"html-keyboard-response","trial_index":39,"time_elapsed":96956,"internal_node_id":"0.0-8.0-0.8","subject":"8a9d0jmhhunf22r","sona":"7360"},{"rt":null,"stimulus":"<div style=\"font-size:60px;\">+</div>","key_press":null,"trial_type":"html-keyboard-response","trial_index":40,"time_elapsed":98959,"internal_node_id":"0.0-8.0-1.8","subject":"8a9d0jmhhunf22r","sona":"7360"},{"trial_type":"turing-test","trial_index":41,"time_elapsed":102228,"internal_node_id":"0.0-8.0-2.8","subject":"8a9d0jmhhunf22r","sona":"7360"},{"rt":974.5499999989988,"stimulus":"<p>Which sequence did you perceive as more natural?</p>","key_press":74,"test_part":"response","test_stimulus":{"position":0,"left":"bvh/return-bottle-hold-training1-lines.txt","right":"bvh/vr_prediction_models/model(dmp)-dataset(return-bottle-hold)-npsi(40)-hold(1)/final-lines.txt","att_check":false},"trial_type":"html-keyboard-response","trial_index":42,"time_elapsed":103204,"internal_node_id":"0.0-8.0-3.8","subject":"8a9d0jmhhunf22r","sona":"7360"},{"rt":398.52499999688007,"stimulus":"<p>Ready?</p>","key_press":32,"trial_type":"html-keyboard-response","trial_index":43,"time_elapsed":103604,"internal_node_id":"0.0-8.0-0.9","subject":"8a9d0jmhhunf22r","sona":"7360"},{"rt":null,"stimulus":"<div style=\"font-size:60px;\">+</div>","key_press":null,"trial_type":"html-keyboard-response","trial_index":44,"time_elapsed":105605,"internal_node_id":"0.0-8.0-1.9","subject":"8a9d0jmhhunf22r","sona":"7360"},{"trial_type":"turing-test","trial_index":45,"time_elapsed":109224,"internal_node_id":"0.0-8.0-2.9","subject":"8a9d0jmhhunf22r","sona":"7360"},{"rt":506.45000000076834,"stimulus":"<p>Which sequence did you perceive as more natural?</p>","key_press":74,"test_part":"response","test_stimulus":{"position":0,"left":"bvh/return-bottle-hold-training3-lines.txt","right":"bvh/vr_prediction_models/model(vcgpdm)-dataset(return-bottle-hold)-mode(ELBO)-parts(1)-dyn(10)-lvm(5)-hold(3)/final-lines.txt","att_check":false},"trial_type":"html-keyboard-response","trial_index":46,"time_elapsed":109732,"internal_node_id":"0.0-8.0-3.9","subject":"8a9d0jmhhunf22r","sona":"7360"},{"rt":318.9249999995809,"stimulus":"<p>Ready?</p>","key_press":32,"trial_type":"html-keyboard-response","trial_index":47,"time_elapsed":110052,"internal_node_id":"0.0-8.0-0.10","subject":"8a9d0jmhhunf22r","sona":"7360"},{"rt":null,"stimulus":"<div style=\"font-size:60px;\">+</div>","key_press":null,"trial_type":"html-keyboard-response","trial_index":48,"time_elapsed":112053,"internal_node_id":"0.0-8.0-1.10","subject":"8a9d0jmhhunf22r","sona":"7360"},{"trial_type":"turing-test","trial_index":49,"time_elapsed":115624,"internal_node_id":"0.0-8.0-2.10","subject":"8a9d0jmhhunf22r","sona":"7360"},{"rt":234.23500001081266,"stimulus":"<p>Which sequence did you perceive as more natural?</p>","key_press":74,"test_part":"response","test_stimulus":{"position":0,"left":"bvh/pass-bottle-hold-training3-lines.txt","right":"bvh/vr_prediction_models/model(vcgpdm)-dataset(pass-bottle-hold)-mode(ELBO)-parts(1)-dyn(20)-lvm(30)-hold(3)/final-lines.txt","att_check":false},"trial_type":"html-keyboard-response","trial_index":50,"time_elapsed":115860,"internal_node_id":"0.0-8.0-3.10","subject":"8a9d0jmhhunf22r","sona":"7360"},{"rt":302.4250000016764,"stimulus":"<p>Ready?</p>","key_press":32,"trial_type":"html-keyboard-response","trial_index":51,"time_elapsed":116164,"internal_node_id":"0.0-8.0-0.11","subject":"8a9d0jmhhunf22r","sona":"7360"},{"rt":null,"stimulus":"<div style=\"font-size:60px;\">+</div>","key_press":null,"trial_type":"html-keyboard-response","trial_index":52,"time_elapsed":118166,"internal_node_id":"0.0-8.0-1.11","subject":"8a9d0jmhhunf22r","sona":"7360"}]