[{"rt":2146,"stimulus":"<p>Welcome!<br> Please choose your language to start the experiment in the chosen language.</p><p>Willkommen!<br> Bitte wählen Sie eine Sprache, um das Experiment in der ausgewählten Sprache zu starten</p>","button_pressed":"1","trial_type":"html-button-response","trial_index":0,"time_elapsed":2163,"internal_node_id":"0.0-0.0","subject":"kskh04hwwhtr6p4","sona":"9301"},{"view_history":"[{\"page_index\":0,\"viewing_time\":1816},{\"page_index\":1,\"viewing_time\":3083.000000000001},{\"page_index\":2,\"viewing_time\":4469.999999999999},{\"page_index\":3,\"viewing_time\":5917},{\"page_index\":4,\"viewing_time\":2677}]","rt":17964,"trial_type":"instructions","trial_index":1,"time_elapsed":20127,"internal_node_id":"0.0-1.0-0.0","subject":"kskh04hwwhtr6p4","sona":"9301"},{"rt":2360,"stimulus":"<p>Bereit?</p>","key_press":32,"trial_type":"html-keyboard-response","trial_index":2,"time_elapsed":22490,"internal_node_id":"0.0-3.0","subject":"kskh04hwwhtr6p4","sona":"9301"},{"rt":null,"stimulus":"<div style=\"font-size:60px;\">+</div>","key_press":null,"trial_type":"html-keyboard-response","trial_index":3,"time_elapsed":24494,"internal_node_id":"0.0-4.0","subject":"kskh04hwwhtr6p4","sona":"9301"},{"trial_type":"training","trial_index":4,"time_elapsed":27897,"internal_node_id":"0.0-5.0","subject":"kskh04hwwhtr6p4","sona":"9301"},{"rt":7279,"stimulus":"<p>Welche Sequenz haben Sie als natürlicher empfunden?</p>","key_press":70,"trial_type":"html-keyboard-response","trial_index":5,"time_elapsed":35177,"internal_node_id":"0.0-6.0","subject":"kskh04hwwhtr6p4","sona":"9301"},{"rt":2488,"stimulus":"<p>Das Experiment startet nun.</p><p><small>Bitte drücken Sie den Knopf, wenn Sie bereit sind.</small></p>","button_pressed":"0","trial_type":"html-button-response","trial_index":6,"time_elapsed":37666,"internal_node_id":"0.0-7.0","subject":"kskh04hwwhtr6p4","sona":"9301"},{"rt":1497,"stimulus":"<p>Bereit?</p>","key_press":32,"trial_type":"html-keyboard-response","trial_index":7,"time_elapsed":39166,"internal_node_id":"0.0-8.0-0.0","subject":"kskh04hwwhtr6p4","sona":"9301"},{"rt":null,"stimulus":"<div style=\"font-size:60px;\">+</div>","key_press":null,"trial_type":"html-keyboard-response","trial_index":8,"time_elapsed":41171,"internal_node_id":"0.0-8.0-1.0","subject":"kskh04hwwhtr6p4","sona":"9301"},{"trial_type":"turing-test","trial_index":9,"time_elapsed":47399,"internal_node_id":"0.0-8.0-2.0","subject":"kskh04hwwhtr6p4","sona":"9301"},{"rt":806.9999999999927,"stimulus":"<p>Welche Sequenz haben Sie als natürlicher empfunden?</p>","key_press":70,"test_part":"response","test_stimulus":{"position":0,"left":"bvh/pass-bottle-training2-lines.txt","right":"bvh/vr_prediction_models/model(vcgpdm)-dataset(pass-bottle)-mode(ELBO)-parts(1)-dyn(30)-lvm(35)-hold(2)/final-lines.txt","att_check":false},"trial_type":"html-keyboard-response","trial_index":10,"time_elapsed":48210,"internal_node_id":"0.0-8.0-3.0","subject":"kskh04hwwhtr6p4","sona":"9301"},{"rt":1446.9999999999927,"stimulus":"<p>Bereit?</p>","key_press":32,"trial_type":"html-keyboard-response","trial_index":11,"time_elapsed":49660,"internal_node_id":"0.0-8.0-0.1","subject":"kskh04hwwhtr6p4","sona":"9301"},{"rt":null,"stimulus":"<div style=\"font-size:60px;\">+</div>","key_press":null,"trial_type":"html-keyboard-response","trial_index":12,"time_elapsed":51665,"internal_node_id":"0.0-8.0-1.1","subject":"kskh04hwwhtr6p4","sona":"9301"},{"trial_type":"turing-test","trial_index":13,"time_elapsed":54940,"internal_node_id":"0.0-8.0-2.1","subject":"kskh04hwwhtr6p4","sona":"9301"},{"rt":734,"stimulus":"<p>Welche Sequenz haben Sie als natürlicher empfunden?</p>","key_press":74,"test_part":"response","test_stimulus":{"position":1,"left":"bvh/vr_prediction_models/model(tmp)-dataset(pass-bottle-hold)-numprim(15)-hold(0)/final-lines.txt","right":"bvh/pass-bottle-hold-training0-lines.txt","att_check":false},"trial_type":"html-keyboard-response","trial_index":14,"time_elapsed":55678,"internal_node_id":"0.0-8.0-3.1","subject":"kskh04hwwhtr6p4","sona":"9301"},{"rt":1429,"stimulus":"<p>Bereit?</p>","key_press":32,"trial_type":"html-keyboard-response","trial_index":15,"time_elapsed":57111,"internal_node_id":"0.0-8.0-0.2","subject":"kskh04hwwhtr6p4","sona":"9301"},{"rt":null,"stimulus":"<div style=\"font-size:60px;\">+</div>","key_press":null,"trial_type":"html-keyboard-response","trial_index":16,"time_elapsed":59116,"internal_node_id":"0.0-8.0-1.2","subject":"kskh04hwwhtr6p4","sona":"9301"},{"trial_type":"turing-test","trial_index":17,"time_elapsed":64935,"internal_node_id":"0.0-8.0-2.2","subject":"kskh04hwwhtr6p4","sona":"9301"},{"rt":1083,"stimulus":"<p>Welche Sequenz haben Sie als natürlicher empfunden?</p>","key_press":70,"test_part":"response","test_stimulus":{"position":0,"left":"bvh/return-bottle-training4-lines.txt","right":"bvh/vr_prediction_models/model(vcgpdm)-dataset(return-bottle)-mode(ELBO)-parts(3)-dyn(25)-lvm(15)-hold(4)/final-lines.txt","att_check":false},"trial_type":"html-keyboard-response","trial_index":18,"time_elapsed":66021,"internal_node_id":"0.0-8.0-3.2","subject":"kskh04hwwhtr6p4","sona":"9301"},{"rt":1351,"stimulus":"<p>Bereit?</p>","key_press":32,"trial_type":"html-keyboard-response","trial_index":19,"time_elapsed":67374,"internal_node_id":"0.0-8.0-0.3","subject":"kskh04hwwhtr6p4","sona":"9301"},{"rt":null,"stimulus":"<div style=\"font-size:60px;\">+</div>","key_press":null,"trial_type":"html-keyboard-response","trial_index":20,"time_elapsed":69379,"internal_node_id":"0.0-8.0-1.3","subject":"kskh04hwwhtr6p4","sona":"9301"},{"trial_type":"turing-test","trial_index":21,"time_elapsed":74791,"internal_node_id":"0.0-8.0-2.3","subject":"kskh04hwwhtr6p4","sona":"9301"},{"rt":514,"stimulus":"<p>Welche Sequenz haben Sie als natürlicher empfunden?</p>","key_press":70,"test_part":"response","test_stimulus":{"position":1,"left":"bvh/vr_prediction_models/model(tmp)-dataset(pass-bottle)-numprim(11)-hold(1)/final-lines.txt","right":"bvh/pass-bottle-training1-lines.txt","att_check":false},"trial_type":"html-keyboard-response","trial_index":22,"time_elapsed":75308,"internal_node_id":"0.0-8.0-3.3","subject":"kskh04hwwhtr6p4","sona":"9301"},{"rt":1103,"stimulus":"<p>Bereit?</p>","key_press":32,"trial_type":"html-keyboard-response","trial_index":23,"time_elapsed":76415,"internal_node_id":"0.0-8.0-0.4","subject":"kskh04hwwhtr6p4","sona":"9301"},{"rt":null,"stimulus":"<div style=\"font-size:60px;\">+</div>","key_press":null,"trial_type":"html-keyboard-response","trial_index":24,"time_elapsed":78420,"internal_node_id":"0.0-8.0-1.4","subject":"kskh04hwwhtr6p4","sona":"9301"},{"trial_type":"turing-test","trial_index":25,"time_elapsed":84468,"internal_node_id":"0.0-8.0-2.4","subject":"kskh04hwwhtr6p4","sona":"9301"},{"rt":686,"stimulus":"<p>Welche Sequenz haben Sie als natürlicher empfunden?</p>","key_press":74,"test_part":"response","test_stimulus":{"position":1,"left":"bvh/vr_prediction_models/model(dmp)-dataset(return-bottle)-npsi(40)-hold(1)/final-lines.txt","right":"bvh/return-bottle-training1-lines.txt","att_check":false},"trial_type":"html-keyboard-response","trial_index":26,"time_elapsed":85157,"internal_node_id":"0.0-8.0-3.4","subject":"kskh04hwwhtr6p4","sona":"9301"},{"rt":1189,"stimulus":"<p>Bereit?</p>","key_press":32,"trial_type":"html-keyboard-response","trial_index":27,"time_elapsed":86350,"internal_node_id":"0.0-8.0-0.5","subject":"kskh04hwwhtr6p4","sona":"9301"},{"rt":null,"stimulus":"<div style=\"font-size:60px;\">+</div>","key_press":null,"trial_type":"html-keyboard-response","trial_index":28,"time_elapsed":88354,"internal_node_id":"0.0-8.0-1.5","subject":"kskh04hwwhtr6p4","sona":"9301"},{"trial_type":"turing-test","trial_index":29,"time_elapsed":92082,"internal_node_id":"0.0-8.0-2.5","subject":"kskh04hwwhtr6p4","sona":"9301"},{"rt":542.0000000000146,"stimulus":"<p>Welche Sequenz haben Sie als natürlicher empfunden?</p>","key_press":70,"test_part":"response","test_stimulus":{"position":0,"left":"bvh/return-bottle-hold-training4-lines.txt","right":"bvh/vr_prediction_models/model(dmp)-dataset(return-bottle-hold)-npsi(80)-hold(4)/final-lines.txt","att_check":true},"trial_type":"html-keyboard-response","trial_index":30,"time_elapsed":92627,"internal_node_id":"0.0-8.0-3.5","subject":"kskh04hwwhtr6p4","sona":"9301"},{"rt":841.9999999999854,"stimulus":"<p>Bereit?</p>","key_press":32,"trial_type":"html-keyboard-response","trial_index":31,"time_elapsed":93473,"internal_node_id":"0.0-8.0-0.6","subject":"kskh04hwwhtr6p4","sona":"9301"},{"rt":null,"stimulus":"<div style=\"font-size:60px;\">+</div>","key_press":null,"trial_type":"html-keyboard-response","trial_index":32,"time_elapsed":95477,"internal_node_id":"0.0-8.0-1.6","subject":"kskh04hwwhtr6p4","sona":"9301"},{"trial_type":"turing-test","trial_index":33,"time_elapsed":102284,"internal_node_id":"0.0-8.0-2.6","subject":"kskh04hwwhtr6p4","sona":"9301"},{"rt":237.00000000001455,"stimulus":"<p>Welche Sequenz haben Sie als natürlicher empfunden?</p>","key_press":74,"test_part":"response","test_stimulus":{"position":1,"left":"bvh/vr_prediction_models/model(vcgpdm)-dataset(pass-bottle)-mode(MAP)-parts(1)-hold(0)/final-lines.txt","right":"bvh/pass-bottle-training0-lines.txt","att_check":false},"trial_type":"html-keyboard-response","trial_index":34,"time_elapsed":102523,"internal_node_id":"0.0-8.0-3.6","subject":"kskh04hwwhtr6p4","sona":"9301"},{"rt":1029,"stimulus":"<p>Bereit?</p>","key_press":32,"trial_type":"html-keyboard-response","trial_index":35,"time_elapsed":103554,"internal_node_id":"0.0-8.0-0.7","subject":"kskh04hwwhtr6p4","sona":"9301"},{"rt":null,"stimulus":"<div style=\"font-size:60px;\">+</div>","key_press":null,"trial_type":"html-keyboard-response","trial_index":36,"time_elapsed":105559,"internal_node_id":"0.0-8.0-1.7","subject":"kskh04hwwhtr6p4","sona":"9301"},{"trial_type":"turing-test","trial_index":37,"time_elapsed":108823,"internal_node_id":"0.0-8.0-2.7","subject":"kskh04hwwhtr6p4","sona":"9301"},{"rt":587,"stimulus":"<p>Welche Sequenz haben Sie als natürlicher empfunden?</p>","key_press":70,"test_part":"response","test_stimulus":{"position":0,"left":"bvh/pass-bottle-hold-training1-lines.txt","right":"bvh/vr_prediction_models/model(vcgpdm)-dataset(pass-bottle-hold)-mode(ELBO)-parts(1)-dyn(35)-lvm(10)-hold(1)/final-lines.txt","att_check":false},"trial_type":"html-keyboard-response","trial_index":38,"time_elapsed":109413,"internal_node_id":"0.0-8.0-3.7","subject":"kskh04hwwhtr6p4","sona":"9301"},{"rt":783,"stimulus":"<p>Bereit?</p>","key_press":32,"trial_type":"html-keyboard-response","trial_index":39,"time_elapsed":110199,"internal_node_id":"0.0-8.0-0.8","subject":"kskh04hwwhtr6p4","sona":"9301"},{"rt":null,"stimulus":"<div style=\"font-size:60px;\">+</div>","key_press":null,"trial_type":"html-keyboard-response","trial_index":40,"time_elapsed":112204,"internal_node_id":"0.0-8.0-1.8","subject":"kskh04hwwhtr6p4","sona":"9301"},{"trial_type":"turing-test","trial_index":41,"time_elapsed":117672,"internal_node_id":"0.0-8.0-2.8","subject":"kskh04hwwhtr6p4","sona":"9301"},{"rt":534,"stimulus":"<p>Welche Sequenz haben Sie als natürlicher empfunden?</p>","key_press":74,"test_part":"response","test_stimulus":{"position":1,"left":"bvh/vr_prediction_models/model(vcgpdm)-dataset(return-bottle)-mode(ELBO)-parts(1)-dyn(30)-lvm(35)-hold(0)/final-lines.txt","right":"bvh/return-bottle-training0-lines.txt","att_check":false},"trial_type":"html-keyboard-response","trial_index":42,"time_elapsed":118210,"internal_node_id":"0.0-8.0-3.8","subject":"kskh04hwwhtr6p4","sona":"9301"},{"rt":713,"stimulus":"<p>Bereit?</p>","key_press":32,"trial_type":"html-keyboard-response","trial_index":43,"time_elapsed":118926,"internal_node_id":"0.0-8.0-0.9","subject":"kskh04hwwhtr6p4","sona":"9301"},{"rt":null,"stimulus":"<div style=\"font-size:60px;\">+</div>","key_press":null,"trial_type":"html-keyboard-response","trial_index":44,"time_elapsed":120931,"internal_node_id":"0.0-8.0-1.9","subject":"kskh04hwwhtr6p4","sona":"9301"},{"trial_type":"turing-test","trial_index":45,"time_elapsed":124338,"internal_node_id":"0.0-8.0-2.9","subject":"kskh04hwwhtr6p4","sona":"9301"},{"rt":437,"stimulus":"<p>Welche Sequenz haben Sie als natürlicher empfunden?</p>","key_press":74,"test_part":"response","test_stimulus":{"position":0,"left":"bvh/pass-bottle-hold-training2-lines.txt","right":"bvh/vr_prediction_models/model(vcgpdm)-dataset(pass-bottle-hold)-mode(ELBO)-parts(3)-dyn(20)-lvm(15)-hold(2)/final-lines.txt","att_check":false},"trial_type":"html-keyboard-response","trial_index":46,"time_elapsed":124778,"internal_node_id":"0.0-8.0-3.9","subject":"kskh04hwwhtr6p4","sona":"9301"},{"rt":709,"stimulus":"<p>Bereit?</p>","key_press":32,"trial_type":"html-keyboard-response","trial_index":47,"time_elapsed":125491,"internal_node_id":"0.0-8.0-0.10","subject":"kskh04hwwhtr6p4","sona":"9301"},{"rt":null,"stimulus":"<div style=\"font-size:60px;\">+</div>","key_press":null,"trial_type":"html-keyboard-response","trial_index":48,"time_elapsed":127495,"internal_node_id":"0.0-8.0-1.10","subject":"kskh04hwwhtr6p4","sona":"9301"},{"trial_type":"turing-test","trial_index":49,"time_elapsed":130860,"internal_node_id":"0.0-8.0-2.10","subject":"kskh04hwwhtr6p4","sona":"9301"},{"rt":351,"stimulus":"<p>Welche Sequenz haben Sie als natürlicher empfunden?</p>","key_press":74,"test_part":"response","test_stimulus":{"position":1,"left":"bvh/vr_prediction_models/model(vcgpdm)-dataset(pass-bottle-hold)-mode(ELBO)-parts(3)-dyn(35)-lvm(20)-hold(1)/final-lines.txt","right":"bvh/pass-bottle-hold-training1-lines.txt","att_check":false},"trial_type":"html-keyboard-response","trial_index":50,"time_elapsed":131214,"internal_node_id":"0.0-8.0-3.10","subject":"kskh04hwwhtr6p4","sona":"9301"},{"rt":615,"stimulus":"<p>Bereit?</p>","key_press":32,"trial_type":"html-keyboard-response","trial_index":51,"time_elapsed":131832,"internal_node_id":"0.0-8.0-0.11","subject":"kskh04hwwhtr6p4","sona":"9301"},{"rt":null,"stimulus":"<div style=\"font-size:60px;\">+</div>","key_press":null,"trial_type":"html-keyboard-response","trial_index":52,"time_elapsed":133837,"internal_node_id":"0.0-8.0-1.11","subject":"kskh04hwwhtr6p4","sona":"9301"},{"trial_type":"turing-test","trial_index":53,"time_elapsed":139559,"internal_node_id":"0.0-8.0-2.11","subject":"kskh04hwwhtr6p4","sona":"9301"}]