[{"rt":1304,"stimulus":"<p>Welcome!<br> Please choose your language to start the experiment in the chosen language.</p><p>Willkommen!<br> Bitte wählen Sie eine Sprache, um das Experiment in der ausgewählten Sprache zu starten</p>","button_pressed":"1","trial_type":"html-button-response","trial_index":0,"time_elapsed":1321,"internal_node_id":"0.0-0.0","subject":"6y5tlm081046dq6","sona":"7624"},{"view_history":"[{\"page_index\":0,\"viewing_time\":398},{\"page_index\":1,\"viewing_time\":890},{\"page_index\":2,\"viewing_time\":306},{\"page_index\":3,\"viewing_time\":845},{\"page_index\":4,\"viewing_time\":891}]","rt":3330,"trial_type":"instructions","trial_index":1,"time_elapsed":4653,"internal_node_id":"0.0-1.0-0.0","subject":"6y5tlm081046dq6","sona":"7624"},{"rt":857,"stimulus":"<p>Bereit?</p>","key_press":32,"trial_type":"html-keyboard-response","trial_index":2,"time_elapsed":5510,"internal_node_id":"0.0-3.0","subject":"6y5tlm081046dq6","sona":"7624"},{"rt":null,"stimulus":"<div style=\"font-size:60px;\">+</div>","key_press":null,"trial_type":"html-keyboard-response","trial_index":3,"time_elapsed":7512,"internal_node_id":"0.0-4.0","subject":"6y5tlm081046dq6","sona":"7624"},{"trial_type":"training","trial_index":4,"time_elapsed":10763,"internal_node_id":"0.0-5.0","subject":"6y5tlm081046dq6","sona":"7624"},{"rt":3738,"stimulus":"<p>Welche Sequenz haben Sie als natürlicher empfunden?</p>","key_press":70,"trial_type":"html-keyboard-response","trial_index":5,"time_elapsed":14503,"internal_node_id":"0.0-6.0","subject":"6y5tlm081046dq6","sona":"7624"},{"rt":5343,"stimulus":"<p>Das Experiment startet nun.</p><p><small>Bitte drücken Sie den Knopf, wenn Sie bereit sind.</small></p>","button_pressed":"0","trial_type":"html-button-response","trial_index":6,"time_elapsed":19846,"internal_node_id":"0.0-7.0","subject":"6y5tlm081046dq6","sona":"7624"},{"rt":2033,"stimulus":"<p>Bereit?</p>","key_press":32,"trial_type":"html-keyboard-response","trial_index":7,"time_elapsed":21881,"internal_node_id":"0.0-8.0-0.0","subject":"6y5tlm081046dq6","sona":"7624"},{"rt":null,"stimulus":"<div style=\"font-size:60px;\">+</div>","key_press":null,"trial_type":"html-keyboard-response","trial_index":8,"time_elapsed":23885,"internal_node_id":"0.0-8.0-1.0","subject":"6y5tlm081046dq6","sona":"7624"},{"trial_type":"turing-test","trial_index":9,"time_elapsed":29207,"internal_node_id":"0.0-8.0-2.0","subject":"6y5tlm081046dq6","sona":"7624"},{"rt":821,"stimulus":"<p>Welche Sequenz haben Sie als natürlicher empfunden?</p>","key_press":70,"test_part":"response","test_stimulus":{"position":1,"left":"bvh/vr_prediction_models/model(vcgpdm)-dataset(return-bottle-hold)-mode(ELBO)-parts(3)-dyn(30)-lvm(15)-hold(0)/final-lines.txt","right":"bvh/return-bottle-hold-training0-lines.txt","att_check":false},"trial_type":"html-keyboard-response","trial_index":10,"time_elapsed":30030,"internal_node_id":"0.0-8.0-3.0","subject":"6y5tlm081046dq6","sona":"7624"},{"rt":335,"stimulus":"<p>Bereit?</p>","key_press":32,"trial_type":"html-keyboard-response","trial_index":11,"time_elapsed":30366,"internal_node_id":"0.0-8.0-0.1","subject":"6y5tlm081046dq6","sona":"7624"},{"rt":null,"stimulus":"<div style=\"font-size:60px;\">+</div>","key_press":null,"trial_type":"html-keyboard-response","trial_index":12,"time_elapsed":32374,"internal_node_id":"0.0-8.0-1.1","subject":"6y5tlm081046dq6","sona":"7624"},{"trial_type":"turing-test","trial_index":13,"time_elapsed":36225,"internal_node_id":"0.0-8.0-2.1","subject":"6y5tlm081046dq6","sona":"7624"},{"rt":316,"stimulus":"<p>Welche Sequenz haben Sie als natürlicher empfunden?</p>","key_press":70,"test_part":"response","test_stimulus":{"position":0,"left":"bvh/return-bottle-hold-training3-lines.txt","right":"bvh/vr_prediction_models/model(vcgpdm)-dataset(return-bottle-hold)-mode(MAP)-parts(1)-hold(3)/final-lines.txt","att_check":false},"trial_type":"html-keyboard-response","trial_index":14,"time_elapsed":36543,"internal_node_id":"0.0-8.0-3.1","subject":"6y5tlm081046dq6","sona":"7624"},{"rt":279,"stimulus":"<p>Bereit?</p>","key_press":32,"trial_type":"html-keyboard-response","trial_index":15,"time_elapsed":36822,"internal_node_id":"0.0-8.0-0.2","subject":"6y5tlm081046dq6","sona":"7624"},{"rt":null,"stimulus":"<div style=\"font-size:60px;\">+</div>","key_press":null,"trial_type":"html-keyboard-response","trial_index":16,"time_elapsed":38825,"internal_node_id":"0.0-8.0-1.2","subject":"6y5tlm081046dq6","sona":"7624"},{"trial_type":"turing-test","trial_index":17,"time_elapsed":44569,"internal_node_id":"0.0-8.0-2.2","subject":"6y5tlm081046dq6","sona":"7624"},{"rt":396,"stimulus":"<p>Welche Sequenz haben Sie als natürlicher empfunden?</p>","key_press":74,"test_part":"response","test_stimulus":{"position":0,"left":"bvh/return-bottle-training4-lines.txt","right":"bvh/vr_prediction_models/model(tmp)-dataset(return-bottle)-numprim(6)-hold(4)/final-lines.txt","att_check":false},"trial_type":"html-keyboard-response","trial_index":18,"time_elapsed":44967,"internal_node_id":"0.0-8.0-3.2","subject":"6y5tlm081046dq6","sona":"7624"},{"rt":271,"stimulus":"<p>Bereit?</p>","key_press":32,"trial_type":"html-keyboard-response","trial_index":19,"time_elapsed":45238,"internal_node_id":"0.0-8.0-0.3","subject":"6y5tlm081046dq6","sona":"7624"},{"rt":null,"stimulus":"<div style=\"font-size:60px;\">+</div>","key_press":null,"trial_type":"html-keyboard-response","trial_index":20,"time_elapsed":47246,"internal_node_id":"0.0-8.0-1.3","subject":"6y5tlm081046dq6","sona":"7624"},{"trial_type":"turing-test","trial_index":21,"time_elapsed":54324,"internal_node_id":"0.0-8.0-2.3","subject":"6y5tlm081046dq6","sona":"7624"},{"rt":417,"stimulus":"<p>Welche Sequenz haben Sie als natürlicher empfunden?</p>","key_press":74,"test_part":"response","test_stimulus":{"position":0,"left":"bvh/pass-bottle-training0-lines.txt","right":"bvh/vr_prediction_models/model(vcgpdm)-dataset(pass-bottle)-mode(ELBO)-parts(1)-dyn(35)-lvm(30)-hold(0)/final-lines.txt","att_check":false},"trial_type":"html-keyboard-response","trial_index":22,"time_elapsed":54743,"internal_node_id":"0.0-8.0-3.3","subject":"6y5tlm081046dq6","sona":"7624"},{"rt":278,"stimulus":"<p>Bereit?</p>","key_press":32,"trial_type":"html-keyboard-response","trial_index":23,"time_elapsed":55023,"internal_node_id":"0.0-8.0-0.4","subject":"6y5tlm081046dq6","sona":"7624"},{"rt":null,"stimulus":"<div style=\"font-size:60px;\">+</div>","key_press":null,"trial_type":"html-keyboard-response","trial_index":24,"time_elapsed":57027,"internal_node_id":"0.0-8.0-1.4","subject":"6y5tlm081046dq6","sona":"7624"},{"trial_type":"turing-test","trial_index":25,"time_elapsed":62714,"internal_node_id":"0.0-8.0-2.4","subject":"6y5tlm081046dq6","sona":"7624"},{"rt":348,"stimulus":"<p>Welche Sequenz haben Sie als natürlicher empfunden?</p>","key_press":70,"test_part":"response","test_stimulus":{"position":0,"left":"bvh/pass-bottle-training3-lines.txt","right":"bvh/vr_prediction_models/model(tmp)-dataset(pass-bottle)-numprim(11)-hold(3)/final-lines.txt","att_check":false},"trial_type":"html-keyboard-response","trial_index":26,"time_elapsed":63063,"internal_node_id":"0.0-8.0-3.4","subject":"6y5tlm081046dq6","sona":"7624"},{"rt":238,"stimulus":"<p>Bereit?</p>","key_press":32,"trial_type":"html-keyboard-response","trial_index":27,"time_elapsed":63303,"internal_node_id":"0.0-8.0-0.5","subject":"6y5tlm081046dq6","sona":"7624"},{"rt":null,"stimulus":"<div style=\"font-size:60px;\">+</div>","key_press":null,"trial_type":"html-keyboard-response","trial_index":28,"time_elapsed":65309,"internal_node_id":"0.0-8.0-1.5","subject":"6y5tlm081046dq6","sona":"7624"},{"trial_type":"turing-test","trial_index":29,"time_elapsed":70593,"internal_node_id":"0.0-8.0-2.5","subject":"6y5tlm081046dq6","sona":"7624"},{"rt":381,"stimulus":"<p>Welche Sequenz haben Sie als natürlicher empfunden?</p>","key_press":70,"test_part":"response","test_stimulus":{"position":0,"left":"bvh/return-bottle-training0-lines.txt","right":"bvh/vr_prediction_models/model(vcgpdm)-dataset(return-bottle)-mode(ELBO)-parts(1)-dyn(30)-lvm(35)-hold(0)/final-lines.txt","att_check":false},"trial_type":"html-keyboard-response","trial_index":30,"time_elapsed":70975,"internal_node_id":"0.0-8.0-3.5","subject":"6y5tlm081046dq6","sona":"7624"},{"rt":230,"stimulus":"<p>Bereit?</p>","key_press":32,"trial_type":"html-keyboard-response","trial_index":31,"time_elapsed":71207,"internal_node_id":"0.0-8.0-0.6","subject":"6y5tlm081046dq6","sona":"7624"},{"rt":null,"stimulus":"<div style=\"font-size:60px;\">+</div>","key_press":null,"trial_type":"html-keyboard-response","trial_index":32,"time_elapsed":73212,"internal_node_id":"0.0-8.0-1.6","subject":"6y5tlm081046dq6","sona":"7624"},{"trial_type":"turing-test","trial_index":33,"time_elapsed":76516,"internal_node_id":"0.0-8.0-2.6","subject":"6y5tlm081046dq6","sona":"7624"},{"rt":545,"stimulus":"<p>Welche Sequenz haben Sie als natürlicher empfunden?</p>","key_press":74,"test_part":"response","test_stimulus":{"position":1,"left":"bvh/vr_prediction_models/model(dmp)-dataset(pass-bottle-hold)-npsi(80)-hold(2)/final-lines.txt","right":"bvh/pass-bottle-hold-training2-lines.txt","att_check":false},"trial_type":"html-keyboard-response","trial_index":34,"time_elapsed":77064,"internal_node_id":"0.0-8.0-3.6","subject":"6y5tlm081046dq6","sona":"7624"},{"rt":334,"stimulus":"<p>Bereit?</p>","key_press":32,"trial_type":"html-keyboard-response","trial_index":35,"time_elapsed":77399,"internal_node_id":"0.0-8.0-0.7","subject":"6y5tlm081046dq6","sona":"7624"},{"rt":null,"stimulus":"<div style=\"font-size:60px;\">+</div>","key_press":null,"trial_type":"html-keyboard-response","trial_index":36,"time_elapsed":79402,"internal_node_id":"0.0-8.0-1.7","subject":"6y5tlm081046dq6","sona":"7624"},{"trial_type":"turing-test","trial_index":37,"time_elapsed":83155,"internal_node_id":"0.0-8.0-2.7","subject":"6y5tlm081046dq6","sona":"7624"},{"rt":100,"stimulus":"<p>Welche Sequenz haben Sie als natürlicher empfunden?</p>","key_press":74,"test_part":"response","test_stimulus":{"position":1,"left":"bvh/vr_prediction_models/model(tmp)-dataset(return-bottle-hold)-numprim(3)-hold(3)/final-lines.txt","right":"bvh/return-bottle-hold-training3-lines.txt","att_check":false},"trial_type":"html-keyboard-response","trial_index":38,"time_elapsed":83256,"internal_node_id":"0.0-8.0-3.7","subject":"6y5tlm081046dq6","sona":"7624"},{"rt":389,"stimulus":"<p>Bereit?</p>","key_press":32,"trial_type":"html-keyboard-response","trial_index":39,"time_elapsed":83648,"internal_node_id":"0.0-8.0-0.8","subject":"6y5tlm081046dq6","sona":"7624"},{"rt":null,"stimulus":"<div style=\"font-size:60px;\">+</div>","key_press":null,"trial_type":"html-keyboard-response","trial_index":40,"time_elapsed":85653,"internal_node_id":"0.0-8.0-1.8","subject":"6y5tlm081046dq6","sona":"7624"},{"trial_type":"turing-test","trial_index":41,"time_elapsed":91579,"internal_node_id":"0.0-8.0-2.8","subject":"6y5tlm081046dq6","sona":"7624"},{"rt":283,"stimulus":"<p>Welche Sequenz haben Sie als natürlicher empfunden?</p>","key_press":74,"test_part":"response","test_stimulus":{"position":1,"left":"bvh/vr_prediction_models/model(tmp)-dataset(return-bottle)-numprim(4)-hold(1)/final-lines.txt","right":"bvh/return-bottle-training1-lines.txt","att_check":false},"trial_type":"html-keyboard-response","trial_index":42,"time_elapsed":91864,"internal_node_id":"0.0-8.0-3.8","subject":"6y5tlm081046dq6","sona":"7624"},{"rt":261,"stimulus":"<p>Bereit?</p>","key_press":32,"trial_type":"html-keyboard-response","trial_index":43,"time_elapsed":92128,"internal_node_id":"0.0-8.0-0.9","subject":"6y5tlm081046dq6","sona":"7624"},{"rt":null,"stimulus":"<div style=\"font-size:60px;\">+</div>","key_press":null,"trial_type":"html-keyboard-response","trial_index":44,"time_elapsed":94138,"internal_node_id":"0.0-8.0-1.9","subject":"6y5tlm081046dq6","sona":"7624"},{"trial_type":"turing-test","trial_index":45,"time_elapsed":97640,"internal_node_id":"0.0-8.0-2.9","subject":"6y5tlm081046dq6","sona":"7624"},{"rt":1352,"stimulus":"<p>Welche Sequenz haben Sie als natürlicher empfunden?</p>","key_press":74,"test_part":"response","test_stimulus":{"position":1,"left":"bvh/vr_prediction_models/model(tmp)-dataset(return-bottle-hold)-numprim(5)-hold(2)/final-lines.txt","right":"bvh/return-bottle-hold-training2-lines.txt","att_check":false},"trial_type":"html-keyboard-response","trial_index":46,"time_elapsed":98992,"internal_node_id":"0.0-8.0-3.9","subject":"6y5tlm081046dq6","sona":"7624"},{"rt":239,"stimulus":"<p>Bereit?</p>","key_press":32,"trial_type":"html-keyboard-response","trial_index":47,"time_elapsed":99232,"internal_node_id":"0.0-8.0-0.10","subject":"6y5tlm081046dq6","sona":"7624"},{"rt":null,"stimulus":"<div style=\"font-size:60px;\">+</div>","key_press":null,"trial_type":"html-keyboard-response","trial_index":48,"time_elapsed":101236,"internal_node_id":"0.0-8.0-1.10","subject":"6y5tlm081046dq6","sona":"7624"},{"trial_type":"turing-test","trial_index":49,"time_elapsed":107066,"internal_node_id":"0.0-8.0-2.10","subject":"6y5tlm081046dq6","sona":"7624"},{"rt":695,"stimulus":"<p>Welche Sequenz haben Sie als natürlicher empfunden?</p>","key_press":70,"test_part":"response","test_stimulus":{"position":0,"left":"bvh/pass-bottle-training3-lines.txt","right":"bvh/vr_prediction_models/model(dmp)-dataset(pass-bottle)-npsi(60)-hold(3)/final-lines.txt","att_check":false},"trial_type":"html-keyboard-response","trial_index":50,"time_elapsed":107760,"internal_node_id":"0.0-8.0-3.10","subject":"6y5tlm081046dq6","sona":"7624"},{"rt":334,"stimulus":"<p>Bereit?</p>","key_press":32,"trial_type":"html-keyboard-response","trial_index":51,"time_elapsed":108096,"internal_node_id":"0.0-8.0-0.11","subject":"6y5tlm081046dq6","sona":"7624"},{"rt":null,"stimulus":"<div style=\"font-size:60px;\">+</div>","key_press":null,"trial_type":"html-keyboard-response","trial_index":52,"time_elapsed":110098,"internal_node_id":"0.0-8.0-1.11","subject":"6y5tlm081046dq6","sona":"7624"},{"trial_type":"turing-test","trial_index":53,"time_elapsed":113876,"internal_node_id":"0.0-8.0-2.11","subject":"6y5tlm081046dq6","sona":"7624"},{"rt":1291,"stimulus":"<p>Welche Sequenz haben Sie als natürlicher empfunden?</p>","key_press":74,"test_part":"response","test_stimulus":{"position":1,"left":"bvh/vr_prediction_models/model(vcgpdm)-dataset(return-bottle-hold)-mode(ELBO)-parts(1)-dyn(30)-lvm(20)-hold(2)/final-lines.txt","right":"bvh/return-bottle-hold-training2-lines.txt","att_check":false},"trial_type":"html-keyboard-response","trial_index":54,"time_elapsed":115169,"internal_node_id":"0.0-8.0-3.11","subject":"6y5tlm081046dq6","sona":"7624"},{"rt":487,"stimulus":"<p>Bereit?</p>","key_press":32,"trial_type":"html-keyboard-response","trial_index":55,"time_elapsed":115656,"internal_node_id":"0.0-8.0-0.12","subject":"6y5tlm081046dq6","sona":"7624"},{"rt":null,"stimulus":"<div style=\"font-size:60px;\">+</div>","key_press":null,"trial_type":"html-keyboard-response","trial_index":56,"time_elapsed":117659,"internal_node_id":"0.0-8.0-1.12","subject":"6y5tlm081046dq6","sona":"7624"},{"trial_type":"turing-test","trial_index":57,"time_elapsed":123561,"internal_node_id":"0.0-8.0-2.12","subject":"6y5tlm081046dq6","sona":"7624"},{"rt":335,"stimulus":"<p>Welche Sequenz haben Sie als natürlicher empfunden?</p>","key_press":70,"test_part":"response","test_stimulus":{"position":0,"left":"bvh/pass-bottle-training4-lines.txt","right":"bvh/vr_prediction_models/model(vcgpdm)-dataset(pass-bottle)-mode(ELBO)-parts(1)-dyn(20)-lvm(20)-hold(4)/final-lines.txt","att_check":false},"trial_type":"html-keyboard-response","trial_index":58,"time_elapsed":123897,"internal_node_id":"0.0-8.0-3.12","subject":"6y5tlm081046dq6","sona":"7624"},{"rt":295,"stimulus":"<p>Bereit?</p>","key_press":32,"trial_type":"html-keyboard-response","trial_index":59,"time_elapsed":124193,"internal_node_id":"0.0-8.0-0.13","subject":"6y5tlm081046dq6","sona":"7624"},{"rt":null,"stimulus":"<div style=\"font-size:60px;\">+</div>","key_press":null,"trial_type":"html-keyboard-response","trial_index":60,"time_elapsed":126199,"internal_node_id":"0.0-8.0-1.13","subject":"6y5tlm081046dq6","sona":"7624"},{"trial_type":"turing-test","trial_index":61,"time_elapsed":132233,"internal_node_id":"0.0-8.0-2.13","subject":"6y5tlm081046dq6","sona":"7624"},{"rt":520,"stimulus":"<p>Welche Sequenz haben Sie als natürlicher empfunden?</p>","key_press":74,"test_part":"response","test_stimulus":{"position":0,"left":"bvh/pass-bottle-training4-lines.txt","right":"bvh/vr_prediction_models/model(vcgpdm)-dataset(pass-bottle)-mode(ELBO)-parts(1)-dyn(20)-lvm(5)-hold(4)/final-lines.txt","att_check":false},"trial_type":"html-keyboard-response","trial_index":62,"time_elapsed":132753,"internal_node_id":"0.0-8.0-3.13","subject":"6y5tlm081046dq6","sona":"7624"},{"rt":255,"stimulus":"<p>Bereit?</p>","key_press":32,"trial_type":"html-keyboard-response","trial_index":63,"time_elapsed":133010,"internal_node_id":"0.0-8.0-0.14","subject":"6y5tlm081046dq6","sona":"7624"},{"rt":null,"stimulus":"<div style=\"font-size:60px;\">+</div>","key_press":null,"trial_type":"html-keyboard-response","trial_index":64,"time_elapsed":135015,"internal_node_id":"0.0-8.0-1.14","subject":"6y5tlm081046dq6","sona":"7624"},{"trial_type":"turing-test","trial_index":65,"time_elapsed":142612,"internal_node_id":"0.0-8.0-2.14","subject":"6y5tlm081046dq6","sona":"7624"},{"rt":155,"stimulus":"<p>Welche Sequenz haben Sie als natürlicher empfunden?</p>","key_press":74,"test_part":"response","test_stimulus":{"position":0,"left":"bvh/return-bottle-training3-lines.txt","right":"bvh/vr_prediction_models/model(vcgpdm)-dataset(return-bottle)-mode(ELBO)-parts(3)-dyn(35)-lvm(20)-hold(3)/final-lines.txt","att_check":false},"trial_type":"html-keyboard-response","trial_index":66,"time_elapsed":142770,"internal_node_id":"0.0-8.0-3.14","subject":"6y5tlm081046dq6","sona":"7624"},{"rt":622,"stimulus":"<p>Bereit?</p>","key_press":32,"trial_type":"html-keyboard-response","trial_index":67,"time_elapsed":143393,"internal_node_id":"0.0-8.0-0.15","subject":"6y5tlm081046dq6","sona":"7624"},{"rt":null,"stimulus":"<div style=\"font-size:60px;\">+</div>","key_press":null,"trial_type":"html-keyboard-response","trial_index":68,"time_elapsed":145399,"internal_node_id":"0.0-8.0-1.15","subject":"6y5tlm081046dq6","sona":"7624"},{"trial_type":"turing-test","trial_index":69,"time_elapsed":149819,"internal_node_id":"0.0-8.0-2.15","subject":"6y5tlm081046dq6","sona":"7624"},{"rt":725,"stimulus":"<p>Welche Sequenz haben Sie als natürlicher empfunden?</p>","key_press":74,"test_part":"response","test_stimulus":{"position":1,"left":"bvh/vr_prediction_models/model(vcgpdm)-dataset(return-bottle-hold)-mode(MAP)-parts(1)-hold(1)/final-lines.txt","right":"bvh/return-bottle-hold-training1-lines.txt","att_check":false},"trial_type":"html-keyboard-response","trial_index":70,"time_elapsed":150546,"internal_node_id":"0.0-8.0-3.15","subject":"6y5tlm081046dq6","sona":"7624"},{"rt":278,"stimulus":"<p>Bereit?</p>","key_press":32,"trial_type":"html-keyboard-response","trial_index":71,"time_elapsed":150826,"internal_node_id":"0.0-8.0-0.16","subject":"6y5tlm081046dq6","sona":"7624"},{"rt":null,"stimulus":"<div style=\"font-size:60px;\">+</div>","key_press":null,"trial_type":"html-keyboard-response","trial_index":72,"time_elapsed":152832,"internal_node_id":"0.0-8.0-1.16","subject":"6y5tlm081046dq6","sona":"7624"},{"trial_type":"turing-test","trial_index":73,"time_elapsed":156561,"internal_node_id":"0.0-8.0-2.16","subject":"6y5tlm081046dq6","sona":"7624"},{"rt":304,"stimulus":"<p>Welche Sequenz haben Sie als natürlicher empfunden?</p>","key_press":70,"test_part":"response","test_stimulus":{"position":1,"left":"bvh/vr_prediction_models/model(vcgpdm)-dataset(pass-bottle-hold)-mode(ELBO)-parts(3)-dyn(10)-lvm(10)-hold(3)/final-lines.txt","right":"bvh/pass-bottle-hold-training3-lines.txt","att_check":false},"trial_type":"html-keyboard-response","trial_index":74,"time_elapsed":156865,"internal_node_id":"0.0-8.0-3.16","subject":"6y5tlm081046dq6","sona":"7624"},{"rt":303,"stimulus":"<p>Bereit?</p>","key_press":32,"trial_type":"html-keyboard-response","trial_index":75,"time_elapsed":157170,"internal_node_id":"0.0-8.0-0.17","subject":"6y5tlm081046dq6","sona":"7624"},{"rt":null,"stimulus":"<div style=\"font-size:60px;\">+</div>","key_press":null,"trial_type":"html-keyboard-response","trial_index":76,"time_elapsed":159174,"internal_node_id":"0.0-8.0-1.17","subject":"6y5tlm081046dq6","sona":"7624"},{"trial_type":"turing-test","trial_index":77,"time_elapsed":165118,"internal_node_id":"0.0-8.0-2.17","subject":"6y5tlm081046dq6","sona":"7624"},{"rt":250,"stimulus":"<p>Welche Sequenz haben Sie als natürlicher empfunden?</p>","key_press":70,"test_part":"response","test_stimulus":{"position":0,"left":"bvh/return-bottle-training3-lines.txt","right":"bvh/vr_prediction_models/model(vcgpdm)-dataset(return-bottle)-mode(ELBO)-parts(3)-dyn(25)-lvm(15)-hold(3)/final-lines.txt","att_check":false},"trial_type":"html-keyboard-response","trial_index":78,"time_elapsed":165371,"internal_node_id":"0.0-8.0-3.17","subject":"6y5tlm081046dq6","sona":"7624"},{"rt":326,"stimulus":"<p>Bereit?</p>","key_press":32,"trial_type":"html-keyboard-response","trial_index":79,"time_elapsed":165698,"internal_node_id":"0.0-8.0-0.18","subject":"6y5tlm081046dq6","sona":"7624"},{"rt":null,"stimulus":"<div style=\"font-size:60px;\">+</div>","key_press":null,"trial_type":"html-keyboard-response","trial_index":80,"time_elapsed":167701,"internal_node_id":"0.0-8.0-1.18","subject":"6y5tlm081046dq6","sona":"7624"},{"trial_type":"turing-test","trial_index":81,"time_elapsed":173613,"internal_node_id":"0.0-8.0-2.18","subject":"6y5tlm081046dq6","sona":"7624"},{"rt":316,"stimulus":"<p>Welche Sequenz haben Sie als natürlicher empfunden?</p>","key_press":70,"test_part":"response","test_stimulus":{"position":0,"left":"bvh/return-bottle-training4-lines.txt","right":"bvh/vr_prediction_models/model(vcgpdm)-dataset(return-bottle)-mode(ELBO)-parts(3)-dyn(25)-lvm(25)-hold(4)/final-lines.txt","att_check":false},"trial_type":"html-keyboard-response","trial_index":82,"time_elapsed":173931,"internal_node_id":"0.0-8.0-3.18","subject":"6y5tlm081046dq6","sona":"7624"},{"rt":206,"stimulus":"<p>Bereit?</p>","key_press":32,"trial_type":"html-keyboard-response","trial_index":83,"time_elapsed":174138,"internal_node_id":"0.0-8.0-0.19","subject":"6y5tlm081046dq6","sona":"7624"},{"rt":null,"stimulus":"<div style=\"font-size:60px;\">+</div>","key_press":null,"trial_type":"html-keyboard-response","trial_index":84,"time_elapsed":176141,"internal_node_id":"0.0-8.0-1.19","subject":"6y5tlm081046dq6","sona":"7624"},{"trial_type":"turing-test","trial_index":85,"time_elapsed":179988,"internal_node_id":"0.0-8.0-2.19","subject":"6y5tlm081046dq6","sona":"7624"},{"rt":165,"stimulus":"<p>Welche Sequenz haben Sie als natürlicher empfunden?</p>","key_press":74,"test_part":"response","test_stimulus":{"position":1,"left":"bvh/vr_prediction_models/model(vcgpdm)-dataset(pass-bottle-hold)-mode(ELBO)-parts(1)-dyn(10)-lvm(5)-hold(4)/final-lines.txt","right":"bvh/pass-bottle-hold-training4-lines.txt","att_check":false},"trial_type":"html-keyboard-response","trial_index":86,"time_elapsed":180155,"internal_node_id":"0.0-8.0-3.19","subject":"6y5tlm081046dq6","sona":"7624"},{"rt":311,"stimulus":"<p>Bereit?</p>","key_press":32,"trial_type":"html-keyboard-response","trial_index":87,"time_elapsed":180467,"internal_node_id":"0.0-8.0-0.20","subject":"6y5tlm081046dq6","sona":"7624"},{"rt":null,"stimulus":"<div style=\"font-size:60px;\">+</div>","key_press":null,"trial_type":"html-keyboard-response","trial_index":88,"time_elapsed":182470,"internal_node_id":"0.0-8.0-1.20","subject":"6y5tlm081046dq6","sona":"7624"},{"trial_type":"turing-test","trial_index":89,"time_elapsed":185704,"internal_node_id":"0.0-8.0-2.20","subject":"6y5tlm081046dq6","sona":"7624"},{"rt":536,"stimulus":"<p>Welche Sequenz haben Sie als natürlicher empfunden?</p>","key_press":70,"test_part":"response","test_stimulus":{"position":1,"left":"bvh/vr_prediction_models/model(vcgpdm)-dataset(pass-bottle-hold)-mode(ELBO)-parts(1)-dyn(20)-lvm(20)-hold(2)/final-lines.txt","right":"bvh/pass-bottle-hold-training2-lines.txt","att_check":false},"trial_type":"html-keyboard-response","trial_index":90,"time_elapsed":186243,"internal_node_id":"0.0-8.0-3.20","subject":"6y5tlm081046dq6","sona":"7624"},{"rt":238,"stimulus":"<p>Bereit?</p>","key_press":32,"trial_type":"html-keyboard-response","trial_index":91,"time_elapsed":186482,"internal_node_id":"0.0-8.0-0.21","subject":"6y5tlm081046dq6","sona":"7624"},{"rt":null,"stimulus":"<div style=\"font-size:60px;\">+</div>","key_press":null,"trial_type":"html-keyboard-response","trial_index":92,"time_elapsed":188486,"internal_node_id":"0.0-8.0-1.21","subject":"6y5tlm081046dq6","sona":"7624"},{"trial_type":"turing-test","trial_index":93,"time_elapsed":194094,"internal_node_id":"0.0-8.0-2.21","subject":"6y5tlm081046dq6","sona":"7624"},{"rt":405,"stimulus":"<p>Welche Sequenz haben Sie als natürlicher empfunden?</p>","key_press":74,"test_part":"response","test_stimulus":{"position":1,"left":"bvh/vr_prediction_models/model(vcgpdm)-dataset(return-bottle)-mode(ELBO)-parts(1)-dyn(10)-lvm(30)-hold(3)/final-lines.txt","right":"bvh/return-bottle-training3-lines.txt","att_check":false},"trial_type":"html-keyboard-response","trial_index":94,"time_elapsed":194501,"internal_node_id":"0.0-8.0-3.21","subject":"6y5tlm081046dq6","sona":"7624"},{"rt":292,"stimulus":"<p>Bereit?</p>","key_press":32,"trial_type":"html-keyboard-response","trial_index":95,"time_elapsed":194794,"internal_node_id":"0.0-8.0-0.22","subject":"6y5tlm081046dq6","sona":"7624"},{"rt":null,"stimulus":"<div style=\"font-size:60px;\">+</div>","key_press":null,"trial_type":"html-keyboard-response","trial_index":96,"time_elapsed":196799,"internal_node_id":"0.0-8.0-1.22","subject":"6y5tlm081046dq6","sona":"7624"},{"trial_type":"turing-test","trial_index":97,"time_elapsed":201880,"internal_node_id":"0.0-8.0-2.22","subject":"6y5tlm081046dq6","sona":"7624"},{"rt":225,"stimulus":"<p>Welche Sequenz haben Sie als natürlicher empfunden?</p>","key_press":70,"test_part":"response","test_stimulus":{"position":0,"left":"bvh/return-bottle-hold-training0-lines.txt","right":"bvh/vr_prediction_models/model(tmp)-dataset(return-bottle-hold)-numprim(15)-hold(0)/final-lines.txt","att_check":false},"trial_type":"html-keyboard-response","trial_index":98,"time_elapsed":202107,"internal_node_id":"0.0-8.0-3.22","subject":"6y5tlm081046dq6","sona":"7624"},{"rt":350,"stimulus":"<p>Bereit?</p>","key_press":32,"trial_type":"html-keyboard-response","trial_index":99,"time_elapsed":202459,"internal_node_id":"0.0-8.0-0.23","subject":"6y5tlm081046dq6","sona":"7624"},{"rt":null,"stimulus":"<div style=\"font-size:60px;\">+</div>","key_press":null,"trial_type":"html-keyboard-response","trial_index":100,"time_elapsed":204464,"internal_node_id":"0.0-8.0-1.23","subject":"6y5tlm081046dq6","sona":"7624"},{"trial_type":"turing-test","trial_index":101,"time_elapsed":210441,"internal_node_id":"0.0-8.0-2.23","subject":"6y5tlm081046dq6","sona":"7624"},{"rt":952,"stimulus":"<p>Welche Sequenz haben Sie als natürlicher empfunden?</p>","key_press":70,"test_part":"response","test_stimulus":{"position":0,"left":"bvh/return-bottle-training3-lines.txt","right":"bvh/vr_prediction_models/model(vcgpdm)-dataset(return-bottle)-mode(ELBO)-parts(3)-dyn(10)-lvm(30)-hold(3)/final-lines.txt","att_check":false},"trial_type":"html-keyboard-response","trial_index":102,"time_elapsed":211396,"internal_node_id":"0.0-8.0-3.23","subject":"6y5tlm081046dq6","sona":"7624"},{"rt":294,"stimulus":"<p>Bereit?</p>","key_press":32,"trial_type":"html-keyboard-response","trial_index":103,"time_elapsed":211691,"internal_node_id":"0.0-8.0-0.24","subject":"6y5tlm081046dq6","sona":"7624"},{"rt":null,"stimulus":"<div style=\"font-size:60px;\">+</div>","key_press":null,"trial_type":"html-keyboard-response","trial_index":104,"time_elapsed":213696,"internal_node_id":"0.0-8.0-1.24","subject":"6y5tlm081046dq6","sona":"7624"},{"trial_type":"turing-test","trial_index":105,"time_elapsed":217595,"internal_node_id":"0.0-8.0-2.24","subject":"6y5tlm081046dq6","sona":"7624"},{"rt":247,"stimulus":"<p>Welche Sequenz haben Sie als natürlicher empfunden?</p>","key_press":74,"test_part":"response","test_stimulus":{"position":1,"left":"bvh/vr_prediction_models/model(vcgpdm)-dataset(return-bottle-hold)-mode(ELBO)-parts(1)-dyn(20)-lvm(5)-hold(3)/final-lines.txt","right":"bvh/return-bottle-hold-training3-lines.txt","att_check":false},"trial_type":"html-keyboard-response","trial_index":106,"time_elapsed":217844,"internal_node_id":"0.0-8.0-3.24","subject":"6y5tlm081046dq6","sona":"7624"},{"rt":327,"stimulus":"<p>Bereit?</p>","key_press":32,"trial_type":"html-keyboard-response","trial_index":107,"time_elapsed":218171,"internal_node_id":"0.0-8.0-0.25","subject":"6y5tlm081046dq6","sona":"7624"},{"rt":null,"stimulus":"<div style=\"font-size:60px;\">+</div>","key_press":null,"trial_type":"html-keyboard-response","trial_index":108,"time_elapsed":220174,"internal_node_id":"0.0-8.0-1.25","subject":"6y5tlm081046dq6","sona":"7624"},{"trial_type":"turing-test","trial_index":109,"time_elapsed":225796,"internal_node_id":"0.0-8.0-2.25","subject":"6y5tlm081046dq6","sona":"7624"},{"rt":278,"stimulus":"<p>Welche Sequenz haben Sie als natürlicher empfunden?</p>","key_press":70,"test_part":"response","test_stimulus":{"position":0,"left":"bvh/return-bottle-training0-lines.txt","right":"bvh/vr_prediction_models/model(vcgpdm)-dataset(return-bottle)-mode(ELBO)-parts(1)-dyn(30)-lvm(30)-hold(0)/final-lines.txt","att_check":false},"trial_type":"html-keyboard-response","trial_index":110,"time_elapsed":226076,"internal_node_id":"0.0-8.0-3.25","subject":"6y5tlm081046dq6","sona":"7624"},{"rt":238,"stimulus":"<p>Bereit?</p>","key_press":32,"trial_type":"html-keyboard-response","trial_index":111,"time_elapsed":226316,"internal_node_id":"0.0-8.0-0.26","subject":"6y5tlm081046dq6","sona":"7624"},{"rt":null,"stimulus":"<div style=\"font-size:60px;\">+</div>","key_press":null,"trial_type":"html-keyboard-response","trial_index":112,"time_elapsed":228319,"internal_node_id":"0.0-8.0-1.26","subject":"6y5tlm081046dq6","sona":"7624"},{"trial_type":"turing-test","trial_index":113,"time_elapsed":233947,"internal_node_id":"0.0-8.0-2.26","subject":"6y5tlm081046dq6","sona":"7624"},{"rt":503,"stimulus":"<p>Welche Sequenz haben Sie als natürlicher empfunden?</p>","key_press":74,"test_part":"response","test_stimulus":{"position":1,"left":"bvh/vr_prediction_models/model(vcgpdm)-dataset(pass-bottle)-mode(ELBO)-parts(1)-dyn(10)-lvm(5)-hold(1)/final-lines.txt","right":"bvh/pass-bottle-training1-lines.txt","att_check":false},"trial_type":"html-keyboard-response","trial_index":114,"time_elapsed":234452,"internal_node_id":"0.0-8.0-3.26","subject":"6y5tlm081046dq6","sona":"7624"},{"rt":278,"stimulus":"<p>Bereit?</p>","key_press":32,"trial_type":"html-keyboard-response","trial_index":115,"time_elapsed":234732,"internal_node_id":"0.0-8.0-0.27","subject":"6y5tlm081046dq6","sona":"7624"},{"rt":null,"stimulus":"<div style=\"font-size:60px;\">+</div>","key_press":null,"trial_type":"html-keyboard-response","trial_index":116,"time_elapsed":236736,"internal_node_id":"0.0-8.0-1.27","subject":"6y5tlm081046dq6","sona":"7624"},{"trial_type":"turing-test","trial_index":117,"time_elapsed":242530,"internal_node_id":"0.0-8.0-2.27","subject":"6y5tlm081046dq6","sona":"7624"},{"rt":993,"stimulus":"<p>Welche Sequenz haben Sie als natürlicher empfunden?</p>","key_press":74,"test_part":"response","test_stimulus":{"position":1,"left":"bvh/vr_prediction_models/model(tmp)-dataset(pass-bottle)-numprim(15)-hold(3)/final-lines.txt","right":"bvh/pass-bottle-training3-lines.txt","att_check":false},"trial_type":"html-keyboard-response","trial_index":118,"time_elapsed":243525,"internal_node_id":"0.0-8.0-3.27","subject":"6y5tlm081046dq6","sona":"7624"},{"rt":262,"stimulus":"<p>Bereit?</p>","key_press":32,"trial_type":"html-keyboard-response","trial_index":119,"time_elapsed":243788,"internal_node_id":"0.0-8.0-0.28","subject":"6y5tlm081046dq6","sona":"7624"},{"rt":null,"stimulus":"<div style=\"font-size:60px;\">+</div>","key_press":null,"trial_type":"html-keyboard-response","trial_index":120,"time_elapsed":245792,"internal_node_id":"0.0-8.0-1.28","subject":"6y5tlm081046dq6","sona":"7624"},{"trial_type":"turing-test","trial_index":121,"time_elapsed":249651,"internal_node_id":"0.0-8.0-2.28","subject":"6y5tlm081046dq6","sona":"7624"},{"rt":360,"stimulus":"<p>Welche Sequenz haben Sie als natürlicher empfunden?</p>","key_press":74,"test_part":"response","test_stimulus":{"position":0,"left":"bvh/return-bottle-hold-training3-lines.txt","right":"bvh/vr_prediction_models/model(vcgpdm)-dataset(return-bottle-hold)-mode(ELBO)-parts(1)-dyn(15)-lvm(35)-hold(3)/final-lines.txt","att_check":false},"trial_type":"html-keyboard-response","trial_index":122,"time_elapsed":250012,"internal_node_id":"0.0-8.0-3.28","subject":"6y5tlm081046dq6","sona":"7624"},{"rt":286,"stimulus":"<p>Bereit?</p>","key_press":32,"trial_type":"html-keyboard-response","trial_index":123,"time_elapsed":250300,"internal_node_id":"0.0-8.0-0.29","subject":"6y5tlm081046dq6","sona":"7624"},{"rt":null,"stimulus":"<div style=\"font-size:60px;\">+</div>","key_press":null,"trial_type":"html-keyboard-response","trial_index":124,"time_elapsed":252304,"internal_node_id":"0.0-8.0-1.29","subject":"6y5tlm081046dq6","sona":"7624"},{"trial_type":"turing-test","trial_index":125,"time_elapsed":259008,"internal_node_id":"0.0-8.0-2.29","subject":"6y5tlm081046dq6","sona":"7624"},{"rt":532,"stimulus":"<p>Welche Sequenz haben Sie als natürlicher empfunden?</p>","key_press":70,"test_part":"response","test_stimulus":{"position":0,"left":"bvh/pass-bottle-training0-lines.txt","right":"bvh/vr_prediction_models/model(dmp)-dataset(pass-bottle)-npsi(70)-hold(0)/final-lines.txt","att_check":false},"trial_type":"html-keyboard-response","trial_index":126,"time_elapsed":259541,"internal_node_id":"0.0-8.0-3.29","subject":"6y5tlm081046dq6","sona":"7624"},{"rt":247,"stimulus":"<p>Bereit?</p>","key_press":32,"trial_type":"html-keyboard-response","trial_index":127,"time_elapsed":259789,"internal_node_id":"0.0-8.0-0.30","subject":"6y5tlm081046dq6","sona":"7624"},{"rt":null,"stimulus":"<div style=\"font-size:60px;\">+</div>","key_press":null,"trial_type":"html-keyboard-response","trial_index":128,"time_elapsed":261792,"internal_node_id":"0.0-8.0-1.30","subject":"6y5tlm081046dq6","sona":"7624"},{"trial_type":"turing-test","trial_index":129,"time_elapsed":285235,"internal_node_id":"0.0-8.0-2.30","subject":"6y5tlm081046dq6","sona":"7624"},{"rt":1753,"stimulus":"<p>Welche Sequenz haben Sie als natürlicher empfunden?</p>","key_press":74,"test_part":"response","test_stimulus":{"position":1,"left":"bvh/vr_prediction_models/model(vcgpdm)-dataset(return-bottle-hold)-mode(ELBO)-parts(1)-dyn(10)-lvm(25)-hold(2)/final-lines.txt","right":"bvh/return-bottle-hold-training2-lines.txt","att_check":false},"trial_type":"html-keyboard-response","trial_index":130,"time_elapsed":286991,"internal_node_id":"0.0-8.0-3.30","subject":"6y5tlm081046dq6","sona":"7624"},{"rt":524,"stimulus":"<p>Bereit?</p>","key_press":32,"trial_type":"html-keyboard-response","trial_index":131,"time_elapsed":287518,"internal_node_id":"0.0-8.0-0.31","subject":"6y5tlm081046dq6","sona":"7624"},{"rt":null,"stimulus":"<div style=\"font-size:60px;\">+</div>","key_press":null,"trial_type":"html-keyboard-response","trial_index":132,"time_elapsed":289521,"internal_node_id":"0.0-8.0-1.31","subject":"6y5tlm081046dq6","sona":"7624"},{"trial_type":"turing-test","trial_index":133,"time_elapsed":293044,"internal_node_id":"0.0-8.0-2.31","subject":"6y5tlm081046dq6","sona":"7624"},{"rt":353,"stimulus":"<p>Welche Sequenz haben Sie als natürlicher empfunden?</p>","key_press":70,"test_part":"response","test_stimulus":{"position":0,"left":"bvh/return-bottle-hold-training3-lines.txt","right":"bvh/vr_prediction_models/model(vcgpdm)-dataset(return-bottle-hold)-mode(ELBO)-parts(1)-dyn(10)-lvm(30)-hold(3)/final-lines.txt","att_check":false},"trial_type":"html-keyboard-response","trial_index":134,"time_elapsed":293398,"internal_node_id":"0.0-8.0-3.31","subject":"6y5tlm081046dq6","sona":"7624"},{"rt":237,"stimulus":"<p>Bereit?</p>","key_press":32,"trial_type":"html-keyboard-response","trial_index":135,"time_elapsed":293638,"internal_node_id":"0.0-8.0-0.32","subject":"6y5tlm081046dq6","sona":"7624"},{"rt":null,"stimulus":"<div style=\"font-size:60px;\">+</div>","key_press":null,"trial_type":"html-keyboard-response","trial_index":136,"time_elapsed":295641,"internal_node_id":"0.0-8.0-1.32","subject":"6y5tlm081046dq6","sona":"7624"},{"trial_type":"turing-test","trial_index":137,"time_elapsed":298855,"internal_node_id":"0.0-8.0-2.32","subject":"6y5tlm081046dq6","sona":"7624"},{"rt":1117,"stimulus":"<p>Welche Sequenz haben Sie als natürlicher empfunden?</p>","key_press":70,"test_part":"response","test_stimulus":{"position":0,"left":"bvh/return-bottle-hold-training1-lines.txt","right":"bvh/vr_prediction_models/model(tmp)-dataset(return-bottle-hold)-numprim(3)-hold(1)/final-lines.txt","att_check":false},"trial_type":"html-keyboard-response","trial_index":138,"time_elapsed":299974,"internal_node_id":"0.0-8.0-3.32","subject":"6y5tlm081046dq6","sona":"7624"},{"rt":462,"stimulus":"<p>Bereit?</p>","key_press":32,"trial_type":"html-keyboard-response","trial_index":139,"time_elapsed":300438,"internal_node_id":"0.0-8.0-0.33","subject":"6y5tlm081046dq6","sona":"7624"},{"rt":null,"stimulus":"<div style=\"font-size:60px;\">+</div>","key_press":null,"trial_type":"html-keyboard-response","trial_index":140,"time_elapsed":302440,"internal_node_id":"0.0-8.0-1.33","subject":"6y5tlm081046dq6","sona":"7624"},{"trial_type":"turing-test","trial_index":141,"time_elapsed":305756,"internal_node_id":"0.0-8.0-2.33","subject":"6y5tlm081046dq6","sona":"7624"},{"rt":744,"stimulus":"<p>Welche Sequenz haben Sie als natürlicher empfunden?</p>","key_press":70,"test_part":"response","test_stimulus":{"position":0,"left":"bvh/pass-bottle-hold-training2-lines.txt","right":"bvh/vr_prediction_models/model(dmp)-dataset(pass-bottle-hold)-npsi(50)-hold(2)/final-lines.txt","att_check":false},"trial_type":"html-keyboard-response","trial_index":142,"time_elapsed":306502,"internal_node_id":"0.0-8.0-3.33","subject":"6y5tlm081046dq6","sona":"7624"},{"rt":181,"stimulus":"<p>Bereit?</p>","key_press":32,"trial_type":"html-keyboard-response","trial_index":143,"time_elapsed":306685,"internal_node_id":"0.0-8.0-0.34","subject":"6y5tlm081046dq6","sona":"7624"},{"rt":null,"stimulus":"<div style=\"font-size:60px;\">+</div>","key_press":null,"trial_type":"html-keyboard-response","trial_index":144,"time_elapsed":308689,"internal_node_id":"0.0-8.0-1.34","subject":"6y5tlm081046dq6","sona":"7624"},{"trial_type":"turing-test","trial_index":145,"time_elapsed":314945,"internal_node_id":"0.0-8.0-2.34","subject":"6y5tlm081046dq6","sona":"7624"},{"rt":76,"stimulus":"<p>Welche Sequenz haben Sie als natürlicher empfunden?</p>","key_press":74,"test_part":"response","test_stimulus":{"position":0,"left":"bvh/return-bottle-training1-lines.txt","right":"bvh/vr_prediction_models/model(vcgpdm)-dataset(return-bottle)-mode(ELBO)-parts(3)-dyn(25)-lvm(25)-hold(1)/final-lines.txt","att_check":false},"trial_type":"html-keyboard-response","trial_index":146,"time_elapsed":315023,"internal_node_id":"0.0-8.0-3.34","subject":"6y5tlm081046dq6","sona":"7624"},{"rt":454,"stimulus":"<p>Bereit?</p>","key_press":32,"trial_type":"html-keyboard-response","trial_index":147,"time_elapsed":315478,"internal_node_id":"0.0-8.0-0.35","subject":"6y5tlm081046dq6","sona":"7624"},{"rt":null,"stimulus":"<div style=\"font-size:60px;\">+</div>","key_press":null,"trial_type":"html-keyboard-response","trial_index":148,"time_elapsed":317481,"internal_node_id":"0.0-8.0-1.35","subject":"6y5tlm081046dq6","sona":"7624"},{"trial_type":"turing-test","trial_index":149,"time_elapsed":321420,"internal_node_id":"0.0-8.0-2.35","subject":"6y5tlm081046dq6","sona":"7624"},{"rt":2248,"stimulus":"<p>Welche Sequenz haben Sie als natürlicher empfunden?</p>","key_press":70,"test_part":"response","test_stimulus":{"position":1,"left":"bvh/vr_prediction_models/model(vcgpdm)-dataset(pass-bottle-hold)-mode(ELBO)-parts(1)-dyn(20)-lvm(20)-hold(4)/final-lines.txt","right":"bvh/pass-bottle-hold-training4-lines.txt","att_check":false},"trial_type":"html-keyboard-response","trial_index":150,"time_elapsed":323670,"internal_node_id":"0.0-8.0-3.35","subject":"6y5tlm081046dq6","sona":"7624"},{"rt":191,"stimulus":"<p>Bereit?</p>","key_press":32,"trial_type":"html-keyboard-response","trial_index":151,"time_elapsed":323862,"internal_node_id":"0.0-8.0-0.36","subject":"6y5tlm081046dq6","sona":"7624"},{"rt":null,"stimulus":"<div style=\"font-size:60px;\">+</div>","key_press":null,"trial_type":"html-keyboard-response","trial_index":152,"time_elapsed":325866,"internal_node_id":"0.0-8.0-1.36","subject":"6y5tlm081046dq6","sona":"7624"},{"trial_type":"turing-test","trial_index":153,"time_elapsed":330978,"internal_node_id":"0.0-8.0-2.36","subject":"6y5tlm081046dq6","sona":"7624"},{"rt":458,"stimulus":"<p>Welche Sequenz haben Sie als natürlicher empfunden?</p>","key_press":70,"test_part":"response","test_stimulus":{"position":0,"left":"bvh/return-bottle-hold-training0-lines.txt","right":"bvh/vr_prediction_models/model(dmp)-dataset(return-bottle-hold)-npsi(30)-hold(0)/final-lines.txt","att_check":true},"trial_type":"html-keyboard-response","trial_index":154,"time_elapsed":331439,"internal_node_id":"0.0-8.0-3.36","subject":"6y5tlm081046dq6","sona":"7624"},{"rt":207,"stimulus":"<p>Bereit?</p>","key_press":32,"trial_type":"html-keyboard-response","trial_index":155,"time_elapsed":331647,"internal_node_id":"0.0-8.0-0.37","subject":"6y5tlm081046dq6","sona":"7624"},{"rt":null,"stimulus":"<div style=\"font-size:60px;\">+</div>","key_press":null,"trial_type":"html-keyboard-response","trial_index":156,"time_elapsed":333653,"internal_node_id":"0.0-8.0-1.37","subject":"6y5tlm081046dq6","sona":"7624"},{"trial_type":"turing-test","trial_index":157,"time_elapsed":339243,"internal_node_id":"0.0-8.0-2.37","subject":"6y5tlm081046dq6","sona":"7624"},{"rt":443,"stimulus":"<p>Welche Sequenz haben Sie als natürlicher empfunden?</p>","key_press":74,"test_part":"response","test_stimulus":{"position":1,"left":"bvh/vr_prediction_models/model(dmp)-dataset(pass-bottle)-npsi(60)-hold(4)/final-lines.txt","right":"bvh/pass-bottle-training4-lines.txt","att_check":false},"trial_type":"html-keyboard-response","trial_index":158,"time_elapsed":339687,"internal_node_id":"0.0-8.0-3.37","subject":"6y5tlm081046dq6","sona":"7624"},{"rt":575,"stimulus":"<p>Bereit?</p>","key_press":32,"trial_type":"html-keyboard-response","trial_index":159,"time_elapsed":340262,"internal_node_id":"0.0-8.0-0.38","subject":"6y5tlm081046dq6","sona":"7624"},{"rt":null,"stimulus":"<div style=\"font-size:60px;\">+</div>","key_press":null,"trial_type":"html-keyboard-response","trial_index":160,"time_elapsed":342267,"internal_node_id":"0.0-8.0-1.38","subject":"6y5tlm081046dq6","sona":"7624"},{"trial_type":"turing-test","trial_index":161,"time_elapsed":347929,"internal_node_id":"0.0-8.0-2.38","subject":"6y5tlm081046dq6","sona":"7624"},{"rt":910,"stimulus":"<p>Welche Sequenz haben Sie als natürlicher empfunden?</p>","key_press":74,"test_part":"response","test_stimulus":{"position":1,"left":"bvh/vr_prediction_models/model(vcgpdm)-dataset(return-bottle)-mode(ELBO)-parts(3)-dyn(10)-lvm(30)-hold(4)/final-lines.txt","right":"bvh/return-bottle-training4-lines.txt","att_check":false},"trial_type":"html-keyboard-response","trial_index":162,"time_elapsed":348839,"internal_node_id":"0.0-8.0-3.38","subject":"6y5tlm081046dq6","sona":"7624"},{"rt":351,"stimulus":"<p>Bereit?</p>","key_press":32,"trial_type":"html-keyboard-response","trial_index":163,"time_elapsed":349191,"internal_node_id":"0.0-8.0-0.39","subject":"6y5tlm081046dq6","sona":"7624"},{"rt":null,"stimulus":"<div style=\"font-size:60px;\">+</div>","key_press":null,"trial_type":"html-keyboard-response","trial_index":164,"time_elapsed":351200,"internal_node_id":"0.0-8.0-1.39","subject":"6y5tlm081046dq6","sona":"7624"},{"trial_type":"turing-test","trial_index":165,"time_elapsed":357255,"internal_node_id":"0.0-8.0-2.39","subject":"6y5tlm081046dq6","sona":"7624"},{"rt":550,"stimulus":"<p>Welche Sequenz haben Sie als natürlicher empfunden?</p>","key_press":74,"test_part":"response","test_stimulus":{"position":1,"left":"bvh/vr_prediction_models/model(tmp)-dataset(pass-bottle)-numprim(4)-hold(2)/final-lines.txt","right":"bvh/pass-bottle-training2-lines.txt","att_check":false},"trial_type":"html-keyboard-response","trial_index":166,"time_elapsed":357807,"internal_node_id":"0.0-8.0-3.39","subject":"6y5tlm081046dq6","sona":"7624"},{"rt":390,"stimulus":"<p>Bereit?</p>","key_press":32,"trial_type":"html-keyboard-response","trial_index":167,"time_elapsed":358199,"internal_node_id":"0.0-8.0-0.40","subject":"6y5tlm081046dq6","sona":"7624"},{"rt":null,"stimulus":"<div style=\"font-size:60px;\">+</div>","key_press":null,"trial_type":"html-keyboard-response","trial_index":168,"time_elapsed":360203,"internal_node_id":"0.0-8.0-1.40","subject":"6y5tlm081046dq6","sona":"7624"},{"trial_type":"turing-test","trial_index":169,"time_elapsed":367229,"internal_node_id":"0.0-8.0-2.40","subject":"6y5tlm081046dq6","sona":"7624"},{"rt":563,"stimulus":"<p>Welche Sequenz haben Sie als natürlicher empfunden?</p>","key_press":74,"test_part":"response","test_stimulus":{"position":1,"left":"bvh/vr_prediction_models/model(vcgpdm)-dataset(pass-bottle)-mode(ELBO)-parts(1)-dyn(10)-lvm(25)-hold(0)/final-lines.txt","right":"bvh/pass-bottle-training0-lines.txt","att_check":false},"trial_type":"html-keyboard-response","trial_index":170,"time_elapsed":367792,"internal_node_id":"0.0-8.0-3.40","subject":"6y5tlm081046dq6","sona":"7624"},{"rt":389,"stimulus":"<p>Bereit?</p>","key_press":32,"trial_type":"html-keyboard-response","trial_index":171,"time_elapsed":368183,"internal_node_id":"0.0-8.0-0.41","subject":"6y5tlm081046dq6","sona":"7624"},{"rt":null,"stimulus":"<div style=\"font-size:60px;\">+</div>","key_press":null,"trial_type":"html-keyboard-response","trial_index":172,"time_elapsed":370190,"internal_node_id":"0.0-8.0-1.41","subject":"6y5tlm081046dq6","sona":"7624"},{"trial_type":"turing-test","trial_index":173,"time_elapsed":373665,"internal_node_id":"0.0-8.0-2.41","subject":"6y5tlm081046dq6","sona":"7624"},{"rt":526,"stimulus":"<p>Welche Sequenz haben Sie als natürlicher empfunden?</p>","key_press":74,"test_part":"response","test_stimulus":{"position":0,"left":"bvh/pass-bottle-hold-training4-lines.txt","right":"bvh/vr_prediction_models/model(tmp)-dataset(pass-bottle-hold)-numprim(7)-hold(4)/final-lines.txt","att_check":false},"trial_type":"html-keyboard-response","trial_index":174,"time_elapsed":374192,"internal_node_id":"0.0-8.0-3.41","subject":"6y5tlm081046dq6","sona":"7624"},{"rt":247,"stimulus":"<p>Bereit?</p>","key_press":32,"trial_type":"html-keyboard-response","trial_index":175,"time_elapsed":374440,"internal_node_id":"0.0-8.0-0.42","subject":"6y5tlm081046dq6","sona":"7624"},{"rt":null,"stimulus":"<div style=\"font-size:60px;\">+</div>","key_press":null,"trial_type":"html-keyboard-response","trial_index":176,"time_elapsed":376448,"internal_node_id":"0.0-8.0-1.42","subject":"6y5tlm081046dq6","sona":"7624"},{"trial_type":"turing-test","trial_index":177,"time_elapsed":381718,"internal_node_id":"0.0-8.0-2.42","subject":"6y5tlm081046dq6","sona":"7624"},{"rt":417,"stimulus":"<p>Welche Sequenz haben Sie als natürlicher empfunden?</p>","key_press":70,"test_part":"response","test_stimulus":{"position":0,"left":"bvh/return-bottle-training0-lines.txt","right":"bvh/vr_prediction_models/model(vcgpdm)-dataset(return-bottle)-mode(ELBO)-parts(1)-dyn(30)-lvm(35)-hold(0)/final-lines.txt","att_check":false},"trial_type":"html-keyboard-response","trial_index":178,"time_elapsed":382136,"internal_node_id":"0.0-8.0-3.42","subject":"6y5tlm081046dq6","sona":"7624"},{"rt":342,"stimulus":"<p>Bereit?</p>","key_press":32,"trial_type":"html-keyboard-response","trial_index":179,"time_elapsed":382480,"internal_node_id":"0.0-8.0-0.43","subject":"6y5tlm081046dq6","sona":"7624"},{"rt":null,"stimulus":"<div style=\"font-size:60px;\">+</div>","key_press":null,"trial_type":"html-keyboard-response","trial_index":180,"time_elapsed":384485,"internal_node_id":"0.0-8.0-1.43","subject":"6y5tlm081046dq6","sona":"7624"},{"trial_type":"turing-test","trial_index":181,"time_elapsed":390205,"internal_node_id":"0.0-8.0-2.43","subject":"6y5tlm081046dq6","sona":"7624"},{"rt":257,"stimulus":"<p>Welche Sequenz haben Sie als natürlicher empfunden?</p>","key_press":74,"test_part":"response","test_stimulus":{"position":1,"left":"bvh/vr_prediction_models/model(vcgpdm)-dataset(return-bottle)-mode(ELBO)-parts(1)-dyn(30)-lvm(20)-hold(0)/final-lines.txt","right":"bvh/return-bottle-training0-lines.txt","att_check":false},"trial_type":"html-keyboard-response","trial_index":182,"time_elapsed":390464,"internal_node_id":"0.0-8.0-3.43","subject":"6y5tlm081046dq6","sona":"7624"},{"rt":454,"stimulus":"<p>Bereit?</p>","key_press":32,"trial_type":"html-keyboard-response","trial_index":183,"time_elapsed":390920,"internal_node_id":"0.0-8.0-0.44","subject":"6y5tlm081046dq6","sona":"7624"},{"rt":null,"stimulus":"<div style=\"font-size:60px;\">+</div>","key_press":null,"trial_type":"html-keyboard-response","trial_index":184,"time_elapsed":392926,"internal_node_id":"0.0-8.0-1.44","subject":"6y5tlm081046dq6","sona":"7624"},{"trial_type":"turing-test","trial_index":185,"time_elapsed":398874,"internal_node_id":"0.0-8.0-2.44","subject":"6y5tlm081046dq6","sona":"7624"},{"rt":630,"stimulus":"<p>Welche Sequenz haben Sie als natürlicher empfunden?</p>","key_press":74,"test_part":"response","test_stimulus":{"position":1,"left":"bvh/vr_prediction_models/model(vcgpdm)-dataset(return-bottle)-mode(ELBO)-parts(3)-dyn(25)-lvm(25)-hold(1)/final-lines.txt","right":"bvh/return-bottle-training1-lines.txt","att_check":false},"trial_type":"html-keyboard-response","trial_index":186,"time_elapsed":399505,"internal_node_id":"0.0-8.0-3.44","subject":"6y5tlm081046dq6","sona":"7624"},{"rt":319,"stimulus":"<p>Bereit?</p>","key_press":32,"trial_type":"html-keyboard-response","trial_index":187,"time_elapsed":399824,"internal_node_id":"0.0-8.0-0.45","subject":"6y5tlm081046dq6","sona":"7624"},{"rt":null,"stimulus":"<div style=\"font-size:60px;\">+</div>","key_press":null,"trial_type":"html-keyboard-response","trial_index":188,"time_elapsed":401831,"internal_node_id":"0.0-8.0-1.45","subject":"6y5tlm081046dq6","sona":"7624"},{"trial_type":"turing-test","trial_index":189,"time_elapsed":407599,"internal_node_id":"0.0-8.0-2.45","subject":"6y5tlm081046dq6","sona":"7624"},{"rt":367,"stimulus":"<p>Welche Sequenz haben Sie als natürlicher empfunden?</p>","key_press":70,"test_part":"response","test_stimulus":{"position":0,"left":"bvh/return-bottle-training4-lines.txt","right":"bvh/vr_prediction_models/model(tmp)-dataset(return-bottle)-numprim(9)-hold(4)/final-lines.txt","att_check":false},"trial_type":"html-keyboard-response","trial_index":190,"time_elapsed":407969,"internal_node_id":"0.0-8.0-3.45","subject":"6y5tlm081046dq6","sona":"7624"},{"rt":295,"stimulus":"<p>Bereit?</p>","key_press":32,"trial_type":"html-keyboard-response","trial_index":191,"time_elapsed":408265,"internal_node_id":"0.0-8.0-0.46","subject":"6y5tlm081046dq6","sona":"7624"},{"rt":null,"stimulus":"<div style=\"font-size:60px;\">+</div>","key_press":null,"trial_type":"html-keyboard-response","trial_index":192,"time_elapsed":410270,"internal_node_id":"0.0-8.0-1.46","subject":"6y5tlm081046dq6","sona":"7624"},{"trial_type":"turing-test","trial_index":193,"time_elapsed":416332,"internal_node_id":"0.0-8.0-2.46","subject":"6y5tlm081046dq6","sona":"7624"},{"rt":331,"stimulus":"<p>Welche Sequenz haben Sie als natürlicher empfunden?</p>","key_press":74,"test_part":"response","test_stimulus":{"position":1,"left":"bvh/vr_prediction_models/model(dmp)-dataset(return-bottle)-npsi(50)-hold(1)/final-lines.txt","right":"bvh/return-bottle-training1-lines.txt","att_check":true},"trial_type":"html-keyboard-response","trial_index":194,"time_elapsed":416665,"internal_node_id":"0.0-8.0-3.46","subject":"6y5tlm081046dq6","sona":"7624"},{"rt":262,"stimulus":"<p>Bereit?</p>","key_press":32,"trial_type":"html-keyboard-response","trial_index":195,"time_elapsed":416929,"internal_node_id":"0.0-8.0-0.47","subject":"6y5tlm081046dq6","sona":"7624"},{"rt":null,"stimulus":"<div style=\"font-size:60px;\">+</div>","key_press":null,"trial_type":"html-keyboard-response","trial_index":196,"time_elapsed":418933,"internal_node_id":"0.0-8.0-1.47","subject":"6y5tlm081046dq6","sona":"7624"},{"trial_type":"turing-test","trial_index":197,"time_elapsed":425888,"internal_node_id":"0.0-8.0-2.47","subject":"6y5tlm081046dq6","sona":"7624"},{"rt":351,"stimulus":"<p>Welche Sequenz haben Sie als natürlicher empfunden?</p>","key_press":74,"test_part":"response","test_stimulus":{"position":1,"left":"bvh/vr_prediction_models/model(vcgpdm)-dataset(return-bottle)-mode(ELBO)-parts(1)-dyn(35)-lvm(30)-hold(2)/final-lines.txt","right":"bvh/return-bottle-training2-lines.txt","att_check":false},"trial_type":"html-keyboard-response","trial_index":198,"time_elapsed":426241,"internal_node_id":"0.0-8.0-3.47","subject":"6y5tlm081046dq6","sona":"7624"},{"rt":398,"stimulus":"<p>Bereit?</p>","key_press":32,"trial_type":"html-keyboard-response","trial_index":199,"time_elapsed":426641,"internal_node_id":"0.0-8.0-0.48","subject":"6y5tlm081046dq6","sona":"7624"},{"rt":null,"stimulus":"<div style=\"font-size:60px;\">+</div>","key_press":null,"trial_type":"html-keyboard-response","trial_index":200,"time_elapsed":428646,"internal_node_id":"0.0-8.0-1.48","subject":"6y5tlm081046dq6","sona":"7624"},{"trial_type":"turing-test","trial_index":201,"time_elapsed":435565,"internal_node_id":"0.0-8.0-2.48","subject":"6y5tlm081046dq6","sona":"7624"},{"rt":795,"stimulus":"<p>Welche Sequenz haben Sie als natürlicher empfunden?</p>","key_press":74,"test_part":"response","test_stimulus":{"position":1,"left":"bvh/vr_prediction_models/model(vcgpdm)-dataset(return-bottle)-mode(ELBO)-parts(1)-dyn(30)-lvm(30)-hold(2)/final-lines.txt","right":"bvh/return-bottle-training2-lines.txt","att_check":false},"trial_type":"html-keyboard-response","trial_index":202,"time_elapsed":436362,"internal_node_id":"0.0-8.0-3.48","subject":"6y5tlm081046dq6","sona":"7624"},{"rt":277,"stimulus":"<p>Bereit?</p>","key_press":32,"trial_type":"html-keyboard-response","trial_index":203,"time_elapsed":436642,"internal_node_id":"0.0-8.0-0.49","subject":"6y5tlm081046dq6","sona":"7624"},{"rt":null,"stimulus":"<div style=\"font-size:60px;\">+</div>","key_press":null,"trial_type":"html-keyboard-response","trial_index":204,"time_elapsed":438647,"internal_node_id":"0.0-8.0-1.49","subject":"6y5tlm081046dq6","sona":"7624"},{"trial_type":"turing-test","trial_index":205,"time_elapsed":442155,"internal_node_id":"0.0-8.0-2.49","subject":"6y5tlm081046dq6","sona":"7624"},{"rt":309,"stimulus":"<p>Welche Sequenz haben Sie als natürlicher empfunden?</p>","key_press":74,"test_part":"response","test_stimulus":{"position":0,"left":"bvh/pass-bottle-hold-training1-lines.txt","right":"bvh/vr_prediction_models/model(vcgpdm)-dataset(pass-bottle-hold)-mode(ELBO)-parts(1)-dyn(30)-lvm(35)-hold(1)/final-lines.txt","att_check":false},"trial_type":"html-keyboard-response","trial_index":206,"time_elapsed":442466,"internal_node_id":"0.0-8.0-3.49","subject":"6y5tlm081046dq6","sona":"7624"},{"rt":286,"stimulus":"<p>Bereit?</p>","key_press":32,"trial_type":"html-keyboard-response","trial_index":207,"time_elapsed":442753,"internal_node_id":"0.0-8.0-0.50","subject":"6y5tlm081046dq6","sona":"7624"},{"rt":null,"stimulus":"<div style=\"font-size:60px;\">+</div>","key_press":null,"trial_type":"html-keyboard-response","trial_index":208,"time_elapsed":444755,"internal_node_id":"0.0-8.0-1.50","subject":"6y5tlm081046dq6","sona":"7624"},{"trial_type":"turing-test","trial_index":209,"time_elapsed":450716,"internal_node_id":"0.0-8.0-2.50","subject":"6y5tlm081046dq6","sona":"7624"},{"rt":453,"stimulus":"<p>Welche Sequenz haben Sie als natürlicher empfunden?</p>","key_press":70,"test_part":"response","test_stimulus":{"position":1,"left":"bvh/vr_prediction_models/model(vcgpdm)-dataset(pass-bottle)-mode(ELBO)-parts(3)-dyn(25)-lvm(15)-hold(4)/final-lines.txt","right":"bvh/pass-bottle-training4-lines.txt","att_check":false},"trial_type":"html-keyboard-response","trial_index":210,"time_elapsed":451170,"internal_node_id":"0.0-8.0-3.50","subject":"6y5tlm081046dq6","sona":"7624"},{"rt":391,"stimulus":"<p>Bereit?</p>","key_press":32,"trial_type":"html-keyboard-response","trial_index":211,"time_elapsed":451562,"internal_node_id":"0.0-8.0-0.51","subject":"6y5tlm081046dq6","sona":"7624"},{"rt":null,"stimulus":"<div style=\"font-size:60px;\">+</div>","key_press":null,"trial_type":"html-keyboard-response","trial_index":212,"time_elapsed":453567,"internal_node_id":"0.0-8.0-1.51","subject":"6y5tlm081046dq6","sona":"7624"},{"trial_type":"turing-test","trial_index":213,"time_elapsed":460432,"internal_node_id":"0.0-8.0-2.51","subject":"6y5tlm081046dq6","sona":"7624"},{"rt":945,"stimulus":"<p>Welche Sequenz haben Sie als natürlicher empfunden?</p>","key_press":70,"test_part":"response","test_stimulus":{"position":0,"left":"bvh/return-bottle-training2-lines.txt","right":"bvh/vr_prediction_models/model(vcgpdm)-dataset(return-bottle)-mode(ELBO)-parts(1)-dyn(10)-lvm(5)-hold(2)/final-lines.txt","att_check":false},"trial_type":"html-keyboard-response","trial_index":214,"time_elapsed":461378,"internal_node_id":"0.0-8.0-3.51","subject":"6y5tlm081046dq6","sona":"7624"},{"rt":710,"stimulus":"<p>Bereit?</p>","key_press":32,"trial_type":"html-keyboard-response","trial_index":215,"time_elapsed":462090,"internal_node_id":"0.0-8.0-0.52","subject":"6y5tlm081046dq6","sona":"7624"},{"rt":null,"stimulus":"<div style=\"font-size:60px;\">+</div>","key_press":null,"trial_type":"html-keyboard-response","trial_index":216,"time_elapsed":464094,"internal_node_id":"0.0-8.0-1.52","subject":"6y5tlm081046dq6","sona":"7624"},{"trial_type":"turing-test","trial_index":217,"time_elapsed":470700,"internal_node_id":"0.0-8.0-2.52","subject":"6y5tlm081046dq6","sona":"7624"},{"rt":574,"stimulus":"<p>Welche Sequenz haben Sie als natürlicher empfunden?</p>","key_press":74,"test_part":"response","test_stimulus":{"position":1,"left":"bvh/vr_prediction_models/model(tmp)-dataset(return-bottle)-numprim(5)-hold(2)/final-lines.txt","right":"bvh/return-bottle-training2-lines.txt","att_check":false},"trial_type":"html-keyboard-response","trial_index":218,"time_elapsed":471274,"internal_node_id":"0.0-8.0-3.52","subject":"6y5tlm081046dq6","sona":"7624"},{"rt":254,"stimulus":"<p>Bereit?</p>","key_press":32,"trial_type":"html-keyboard-response","trial_index":219,"time_elapsed":471531,"internal_node_id":"0.0-8.0-0.53","subject":"6y5tlm081046dq6","sona":"7624"},{"rt":null,"stimulus":"<div style=\"font-size:60px;\">+</div>","key_press":null,"trial_type":"html-keyboard-response","trial_index":220,"time_elapsed":473532,"internal_node_id":"0.0-8.0-1.53","subject":"6y5tlm081046dq6","sona":"7624"},{"trial_type":"turing-test","trial_index":221,"time_elapsed":478851,"internal_node_id":"0.0-8.0-2.53","subject":"6y5tlm081046dq6","sona":"7624"},{"rt":622,"stimulus":"<p>Welche Sequenz haben Sie als natürlicher empfunden?</p>","key_press":74,"test_part":"response","test_stimulus":{"position":1,"left":"bvh/vr_prediction_models/model(vcgpdm)-dataset(pass-bottle)-mode(ELBO)-parts(1)-dyn(10)-lvm(5)-hold(1)/final-lines.txt","right":"bvh/pass-bottle-training1-lines.txt","att_check":false},"trial_type":"html-keyboard-response","trial_index":222,"time_elapsed":479475,"internal_node_id":"0.0-8.0-3.53","subject":"6y5tlm081046dq6","sona":"7624"},{"rt":350,"stimulus":"<p>Bereit?</p>","key_press":32,"trial_type":"html-keyboard-response","trial_index":223,"time_elapsed":479826,"internal_node_id":"0.0-8.0-0.54","subject":"6y5tlm081046dq6","sona":"7624"},{"rt":null,"stimulus":"<div style=\"font-size:60px;\">+</div>","key_press":null,"trial_type":"html-keyboard-response","trial_index":224,"time_elapsed":481831,"internal_node_id":"0.0-8.0-1.54","subject":"6y5tlm081046dq6","sona":"7624"},{"trial_type":"turing-test","trial_index":225,"time_elapsed":487444,"internal_node_id":"0.0-8.0-2.54","subject":"6y5tlm081046dq6","sona":"7624"},{"rt":582,"stimulus":"<p>Welche Sequenz haben Sie als natürlicher empfunden?</p>","key_press":70,"test_part":"response","test_stimulus":{"position":0,"left":"bvh/pass-bottle-training1-lines.txt","right":"bvh/vr_prediction_models/model(vcgpdm)-dataset(pass-bottle)-mode(ELBO)-parts(3)-dyn(25)-lvm(15)-hold(1)/final-lines.txt","att_check":false},"trial_type":"html-keyboard-response","trial_index":226,"time_elapsed":488028,"internal_node_id":"0.0-8.0-3.54","subject":"6y5tlm081046dq6","sona":"7624"},{"rt":390,"stimulus":"<p>Bereit?</p>","key_press":32,"trial_type":"html-keyboard-response","trial_index":227,"time_elapsed":488418,"internal_node_id":"0.0-8.0-0.55","subject":"6y5tlm081046dq6","sona":"7624"},{"rt":null,"stimulus":"<div style=\"font-size:60px;\">+</div>","key_press":null,"trial_type":"html-keyboard-response","trial_index":228,"time_elapsed":490425,"internal_node_id":"0.0-8.0-1.55","subject":"6y5tlm081046dq6","sona":"7624"},{"trial_type":"turing-test","trial_index":229,"time_elapsed":496372,"internal_node_id":"0.0-8.0-2.55","subject":"6y5tlm081046dq6","sona":"7624"},{"rt":606,"stimulus":"<p>Welche Sequenz haben Sie als natürlicher empfunden?</p>","key_press":74,"test_part":"response","test_stimulus":{"position":1,"left":"bvh/vr_prediction_models/model(vcgpdm)-dataset(return-bottle)-mode(ELBO)-parts(1)-dyn(20)-lvm(20)-hold(1)/final-lines.txt","right":"bvh/return-bottle-training1-lines.txt","att_check":false},"trial_type":"html-keyboard-response","trial_index":230,"time_elapsed":496979,"internal_node_id":"0.0-8.0-3.55","subject":"6y5tlm081046dq6","sona":"7624"},{"rt":423,"stimulus":"<p>Bereit?</p>","key_press":32,"trial_type":"html-keyboard-response","trial_index":231,"time_elapsed":497403,"internal_node_id":"0.0-8.0-0.56","subject":"6y5tlm081046dq6","sona":"7624"},{"rt":null,"stimulus":"<div style=\"font-size:60px;\">+</div>","key_press":null,"trial_type":"html-keyboard-response","trial_index":232,"time_elapsed":499409,"internal_node_id":"0.0-8.0-1.56","subject":"6y5tlm081046dq6","sona":"7624"},{"trial_type":"turing-test","trial_index":233,"time_elapsed":505011,"internal_node_id":"0.0-8.0-2.56","subject":"6y5tlm081046dq6","sona":"7624"},{"rt":2128,"stimulus":"<p>Welche Sequenz haben Sie als natürlicher empfunden?</p>","key_press":70,"test_part":"response","test_stimulus":{"position":0,"left":"bvh/return-bottle-training3-lines.txt","right":"bvh/vr_prediction_models/model(dmp)-dataset(return-bottle)-npsi(80)-hold(3)/final-lines.txt","att_check":false},"trial_type":"html-keyboard-response","trial_index":234,"time_elapsed":507140,"internal_node_id":"0.0-8.0-3.56","subject":"6y5tlm081046dq6","sona":"7624"},{"rt":286,"stimulus":"<p>Bereit?</p>","key_press":32,"trial_type":"html-keyboard-response","trial_index":235,"time_elapsed":507427,"internal_node_id":"0.0-8.0-0.57","subject":"6y5tlm081046dq6","sona":"7624"},{"rt":null,"stimulus":"<div style=\"font-size:60px;\">+</div>","key_press":null,"trial_type":"html-keyboard-response","trial_index":236,"time_elapsed":509434,"internal_node_id":"0.0-8.0-1.57","subject":"6y5tlm081046dq6","sona":"7624"},{"trial_type":"turing-test","trial_index":237,"time_elapsed":515144,"internal_node_id":"0.0-8.0-2.57","subject":"6y5tlm081046dq6","sona":"7624"},{"rt":514,"stimulus":"<p>Welche Sequenz haben Sie als natürlicher empfunden?</p>","key_press":70,"test_part":"response","test_stimulus":{"position":0,"left":"bvh/return-bottle-training0-lines.txt","right":"bvh/vr_prediction_models/model(vcgpdm)-dataset(return-bottle)-mode(ELBO)-parts(1)-dyn(15)-lvm(35)-hold(0)/final-lines.txt","att_check":false},"trial_type":"html-keyboard-response","trial_index":238,"time_elapsed":515660,"internal_node_id":"0.0-8.0-3.57","subject":"6y5tlm081046dq6","sona":"7624"},{"rt":414,"stimulus":"<p>Bereit?</p>","key_press":32,"trial_type":"html-keyboard-response","trial_index":239,"time_elapsed":516076,"internal_node_id":"0.0-8.0-0.58","subject":"6y5tlm081046dq6","sona":"7624"},{"rt":null,"stimulus":"<div style=\"font-size:60px;\">+</div>","key_press":null,"trial_type":"html-keyboard-response","trial_index":240,"time_elapsed":518082,"internal_node_id":"0.0-8.0-1.58","subject":"6y5tlm081046dq6","sona":"7624"},{"trial_type":"turing-test","trial_index":241,"time_elapsed":523782,"internal_node_id":"0.0-8.0-2.58","subject":"6y5tlm081046dq6","sona":"7624"},{"rt":789,"stimulus":"<p>Welche Sequenz haben Sie als natürlicher empfunden?</p>","key_press":74,"test_part":"response","test_stimulus":{"position":1,"left":"bvh/vr_prediction_models/model(vcgpdm)-dataset(pass-bottle)-mode(ELBO)-parts(3)-dyn(25)-lvm(30)-hold(3)/final-lines.txt","right":"bvh/pass-bottle-training3-lines.txt","att_check":false},"trial_type":"html-keyboard-response","trial_index":242,"time_elapsed":524572,"internal_node_id":"0.0-8.0-3.58","subject":"6y5tlm081046dq6","sona":"7624"},{"rt":326,"stimulus":"<p>Bereit?</p>","key_press":32,"trial_type":"html-keyboard-response","trial_index":243,"time_elapsed":524900,"internal_node_id":"0.0-8.0-0.59","subject":"6y5tlm081046dq6","sona":"7624"},{"rt":null,"stimulus":"<div style=\"font-size:60px;\">+</div>","key_press":null,"trial_type":"html-keyboard-response","trial_index":244,"time_elapsed":526902,"internal_node_id":"0.0-8.0-1.59","subject":"6y5tlm081046dq6","sona":"7624"},{"trial_type":"turing-test","trial_index":245,"time_elapsed":530749,"internal_node_id":"0.0-8.0-2.59","subject":"6y5tlm081046dq6","sona":"7624"},{"rt":309,"stimulus":"<p>Welche Sequenz haben Sie als natürlicher empfunden?</p>","key_press":70,"test_part":"response","test_stimulus":{"position":1,"left":"bvh/vr_prediction_models/model(vcgpdm)-dataset(pass-bottle-hold)-mode(ELBO)-parts(1)-dyn(30)-lvm(35)-hold(4)/final-lines.txt","right":"bvh/pass-bottle-hold-training4-lines.txt","att_check":false},"trial_type":"html-keyboard-response","trial_index":246,"time_elapsed":531060,"internal_node_id":"0.0-8.0-3.59","subject":"6y5tlm081046dq6","sona":"7624"},{"rt":277,"stimulus":"<p>Bereit?</p>","key_press":32,"trial_type":"html-keyboard-response","trial_index":247,"time_elapsed":531340,"internal_node_id":"0.0-8.0-0.60","subject":"6y5tlm081046dq6","sona":"7624"},{"rt":null,"stimulus":"<div style=\"font-size:60px;\">+</div>","key_press":null,"trial_type":"html-keyboard-response","trial_index":248,"time_elapsed":533351,"internal_node_id":"0.0-8.0-1.60","subject":"6y5tlm081046dq6","sona":"7624"},{"trial_type":"turing-test","trial_index":249,"time_elapsed":536662,"internal_node_id":"0.0-8.0-2.60","subject":"6y5tlm081046dq6","sona":"7624"},{"rt":623,"stimulus":"<p>Welche Sequenz haben Sie als natürlicher empfunden?</p>","key_press":70,"test_part":"response","test_stimulus":{"position":0,"left":"bvh/return-bottle-hold-training1-lines.txt","right":"bvh/vr_prediction_models/model(dmp)-dataset(return-bottle-hold)-npsi(60)-hold(1)/final-lines.txt","att_check":false},"trial_type":"html-keyboard-response","trial_index":250,"time_elapsed":537285,"internal_node_id":"0.0-8.0-3.60","subject":"6y5tlm081046dq6","sona":"7624"},{"rt":578,"stimulus":"<p>Bereit?</p>","key_press":32,"trial_type":"html-keyboard-response","trial_index":251,"time_elapsed":537869,"internal_node_id":"0.0-8.0-0.61","subject":"6y5tlm081046dq6","sona":"7624"},{"rt":null,"stimulus":"<div style=\"font-size:60px;\">+</div>","key_press":null,"trial_type":"html-keyboard-response","trial_index":252,"time_elapsed":539877,"internal_node_id":"0.0-8.0-1.61","subject":"6y5tlm081046dq6","sona":"7624"},{"trial_type":"turing-test","trial_index":253,"time_elapsed":543430,"internal_node_id":"0.0-8.0-2.61","subject":"6y5tlm081046dq6","sona":"7624"},{"rt":324,"stimulus":"<p>Welche Sequenz haben Sie als natürlicher empfunden?</p>","key_press":74,"test_part":"response","test_stimulus":{"position":1,"left":"bvh/vr_prediction_models/model(vcgpdm)-dataset(pass-bottle-hold)-mode(ELBO)-parts(3)-dyn(10)-lvm(30)-hold(2)/final-lines.txt","right":"bvh/pass-bottle-hold-training2-lines.txt","att_check":false},"trial_type":"html-keyboard-response","trial_index":254,"time_elapsed":543757,"internal_node_id":"0.0-8.0-3.61","subject":"6y5tlm081046dq6","sona":"7624"},{"rt":238,"stimulus":"<p>Bereit?</p>","key_press":32,"trial_type":"html-keyboard-response","trial_index":255,"time_elapsed":543997,"internal_node_id":"0.0-8.0-0.62","subject":"6y5tlm081046dq6","sona":"7624"},{"rt":null,"stimulus":"<div style=\"font-size:60px;\">+</div>","key_press":null,"trial_type":"html-keyboard-response","trial_index":256,"time_elapsed":546002,"internal_node_id":"0.0-8.0-1.62","subject":"6y5tlm081046dq6","sona":"7624"},{"trial_type":"turing-test","trial_index":257,"time_elapsed":551428,"internal_node_id":"0.0-8.0-2.62","subject":"6y5tlm081046dq6","sona":"7624"},{"rt":472,"stimulus":"<p>Welche Sequenz haben Sie als natürlicher empfunden?</p>","key_press":70,"test_part":"response","test_stimulus":{"position":0,"left":"bvh/pass-bottle-training1-lines.txt","right":"bvh/vr_prediction_models/model(tmp)-dataset(pass-bottle)-numprim(15)-hold(1)/final-lines.txt","att_check":false},"trial_type":"html-keyboard-response","trial_index":258,"time_elapsed":551901,"internal_node_id":"0.0-8.0-3.62","subject":"6y5tlm081046dq6","sona":"7624"},{"rt":317,"stimulus":"<p>Bereit?</p>","key_press":32,"trial_type":"html-keyboard-response","trial_index":259,"time_elapsed":552220,"internal_node_id":"0.0-8.0-0.63","subject":"6y5tlm081046dq6","sona":"7624"},{"rt":null,"stimulus":"<div style=\"font-size:60px;\">+</div>","key_press":null,"trial_type":"html-keyboard-response","trial_index":260,"time_elapsed":554226,"internal_node_id":"0.0-8.0-1.63","subject":"6y5tlm081046dq6","sona":"7624"},{"trial_type":"turing-test","trial_index":261,"time_elapsed":559637,"internal_node_id":"0.0-8.0-2.63","subject":"6y5tlm081046dq6","sona":"7624"},{"rt":565,"stimulus":"<p>Welche Sequenz haben Sie als natürlicher empfunden?</p>","key_press":70,"test_part":"response","test_stimulus":{"position":1,"left":"bvh/vr_prediction_models/model(dmp)-dataset(return-bottle)-npsi(100)-hold(0)/final-lines.txt","right":"bvh/return-bottle-training0-lines.txt","att_check":true},"trial_type":"html-keyboard-response","trial_index":262,"time_elapsed":560205,"internal_node_id":"0.0-8.0-3.63","subject":"6y5tlm081046dq6","sona":"7624"},{"rt":1413,"stimulus":"<p>Bereit?</p>","key_press":32,"trial_type":"html-keyboard-response","trial_index":263,"time_elapsed":561621,"internal_node_id":"0.0-8.0-0.64","subject":"6y5tlm081046dq6","sona":"7624"},{"rt":null,"stimulus":"<div style=\"font-size:60px;\">+</div>","key_press":null,"trial_type":"html-keyboard-response","trial_index":264,"time_elapsed":563625,"internal_node_id":"0.0-8.0-1.64","subject":"6y5tlm081046dq6","sona":"7624"},{"trial_type":"turing-test","trial_index":265,"time_elapsed":567232,"internal_node_id":"0.0-8.0-2.64","subject":"6y5tlm081046dq6","sona":"7624"},{"rt":403,"stimulus":"<p>Welche Sequenz haben Sie als natürlicher empfunden?</p>","key_press":74,"test_part":"response","test_stimulus":{"position":0,"left":"bvh/return-bottle-hold-training3-lines.txt","right":"bvh/vr_prediction_models/model(dmp)-dataset(return-bottle-hold)-npsi(100)-hold(3)/final-lines.txt","att_check":false},"trial_type":"html-keyboard-response","trial_index":266,"time_elapsed":567638,"internal_node_id":"0.0-8.0-3.64","subject":"6y5tlm081046dq6","sona":"7624"},{"rt":206,"stimulus":"<p>Bereit?</p>","key_press":32,"trial_type":"html-keyboard-response","trial_index":267,"time_elapsed":567845,"internal_node_id":"0.0-8.0-0.65","subject":"6y5tlm081046dq6","sona":"7624"},{"rt":null,"stimulus":"<div style=\"font-size:60px;\">+</div>","key_press":null,"trial_type":"html-keyboard-response","trial_index":268,"time_elapsed":569850,"internal_node_id":"0.0-8.0-1.65","subject":"6y5tlm081046dq6","sona":"7624"},{"trial_type":"turing-test","trial_index":269,"time_elapsed":573169,"internal_node_id":"0.0-8.0-2.65","subject":"6y5tlm081046dq6","sona":"7624"},{"rt":2107,"stimulus":"<p>Welche Sequenz haben Sie als natürlicher empfunden?</p>","key_press":70,"test_part":"response","test_stimulus":{"position":1,"left":"bvh/vr_prediction_models/model(tmp)-dataset(pass-bottle-hold)-numprim(5)-hold(2)/final-lines.txt","right":"bvh/pass-bottle-hold-training2-lines.txt","att_check":false},"trial_type":"html-keyboard-response","trial_index":270,"time_elapsed":575277,"internal_node_id":"0.0-8.0-3.65","subject":"6y5tlm081046dq6","sona":"7624"},{"rt":302,"stimulus":"<p>Bereit?</p>","key_press":32,"trial_type":"html-keyboard-response","trial_index":271,"time_elapsed":575581,"internal_node_id":"0.0-8.0-0.66","subject":"6y5tlm081046dq6","sona":"7624"},{"rt":null,"stimulus":"<div style=\"font-size:60px;\">+</div>","key_press":null,"trial_type":"html-keyboard-response","trial_index":272,"time_elapsed":577584,"internal_node_id":"0.0-8.0-1.66","subject":"6y5tlm081046dq6","sona":"7624"},{"trial_type":"turing-test","trial_index":273,"time_elapsed":583241,"internal_node_id":"0.0-8.0-2.66","subject":"6y5tlm081046dq6","sona":"7624"},{"rt":225,"stimulus":"<p>Welche Sequenz haben Sie als natürlicher empfunden?</p>","key_press":74,"test_part":"response","test_stimulus":{"position":1,"left":"bvh/vr_prediction_models/model(vcgpdm)-dataset(return-bottle)-mode(ELBO)-parts(3)-dyn(25)-lvm(25)-hold(4)/final-lines.txt","right":"bvh/return-bottle-training4-lines.txt","att_check":false},"trial_type":"html-keyboard-response","trial_index":274,"time_elapsed":583470,"internal_node_id":"0.0-8.0-3.66","subject":"6y5tlm081046dq6","sona":"7624"},{"rt":382,"stimulus":"<p>Bereit?</p>","key_press":32,"trial_type":"html-keyboard-response","trial_index":275,"time_elapsed":583853,"internal_node_id":"0.0-8.0-0.67","subject":"6y5tlm081046dq6","sona":"7624"},{"rt":null,"stimulus":"<div style=\"font-size:60px;\">+</div>","key_press":null,"trial_type":"html-keyboard-response","trial_index":276,"time_elapsed":585861,"internal_node_id":"0.0-8.0-1.67","subject":"6y5tlm081046dq6","sona":"7624"},{"trial_type":"turing-test","trial_index":277,"time_elapsed":589090,"internal_node_id":"0.0-8.0-2.67","subject":"6y5tlm081046dq6","sona":"7624"},{"rt":610,"stimulus":"<p>Welche Sequenz haben Sie als natürlicher empfunden?</p>","key_press":70,"test_part":"response","test_stimulus":{"position":1,"left":"bvh/vr_prediction_models/model(dmp)-dataset(pass-bottle-hold)-npsi(10)-hold(0)/final-lines.txt","right":"bvh/pass-bottle-hold-training0-lines.txt","att_check":false},"trial_type":"html-keyboard-response","trial_index":278,"time_elapsed":589702,"internal_node_id":"0.0-8.0-3.67","subject":"6y5tlm081046dq6","sona":"7624"},{"rt":262,"stimulus":"<p>Bereit?</p>","key_press":32,"trial_type":"html-keyboard-response","trial_index":279,"time_elapsed":589966,"internal_node_id":"0.0-8.0-0.68","subject":"6y5tlm081046dq6","sona":"7624"},{"rt":null,"stimulus":"<div style=\"font-size:60px;\">+</div>","key_press":null,"trial_type":"html-keyboard-response","trial_index":280,"time_elapsed":591969,"internal_node_id":"0.0-8.0-1.68","subject":"6y5tlm081046dq6","sona":"7624"},{"trial_type":"turing-test","trial_index":281,"time_elapsed":598456,"internal_node_id":"0.0-8.0-2.68","subject":"6y5tlm081046dq6","sona":"7624"},{"rt":6,"stimulus":"<p>Welche Sequenz haben Sie als natürlicher empfunden?</p>","key_press":74,"test_part":"response","test_stimulus":{"position":1,"left":"bvh/vr_prediction_models/model(vcgpdm)-dataset(pass-bottle)-mode(ELBO)-parts(1)-dyn(15)-lvm(35)-hold(2)/final-lines.txt","right":"bvh/pass-bottle-training2-lines.txt","att_check":false},"trial_type":"html-keyboard-response","trial_index":282,"time_elapsed":598464,"internal_node_id":"0.0-8.0-3.68","subject":"6y5tlm081046dq6","sona":"7624"},{"rt":356,"stimulus":"<p>Bereit?</p>","key_press":32,"trial_type":"html-keyboard-response","trial_index":283,"time_elapsed":598822,"internal_node_id":"0.0-8.0-0.69","subject":"6y5tlm081046dq6","sona":"7624"},{"rt":null,"stimulus":"<div style=\"font-size:60px;\">+</div>","key_press":null,"trial_type":"html-keyboard-response","trial_index":284,"time_elapsed":600827,"internal_node_id":"0.0-8.0-1.69","subject":"6y5tlm081046dq6","sona":"7624"},{"trial_type":"turing-test","trial_index":285,"time_elapsed":604358,"internal_node_id":"0.0-8.0-2.69","subject":"6y5tlm081046dq6","sona":"7624"},{"rt":277,"stimulus":"<p>Welche Sequenz haben Sie als natürlicher empfunden?</p>","key_press":70,"test_part":"response","test_stimulus":{"position":0,"left":"bvh/pass-bottle-hold-training1-lines.txt","right":"bvh/vr_prediction_models/model(vcgpdm)-dataset(pass-bottle-hold)-mode(ELBO)-parts(1)-dyn(15)-lvm(35)-hold(1)/final-lines.txt","att_check":false},"trial_type":"html-keyboard-response","trial_index":286,"time_elapsed":604638,"internal_node_id":"0.0-8.0-3.69","subject":"6y5tlm081046dq6","sona":"7624"},{"rt":278,"stimulus":"<p>Bereit?</p>","key_press":32,"trial_type":"html-keyboard-response","trial_index":287,"time_elapsed":604918,"internal_node_id":"0.0-8.0-0.70","subject":"6y5tlm081046dq6","sona":"7624"},{"rt":null,"stimulus":"<div style=\"font-size:60px;\">+</div>","key_press":null,"trial_type":"html-keyboard-response","trial_index":288,"time_elapsed":606925,"internal_node_id":"0.0-8.0-1.70","subject":"6y5tlm081046dq6","sona":"7624"},{"trial_type":"turing-test","trial_index":289,"time_elapsed":612868,"internal_node_id":"0.0-8.0-2.70","subject":"6y5tlm081046dq6","sona":"7624"},{"rt":241,"stimulus":"<p>Welche Sequenz haben Sie als natürlicher empfunden?</p>","key_press":70,"test_part":"response","test_stimulus":{"position":0,"left":"bvh/return-bottle-training4-lines.txt","right":"bvh/vr_prediction_models/model(dmp)-dataset(return-bottle)-npsi(20)-hold(4)/final-lines.txt","att_check":false},"trial_type":"html-keyboard-response","trial_index":290,"time_elapsed":613111,"internal_node_id":"0.0-8.0-3.70","subject":"6y5tlm081046dq6","sona":"7624"},{"rt":245,"stimulus":"<p>Bereit?</p>","key_press":32,"trial_type":"html-keyboard-response","trial_index":291,"time_elapsed":613359,"internal_node_id":"0.0-8.0-0.71","subject":"6y5tlm081046dq6","sona":"7624"},{"rt":null,"stimulus":"<div style=\"font-size:60px;\">+</div>","key_press":null,"trial_type":"html-keyboard-response","trial_index":292,"time_elapsed":615366,"internal_node_id":"0.0-8.0-1.71","subject":"6y5tlm081046dq6","sona":"7624"},{"trial_type":"turing-test","trial_index":293,"time_elapsed":621409,"internal_node_id":"0.0-8.0-2.71","subject":"6y5tlm081046dq6","sona":"7624"},{"rt":301,"stimulus":"<p>Welche Sequenz haben Sie als natürlicher empfunden?</p>","key_press":70,"test_part":"response","test_stimulus":{"position":0,"left":"bvh/return-bottle-training3-lines.txt","right":"bvh/vr_prediction_models/model(vcgpdm)-dataset(return-bottle)-mode(ELBO)-parts(1)-dyn(20)-lvm(30)-hold(3)/final-lines.txt","att_check":false},"trial_type":"html-keyboard-response","trial_index":294,"time_elapsed":621711,"internal_node_id":"0.0-8.0-3.71","subject":"6y5tlm081046dq6","sona":"7624"},{"rt":270,"stimulus":"<p>Bereit?</p>","key_press":32,"trial_type":"html-keyboard-response","trial_index":295,"time_elapsed":621983,"internal_node_id":"0.0-8.0-0.72","subject":"6y5tlm081046dq6","sona":"7624"},{"rt":null,"stimulus":"<div style=\"font-size:60px;\">+</div>","key_press":null,"trial_type":"html-keyboard-response","trial_index":296,"time_elapsed":623987,"internal_node_id":"0.0-8.0-1.72","subject":"6y5tlm081046dq6","sona":"7624"},{"trial_type":"turing-test","trial_index":297,"time_elapsed":629753,"internal_node_id":"0.0-8.0-2.72","subject":"6y5tlm081046dq6","sona":"7624"},{"rt":363,"stimulus":"<p>Welche Sequenz haben Sie als natürlicher empfunden?</p>","key_press":70,"test_part":"response","test_stimulus":{"position":0,"left":"bvh/pass-bottle-training4-lines.txt","right":"bvh/vr_prediction_models/model(tmp)-dataset(pass-bottle)-numprim(3)-hold(4)/final-lines.txt","att_check":false},"trial_type":"html-keyboard-response","trial_index":298,"time_elapsed":630119,"internal_node_id":"0.0-8.0-3.72","subject":"6y5tlm081046dq6","sona":"7624"},{"rt":253,"stimulus":"<p>Bereit?</p>","key_press":32,"trial_type":"html-keyboard-response","trial_index":299,"time_elapsed":630375,"internal_node_id":"0.0-8.0-0.73","subject":"6y5tlm081046dq6","sona":"7624"},{"rt":null,"stimulus":"<div style=\"font-size:60px;\">+</div>","key_press":null,"trial_type":"html-keyboard-response","trial_index":300,"time_elapsed":632377,"internal_node_id":"0.0-8.0-1.73","subject":"6y5tlm081046dq6","sona":"7624"},{"trial_type":"turing-test","trial_index":301,"time_elapsed":638043,"internal_node_id":"0.0-8.0-2.73","subject":"6y5tlm081046dq6","sona":"7624"},{"rt":338,"stimulus":"<p>Welche Sequenz haben Sie als natürlicher empfunden?</p>","key_press":74,"test_part":"response","test_stimulus":{"position":1,"left":"bvh/vr_prediction_models/model(vcgpdm)-dataset(return-bottle)-mode(ELBO)-parts(1)-dyn(30)-lvm(30)-hold(4)/final-lines.txt","right":"bvh/return-bottle-training4-lines.txt","att_check":false},"trial_type":"html-keyboard-response","trial_index":302,"time_elapsed":638384,"internal_node_id":"0.0-8.0-3.73","subject":"6y5tlm081046dq6","sona":"7624"},{"rt":223,"stimulus":"<p>Bereit?</p>","key_press":32,"trial_type":"html-keyboard-response","trial_index":303,"time_elapsed":638607,"internal_node_id":"0.0-8.0-0.74","subject":"6y5tlm081046dq6","sona":"7624"},{"rt":null,"stimulus":"<div style=\"font-size:60px;\">+</div>","key_press":null,"trial_type":"html-keyboard-response","trial_index":304,"time_elapsed":640614,"internal_node_id":"0.0-8.0-1.74","subject":"6y5tlm081046dq6","sona":"7624"},{"trial_type":"turing-test","trial_index":305,"time_elapsed":646323,"internal_node_id":"0.0-8.0-2.74","subject":"6y5tlm081046dq6","sona":"7624"},{"rt":363,"stimulus":"<p>Welche Sequenz haben Sie als natürlicher empfunden?</p>","key_press":70,"test_part":"response","test_stimulus":{"position":1,"left":"bvh/vr_prediction_models/model(tmp)-dataset(pass-bottle)-numprim(12)-hold(4)/final-lines.txt","right":"bvh/pass-bottle-training4-lines.txt","att_check":false},"trial_type":"html-keyboard-response","trial_index":306,"time_elapsed":646688,"internal_node_id":"0.0-8.0-3.74","subject":"6y5tlm081046dq6","sona":"7624"},{"rt":173,"stimulus":"<p>Bereit?</p>","key_press":32,"trial_type":"html-keyboard-response","trial_index":307,"time_elapsed":646864,"internal_node_id":"0.0-8.0-0.75","subject":"6y5tlm081046dq6","sona":"7624"},{"rt":null,"stimulus":"<div style=\"font-size:60px;\">+</div>","key_press":null,"trial_type":"html-keyboard-response","trial_index":308,"time_elapsed":648868,"internal_node_id":"0.0-8.0-1.75","subject":"6y5tlm081046dq6","sona":"7624"},{"trial_type":"turing-test","trial_index":309,"time_elapsed":654567,"internal_node_id":"0.0-8.0-2.75","subject":"6y5tlm081046dq6","sona":"7624"},{"rt":447,"stimulus":"<p>Welche Sequenz haben Sie als natürlicher empfunden?</p>","key_press":70,"test_part":"response","test_stimulus":{"position":0,"left":"bvh/pass-bottle-training3-lines.txt","right":"bvh/vr_prediction_models/model(vcgpdm)-dataset(pass-bottle)-mode(ELBO)-parts(1)-dyn(10)-lvm(30)-hold(3)/final-lines.txt","att_check":false},"trial_type":"html-keyboard-response","trial_index":310,"time_elapsed":655016,"internal_node_id":"0.0-8.0-3.75","subject":"6y5tlm081046dq6","sona":"7624"},{"rt":270,"stimulus":"<p>Bereit?</p>","key_press":32,"trial_type":"html-keyboard-response","trial_index":311,"time_elapsed":655288,"internal_node_id":"0.0-8.0-0.76","subject":"6y5tlm081046dq6","sona":"7624"},{"rt":null,"stimulus":"<div style=\"font-size:60px;\">+</div>","key_press":null,"trial_type":"html-keyboard-response","trial_index":312,"time_elapsed":657292,"internal_node_id":"0.0-8.0-1.76","subject":"6y5tlm081046dq6","sona":"7624"},{"trial_type":"turing-test","trial_index":313,"time_elapsed":660517,"internal_node_id":"0.0-8.0-2.76","subject":"6y5tlm081046dq6","sona":"7624"},{"rt":447,"stimulus":"<p>Welche Sequenz haben Sie als natürlicher empfunden?</p>","key_press":74,"test_part":"response","test_stimulus":{"position":1,"left":"bvh/vr_prediction_models/model(tmp)-dataset(return-bottle-hold)-numprim(15)-hold(1)/final-lines.txt","right":"bvh/return-bottle-hold-training1-lines.txt","att_check":false},"trial_type":"html-keyboard-response","trial_index":314,"time_elapsed":660968,"internal_node_id":"0.0-8.0-3.76","subject":"6y5tlm081046dq6","sona":"7624"},{"rt":214,"stimulus":"<p>Bereit?</p>","key_press":32,"trial_type":"html-keyboard-response","trial_index":315,"time_elapsed":661183,"internal_node_id":"0.0-8.0-0.77","subject":"6y5tlm081046dq6","sona":"7624"},{"rt":null,"stimulus":"<div style=\"font-size:60px;\">+</div>","key_press":null,"trial_type":"html-keyboard-response","trial_index":316,"time_elapsed":663188,"internal_node_id":"0.0-8.0-1.77","subject":"6y5tlm081046dq6","sona":"7624"},{"trial_type":"turing-test","trial_index":317,"time_elapsed":669566,"internal_node_id":"0.0-8.0-2.77","subject":"6y5tlm081046dq6","sona":"7624"},{"rt":359,"stimulus":"<p>Welche Sequenz haben Sie als natürlicher empfunden?</p>","key_press":74,"test_part":"response","test_stimulus":{"position":1,"left":"bvh/vr_prediction_models/model(vcgpdm)-dataset(pass-bottle)-mode(ELBO)-parts(1)-dyn(35)-lvm(10)-hold(2)/final-lines.txt","right":"bvh/pass-bottle-training2-lines.txt","att_check":false},"trial_type":"html-keyboard-response","trial_index":318,"time_elapsed":669929,"internal_node_id":"0.0-8.0-3.77","subject":"6y5tlm081046dq6","sona":"7624"},{"rt":302,"stimulus":"<p>Bereit?</p>","key_press":32,"trial_type":"html-keyboard-response","trial_index":319,"time_elapsed":670232,"internal_node_id":"0.0-8.0-0.78","subject":"6y5tlm081046dq6","sona":"7624"},{"rt":null,"stimulus":"<div style=\"font-size:60px;\">+</div>","key_press":null,"trial_type":"html-keyboard-response","trial_index":320,"time_elapsed":672239,"internal_node_id":"0.0-8.0-1.78","subject":"6y5tlm081046dq6","sona":"7624"},{"trial_type":"turing-test","trial_index":321,"time_elapsed":675829,"internal_node_id":"0.0-8.0-2.78","subject":"6y5tlm081046dq6","sona":"7624"},{"rt":434,"stimulus":"<p>Welche Sequenz haben Sie als natürlicher empfunden?</p>","key_press":74,"test_part":"response","test_stimulus":{"position":0,"left":"bvh/return-bottle-hold-training1-lines.txt","right":"bvh/vr_prediction_models/model(vcgpdm)-dataset(return-bottle-hold)-mode(ELBO)-parts(3)-dyn(20)-lvm(20)-hold(1)/final-lines.txt","att_check":false},"trial_type":"html-keyboard-response","trial_index":322,"time_elapsed":676265,"internal_node_id":"0.0-8.0-3.78","subject":"6y5tlm081046dq6","sona":"7624"},{"rt":238,"stimulus":"<p>Bereit?</p>","key_press":32,"trial_type":"html-keyboard-response","trial_index":323,"time_elapsed":676504,"internal_node_id":"0.0-8.0-0.79","subject":"6y5tlm081046dq6","sona":"7624"},{"rt":null,"stimulus":"<div style=\"font-size:60px;\">+</div>","key_press":null,"trial_type":"html-keyboard-response","trial_index":324,"time_elapsed":678508,"internal_node_id":"0.0-8.0-1.79","subject":"6y5tlm081046dq6","sona":"7624"},{"trial_type":"turing-test","trial_index":325,"time_elapsed":682386,"internal_node_id":"0.0-8.0-2.79","subject":"6y5tlm081046dq6","sona":"7624"},{"rt":301,"stimulus":"<p>Welche Sequenz haben Sie als natürlicher empfunden?</p>","key_press":70,"test_part":"response","test_stimulus":{"position":0,"left":"bvh/pass-bottle-hold-training4-lines.txt","right":"bvh/vr_prediction_models/model(vcgpdm)-dataset(pass-bottle-hold)-mode(ELBO)-parts(3)-dyn(10)-lvm(10)-hold(4)/final-lines.txt","att_check":false},"trial_type":"html-keyboard-response","trial_index":326,"time_elapsed":682689,"internal_node_id":"0.0-8.0-3.79","subject":"6y5tlm081046dq6","sona":"7624"},{"rt":7761,"responses":"{\"age\":\"20\",\"gender\":\"männlich\"}","trial_type":"survey-text","trial_index":327,"time_elapsed":690457,"internal_node_id":"0.0-10.0-0.0","subject":"6y5tlm081046dq6","sona":"7624"},{"rt":89618,"responses":"{\"area\":\"Auf die Gelenke der Figuren\",\"Q1\":\"Unnatürliche oder sehr schnelle Bewegungen\",\"Q2\":\"Rotationen der ganzen Figuren\"}","trial_type":"survey-text","trial_index":328,"time_elapsed":780098,"internal_node_id":"0.0-10.0-1.0","subject":"6y5tlm081046dq6","sona":"7624"}]