[{"rt":3381.05500000529,"stimulus":"<p>Welcome!<br> Please choose your language to start the experiment in the chosen language.</p><p>Willkommen!<br> Bitte wählen Sie eine Sprache, um das Experiment in der ausgewählten Sprache zu starten</p>","button_pressed":"1","trial_type":"html-button-response","trial_index":0,"time_elapsed":3388,"internal_node_id":"0.0-0.0","subject":"ohc60uddupr1490","sona":"9361"},{"view_history":"[{\"page_index\":0,\"viewing_time\":1214.795000036247},{\"page_index\":1,\"viewing_time\":1009.9100000225008},{\"page_index\":2,\"viewing_time\":668.1500000413507},{\"page_index\":3,\"viewing_time\":1652.4849999696016},{\"page_index\":4,\"viewing_time\":1689.5149999763817}]","rt":6236.410000012256,"trial_type":"instructions","trial_index":1,"time_elapsed":9626,"internal_node_id":"0.0-1.0-0.0","subject":"ohc60uddupr1490","sona":"9361"},{"rt":1092.3349999357015,"stimulus":"<p>Bereit?</p>","key_press":32,"trial_type":"html-keyboard-response","trial_index":2,"time_elapsed":10721,"internal_node_id":"0.0-3.0","subject":"ohc60uddupr1490","sona":"9361"},{"rt":null,"stimulus":"<div style=\"font-size:60px;\">+</div>","key_press":null,"trial_type":"html-keyboard-response","trial_index":3,"time_elapsed":12761,"internal_node_id":"0.0-4.0","subject":"ohc60uddupr1490","sona":"9361"},{"trial_type":"training","trial_index":4,"time_elapsed":15991,"internal_node_id":"0.0-5.0","subject":"ohc60uddupr1490","sona":"9361"},{"rt":5058.010000037029,"stimulus":"<p>Welche Sequenz haben Sie als natürlicher empfunden?</p>","key_press":70,"trial_type":"html-keyboard-response","trial_index":5,"time_elapsed":21051,"internal_node_id":"0.0-6.0","subject":"ohc60uddupr1490","sona":"9361"},{"rt":2885.550000006333,"stimulus":"<p>Das Experiment startet nun.</p><p><small>Bitte drücken Sie den Knopf, wenn Sie bereit sind.</small></p>","button_pressed":"0","trial_type":"html-button-response","trial_index":6,"time_elapsed":23938,"internal_node_id":"0.0-7.0","subject":"ohc60uddupr1490","sona":"9361"},{"rt":1537.899999995716,"stimulus":"<p>Bereit?</p>","key_press":32,"trial_type":"html-keyboard-response","trial_index":7,"time_elapsed":25477,"internal_node_id":"0.0-8.0-0.0","subject":"ohc60uddupr1490","sona":"9361"},{"rt":null,"stimulus":"<div style=\"font-size:60px;\">+</div>","key_press":null,"trial_type":"html-keyboard-response","trial_index":8,"time_elapsed":27482,"internal_node_id":"0.0-8.0-1.0","subject":"ohc60uddupr1490","sona":"9361"},{"trial_type":"turing-test","trial_index":9,"time_elapsed":30994,"internal_node_id":"0.0-8.0-2.0","subject":"ohc60uddupr1490","sona":"9361"},{"rt":6749.9100000131875,"stimulus":"<p>Welche Sequenz haben Sie als natürlicher empfunden?</p>","key_press":70,"test_part":"response","test_stimulus":{"position":1,"left":"bvh/vr_prediction_models/model(dmp)-dataset(pass-bottle-hold)-npsi(60)-hold(3)/final-lines.txt","right":"bvh/pass-bottle-hold-training3-lines.txt","att_check":true},"trial_type":"html-keyboard-response","trial_index":10,"time_elapsed":37749,"internal_node_id":"0.0-8.0-3.0","subject":"ohc60uddupr1490","sona":"9361"},{"rt":655.0300000235438,"stimulus":"<p>Bereit?</p>","key_press":32,"trial_type":"html-keyboard-response","trial_index":11,"time_elapsed":38406,"internal_node_id":"0.0-8.0-0.1","subject":"ohc60uddupr1490","sona":"9361"},{"rt":null,"stimulus":"<div style=\"font-size:60px;\">+</div>","key_press":null,"trial_type":"html-keyboard-response","trial_index":12,"time_elapsed":40409,"internal_node_id":"0.0-8.0-1.1","subject":"ohc60uddupr1490","sona":"9361"},{"trial_type":"turing-test","trial_index":13,"time_elapsed":43822,"internal_node_id":"0.0-8.0-2.1","subject":"ohc60uddupr1490","sona":"9361"},{"rt":1423.164999927394,"stimulus":"<p>Welche Sequenz haben Sie als natürlicher empfunden?</p>","key_press":70,"test_part":"response","test_stimulus":{"position":1,"left":"bvh/vr_prediction_models/model(vcgpdm)-dataset(pass-bottle-hold)-mode(ELBO)-parts(1)-dyn(10)-lvm(30)-hold(1)/final-lines.txt","right":"bvh/pass-bottle-hold-training1-lines.txt","att_check":false},"trial_type":"html-keyboard-response","trial_index":14,"time_elapsed":45248,"internal_node_id":"0.0-8.0-3.1","subject":"ohc60uddupr1490","sona":"9361"},{"rt":250.50500000361353,"stimulus":"<p>Bereit?</p>","key_press":32,"trial_type":"html-keyboard-response","trial_index":15,"time_elapsed":45501,"internal_node_id":"0.0-8.0-0.2","subject":"ohc60uddupr1490","sona":"9361"},{"rt":null,"stimulus":"<div style=\"font-size:60px;\">+</div>","key_press":null,"trial_type":"html-keyboard-response","trial_index":16,"time_elapsed":47502,"internal_node_id":"0.0-8.0-1.2","subject":"ohc60uddupr1490","sona":"9361"},{"trial_type":"turing-test","trial_index":17,"time_elapsed":50630,"internal_node_id":"0.0-8.0-2.2","subject":"ohc60uddupr1490","sona":"9361"},{"rt":4426.650000037625,"stimulus":"<p>Welche Sequenz haben Sie als natürlicher empfunden?</p>","key_press":70,"test_part":"response","test_stimulus":{"position":1,"left":"bvh/vr_prediction_models/model(dmp)-dataset(pass-bottle-hold)-npsi(20)-hold(1)/final-lines.txt","right":"bvh/pass-bottle-hold-training1-lines.txt","att_check":false},"trial_type":"html-keyboard-response","trial_index":18,"time_elapsed":55061,"internal_node_id":"0.0-8.0-3.2","subject":"ohc60uddupr1490","sona":"9361"},{"rt":248.67000000085682,"stimulus":"<p>Bereit?</p>","key_press":32,"trial_type":"html-keyboard-response","trial_index":19,"time_elapsed":55312,"internal_node_id":"0.0-8.0-0.3","subject":"ohc60uddupr1490","sona":"9361"},{"rt":null,"stimulus":"<div style=\"font-size:60px;\">+</div>","key_press":null,"trial_type":"html-keyboard-response","trial_index":20,"time_elapsed":57315,"internal_node_id":"0.0-8.0-1.3","subject":"ohc60uddupr1490","sona":"9361"},{"trial_type":"turing-test","trial_index":21,"time_elapsed":60705,"internal_node_id":"0.0-8.0-2.3","subject":"ohc60uddupr1490","sona":"9361"},{"rt":771.4400000404567,"stimulus":"<p>Welche Sequenz haben Sie als natürlicher empfunden?</p>","key_press":70,"test_part":"response","test_stimulus":{"position":0,"left":"bvh/return-bottle-hold-training2-lines.txt","right":"bvh/vr_prediction_models/model(tmp)-dataset(return-bottle-hold)-numprim(13)-hold(2)/final-lines.txt","att_check":false},"trial_type":"html-keyboard-response","trial_index":22,"time_elapsed":61479,"internal_node_id":"0.0-8.0-3.3","subject":"ohc60uddupr1490","sona":"9361"},{"rt":229.81499996967614,"stimulus":"<p>Bereit?</p>","key_press":32,"trial_type":"html-keyboard-response","trial_index":23,"time_elapsed":61711,"internal_node_id":"0.0-8.0-0.4","subject":"ohc60uddupr1490","sona":"9361"},{"rt":null,"stimulus":"<div style=\"font-size:60px;\">+</div>","key_press":null,"trial_type":"html-keyboard-response","trial_index":24,"time_elapsed":63714,"internal_node_id":"0.0-8.0-1.4","subject":"ohc60uddupr1490","sona":"9361"},{"trial_type":"turing-test","trial_index":25,"time_elapsed":68979,"internal_node_id":"0.0-8.0-2.4","subject":"ohc60uddupr1490","sona":"9361"},{"rt":659.235000028275,"stimulus":"<p>Welche Sequenz haben Sie als natürlicher empfunden?</p>","key_press":70,"test_part":"response","test_stimulus":{"position":0,"left":"bvh/return-bottle-training0-lines.txt","right":"bvh/vr_prediction_models/model(dmp)-dataset(return-bottle)-npsi(40)-hold(0)/final-lines.txt","att_check":false},"trial_type":"html-keyboard-response","trial_index":26,"time_elapsed":69642,"internal_node_id":"0.0-8.0-3.4","subject":"ohc60uddupr1490","sona":"9361"},{"rt":294.9399999342859,"stimulus":"<p>Bereit?</p>","key_press":32,"trial_type":"html-keyboard-response","trial_index":27,"time_elapsed":69939,"internal_node_id":"0.0-8.0-0.5","subject":"ohc60uddupr1490","sona":"9361"},{"rt":null,"stimulus":"<div style=\"font-size:60px;\">+</div>","key_press":null,"trial_type":"html-keyboard-response","trial_index":28,"time_elapsed":71941,"internal_node_id":"0.0-8.0-1.5","subject":"ohc60uddupr1490","sona":"9361"},{"trial_type":"turing-test","trial_index":29,"time_elapsed":77501,"internal_node_id":"0.0-8.0-2.5","subject":"ohc60uddupr1490","sona":"9361"},{"rt":22440.354999969713,"stimulus":"<p>Welche Sequenz haben Sie als natürlicher empfunden?</p>","key_press":70,"test_part":"response","test_stimulus":{"position":1,"left":"bvh/vr_prediction_models/model(vcgpdm)-dataset(pass-bottle)-mode(ELBO)-parts(1)-dyn(20)-lvm(30)-hold(1)/final-lines.txt","right":"bvh/pass-bottle-training1-lines.txt","att_check":false},"trial_type":"html-keyboard-response","trial_index":30,"time_elapsed":99943,"internal_node_id":"0.0-8.0-3.5","subject":"ohc60uddupr1490","sona":"9361"},{"rt":219.97500001452863,"stimulus":"<p>Bereit?</p>","key_press":32,"trial_type":"html-keyboard-response","trial_index":31,"time_elapsed":100166,"internal_node_id":"0.0-8.0-0.6","subject":"ohc60uddupr1490","sona":"9361"},{"rt":null,"stimulus":"<div style=\"font-size:60px;\">+</div>","key_press":null,"trial_type":"html-keyboard-response","trial_index":32,"time_elapsed":102168,"internal_node_id":"0.0-8.0-1.6","subject":"ohc60uddupr1490","sona":"9361"},{"trial_type":"turing-test","trial_index":33,"time_elapsed":105529,"internal_node_id":"0.0-8.0-2.6","subject":"ohc60uddupr1490","sona":"9361"},{"rt":5796.654999954626,"stimulus":"<p>Welche Sequenz haben Sie als natürlicher empfunden?</p>","key_press":70,"test_part":"response","test_stimulus":{"position":0,"left":"bvh/pass-bottle-hold-training0-lines.txt","right":"bvh/vr_prediction_models/model(dmp)-dataset(pass-bottle-hold)-npsi(80)-hold(0)/final-lines.txt","att_check":false},"trial_type":"html-keyboard-response","trial_index":34,"time_elapsed":111328,"internal_node_id":"0.0-8.0-3.6","subject":"ohc60uddupr1490","sona":"9361"},{"rt":229.05500000342727,"stimulus":"<p>Bereit?</p>","key_press":32,"trial_type":"html-keyboard-response","trial_index":35,"time_elapsed":111559,"internal_node_id":"0.0-8.0-0.7","subject":"ohc60uddupr1490","sona":"9361"},{"rt":null,"stimulus":"<div style=\"font-size:60px;\">+</div>","key_press":null,"trial_type":"html-keyboard-response","trial_index":36,"time_elapsed":113561,"internal_node_id":"0.0-8.0-1.7","subject":"ohc60uddupr1490","sona":"9361"},{"trial_type":"turing-test","trial_index":37,"time_elapsed":117436,"internal_node_id":"0.0-8.0-2.7","subject":"ohc60uddupr1490","sona":"9361"},{"rt":6414.180000079796,"stimulus":"<p>Welche Sequenz haben Sie als natürlicher empfunden?</p>","key_press":70,"test_part":"response","test_stimulus":{"position":0,"left":"bvh/pass-bottle-hold-training0-lines.txt","right":"bvh/vr_prediction_models/model(vcgpdm)-dataset(pass-bottle-hold)-mode(ELBO)-parts(1)-dyn(5)-lvm(5)-hold(0)/final-lines.txt","att_check":false},"trial_type":"html-keyboard-response","trial_index":38,"time_elapsed":123854,"internal_node_id":"0.0-8.0-3.7","subject":"ohc60uddupr1490","sona":"9361"},{"rt":234.5249999780208,"stimulus":"<p>Bereit?</p>","key_press":32,"trial_type":"html-keyboard-response","trial_index":39,"time_elapsed":124090,"internal_node_id":"0.0-8.0-0.8","subject":"ohc60uddupr1490","sona":"9361"},{"rt":null,"stimulus":"<div style=\"font-size:60px;\">+</div>","key_press":null,"trial_type":"html-keyboard-response","trial_index":40,"time_elapsed":126093,"internal_node_id":"0.0-8.0-1.8","subject":"ohc60uddupr1490","sona":"9361"},{"trial_type":"turing-test","trial_index":41,"time_elapsed":132111,"internal_node_id":"0.0-8.0-2.8","subject":"ohc60uddupr1490","sona":"9361"},{"rt":2162.5800000038,"stimulus":"<p>Welche Sequenz haben Sie als natürlicher empfunden?</p>","key_press":70,"test_part":"response","test_stimulus":{"position":0,"left":"bvh/return-bottle-training4-lines.txt","right":"bvh/vr_prediction_models/model(tmp)-dataset(return-bottle)-numprim(13)-hold(4)/final-lines.txt","att_check":false},"trial_type":"html-keyboard-response","trial_index":42,"time_elapsed":134276,"internal_node_id":"0.0-8.0-3.8","subject":"ohc60uddupr1490","sona":"9361"},{"rt":285.5800000252202,"stimulus":"<p>Bereit?</p>","key_press":32,"trial_type":"html-keyboard-response","trial_index":43,"time_elapsed":134564,"internal_node_id":"0.0-8.0-0.9","subject":"ohc60uddupr1490","sona":"9361"},{"rt":null,"stimulus":"<div style=\"font-size:60px;\">+</div>","key_press":null,"trial_type":"html-keyboard-response","trial_index":44,"time_elapsed":136566,"internal_node_id":"0.0-8.0-1.9","subject":"ohc60uddupr1490","sona":"9361"},{"trial_type":"turing-test","trial_index":45,"time_elapsed":141966,"internal_node_id":"0.0-8.0-2.9","subject":"ohc60uddupr1490","sona":"9361"},{"rt":11545.569999958389,"stimulus":"<p>Welche Sequenz haben Sie als natürlicher empfunden?</p>","key_press":70,"test_part":"response","test_stimulus":{"position":1,"left":"bvh/vr_prediction_models/model(dmp)-dataset(pass-bottle)-npsi(40)-hold(1)/final-lines.txt","right":"bvh/pass-bottle-training1-lines.txt","att_check":false},"trial_type":"html-keyboard-response","trial_index":46,"time_elapsed":153515,"internal_node_id":"0.0-8.0-3.9","subject":"ohc60uddupr1490","sona":"9361"},{"rt":253.37000004947186,"stimulus":"<p>Bereit?</p>","key_press":32,"trial_type":"html-keyboard-response","trial_index":47,"time_elapsed":153770,"internal_node_id":"0.0-8.0-0.10","subject":"ohc60uddupr1490","sona":"9361"},{"rt":null,"stimulus":"<div style=\"font-size:60px;\">+</div>","key_press":null,"trial_type":"html-keyboard-response","trial_index":48,"time_elapsed":155774,"internal_node_id":"0.0-8.0-1.10","subject":"ohc60uddupr1490","sona":"9361"},{"trial_type":"turing-test","trial_index":49,"time_elapsed":158931,"internal_node_id":"0.0-8.0-2.10","subject":"ohc60uddupr1490","sona":"9361"},{"rt":645.8900000434369,"stimulus":"<p>Welche Sequenz haben Sie als natürlicher empfunden?</p>","key_press":70,"test_part":"response","test_stimulus":{"position":0,"left":"bvh/pass-bottle-hold-training1-lines.txt","right":"bvh/vr_prediction_models/model(tmp)-dataset(pass-bottle-hold)-numprim(10)-hold(1)/final-lines.txt","att_check":false},"trial_type":"html-keyboard-response","trial_index":50,"time_elapsed":159580,"internal_node_id":"0.0-8.0-3.10","subject":"ohc60uddupr1490","sona":"9361"},{"rt":229.39500003121793,"stimulus":"<p>Bereit?</p>","key_press":32,"trial_type":"html-keyboard-response","trial_index":51,"time_elapsed":159811,"internal_node_id":"0.0-8.0-0.11","subject":"ohc60uddupr1490","sona":"9361"},{"rt":null,"stimulus":"<div style=\"font-size:60px;\">+</div>","key_press":null,"trial_type":"html-keyboard-response","trial_index":52,"time_elapsed":161813,"internal_node_id":"0.0-8.0-1.11","subject":"ohc60uddupr1490","sona":"9361"}]