[{"rt":1495,"stimulus":"<p>Welcome!<br> Please choose your language to start the experiment in the chosen language.</p><p>Willkommen!<br> Bitte wählen Sie eine Sprache um das Experiment in der ausgewählten Sprache zu starten</p>","button_pressed":"1","trial_type":"html-button-response","trial_index":0,"time_elapsed":1527,"internal_node_id":"0.0-0.0","subject":"39ol8qtsqpzoklr"},{"view_history":"[{\"page_index\":0,\"viewing_time\":529},{\"page_index\":1,\"viewing_time\":592},{\"page_index\":2,\"viewing_time\":515},{\"page_index\":3,\"viewing_time\":495}]","rt":2132,"trial_type":"instructions","trial_index":1,"time_elapsed":3660,"internal_node_id":"0.0-1.0-0.0","subject":"39ol8qtsqpzoklr"},{"rt":640,"stimulus":"<p>Bereit?</p>","button_pressed":"0","trial_type":"html-button-response","trial_index":2,"time_elapsed":4300,"internal_node_id":"0.0-3.0","subject":"39ol8qtsqpzoklr"},{"rt":null,"stimulus":"<div style=\"font-size:60px;\">+</div>","key_press":null,"trial_type":"html-keyboard-response","trial_index":3,"time_elapsed":6304,"internal_node_id":"0.0-4.0","subject":"39ol8qtsqpzoklr"},{"trial_type":"training","trial_index":4,"time_elapsed":9595,"internal_node_id":"0.0-5.0","subject":"39ol8qtsqpzoklr"},{"rt":760.9999999999982,"stimulus":"<p>Welche Sequenz haben Sie als natürlicher empfunden?</p>","button_pressed":"0","trial_type":"html-button-response","trial_index":5,"time_elapsed":10356,"internal_node_id":"0.0-6.0","subject":"39ol8qtsqpzoklr"},{"rt":566,"stimulus":"<p>Das Experiment startet nun.</p><p> Bitte drücken Sie den Knopf, wenn Sie bereit sind.</p>","button_pressed":"0","trial_type":"html-button-response","trial_index":6,"time_elapsed":10923,"internal_node_id":"0.0-7.0","subject":"39ol8qtsqpzoklr"},{"rt":561,"stimulus":"<p>Bereit?</p>","button_pressed":"0","trial_type":"html-button-response","trial_index":7,"time_elapsed":11485,"internal_node_id":"0.0-8.0-0.0","subject":"39ol8qtsqpzoklr"},{"rt":null,"stimulus":"<div style=\"font-size:60px;\">+</div>","key_press":null,"trial_type":"html-keyboard-response","trial_index":8,"time_elapsed":13487,"internal_node_id":"0.0-8.0-1.0","subject":"39ol8qtsqpzoklr"},{"trial_type":"turing-test","trial_index":9,"time_elapsed":21912,"internal_node_id":"0.0-8.0-2.0","subject":"39ol8qtsqpzoklr"},{"rt":339345.00000000006,"stimulus":"<p>Welche Sequenz haben Sie als natürlicher empfunden?</p>","button_pressed":"1","test_part":"response","test_stimulus":{"position":0,"left":"bvh/return-bottle-training3-lines.txt","right":"bvh/vr_prediction_models/model(vcgpdm)-dataset(return-bottle)-mode(ELBO)-parts(3)-dyn(25)-lvm(30)-hold(3)/final-lines.txt","att_check":false},"trial_type":"html-button-response","trial_index":10,"time_elapsed":361266,"internal_node_id":"0.0-8.0-3.0","subject":"39ol8qtsqpzoklr"},{"rt":596,"stimulus":"<p>Bereit?</p>","button_pressed":"0","trial_type":"html-button-response","trial_index":11,"time_elapsed":361865,"internal_node_id":"0.0-8.0-0.1","subject":"39ol8qtsqpzoklr"},{"rt":null,"stimulus":"<div style=\"font-size:60px;\">+</div>","key_press":null,"trial_type":"html-keyboard-response","trial_index":12,"time_elapsed":363868,"internal_node_id":"0.0-8.0-1.1","subject":"39ol8qtsqpzoklr"},{"trial_type":"turing-test","trial_index":13,"time_elapsed":369676,"internal_node_id":"0.0-8.0-2.1","subject":"39ol8qtsqpzoklr"},{"rt":2566,"stimulus":"<p>Welche Sequenz haben Sie als natürlicher empfunden?</p>","button_pressed":"0","test_part":"response","test_stimulus":{"position":1,"left":"bvh/vr_prediction_models/model(dmp)-dataset(return-bottle)-npsi(80)-hold(3)/final-lines.txt","right":"bvh/return-bottle-training3-lines.txt","att_check":true},"trial_type":"html-button-response","trial_index":14,"time_elapsed":372246,"internal_node_id":"0.0-8.0-3.1","subject":"39ol8qtsqpzoklr"},{"rt":1167,"stimulus":"<p>Bereit?</p>","button_pressed":"0","trial_type":"html-button-response","trial_index":15,"time_elapsed":373416,"internal_node_id":"0.0-8.0-0.2","subject":"39ol8qtsqpzoklr"},{"rt":null,"stimulus":"<div style=\"font-size:60px;\">+</div>","key_press":null,"trial_type":"html-keyboard-response","trial_index":16,"time_elapsed":375418,"internal_node_id":"0.0-8.0-1.2","subject":"39ol8qtsqpzoklr"}]