[{"rt":1247.399999992922,"stimulus":"<p>Welcome!<br> Please choose your language to start the experiment in the chosen language.</p><p>Willkommen!<br> Bitte wählen Sie eine Sprache, um das Experiment in der ausgewählten Sprache zu starten</p>","button_pressed":"1","trial_type":"html-button-response","trial_index":0,"time_elapsed":1287,"internal_node_id":"0.0-0.0","subject":"c0h445cp8gxzfdd","sona":"7609"},{"view_history":"[{\"page_index\":0,\"viewing_time\":605.3299999330193},{\"page_index\":1,\"viewing_time\":1841.4400001056492},{\"page_index\":2,\"viewing_time\":495.21499988622963},{\"page_index\":3,\"viewing_time\":1030.5200000293553},{\"page_index\":4,\"viewing_time\":698.0800000019372}]","rt":4672.160000074655,"trial_type":"instructions","trial_index":1,"time_elapsed":5961,"internal_node_id":"0.0-1.0-0.0","subject":"c0h445cp8gxzfdd","sona":"7609"},{"rt":5099.745000014082,"stimulus":"<p>Bereit?</p>","key_press":32,"trial_type":"html-keyboard-response","trial_index":2,"time_elapsed":11063,"internal_node_id":"0.0-3.0","subject":"c0h445cp8gxzfdd","sona":"7609"},{"rt":null,"stimulus":"<div style=\"font-size:60px;\">+</div>","key_press":null,"trial_type":"html-keyboard-response","trial_index":3,"time_elapsed":13073,"internal_node_id":"0.0-4.0","subject":"c0h445cp8gxzfdd","sona":"7609"},{"trial_type":"training","trial_index":4,"time_elapsed":16311,"internal_node_id":"0.0-5.0","subject":"c0h445cp8gxzfdd","sona":"7609"},{"rt":341.41500014811754,"stimulus":"<p>Welche Sequenz haben Sie als natürlicher empfunden?</p>","key_press":70,"trial_type":"html-keyboard-response","trial_index":5,"time_elapsed":16654,"internal_node_id":"0.0-6.0","subject":"c0h445cp8gxzfdd","sona":"7609"},{"rt":2940.4549999162555,"stimulus":"<p>Das Experiment startet nun.</p><p><small>Bitte drücken Sie den Knopf, wenn Sie bereit sind.</small></p>","button_pressed":"0","trial_type":"html-button-response","trial_index":6,"time_elapsed":19596,"internal_node_id":"0.0-7.0","subject":"c0h445cp8gxzfdd","sona":"7609"},{"rt":977.5300000328571,"stimulus":"<p>Bereit?</p>","key_press":32,"trial_type":"html-keyboard-response","trial_index":7,"time_elapsed":20575,"internal_node_id":"0.0-8.0-0.0","subject":"c0h445cp8gxzfdd","sona":"7609"},{"rt":null,"stimulus":"<div style=\"font-size:60px;\">+</div>","key_press":null,"trial_type":"html-keyboard-response","trial_index":8,"time_elapsed":22584,"internal_node_id":"0.0-8.0-1.0","subject":"c0h445cp8gxzfdd","sona":"7609"},{"trial_type":"turing-test","trial_index":9,"time_elapsed":27985,"internal_node_id":"0.0-8.0-2.0","subject":"c0h445cp8gxzfdd","sona":"7609"},{"rt":338.81499990820885,"stimulus":"<p>Welche Sequenz haben Sie als natürlicher empfunden?</p>","key_press":74,"test_part":"response","test_stimulus":{"position":1,"left":"bvh/vr_prediction_models/model(vcgpdm)-dataset(pass-bottle)-mode(ELBO)-parts(1)-dyn(20)-lvm(5)-hold(1)/final-lines.txt","right":"bvh/pass-bottle-training1-lines.txt","att_check":false},"trial_type":"html-keyboard-response","trial_index":10,"time_elapsed":28329,"internal_node_id":"0.0-8.0-3.0","subject":"c0h445cp8gxzfdd","sona":"7609"},{"rt":560.6250001583248,"stimulus":"<p>Bereit?</p>","key_press":32,"trial_type":"html-keyboard-response","trial_index":11,"time_elapsed":28892,"internal_node_id":"0.0-8.0-0.1","subject":"c0h445cp8gxzfdd","sona":"7609"},{"rt":null,"stimulus":"<div style=\"font-size:60px;\">+</div>","key_press":null,"trial_type":"html-keyboard-response","trial_index":12,"time_elapsed":30898,"internal_node_id":"0.0-8.0-1.1","subject":"c0h445cp8gxzfdd","sona":"7609"},{"trial_type":"turing-test","trial_index":13,"time_elapsed":36234,"internal_node_id":"0.0-8.0-2.1","subject":"c0h445cp8gxzfdd","sona":"7609"},{"rt":478.5400000400841,"stimulus":"<p>Welche Sequenz haben Sie als natürlicher empfunden?</p>","key_press":70,"test_part":"response","test_stimulus":{"position":1,"left":"bvh/vr_prediction_models/model(tmp)-dataset(pass-bottle)-numprim(4)-hold(1)/final-lines.txt","right":"bvh/pass-bottle-training1-lines.txt","att_check":false},"trial_type":"html-keyboard-response","trial_index":14,"time_elapsed":36716,"internal_node_id":"0.0-8.0-3.1","subject":"c0h445cp8gxzfdd","sona":"7609"},{"rt":353.5299999639392,"stimulus":"<p>Bereit?</p>","key_press":32,"trial_type":"html-keyboard-response","trial_index":15,"time_elapsed":37071,"internal_node_id":"0.0-8.0-0.2","subject":"c0h445cp8gxzfdd","sona":"7609"},{"rt":null,"stimulus":"<div style=\"font-size:60px;\">+</div>","key_press":null,"trial_type":"html-keyboard-response","trial_index":16,"time_elapsed":39081,"internal_node_id":"0.0-8.0-1.2","subject":"c0h445cp8gxzfdd","sona":"7609"},{"trial_type":"turing-test","trial_index":17,"time_elapsed":44806,"internal_node_id":"0.0-8.0-2.2","subject":"c0h445cp8gxzfdd","sona":"7609"},{"rt":293.9699999988079,"stimulus":"<p>Welche Sequenz haben Sie als natürlicher empfunden?</p>","key_press":70,"test_part":"response","test_stimulus":{"position":0,"left":"bvh/pass-bottle-training3-lines.txt","right":"bvh/vr_prediction_models/model(tmp)-dataset(pass-bottle)-numprim(10)-hold(3)/final-lines.txt","att_check":false},"trial_type":"html-keyboard-response","trial_index":18,"time_elapsed":45103,"internal_node_id":"0.0-8.0-3.2","subject":"c0h445cp8gxzfdd","sona":"7609"},{"rt":255.7600000873208,"stimulus":"<p>Bereit?</p>","key_press":32,"trial_type":"html-keyboard-response","trial_index":19,"time_elapsed":45361,"internal_node_id":"0.0-8.0-0.3","subject":"c0h445cp8gxzfdd","sona":"7609"},{"rt":null,"stimulus":"<div style=\"font-size:60px;\">+</div>","key_press":null,"trial_type":"html-keyboard-response","trial_index":20,"time_elapsed":47371,"internal_node_id":"0.0-8.0-1.3","subject":"c0h445cp8gxzfdd","sona":"7609"},{"trial_type":"turing-test","trial_index":21,"time_elapsed":50951,"internal_node_id":"0.0-8.0-2.3","subject":"c0h445cp8gxzfdd","sona":"7609"},{"rt":366.2149999290705,"stimulus":"<p>Welche Sequenz haben Sie als natürlicher empfunden?</p>","key_press":70,"test_part":"response","test_stimulus":{"position":0,"left":"bvh/pass-bottle-hold-training4-lines.txt","right":"bvh/vr_prediction_models/model(vcgpdm)-dataset(pass-bottle-hold)-mode(MAP)-parts(1)-hold(4)/final-lines.txt","att_check":false},"trial_type":"html-keyboard-response","trial_index":22,"time_elapsed":51321,"internal_node_id":"0.0-8.0-3.3","subject":"c0h445cp8gxzfdd","sona":"7609"},{"rt":243.5449999757111,"stimulus":"<p>Bereit?</p>","key_press":32,"trial_type":"html-keyboard-response","trial_index":23,"time_elapsed":51568,"internal_node_id":"0.0-8.0-0.4","subject":"c0h445cp8gxzfdd","sona":"7609"},{"rt":null,"stimulus":"<div style=\"font-size:60px;\">+</div>","key_press":null,"trial_type":"html-keyboard-response","trial_index":24,"time_elapsed":53575,"internal_node_id":"0.0-8.0-1.4","subject":"c0h445cp8gxzfdd","sona":"7609"},{"trial_type":"turing-test","trial_index":25,"time_elapsed":58997,"internal_node_id":"0.0-8.0-2.4","subject":"c0h445cp8gxzfdd","sona":"7609"},{"rt":1042.9750001057982,"stimulus":"<p>Welche Sequenz haben Sie als natürlicher empfunden?</p>","key_press":70,"test_part":"response","test_stimulus":{"position":1,"left":"bvh/vr_prediction_models/model(vcgpdm)-dataset(return-bottle)-mode(ELBO)-parts(1)-dyn(10)-lvm(5)-hold(0)/final-lines.txt","right":"bvh/return-bottle-training0-lines.txt","att_check":false},"trial_type":"html-keyboard-response","trial_index":26,"time_elapsed":60044,"internal_node_id":"0.0-8.0-3.4","subject":"c0h445cp8gxzfdd","sona":"7609"},{"rt":307.5650001410395,"stimulus":"<p>Bereit?</p>","key_press":32,"trial_type":"html-keyboard-response","trial_index":27,"time_elapsed":60354,"internal_node_id":"0.0-8.0-0.5","subject":"c0h445cp8gxzfdd","sona":"7609"},{"rt":null,"stimulus":"<div style=\"font-size:60px;\">+</div>","key_press":null,"trial_type":"html-keyboard-response","trial_index":28,"time_elapsed":62360,"internal_node_id":"0.0-8.0-1.5","subject":"c0h445cp8gxzfdd","sona":"7609"},{"trial_type":"turing-test","trial_index":29,"time_elapsed":67424,"internal_node_id":"0.0-8.0-2.5","subject":"c0h445cp8gxzfdd","sona":"7609"},{"rt":377.525000134483,"stimulus":"<p>Welche Sequenz haben Sie als natürlicher empfunden?</p>","key_press":74,"test_part":"response","test_stimulus":{"position":0,"left":"bvh/return-bottle-hold-training0-lines.txt","right":"bvh/vr_prediction_models/model(vcgpdm)-dataset(return-bottle-hold)-mode(ELBO)-parts(3)-dyn(25)-lvm(15)-hold(0)/final-lines.txt","att_check":false},"trial_type":"html-keyboard-response","trial_index":30,"time_elapsed":67805,"internal_node_id":"0.0-8.0-3.5","subject":"c0h445cp8gxzfdd","sona":"7609"},{"rt":299.2399998474866,"stimulus":"<p>Bereit?</p>","key_press":32,"trial_type":"html-keyboard-response","trial_index":31,"time_elapsed":68108,"internal_node_id":"0.0-8.0-0.6","subject":"c0h445cp8gxzfdd","sona":"7609"},{"rt":null,"stimulus":"<div style=\"font-size:60px;\">+</div>","key_press":null,"trial_type":"html-keyboard-response","trial_index":32,"time_elapsed":70113,"internal_node_id":"0.0-8.0-1.6","subject":"c0h445cp8gxzfdd","sona":"7609"},{"trial_type":"turing-test","trial_index":33,"time_elapsed":73570,"internal_node_id":"0.0-8.0-2.6","subject":"c0h445cp8gxzfdd","sona":"7609"},{"rt":351.0799999348819,"stimulus":"<p>Welche Sequenz haben Sie als natürlicher empfunden?</p>","key_press":74,"test_part":"response","test_stimulus":{"position":1,"left":"bvh/vr_prediction_models/model(tmp)-dataset(pass-bottle-hold)-numprim(14)-hold(3)/final-lines.txt","right":"bvh/pass-bottle-hold-training3-lines.txt","att_check":false},"trial_type":"html-keyboard-response","trial_index":34,"time_elapsed":73924,"internal_node_id":"0.0-8.0-3.6","subject":"c0h445cp8gxzfdd","sona":"7609"},{"rt":630.159999942407,"stimulus":"<p>Bereit?</p>","key_press":32,"trial_type":"html-keyboard-response","trial_index":35,"time_elapsed":74556,"internal_node_id":"0.0-8.0-0.7","subject":"c0h445cp8gxzfdd","sona":"7609"},{"rt":null,"stimulus":"<div style=\"font-size:60px;\">+</div>","key_press":null,"trial_type":"html-keyboard-response","trial_index":36,"time_elapsed":76565,"internal_node_id":"0.0-8.0-1.7","subject":"c0h445cp8gxzfdd","sona":"7609"},{"trial_type":"turing-test","trial_index":37,"time_elapsed":82279,"internal_node_id":"0.0-8.0-2.7","subject":"c0h445cp8gxzfdd","sona":"7609"},{"rt":301.86000000685453,"stimulus":"<p>Welche Sequenz haben Sie als natürlicher empfunden?</p>","key_press":70,"test_part":"response","test_stimulus":{"position":0,"left":"bvh/pass-bottle-training3-lines.txt","right":"bvh/vr_prediction_models/model(tmp)-dataset(pass-bottle)-numprim(6)-hold(3)/final-lines.txt","att_check":false},"trial_type":"html-keyboard-response","trial_index":38,"time_elapsed":82584,"internal_node_id":"0.0-8.0-3.7","subject":"c0h445cp8gxzfdd","sona":"7609"},{"rt":248.90500004403293,"stimulus":"<p>Bereit?</p>","key_press":32,"trial_type":"html-keyboard-response","trial_index":39,"time_elapsed":82835,"internal_node_id":"0.0-8.0-0.8","subject":"c0h445cp8gxzfdd","sona":"7609"},{"rt":null,"stimulus":"<div style=\"font-size:60px;\">+</div>","key_press":null,"trial_type":"html-keyboard-response","trial_index":40,"time_elapsed":84846,"internal_node_id":"0.0-8.0-1.8","subject":"c0h445cp8gxzfdd","sona":"7609"},{"trial_type":"turing-test","trial_index":41,"time_elapsed":88481,"internal_node_id":"0.0-8.0-2.8","subject":"c0h445cp8gxzfdd","sona":"7609"},{"rt":294.78500015102327,"stimulus":"<p>Welche Sequenz haben Sie als natürlicher empfunden?</p>","key_press":70,"test_part":"response","test_stimulus":{"position":0,"left":"bvh/return-bottle-hold-training4-lines.txt","right":"bvh/vr_prediction_models/model(tmp)-dataset(return-bottle-hold)-numprim(8)-hold(4)/final-lines.txt","att_check":false},"trial_type":"html-keyboard-response","trial_index":42,"time_elapsed":88779,"internal_node_id":"0.0-8.0-3.8","subject":"c0h445cp8gxzfdd","sona":"7609"},{"rt":288.51499990560114,"stimulus":"<p>Bereit?</p>","key_press":32,"trial_type":"html-keyboard-response","trial_index":43,"time_elapsed":89070,"internal_node_id":"0.0-8.0-0.9","subject":"c0h445cp8gxzfdd","sona":"7609"},{"rt":null,"stimulus":"<div style=\"font-size:60px;\">+</div>","key_press":null,"trial_type":"html-keyboard-response","trial_index":44,"time_elapsed":91074,"internal_node_id":"0.0-8.0-1.9","subject":"c0h445cp8gxzfdd","sona":"7609"},{"trial_type":"turing-test","trial_index":45,"time_elapsed":94327,"internal_node_id":"0.0-8.0-2.9","subject":"c0h445cp8gxzfdd","sona":"7609"},{"rt":325.9799999650568,"stimulus":"<p>Welche Sequenz haben Sie als natürlicher empfunden?</p>","key_press":74,"test_part":"response","test_stimulus":{"position":1,"left":"bvh/vr_prediction_models/model(tmp)-dataset(return-bottle-hold)-numprim(11)-hold(1)/final-lines.txt","right":"bvh/return-bottle-hold-training1-lines.txt","att_check":false},"trial_type":"html-keyboard-response","trial_index":46,"time_elapsed":94656,"internal_node_id":"0.0-8.0-3.9","subject":"c0h445cp8gxzfdd","sona":"7609"},{"rt":307.43000004440546,"stimulus":"<p>Bereit?</p>","key_press":32,"trial_type":"html-keyboard-response","trial_index":47,"time_elapsed":94967,"internal_node_id":"0.0-8.0-0.10","subject":"c0h445cp8gxzfdd","sona":"7609"},{"rt":null,"stimulus":"<div style=\"font-size:60px;\">+</div>","key_press":null,"trial_type":"html-keyboard-response","trial_index":48,"time_elapsed":96974,"internal_node_id":"0.0-8.0-1.10","subject":"c0h445cp8gxzfdd","sona":"7609"},{"trial_type":"turing-test","trial_index":49,"time_elapsed":103052,"internal_node_id":"0.0-8.0-2.10","subject":"c0h445cp8gxzfdd","sona":"7609"},{"rt":293.96499996073544,"stimulus":"<p>Welche Sequenz haben Sie als natürlicher empfunden?</p>","key_press":70,"test_part":"response","test_stimulus":{"position":1,"left":"bvh/vr_prediction_models/model(vcgpdm)-dataset(pass-bottle)-mode(MAP)-parts(1)-hold(2)/final-lines.txt","right":"bvh/pass-bottle-training2-lines.txt","att_check":false},"trial_type":"html-keyboard-response","trial_index":50,"time_elapsed":103349,"internal_node_id":"0.0-8.0-3.10","subject":"c0h445cp8gxzfdd","sona":"7609"},{"rt":235.91000004671514,"stimulus":"<p>Bereit?</p>","key_press":32,"trial_type":"html-keyboard-response","trial_index":51,"time_elapsed":103588,"internal_node_id":"0.0-8.0-0.11","subject":"c0h445cp8gxzfdd","sona":"7609"},{"rt":null,"stimulus":"<div style=\"font-size:60px;\">+</div>","key_press":null,"trial_type":"html-keyboard-response","trial_index":52,"time_elapsed":105593,"internal_node_id":"0.0-8.0-1.11","subject":"c0h445cp8gxzfdd","sona":"7609"}]