[{"rt":2054,"stimulus":"<p>Welcome!<br> Please choose your language to start the experiment in the chosen language.</p><p>Willkommen!<br> Bitte wählen Sie eine Sprache, um das Experiment in der ausgewählten Sprache zu starten</p>","button_pressed":"1","trial_type":"html-button-response","trial_index":0,"time_elapsed":2062,"internal_node_id":"0.0-0.0","subject":"0w9ejsjqufta7zh","sona":"9160"},{"view_history":"[{\"page_index\":0,\"viewing_time\":6949},{\"page_index\":1,\"viewing_time\":3977},{\"page_index\":2,\"viewing_time\":12732},{\"page_index\":3,\"viewing_time\":6817},{\"page_index\":4,\"viewing_time\":3231}]","rt":33706,"trial_type":"instructions","trial_index":1,"time_elapsed":35773,"internal_node_id":"0.0-1.0-0.0","subject":"0w9ejsjqufta7zh","sona":"9160"},{"rt":1966,"stimulus":"<p>Bereit?</p>","key_press":32,"trial_type":"html-keyboard-response","trial_index":2,"time_elapsed":37741,"internal_node_id":"0.0-3.0","subject":"0w9ejsjqufta7zh","sona":"9160"},{"rt":null,"stimulus":"<div style=\"font-size:60px;\">+</div>","key_press":null,"trial_type":"html-keyboard-response","trial_index":3,"time_elapsed":39752,"internal_node_id":"0.0-4.0","subject":"0w9ejsjqufta7zh","sona":"9160"},{"trial_type":"training","trial_index":4,"time_elapsed":43275,"internal_node_id":"0.0-5.0","subject":"0w9ejsjqufta7zh","sona":"9160"},{"rt":1630,"stimulus":"<p>Welche Sequenz haben Sie als natürlicher empfunden?</p>","key_press":70,"trial_type":"html-keyboard-response","trial_index":5,"time_elapsed":44906,"internal_node_id":"0.0-6.0","subject":"0w9ejsjqufta7zh","sona":"9160"},{"rt":4848,"stimulus":"<p>Das Experiment startet nun.</p><p><small>Bitte drücken Sie den Knopf, wenn Sie bereit sind.</small></p>","button_pressed":"0","trial_type":"html-button-response","trial_index":6,"time_elapsed":49756,"internal_node_id":"0.0-7.0","subject":"0w9ejsjqufta7zh","sona":"9160"},{"rt":1544,"stimulus":"<p>Bereit?</p>","key_press":32,"trial_type":"html-keyboard-response","trial_index":7,"time_elapsed":51301,"internal_node_id":"0.0-8.0-0.0","subject":"0w9ejsjqufta7zh","sona":"9160"},{"rt":null,"stimulus":"<div style=\"font-size:60px;\">+</div>","key_press":null,"trial_type":"html-keyboard-response","trial_index":8,"time_elapsed":53309,"internal_node_id":"0.0-8.0-1.0","subject":"0w9ejsjqufta7zh","sona":"9160"},{"trial_type":"turing-test","trial_index":9,"time_elapsed":57137,"internal_node_id":"0.0-8.0-2.0","subject":"0w9ejsjqufta7zh","sona":"9160"},{"rt":895,"stimulus":"<p>Welche Sequenz haben Sie als natürlicher empfunden?</p>","key_press":74,"test_part":"response","test_stimulus":{"position":1,"left":"bvh/vr_prediction_models/model(vcgpdm)-dataset(pass-bottle-hold)-mode(ELBO)-parts(3)-dyn(35)-lvm(20)-hold(2)/final-lines.txt","right":"bvh/pass-bottle-hold-training2-lines.txt","att_check":false},"trial_type":"html-keyboard-response","trial_index":10,"time_elapsed":58038,"internal_node_id":"0.0-8.0-3.0","subject":"0w9ejsjqufta7zh","sona":"9160"},{"rt":1683,"stimulus":"<p>Bereit?</p>","key_press":32,"trial_type":"html-keyboard-response","trial_index":11,"time_elapsed":59723,"internal_node_id":"0.0-8.0-0.1","subject":"0w9ejsjqufta7zh","sona":"9160"},{"rt":null,"stimulus":"<div style=\"font-size:60px;\">+</div>","key_press":null,"trial_type":"html-keyboard-response","trial_index":12,"time_elapsed":61739,"internal_node_id":"0.0-8.0-1.1","subject":"0w9ejsjqufta7zh","sona":"9160"},{"trial_type":"turing-test","trial_index":13,"time_elapsed":68463,"internal_node_id":"0.0-8.0-2.1","subject":"0w9ejsjqufta7zh","sona":"9160"},{"rt":949,"stimulus":"<p>Welche Sequenz haben Sie als natürlicher empfunden?</p>","key_press":74,"test_part":"response","test_stimulus":{"position":1,"left":"bvh/vr_prediction_models/model(dmp)-dataset(return-bottle)-npsi(30)-hold(2)/final-lines.txt","right":"bvh/return-bottle-training2-lines.txt","att_check":false},"trial_type":"html-keyboard-response","trial_index":14,"time_elapsed":69415,"internal_node_id":"0.0-8.0-3.1","subject":"0w9ejsjqufta7zh","sona":"9160"},{"rt":1075,"stimulus":"<p>Bereit?</p>","key_press":32,"trial_type":"html-keyboard-response","trial_index":15,"time_elapsed":70492,"internal_node_id":"0.0-8.0-0.2","subject":"0w9ejsjqufta7zh","sona":"9160"},{"rt":null,"stimulus":"<div style=\"font-size:60px;\">+</div>","key_press":null,"trial_type":"html-keyboard-response","trial_index":16,"time_elapsed":72507,"internal_node_id":"0.0-8.0-1.2","subject":"0w9ejsjqufta7zh","sona":"9160"},{"trial_type":"turing-test","trial_index":17,"time_elapsed":76455,"internal_node_id":"0.0-8.0-2.2","subject":"0w9ejsjqufta7zh","sona":"9160"},{"rt":1791,"stimulus":"<p>Welche Sequenz haben Sie als natürlicher empfunden?</p>","key_press":74,"test_part":"response","test_stimulus":{"position":1,"left":"bvh/vr_prediction_models/model(vcgpdm)-dataset(return-bottle-hold)-mode(ELBO)-parts(1)-dyn(10)-lvm(30)-hold(3)/final-lines.txt","right":"bvh/return-bottle-hold-training3-lines.txt","att_check":false},"trial_type":"html-keyboard-response","trial_index":18,"time_elapsed":78248,"internal_node_id":"0.0-8.0-3.2","subject":"0w9ejsjqufta7zh","sona":"9160"},{"rt":736,"stimulus":"<p>Bereit?</p>","key_press":32,"trial_type":"html-keyboard-response","trial_index":19,"time_elapsed":78986,"internal_node_id":"0.0-8.0-0.3","subject":"0w9ejsjqufta7zh","sona":"9160"},{"rt":null,"stimulus":"<div style=\"font-size:60px;\">+</div>","key_press":null,"trial_type":"html-keyboard-response","trial_index":20,"time_elapsed":81006,"internal_node_id":"0.0-8.0-1.3","subject":"0w9ejsjqufta7zh","sona":"9160"},{"trial_type":"turing-test","trial_index":21,"time_elapsed":85011,"internal_node_id":"0.0-8.0-2.3","subject":"0w9ejsjqufta7zh","sona":"9160"},{"rt":1384,"stimulus":"<p>Welche Sequenz haben Sie als natürlicher empfunden?</p>","key_press":70,"test_part":"response","test_stimulus":{"position":0,"left":"bvh/pass-bottle-hold-training0-lines.txt","right":"bvh/vr_prediction_models/model(vcgpdm)-dataset(pass-bottle-hold)-mode(ELBO)-parts(1)-dyn(30)-lvm(20)-hold(0)/final-lines.txt","att_check":false},"trial_type":"html-keyboard-response","trial_index":22,"time_elapsed":86399,"internal_node_id":"0.0-8.0-3.3","subject":"0w9ejsjqufta7zh","sona":"9160"},{"rt":667,"stimulus":"<p>Bereit?</p>","key_press":32,"trial_type":"html-keyboard-response","trial_index":23,"time_elapsed":87066,"internal_node_id":"0.0-8.0-0.4","subject":"0w9ejsjqufta7zh","sona":"9160"},{"rt":null,"stimulus":"<div style=\"font-size:60px;\">+</div>","key_press":null,"trial_type":"html-keyboard-response","trial_index":24,"time_elapsed":89084,"internal_node_id":"0.0-8.0-1.4","subject":"0w9ejsjqufta7zh","sona":"9160"},{"trial_type":"turing-test","trial_index":25,"time_elapsed":92747,"internal_node_id":"0.0-8.0-2.4","subject":"0w9ejsjqufta7zh","sona":"9160"},{"rt":2724,"stimulus":"<p>Welche Sequenz haben Sie als natürlicher empfunden?</p>","key_press":70,"test_part":"response","test_stimulus":{"position":0,"left":"bvh/pass-bottle-hold-training2-lines.txt","right":"bvh/vr_prediction_models/model(vcgpdm)-dataset(pass-bottle-hold)-mode(MAP)-parts(3)-hold(2)/final-lines.txt","att_check":false},"trial_type":"html-keyboard-response","trial_index":26,"time_elapsed":95474,"internal_node_id":"0.0-8.0-3.4","subject":"0w9ejsjqufta7zh","sona":"9160"},{"rt":369,"stimulus":"<p>Bereit?</p>","key_press":32,"trial_type":"html-keyboard-response","trial_index":27,"time_elapsed":95845,"internal_node_id":"0.0-8.0-0.5","subject":"0w9ejsjqufta7zh","sona":"9160"},{"rt":null,"stimulus":"<div style=\"font-size:60px;\">+</div>","key_press":null,"trial_type":"html-keyboard-response","trial_index":28,"time_elapsed":97852,"internal_node_id":"0.0-8.0-1.5","subject":"0w9ejsjqufta7zh","sona":"9160"},{"trial_type":"turing-test","trial_index":29,"time_elapsed":103976,"internal_node_id":"0.0-8.0-2.5","subject":"0w9ejsjqufta7zh","sona":"9160"},{"rt":670,"stimulus":"<p>Welche Sequenz haben Sie als natürlicher empfunden?</p>","key_press":70,"test_part":"response","test_stimulus":{"position":0,"left":"bvh/pass-bottle-training3-lines.txt","right":"bvh/vr_prediction_models/model(dmp)-dataset(pass-bottle)-npsi(90)-hold(3)/final-lines.txt","att_check":false},"trial_type":"html-keyboard-response","trial_index":30,"time_elapsed":104648,"internal_node_id":"0.0-8.0-3.5","subject":"0w9ejsjqufta7zh","sona":"9160"},{"rt":455,"stimulus":"<p>Bereit?</p>","key_press":32,"trial_type":"html-keyboard-response","trial_index":31,"time_elapsed":105105,"internal_node_id":"0.0-8.0-0.6","subject":"0w9ejsjqufta7zh","sona":"9160"},{"rt":null,"stimulus":"<div style=\"font-size:60px;\">+</div>","key_press":null,"trial_type":"html-keyboard-response","trial_index":32,"time_elapsed":107124,"internal_node_id":"0.0-8.0-1.6","subject":"0w9ejsjqufta7zh","sona":"9160"},{"trial_type":"turing-test","trial_index":33,"time_elapsed":110826,"internal_node_id":"0.0-8.0-2.6","subject":"0w9ejsjqufta7zh","sona":"9160"},{"rt":1879,"stimulus":"<p>Welche Sequenz haben Sie als natürlicher empfunden?</p>","key_press":74,"test_part":"response","test_stimulus":{"position":1,"left":"bvh/vr_prediction_models/model(vcgpdm)-dataset(pass-bottle-hold)-mode(ELBO)-parts(3)-dyn(25)-lvm(15)-hold(1)/final-lines.txt","right":"bvh/pass-bottle-hold-training1-lines.txt","att_check":false},"trial_type":"html-keyboard-response","trial_index":34,"time_elapsed":112708,"internal_node_id":"0.0-8.0-3.6","subject":"0w9ejsjqufta7zh","sona":"9160"},{"rt":434,"stimulus":"<p>Bereit?</p>","key_press":32,"trial_type":"html-keyboard-response","trial_index":35,"time_elapsed":113145,"internal_node_id":"0.0-8.0-0.7","subject":"0w9ejsjqufta7zh","sona":"9160"},{"rt":null,"stimulus":"<div style=\"font-size:60px;\">+</div>","key_press":null,"trial_type":"html-keyboard-response","trial_index":36,"time_elapsed":115155,"internal_node_id":"0.0-8.0-1.7","subject":"0w9ejsjqufta7zh","sona":"9160"},{"trial_type":"turing-test","trial_index":37,"time_elapsed":119066,"internal_node_id":"0.0-8.0-2.7","subject":"0w9ejsjqufta7zh","sona":"9160"},{"rt":1049,"stimulus":"<p>Welche Sequenz haben Sie als natürlicher empfunden?</p>","key_press":74,"test_part":"response","test_stimulus":{"position":1,"left":"bvh/vr_prediction_models/model(vcgpdm)-dataset(return-bottle-hold)-mode(ELBO)-parts(1)-dyn(10)-lvm(25)-hold(3)/final-lines.txt","right":"bvh/return-bottle-hold-training3-lines.txt","att_check":false},"trial_type":"html-keyboard-response","trial_index":38,"time_elapsed":120118,"internal_node_id":"0.0-8.0-3.7","subject":"0w9ejsjqufta7zh","sona":"9160"},{"rt":457,"stimulus":"<p>Bereit?</p>","key_press":32,"trial_type":"html-keyboard-response","trial_index":39,"time_elapsed":120583,"internal_node_id":"0.0-8.0-0.8","subject":"0w9ejsjqufta7zh","sona":"9160"},{"rt":null,"stimulus":"<div style=\"font-size:60px;\">+</div>","key_press":null,"trial_type":"html-keyboard-response","trial_index":40,"time_elapsed":122605,"internal_node_id":"0.0-8.0-1.8","subject":"0w9ejsjqufta7zh","sona":"9160"},{"trial_type":"turing-test","trial_index":41,"time_elapsed":128602,"internal_node_id":"0.0-8.0-2.8","subject":"0w9ejsjqufta7zh","sona":"9160"},{"rt":709,"stimulus":"<p>Welche Sequenz haben Sie als natürlicher empfunden?</p>","key_press":70,"test_part":"response","test_stimulus":{"position":1,"left":"bvh/vr_prediction_models/model(tmp)-dataset(pass-bottle)-numprim(13)-hold(3)/final-lines.txt","right":"bvh/pass-bottle-training3-lines.txt","att_check":false},"trial_type":"html-keyboard-response","trial_index":42,"time_elapsed":129312,"internal_node_id":"0.0-8.0-3.8","subject":"0w9ejsjqufta7zh","sona":"9160"},{"rt":375,"stimulus":"<p>Bereit?</p>","key_press":32,"trial_type":"html-keyboard-response","trial_index":43,"time_elapsed":129688,"internal_node_id":"0.0-8.0-0.9","subject":"0w9ejsjqufta7zh","sona":"9160"},{"rt":null,"stimulus":"<div style=\"font-size:60px;\">+</div>","key_press":null,"trial_type":"html-keyboard-response","trial_index":44,"time_elapsed":131702,"internal_node_id":"0.0-8.0-1.9","subject":"0w9ejsjqufta7zh","sona":"9160"},{"trial_type":"turing-test","trial_index":45,"time_elapsed":135400,"internal_node_id":"0.0-8.0-2.9","subject":"0w9ejsjqufta7zh","sona":"9160"},{"rt":2658,"stimulus":"<p>Welche Sequenz haben Sie als natürlicher empfunden?</p>","key_press":70,"test_part":"response","test_stimulus":{"position":1,"left":"bvh/vr_prediction_models/model(vcgpdm)-dataset(pass-bottle-hold)-mode(ELBO)-parts(1)-dyn(5)-lvm(5)-hold(0)/final-lines.txt","right":"bvh/pass-bottle-hold-training0-lines.txt","att_check":false},"trial_type":"html-keyboard-response","trial_index":46,"time_elapsed":138061,"internal_node_id":"0.0-8.0-3.9","subject":"0w9ejsjqufta7zh","sona":"9160"},{"rt":334,"stimulus":"<p>Bereit?</p>","key_press":32,"trial_type":"html-keyboard-response","trial_index":47,"time_elapsed":138399,"internal_node_id":"0.0-8.0-0.10","subject":"0w9ejsjqufta7zh","sona":"9160"},{"rt":null,"stimulus":"<div style=\"font-size:60px;\">+</div>","key_press":null,"trial_type":"html-keyboard-response","trial_index":48,"time_elapsed":140441,"internal_node_id":"0.0-8.0-1.10","subject":"0w9ejsjqufta7zh","sona":"9160"},{"trial_type":"turing-test","trial_index":49,"time_elapsed":146985,"internal_node_id":"0.0-8.0-2.10","subject":"0w9ejsjqufta7zh","sona":"9160"},{"rt":2151,"stimulus":"<p>Welche Sequenz haben Sie als natürlicher empfunden?</p>","key_press":74,"test_part":"response","test_stimulus":{"position":0,"left":"bvh/pass-bottle-training2-lines.txt","right":"bvh/vr_prediction_models/model(vcgpdm)-dataset(pass-bottle)-mode(MAP)-parts(3)-hold(2)/final-lines.txt","att_check":false},"trial_type":"html-keyboard-response","trial_index":50,"time_elapsed":149143,"internal_node_id":"0.0-8.0-3.10","subject":"0w9ejsjqufta7zh","sona":"9160"},{"rt":289,"stimulus":"<p>Bereit?</p>","key_press":32,"trial_type":"html-keyboard-response","trial_index":51,"time_elapsed":149440,"internal_node_id":"0.0-8.0-0.11","subject":"0w9ejsjqufta7zh","sona":"9160"},{"rt":null,"stimulus":"<div style=\"font-size:60px;\">+</div>","key_press":null,"trial_type":"html-keyboard-response","trial_index":52,"time_elapsed":151460,"internal_node_id":"0.0-8.0-1.11","subject":"0w9ejsjqufta7zh","sona":"9160"},{"trial_type":"turing-test","trial_index":53,"time_elapsed":157611,"internal_node_id":"0.0-8.0-2.11","subject":"0w9ejsjqufta7zh","sona":"9160"},{"rt":837,"stimulus":"<p>Welche Sequenz haben Sie als natürlicher empfunden?</p>","key_press":74,"test_part":"response","test_stimulus":{"position":0,"left":"bvh/pass-bottle-training4-lines.txt","right":"bvh/vr_prediction_models/model(vcgpdm)-dataset(pass-bottle)-mode(ELBO)-parts(1)-dyn(30)-lvm(30)-hold(4)/final-lines.txt","att_check":false},"trial_type":"html-keyboard-response","trial_index":54,"time_elapsed":158457,"internal_node_id":"0.0-8.0-3.11","subject":"0w9ejsjqufta7zh","sona":"9160"},{"rt":228,"stimulus":"<p>Bereit?</p>","key_press":32,"trial_type":"html-keyboard-response","trial_index":55,"time_elapsed":158691,"internal_node_id":"0.0-8.0-0.12","subject":"0w9ejsjqufta7zh","sona":"9160"},{"rt":null,"stimulus":"<div style=\"font-size:60px;\">+</div>","key_press":null,"trial_type":"html-keyboard-response","trial_index":56,"time_elapsed":160732,"internal_node_id":"0.0-8.0-1.12","subject":"0w9ejsjqufta7zh","sona":"9160"},{"trial_type":"turing-test","trial_index":57,"time_elapsed":164525,"internal_node_id":"0.0-8.0-2.12","subject":"0w9ejsjqufta7zh","sona":"9160"},{"rt":626,"stimulus":"<p>Welche Sequenz haben Sie als natürlicher empfunden?</p>","key_press":70,"test_part":"response","test_stimulus":{"position":1,"left":"bvh/vr_prediction_models/model(vcgpdm)-dataset(pass-bottle-hold)-mode(ELBO)-parts(1)-dyn(30)-lvm(30)-hold(2)/final-lines.txt","right":"bvh/pass-bottle-hold-training2-lines.txt","att_check":false},"trial_type":"html-keyboard-response","trial_index":58,"time_elapsed":165158,"internal_node_id":"0.0-8.0-3.12","subject":"0w9ejsjqufta7zh","sona":"9160"},{"rt":295,"stimulus":"<p>Bereit?</p>","key_press":32,"trial_type":"html-keyboard-response","trial_index":59,"time_elapsed":165461,"internal_node_id":"0.0-8.0-0.13","subject":"0w9ejsjqufta7zh","sona":"9160"},{"rt":null,"stimulus":"<div style=\"font-size:60px;\">+</div>","key_press":null,"trial_type":"html-keyboard-response","trial_index":60,"time_elapsed":167484,"internal_node_id":"0.0-8.0-1.13","subject":"0w9ejsjqufta7zh","sona":"9160"},{"trial_type":"turing-test","trial_index":61,"time_elapsed":171606,"internal_node_id":"0.0-8.0-2.13","subject":"0w9ejsjqufta7zh","sona":"9160"},{"rt":3074,"stimulus":"<p>Welche Sequenz haben Sie als natürlicher empfunden?</p>","key_press":70,"test_part":"response","test_stimulus":{"position":1,"left":"bvh/vr_prediction_models/model(vcgpdm)-dataset(return-bottle-hold)-mode(ELBO)-parts(3)-dyn(15)-lvm(30)-hold(4)/final-lines.txt","right":"bvh/return-bottle-hold-training4-lines.txt","att_check":false},"trial_type":"html-keyboard-response","trial_index":62,"time_elapsed":174688,"internal_node_id":"0.0-8.0-3.13","subject":"0w9ejsjqufta7zh","sona":"9160"},{"rt":315,"stimulus":"<p>Bereit?</p>","key_press":32,"trial_type":"html-keyboard-response","trial_index":63,"time_elapsed":175010,"internal_node_id":"0.0-8.0-0.14","subject":"0w9ejsjqufta7zh","sona":"9160"},{"rt":null,"stimulus":"<div style=\"font-size:60px;\">+</div>","key_press":null,"trial_type":"html-keyboard-response","trial_index":64,"time_elapsed":177038,"internal_node_id":"0.0-8.0-1.14","subject":"0w9ejsjqufta7zh","sona":"9160"},{"trial_type":"turing-test","trial_index":65,"time_elapsed":182478,"internal_node_id":"0.0-8.0-2.14","subject":"0w9ejsjqufta7zh","sona":"9160"},{"rt":699,"stimulus":"<p>Welche Sequenz haben Sie als natürlicher empfunden?</p>","key_press":70,"test_part":"response","test_stimulus":{"position":1,"left":"bvh/vr_prediction_models/model(tmp)-dataset(return-bottle-hold)-numprim(5)-hold(0)/final-lines.txt","right":"bvh/return-bottle-hold-training0-lines.txt","att_check":false},"trial_type":"html-keyboard-response","trial_index":66,"time_elapsed":183186,"internal_node_id":"0.0-8.0-3.14","subject":"0w9ejsjqufta7zh","sona":"9160"},{"rt":288,"stimulus":"<p>Bereit?</p>","key_press":32,"trial_type":"html-keyboard-response","trial_index":67,"time_elapsed":183482,"internal_node_id":"0.0-8.0-0.15","subject":"0w9ejsjqufta7zh","sona":"9160"},{"rt":null,"stimulus":"<div style=\"font-size:60px;\">+</div>","key_press":null,"trial_type":"html-keyboard-response","trial_index":68,"time_elapsed":185509,"internal_node_id":"0.0-8.0-1.15","subject":"0w9ejsjqufta7zh","sona":"9160"},{"trial_type":"turing-test","trial_index":69,"time_elapsed":192632,"internal_node_id":"0.0-8.0-2.15","subject":"0w9ejsjqufta7zh","sona":"9160"},{"rt":493,"stimulus":"<p>Welche Sequenz haben Sie als natürlicher empfunden?</p>","key_press":70,"test_part":"response","test_stimulus":{"position":1,"left":"bvh/vr_prediction_models/model(vcgpdm)-dataset(pass-bottle)-mode(ELBO)-parts(1)-dyn(10)-lvm(30)-hold(0)/final-lines.txt","right":"bvh/pass-bottle-training0-lines.txt","att_check":false},"trial_type":"html-keyboard-response","trial_index":70,"time_elapsed":193133,"internal_node_id":"0.0-8.0-3.15","subject":"0w9ejsjqufta7zh","sona":"9160"},{"rt":329,"stimulus":"<p>Bereit?</p>","key_press":32,"trial_type":"html-keyboard-response","trial_index":71,"time_elapsed":193468,"internal_node_id":"0.0-8.0-0.16","subject":"0w9ejsjqufta7zh","sona":"9160"},{"rt":null,"stimulus":"<div style=\"font-size:60px;\">+</div>","key_press":null,"trial_type":"html-keyboard-response","trial_index":72,"time_elapsed":195482,"internal_node_id":"0.0-8.0-1.16","subject":"0w9ejsjqufta7zh","sona":"9160"},{"trial_type":"turing-test","trial_index":73,"time_elapsed":199355,"internal_node_id":"0.0-8.0-2.16","subject":"0w9ejsjqufta7zh","sona":"9160"},{"rt":490,"stimulus":"<p>Welche Sequenz haben Sie als natürlicher empfunden?</p>","key_press":70,"test_part":"response","test_stimulus":{"position":1,"left":"bvh/vr_prediction_models/model(vcgpdm)-dataset(return-bottle-hold)-mode(ELBO)-parts(1)-dyn(15)-lvm(35)-hold(2)/final-lines.txt","right":"bvh/return-bottle-hold-training2-lines.txt","att_check":false},"trial_type":"html-keyboard-response","trial_index":74,"time_elapsed":199853,"internal_node_id":"0.0-8.0-3.16","subject":"0w9ejsjqufta7zh","sona":"9160"},{"rt":301,"stimulus":"<p>Bereit?</p>","key_press":32,"trial_type":"html-keyboard-response","trial_index":75,"time_elapsed":200161,"internal_node_id":"0.0-8.0-0.17","subject":"0w9ejsjqufta7zh","sona":"9160"},{"rt":null,"stimulus":"<div style=\"font-size:60px;\">+</div>","key_press":null,"trial_type":"html-keyboard-response","trial_index":76,"time_elapsed":202185,"internal_node_id":"0.0-8.0-1.17","subject":"0w9ejsjqufta7zh","sona":"9160"},{"trial_type":"turing-test","trial_index":77,"time_elapsed":209053,"internal_node_id":"0.0-8.0-2.17","subject":"0w9ejsjqufta7zh","sona":"9160"},{"rt":1315,"stimulus":"<p>Welche Sequenz haben Sie als natürlicher empfunden?</p>","key_press":70,"test_part":"response","test_stimulus":{"position":0,"left":"bvh/return-bottle-training2-lines.txt","right":"bvh/vr_prediction_models/model(vcgpdm)-dataset(return-bottle)-mode(ELBO)-parts(3)-dyn(15)-lvm(30)-hold(2)/final-lines.txt","att_check":false},"trial_type":"html-keyboard-response","trial_index":78,"time_elapsed":210375,"internal_node_id":"0.0-8.0-3.17","subject":"0w9ejsjqufta7zh","sona":"9160"},{"rt":199,"stimulus":"<p>Bereit?</p>","key_press":32,"trial_type":"html-keyboard-response","trial_index":79,"time_elapsed":210582,"internal_node_id":"0.0-8.0-0.18","subject":"0w9ejsjqufta7zh","sona":"9160"},{"rt":null,"stimulus":"<div style=\"font-size:60px;\">+</div>","key_press":null,"trial_type":"html-keyboard-response","trial_index":80,"time_elapsed":212608,"internal_node_id":"0.0-8.0-1.18","subject":"0w9ejsjqufta7zh","sona":"9160"},{"trial_type":"turing-test","trial_index":81,"time_elapsed":216679,"internal_node_id":"0.0-8.0-2.18","subject":"0w9ejsjqufta7zh","sona":"9160"},{"rt":479,"stimulus":"<p>Welche Sequenz haben Sie als natürlicher empfunden?</p>","key_press":70,"test_part":"response","test_stimulus":{"position":1,"left":"bvh/vr_prediction_models/model(vcgpdm)-dataset(return-bottle-hold)-mode(MAP)-parts(3)-hold(2)/final-lines.txt","right":"bvh/return-bottle-hold-training2-lines.txt","att_check":false},"trial_type":"html-keyboard-response","trial_index":82,"time_elapsed":217171,"internal_node_id":"0.0-8.0-3.18","subject":"0w9ejsjqufta7zh","sona":"9160"},{"rt":279,"stimulus":"<p>Bereit?</p>","key_press":32,"trial_type":"html-keyboard-response","trial_index":83,"time_elapsed":217459,"internal_node_id":"0.0-8.0-0.19","subject":"0w9ejsjqufta7zh","sona":"9160"},{"rt":null,"stimulus":"<div style=\"font-size:60px;\">+</div>","key_press":null,"trial_type":"html-keyboard-response","trial_index":84,"time_elapsed":219485,"internal_node_id":"0.0-8.0-1.19","subject":"0w9ejsjqufta7zh","sona":"9160"},{"trial_type":"turing-test","trial_index":85,"time_elapsed":223336,"internal_node_id":"0.0-8.0-2.19","subject":"0w9ejsjqufta7zh","sona":"9160"},{"rt":401,"stimulus":"<p>Welche Sequenz haben Sie als natürlicher empfunden?</p>","key_press":70,"test_part":"response","test_stimulus":{"position":1,"left":"bvh/vr_prediction_models/model(vcgpdm)-dataset(return-bottle-hold)-mode(ELBO)-parts(1)-dyn(35)-lvm(10)-hold(1)/final-lines.txt","right":"bvh/return-bottle-hold-training1-lines.txt","att_check":false},"trial_type":"html-keyboard-response","trial_index":86,"time_elapsed":223746,"internal_node_id":"0.0-8.0-3.19","subject":"0w9ejsjqufta7zh","sona":"9160"},{"rt":253,"stimulus":"<p>Bereit?</p>","key_press":32,"trial_type":"html-keyboard-response","trial_index":87,"time_elapsed":224006,"internal_node_id":"0.0-8.0-0.20","subject":"0w9ejsjqufta7zh","sona":"9160"},{"rt":null,"stimulus":"<div style=\"font-size:60px;\">+</div>","key_press":null,"trial_type":"html-keyboard-response","trial_index":88,"time_elapsed":226037,"internal_node_id":"0.0-8.0-1.20","subject":"0w9ejsjqufta7zh","sona":"9160"},{"trial_type":"turing-test","trial_index":89,"time_elapsed":232167,"internal_node_id":"0.0-8.0-2.20","subject":"0w9ejsjqufta7zh","sona":"9160"},{"rt":514,"stimulus":"<p>Welche Sequenz haben Sie als natürlicher empfunden?</p>","key_press":74,"test_part":"response","test_stimulus":{"position":1,"left":"bvh/vr_prediction_models/model(vcgpdm)-dataset(return-bottle)-mode(ELBO)-parts(3)-dyn(10)-lvm(25)-hold(4)/final-lines.txt","right":"bvh/return-bottle-training4-lines.txt","att_check":false},"trial_type":"html-keyboard-response","trial_index":90,"time_elapsed":232689,"internal_node_id":"0.0-8.0-3.20","subject":"0w9ejsjqufta7zh","sona":"9160"},{"rt":242,"stimulus":"<p>Bereit?</p>","key_press":32,"trial_type":"html-keyboard-response","trial_index":91,"time_elapsed":232938,"internal_node_id":"0.0-8.0-0.21","subject":"0w9ejsjqufta7zh","sona":"9160"},{"rt":null,"stimulus":"<div style=\"font-size:60px;\">+</div>","key_press":null,"trial_type":"html-keyboard-response","trial_index":92,"time_elapsed":234967,"internal_node_id":"0.0-8.0-1.21","subject":"0w9ejsjqufta7zh","sona":"9160"},{"trial_type":"turing-test","trial_index":93,"time_elapsed":238807,"internal_node_id":"0.0-8.0-2.21","subject":"0w9ejsjqufta7zh","sona":"9160"},{"rt":2659,"stimulus":"<p>Welche Sequenz haben Sie als natürlicher empfunden?</p>","key_press":70,"test_part":"response","test_stimulus":{"position":1,"left":"bvh/vr_prediction_models/model(vcgpdm)-dataset(pass-bottle-hold)-mode(ELBO)-parts(3)-dyn(25)-lvm(25)-hold(2)/final-lines.txt","right":"bvh/pass-bottle-hold-training2-lines.txt","att_check":false},"trial_type":"html-keyboard-response","trial_index":94,"time_elapsed":241474,"internal_node_id":"0.0-8.0-3.21","subject":"0w9ejsjqufta7zh","sona":"9160"},{"rt":309,"stimulus":"<p>Bereit?</p>","key_press":32,"trial_type":"html-keyboard-response","trial_index":95,"time_elapsed":241785,"internal_node_id":"0.0-8.0-0.22","subject":"0w9ejsjqufta7zh","sona":"9160"},{"rt":null,"stimulus":"<div style=\"font-size:60px;\">+</div>","key_press":null,"trial_type":"html-keyboard-response","trial_index":96,"time_elapsed":243791,"internal_node_id":"0.0-8.0-1.22","subject":"0w9ejsjqufta7zh","sona":"9160"},{"trial_type":"turing-test","trial_index":97,"time_elapsed":249722,"internal_node_id":"0.0-8.0-2.22","subject":"0w9ejsjqufta7zh","sona":"9160"},{"rt":716,"stimulus":"<p>Welche Sequenz haben Sie als natürlicher empfunden?</p>","key_press":70,"test_part":"response","test_stimulus":{"position":0,"left":"bvh/pass-bottle-training4-lines.txt","right":"bvh/vr_prediction_models/model(dmp)-dataset(pass-bottle)-npsi(80)-hold(4)/final-lines.txt","att_check":false},"trial_type":"html-keyboard-response","trial_index":98,"time_elapsed":250441,"internal_node_id":"0.0-8.0-3.22","subject":"0w9ejsjqufta7zh","sona":"9160"},{"rt":296,"stimulus":"<p>Bereit?</p>","key_press":32,"trial_type":"html-keyboard-response","trial_index":99,"time_elapsed":250741,"internal_node_id":"0.0-8.0-0.23","subject":"0w9ejsjqufta7zh","sona":"9160"},{"rt":null,"stimulus":"<div style=\"font-size:60px;\">+</div>","key_press":null,"trial_type":"html-keyboard-response","trial_index":100,"time_elapsed":252762,"internal_node_id":"0.0-8.0-1.23","subject":"0w9ejsjqufta7zh","sona":"9160"},{"trial_type":"turing-test","trial_index":101,"time_elapsed":256694,"internal_node_id":"0.0-8.0-2.23","subject":"0w9ejsjqufta7zh","sona":"9160"},{"rt":1148,"stimulus":"<p>Welche Sequenz haben Sie als natürlicher empfunden?</p>","key_press":74,"test_part":"response","test_stimulus":{"position":0,"left":"bvh/return-bottle-hold-training4-lines.txt","right":"bvh/vr_prediction_models/model(dmp)-dataset(return-bottle-hold)-npsi(30)-hold(4)/final-lines.txt","att_check":false},"trial_type":"html-keyboard-response","trial_index":102,"time_elapsed":257850,"internal_node_id":"0.0-8.0-3.23","subject":"0w9ejsjqufta7zh","sona":"9160"},{"rt":217,"stimulus":"<p>Bereit?</p>","key_press":32,"trial_type":"html-keyboard-response","trial_index":103,"time_elapsed":258071,"internal_node_id":"0.0-8.0-0.24","subject":"0w9ejsjqufta7zh","sona":"9160"},{"rt":null,"stimulus":"<div style=\"font-size:60px;\">+</div>","key_press":null,"trial_type":"html-keyboard-response","trial_index":104,"time_elapsed":260095,"internal_node_id":"0.0-8.0-1.24","subject":"0w9ejsjqufta7zh","sona":"9160"},{"trial_type":"turing-test","trial_index":105,"time_elapsed":265860,"internal_node_id":"0.0-8.0-2.24","subject":"0w9ejsjqufta7zh","sona":"9160"},{"rt":938,"stimulus":"<p>Welche Sequenz haben Sie als natürlicher empfunden?</p>","key_press":74,"test_part":"response","test_stimulus":{"position":0,"left":"bvh/return-bottle-training0-lines.txt","right":"bvh/vr_prediction_models/model(tmp)-dataset(return-bottle)-numprim(11)-hold(0)/final-lines.txt","att_check":false},"trial_type":"html-keyboard-response","trial_index":106,"time_elapsed":266806,"internal_node_id":"0.0-8.0-3.24","subject":"0w9ejsjqufta7zh","sona":"9160"},{"rt":212,"stimulus":"<p>Bereit?</p>","key_press":32,"trial_type":"html-keyboard-response","trial_index":107,"time_elapsed":267027,"internal_node_id":"0.0-8.0-0.25","subject":"0w9ejsjqufta7zh","sona":"9160"},{"rt":null,"stimulus":"<div style=\"font-size:60px;\">+</div>","key_press":null,"trial_type":"html-keyboard-response","trial_index":108,"time_elapsed":269050,"internal_node_id":"0.0-8.0-1.25","subject":"0w9ejsjqufta7zh","sona":"9160"},{"trial_type":"turing-test","trial_index":109,"time_elapsed":273133,"internal_node_id":"0.0-8.0-2.25","subject":"0w9ejsjqufta7zh","sona":"9160"},{"rt":346,"stimulus":"<p>Welche Sequenz haben Sie als natürlicher empfunden?</p>","key_press":74,"test_part":"response","test_stimulus":{"position":1,"left":"bvh/vr_prediction_models/model(vcgpdm)-dataset(return-bottle-hold)-mode(ELBO)-parts(3)-dyn(20)-lvm(35)-hold(4)/final-lines.txt","right":"bvh/return-bottle-hold-training4-lines.txt","att_check":false},"trial_type":"html-keyboard-response","trial_index":110,"time_elapsed":273487,"internal_node_id":"0.0-8.0-3.25","subject":"0w9ejsjqufta7zh","sona":"9160"},{"rt":254,"stimulus":"<p>Bereit?</p>","key_press":32,"trial_type":"html-keyboard-response","trial_index":111,"time_elapsed":273749,"internal_node_id":"0.0-8.0-0.26","subject":"0w9ejsjqufta7zh","sona":"9160"},{"rt":null,"stimulus":"<div style=\"font-size:60px;\">+</div>","key_press":null,"trial_type":"html-keyboard-response","trial_index":112,"time_elapsed":275760,"internal_node_id":"0.0-8.0-1.26","subject":"0w9ejsjqufta7zh","sona":"9160"},{"trial_type":"turing-test","trial_index":113,"time_elapsed":279579,"internal_node_id":"0.0-8.0-2.26","subject":"0w9ejsjqufta7zh","sona":"9160"},{"rt":569,"stimulus":"<p>Welche Sequenz haben Sie als natürlicher empfunden?</p>","key_press":70,"test_part":"response","test_stimulus":{"position":0,"left":"bvh/pass-bottle-hold-training0-lines.txt","right":"bvh/vr_prediction_models/model(vcgpdm)-dataset(pass-bottle-hold)-mode(ELBO)-parts(3)-dyn(25)-lvm(25)-hold(0)/final-lines.txt","att_check":false},"trial_type":"html-keyboard-response","trial_index":114,"time_elapsed":280156,"internal_node_id":"0.0-8.0-3.26","subject":"0w9ejsjqufta7zh","sona":"9160"},{"rt":291,"stimulus":"<p>Bereit?</p>","key_press":32,"trial_type":"html-keyboard-response","trial_index":115,"time_elapsed":280455,"internal_node_id":"0.0-8.0-0.27","subject":"0w9ejsjqufta7zh","sona":"9160"},{"rt":null,"stimulus":"<div style=\"font-size:60px;\">+</div>","key_press":null,"trial_type":"html-keyboard-response","trial_index":116,"time_elapsed":282488,"internal_node_id":"0.0-8.0-1.27","subject":"0w9ejsjqufta7zh","sona":"9160"},{"trial_type":"turing-test","trial_index":117,"time_elapsed":285947,"internal_node_id":"0.0-8.0-2.27","subject":"0w9ejsjqufta7zh","sona":"9160"},{"rt":1263,"stimulus":"<p>Welche Sequenz haben Sie als natürlicher empfunden?</p>","key_press":70,"test_part":"response","test_stimulus":{"position":1,"left":"bvh/vr_prediction_models/model(dmp)-dataset(return-bottle-hold)-npsi(10)-hold(1)/final-lines.txt","right":"bvh/return-bottle-hold-training1-lines.txt","att_check":true},"trial_type":"html-keyboard-response","trial_index":118,"time_elapsed":287219,"internal_node_id":"0.0-8.0-3.27","subject":"0w9ejsjqufta7zh","sona":"9160"},{"rt":244,"stimulus":"<p>Bereit?</p>","key_press":32,"trial_type":"html-keyboard-response","trial_index":119,"time_elapsed":287474,"internal_node_id":"0.0-8.0-0.28","subject":"0w9ejsjqufta7zh","sona":"9160"},{"rt":null,"stimulus":"<div style=\"font-size:60px;\">+</div>","key_press":null,"trial_type":"html-keyboard-response","trial_index":120,"time_elapsed":289506,"internal_node_id":"0.0-8.0-1.28","subject":"0w9ejsjqufta7zh","sona":"9160"},{"trial_type":"turing-test","trial_index":121,"time_elapsed":293166,"internal_node_id":"0.0-8.0-2.28","subject":"0w9ejsjqufta7zh","sona":"9160"},{"rt":455,"stimulus":"<p>Welche Sequenz haben Sie als natürlicher empfunden?</p>","key_press":70,"test_part":"response","test_stimulus":{"position":0,"left":"bvh/return-bottle-hold-training2-lines.txt","right":"bvh/vr_prediction_models/model(tmp)-dataset(return-bottle-hold)-numprim(11)-hold(2)/final-lines.txt","att_check":false},"trial_type":"html-keyboard-response","trial_index":122,"time_elapsed":293630,"internal_node_id":"0.0-8.0-3.28","subject":"0w9ejsjqufta7zh","sona":"9160"},{"rt":201,"stimulus":"<p>Bereit?</p>","key_press":32,"trial_type":"html-keyboard-response","trial_index":123,"time_elapsed":293841,"internal_node_id":"0.0-8.0-0.29","subject":"0w9ejsjqufta7zh","sona":"9160"},{"rt":null,"stimulus":"<div style=\"font-size:60px;\">+</div>","key_press":null,"trial_type":"html-keyboard-response","trial_index":124,"time_elapsed":295866,"internal_node_id":"0.0-8.0-1.29","subject":"0w9ejsjqufta7zh","sona":"9160"},{"trial_type":"turing-test","trial_index":125,"time_elapsed":299549,"internal_node_id":"0.0-8.0-2.29","subject":"0w9ejsjqufta7zh","sona":"9160"},{"rt":611,"stimulus":"<p>Welche Sequenz haben Sie als natürlicher empfunden?</p>","key_press":70,"test_part":"response","test_stimulus":{"position":1,"left":"bvh/vr_prediction_models/model(vcgpdm)-dataset(return-bottle-hold)-mode(ELBO)-parts(3)-dyn(20)-lvm(35)-hold(1)/final-lines.txt","right":"bvh/return-bottle-hold-training1-lines.txt","att_check":false},"trial_type":"html-keyboard-response","trial_index":126,"time_elapsed":300168,"internal_node_id":"0.0-8.0-3.29","subject":"0w9ejsjqufta7zh","sona":"9160"},{"rt":229,"stimulus":"<p>Bereit?</p>","key_press":32,"trial_type":"html-keyboard-response","trial_index":127,"time_elapsed":300405,"internal_node_id":"0.0-8.0-0.30","subject":"0w9ejsjqufta7zh","sona":"9160"},{"rt":null,"stimulus":"<div style=\"font-size:60px;\">+</div>","key_press":null,"trial_type":"html-keyboard-response","trial_index":128,"time_elapsed":302420,"internal_node_id":"0.0-8.0-1.30","subject":"0w9ejsjqufta7zh","sona":"9160"},{"trial_type":"turing-test","trial_index":129,"time_elapsed":306269,"internal_node_id":"0.0-8.0-2.30","subject":"0w9ejsjqufta7zh","sona":"9160"},{"rt":436,"stimulus":"<p>Welche Sequenz haben Sie als natürlicher empfunden?</p>","key_press":74,"test_part":"response","test_stimulus":{"position":1,"left":"bvh/vr_prediction_models/model(tmp)-dataset(pass-bottle-hold)-numprim(13)-hold(3)/final-lines.txt","right":"bvh/pass-bottle-hold-training3-lines.txt","att_check":false},"trial_type":"html-keyboard-response","trial_index":130,"time_elapsed":306715,"internal_node_id":"0.0-8.0-3.30","subject":"0w9ejsjqufta7zh","sona":"9160"},{"rt":201,"stimulus":"<p>Bereit?</p>","key_press":32,"trial_type":"html-keyboard-response","trial_index":131,"time_elapsed":306928,"internal_node_id":"0.0-8.0-0.31","subject":"0w9ejsjqufta7zh","sona":"9160"},{"rt":null,"stimulus":"<div style=\"font-size:60px;\">+</div>","key_press":null,"trial_type":"html-keyboard-response","trial_index":132,"time_elapsed":308947,"internal_node_id":"0.0-8.0-1.31","subject":"0w9ejsjqufta7zh","sona":"9160"},{"trial_type":"turing-test","trial_index":133,"time_elapsed":315707,"internal_node_id":"0.0-8.0-2.31","subject":"0w9ejsjqufta7zh","sona":"9160"},{"rt":371,"stimulus":"<p>Welche Sequenz haben Sie als natürlicher empfunden?</p>","key_press":70,"test_part":"response","test_stimulus":{"position":0,"left":"bvh/return-bottle-training1-lines.txt","right":"bvh/vr_prediction_models/model(vcgpdm)-dataset(return-bottle)-mode(ELBO)-parts(3)-dyn(30)-lvm(15)-hold(1)/final-lines.txt","att_check":false},"trial_type":"html-keyboard-response","trial_index":134,"time_elapsed":316086,"internal_node_id":"0.0-8.0-3.31","subject":"0w9ejsjqufta7zh","sona":"9160"},{"rt":259,"stimulus":"<p>Bereit?</p>","key_press":32,"trial_type":"html-keyboard-response","trial_index":135,"time_elapsed":316353,"internal_node_id":"0.0-8.0-0.32","subject":"0w9ejsjqufta7zh","sona":"9160"},{"rt":null,"stimulus":"<div style=\"font-size:60px;\">+</div>","key_press":null,"trial_type":"html-keyboard-response","trial_index":136,"time_elapsed":318377,"internal_node_id":"0.0-8.0-1.32","subject":"0w9ejsjqufta7zh","sona":"9160"},{"trial_type":"turing-test","trial_index":137,"time_elapsed":324602,"internal_node_id":"0.0-8.0-2.32","subject":"0w9ejsjqufta7zh","sona":"9160"},{"rt":358,"stimulus":"<p>Welche Sequenz haben Sie als natürlicher empfunden?</p>","key_press":70,"test_part":"response","test_stimulus":{"position":0,"left":"bvh/pass-bottle-training3-lines.txt","right":"bvh/vr_prediction_models/model(vcgpdm)-dataset(pass-bottle)-mode(ELBO)-parts(3)-dyn(10)-lvm(10)-hold(3)/final-lines.txt","att_check":false},"trial_type":"html-keyboard-response","trial_index":138,"time_elapsed":324969,"internal_node_id":"0.0-8.0-3.32","subject":"0w9ejsjqufta7zh","sona":"9160"},{"rt":251,"stimulus":"<p>Bereit?</p>","key_press":32,"trial_type":"html-keyboard-response","trial_index":139,"time_elapsed":325228,"internal_node_id":"0.0-8.0-0.33","subject":"0w9ejsjqufta7zh","sona":"9160"},{"rt":null,"stimulus":"<div style=\"font-size:60px;\">+</div>","key_press":null,"trial_type":"html-keyboard-response","trial_index":140,"time_elapsed":327252,"internal_node_id":"0.0-8.0-1.33","subject":"0w9ejsjqufta7zh","sona":"9160"},{"trial_type":"turing-test","trial_index":141,"time_elapsed":330835,"internal_node_id":"0.0-8.0-2.33","subject":"0w9ejsjqufta7zh","sona":"9160"},{"rt":2345,"stimulus":"<p>Welche Sequenz haben Sie als natürlicher empfunden?</p>","key_press":74,"test_part":"response","test_stimulus":{"position":0,"left":"bvh/pass-bottle-hold-training1-lines.txt","right":"bvh/vr_prediction_models/model(vcgpdm)-dataset(pass-bottle-hold)-mode(ELBO)-parts(1)-dyn(10)-lvm(5)-hold(1)/final-lines.txt","att_check":false},"trial_type":"html-keyboard-response","trial_index":142,"time_elapsed":333188,"internal_node_id":"0.0-8.0-3.33","subject":"0w9ejsjqufta7zh","sona":"9160"},{"rt":208,"stimulus":"<p>Bereit?</p>","key_press":32,"trial_type":"html-keyboard-response","trial_index":143,"time_elapsed":333400,"internal_node_id":"0.0-8.0-0.34","subject":"0w9ejsjqufta7zh","sona":"9160"},{"rt":null,"stimulus":"<div style=\"font-size:60px;\">+</div>","key_press":null,"trial_type":"html-keyboard-response","trial_index":144,"time_elapsed":335404,"internal_node_id":"0.0-8.0-1.34","subject":"0w9ejsjqufta7zh","sona":"9160"},{"trial_type":"turing-test","trial_index":145,"time_elapsed":338817,"internal_node_id":"0.0-8.0-2.34","subject":"0w9ejsjqufta7zh","sona":"9160"},{"rt":564,"stimulus":"<p>Welche Sequenz haben Sie als natürlicher empfunden?</p>","key_press":70,"test_part":"response","test_stimulus":{"position":0,"left":"bvh/pass-bottle-hold-training2-lines.txt","right":"bvh/vr_prediction_models/model(tmp)-dataset(pass-bottle-hold)-numprim(15)-hold(2)/final-lines.txt","att_check":false},"trial_type":"html-keyboard-response","trial_index":146,"time_elapsed":339385,"internal_node_id":"0.0-8.0-3.34","subject":"0w9ejsjqufta7zh","sona":"9160"},{"rt":2168,"stimulus":"<p>Bereit?</p>","key_press":32,"trial_type":"html-keyboard-response","trial_index":147,"time_elapsed":341557,"internal_node_id":"0.0-8.0-0.35","subject":"0w9ejsjqufta7zh","sona":"9160"},{"rt":null,"stimulus":"<div style=\"font-size:60px;\">+</div>","key_press":null,"trial_type":"html-keyboard-response","trial_index":148,"time_elapsed":343589,"internal_node_id":"0.0-8.0-1.35","subject":"0w9ejsjqufta7zh","sona":"9160"},{"trial_type":"turing-test","trial_index":149,"time_elapsed":350200,"internal_node_id":"0.0-8.0-2.35","subject":"0w9ejsjqufta7zh","sona":"9160"},{"rt":440,"stimulus":"<p>Welche Sequenz haben Sie als natürlicher empfunden?</p>","key_press":70,"test_part":"response","test_stimulus":{"position":0,"left":"bvh/return-bottle-training2-lines.txt","right":"bvh/vr_prediction_models/model(tmp)-dataset(return-bottle)-numprim(8)-hold(2)/final-lines.txt","att_check":false},"trial_type":"html-keyboard-response","trial_index":150,"time_elapsed":350651,"internal_node_id":"0.0-8.0-3.35","subject":"0w9ejsjqufta7zh","sona":"9160"},{"rt":251,"stimulus":"<p>Bereit?</p>","key_press":32,"trial_type":"html-keyboard-response","trial_index":151,"time_elapsed":350915,"internal_node_id":"0.0-8.0-0.36","subject":"0w9ejsjqufta7zh","sona":"9160"},{"rt":null,"stimulus":"<div style=\"font-size:60px;\">+</div>","key_press":null,"trial_type":"html-keyboard-response","trial_index":152,"time_elapsed":352930,"internal_node_id":"0.0-8.0-1.36","subject":"0w9ejsjqufta7zh","sona":"9160"},{"trial_type":"turing-test","trial_index":153,"time_elapsed":358816,"internal_node_id":"0.0-8.0-2.36","subject":"0w9ejsjqufta7zh","sona":"9160"},{"rt":578,"stimulus":"<p>Welche Sequenz haben Sie als natürlicher empfunden?</p>","key_press":74,"test_part":"response","test_stimulus":{"position":1,"left":"bvh/vr_prediction_models/model(vcgpdm)-dataset(pass-bottle)-mode(ELBO)-parts(1)-dyn(10)-lvm(30)-hold(1)/final-lines.txt","right":"bvh/pass-bottle-training1-lines.txt","att_check":false},"trial_type":"html-keyboard-response","trial_index":154,"time_elapsed":359403,"internal_node_id":"0.0-8.0-3.36","subject":"0w9ejsjqufta7zh","sona":"9160"},{"rt":205,"stimulus":"<p>Bereit?</p>","key_press":32,"trial_type":"html-keyboard-response","trial_index":155,"time_elapsed":359618,"internal_node_id":"0.0-8.0-0.37","subject":"0w9ejsjqufta7zh","sona":"9160"},{"rt":null,"stimulus":"<div style=\"font-size:60px;\">+</div>","key_press":null,"trial_type":"html-keyboard-response","trial_index":156,"time_elapsed":361647,"internal_node_id":"0.0-8.0-1.37","subject":"0w9ejsjqufta7zh","sona":"9160"},{"trial_type":"turing-test","trial_index":157,"time_elapsed":365534,"internal_node_id":"0.0-8.0-2.37","subject":"0w9ejsjqufta7zh","sona":"9160"},{"rt":594,"stimulus":"<p>Welche Sequenz haben Sie als natürlicher empfunden?</p>","key_press":74,"test_part":"response","test_stimulus":{"position":1,"left":"bvh/vr_prediction_models/model(dmp)-dataset(return-bottle-hold)-npsi(80)-hold(4)/final-lines.txt","right":"bvh/return-bottle-hold-training4-lines.txt","att_check":false},"trial_type":"html-keyboard-response","trial_index":158,"time_elapsed":366158,"internal_node_id":"0.0-8.0-3.37","subject":"0w9ejsjqufta7zh","sona":"9160"},{"rt":184,"stimulus":"<p>Bereit?</p>","key_press":32,"trial_type":"html-keyboard-response","trial_index":159,"time_elapsed":366352,"internal_node_id":"0.0-8.0-0.38","subject":"0w9ejsjqufta7zh","sona":"9160"},{"rt":null,"stimulus":"<div style=\"font-size:60px;\">+</div>","key_press":null,"trial_type":"html-keyboard-response","trial_index":160,"time_elapsed":368374,"internal_node_id":"0.0-8.0-1.38","subject":"0w9ejsjqufta7zh","sona":"9160"},{"trial_type":"turing-test","trial_index":161,"time_elapsed":374985,"internal_node_id":"0.0-8.0-2.38","subject":"0w9ejsjqufta7zh","sona":"9160"},{"rt":605,"stimulus":"<p>Welche Sequenz haben Sie als natürlicher empfunden?</p>","key_press":70,"test_part":"response","test_stimulus":{"position":0,"left":"bvh/return-bottle-training2-lines.txt","right":"bvh/vr_prediction_models/model(dmp)-dataset(return-bottle)-npsi(70)-hold(2)/final-lines.txt","att_check":false},"trial_type":"html-keyboard-response","trial_index":162,"time_elapsed":375602,"internal_node_id":"0.0-8.0-3.38","subject":"0w9ejsjqufta7zh","sona":"9160"},{"rt":264,"stimulus":"<p>Bereit?</p>","key_press":32,"trial_type":"html-keyboard-response","trial_index":163,"time_elapsed":375881,"internal_node_id":"0.0-8.0-0.39","subject":"0w9ejsjqufta7zh","sona":"9160"},{"rt":null,"stimulus":"<div style=\"font-size:60px;\">+</div>","key_press":null,"trial_type":"html-keyboard-response","trial_index":164,"time_elapsed":377915,"internal_node_id":"0.0-8.0-1.39","subject":"0w9ejsjqufta7zh","sona":"9160"},{"trial_type":"turing-test","trial_index":165,"time_elapsed":384797,"internal_node_id":"0.0-8.0-2.39","subject":"0w9ejsjqufta7zh","sona":"9160"},{"rt":308,"stimulus":"<p>Welche Sequenz haben Sie als natürlicher empfunden?</p>","key_press":74,"test_part":"response","test_stimulus":{"position":0,"left":"bvh/return-bottle-training2-lines.txt","right":"bvh/vr_prediction_models/model(vcgpdm)-dataset(return-bottle)-mode(MAP)-parts(1)-hold(2)/final-lines.txt","att_check":false},"trial_type":"html-keyboard-response","trial_index":166,"time_elapsed":385114,"internal_node_id":"0.0-8.0-3.39","subject":"0w9ejsjqufta7zh","sona":"9160"},{"rt":198,"stimulus":"<p>Bereit?</p>","key_press":32,"trial_type":"html-keyboard-response","trial_index":167,"time_elapsed":385321,"internal_node_id":"0.0-8.0-0.40","subject":"0w9ejsjqufta7zh","sona":"9160"},{"rt":null,"stimulus":"<div style=\"font-size:60px;\">+</div>","key_press":null,"trial_type":"html-keyboard-response","trial_index":168,"time_elapsed":387348,"internal_node_id":"0.0-8.0-1.40","subject":"0w9ejsjqufta7zh","sona":"9160"},{"trial_type":"turing-test","trial_index":169,"time_elapsed":392414,"internal_node_id":"0.0-8.0-2.40","subject":"0w9ejsjqufta7zh","sona":"9160"},{"rt":520,"stimulus":"<p>Welche Sequenz haben Sie als natürlicher empfunden?</p>","key_press":70,"test_part":"response","test_stimulus":{"position":0,"left":"bvh/return-bottle-hold-training0-lines.txt","right":"bvh/vr_prediction_models/model(tmp)-dataset(return-bottle-hold)-numprim(5)-hold(0)/final-lines.txt","att_check":false},"trial_type":"html-keyboard-response","trial_index":170,"time_elapsed":392944,"internal_node_id":"0.0-8.0-3.40","subject":"0w9ejsjqufta7zh","sona":"9160"},{"rt":260,"stimulus":"<p>Bereit?</p>","key_press":32,"trial_type":"html-keyboard-response","trial_index":171,"time_elapsed":393214,"internal_node_id":"0.0-8.0-0.41","subject":"0w9ejsjqufta7zh","sona":"9160"},{"rt":null,"stimulus":"<div style=\"font-size:60px;\">+</div>","key_press":null,"trial_type":"html-keyboard-response","trial_index":172,"time_elapsed":395231,"internal_node_id":"0.0-8.0-1.41","subject":"0w9ejsjqufta7zh","sona":"9160"},{"trial_type":"turing-test","trial_index":173,"time_elapsed":401289,"internal_node_id":"0.0-8.0-2.41","subject":"0w9ejsjqufta7zh","sona":"9160"},{"rt":603,"stimulus":"<p>Welche Sequenz haben Sie als natürlicher empfunden?</p>","key_press":74,"test_part":"response","test_stimulus":{"position":0,"left":"bvh/pass-bottle-training3-lines.txt","right":"bvh/vr_prediction_models/model(dmp)-dataset(pass-bottle)-npsi(70)-hold(3)/final-lines.txt","att_check":false},"trial_type":"html-keyboard-response","trial_index":174,"time_elapsed":401903,"internal_node_id":"0.0-8.0-3.41","subject":"0w9ejsjqufta7zh","sona":"9160"},{"rt":171,"stimulus":"<p>Bereit?</p>","key_press":32,"trial_type":"html-keyboard-response","trial_index":175,"time_elapsed":402081,"internal_node_id":"0.0-8.0-0.42","subject":"0w9ejsjqufta7zh","sona":"9160"},{"rt":null,"stimulus":"<div style=\"font-size:60px;\">+</div>","key_press":null,"trial_type":"html-keyboard-response","trial_index":176,"time_elapsed":404100,"internal_node_id":"0.0-8.0-1.42","subject":"0w9ejsjqufta7zh","sona":"9160"},{"trial_type":"turing-test","trial_index":177,"time_elapsed":409871,"internal_node_id":"0.0-8.0-2.42","subject":"0w9ejsjqufta7zh","sona":"9160"},{"rt":400,"stimulus":"<p>Welche Sequenz haben Sie als natürlicher empfunden?</p>","key_press":70,"test_part":"response","test_stimulus":{"position":1,"left":"bvh/vr_prediction_models/model(vcgpdm)-dataset(pass-bottle)-mode(ELBO)-parts(1)-dyn(15)-lvm(35)-hold(1)/final-lines.txt","right":"bvh/pass-bottle-training1-lines.txt","att_check":false},"trial_type":"html-keyboard-response","trial_index":178,"time_elapsed":410285,"internal_node_id":"0.0-8.0-3.42","subject":"0w9ejsjqufta7zh","sona":"9160"},{"rt":167,"stimulus":"<p>Bereit?</p>","key_press":32,"trial_type":"html-keyboard-response","trial_index":179,"time_elapsed":410461,"internal_node_id":"0.0-8.0-0.43","subject":"0w9ejsjqufta7zh","sona":"9160"},{"rt":null,"stimulus":"<div style=\"font-size:60px;\">+</div>","key_press":null,"trial_type":"html-keyboard-response","trial_index":180,"time_elapsed":412480,"internal_node_id":"0.0-8.0-1.43","subject":"0w9ejsjqufta7zh","sona":"9160"},{"trial_type":"turing-test","trial_index":181,"time_elapsed":418381,"internal_node_id":"0.0-8.0-2.43","subject":"0w9ejsjqufta7zh","sona":"9160"},{"rt":1088,"stimulus":"<p>Welche Sequenz haben Sie als natürlicher empfunden?</p>","key_press":70,"test_part":"response","test_stimulus":{"position":1,"left":"bvh/vr_prediction_models/model(tmp)-dataset(pass-bottle)-numprim(7)-hold(4)/final-lines.txt","right":"bvh/pass-bottle-training4-lines.txt","att_check":false},"trial_type":"html-keyboard-response","trial_index":182,"time_elapsed":419478,"internal_node_id":"0.0-8.0-3.43","subject":"0w9ejsjqufta7zh","sona":"9160"},{"rt":174,"stimulus":"<p>Bereit?</p>","key_press":32,"trial_type":"html-keyboard-response","trial_index":183,"time_elapsed":419659,"internal_node_id":"0.0-8.0-0.44","subject":"0w9ejsjqufta7zh","sona":"9160"},{"rt":null,"stimulus":"<div style=\"font-size:60px;\">+</div>","key_press":null,"trial_type":"html-keyboard-response","trial_index":184,"time_elapsed":421672,"internal_node_id":"0.0-8.0-1.44","subject":"0w9ejsjqufta7zh","sona":"9160"},{"trial_type":"turing-test","trial_index":185,"time_elapsed":425269,"internal_node_id":"0.0-8.0-2.44","subject":"0w9ejsjqufta7zh","sona":"9160"},{"rt":980,"stimulus":"<p>Welche Sequenz haben Sie als natürlicher empfunden?</p>","key_press":70,"test_part":"response","test_stimulus":{"position":1,"left":"bvh/vr_prediction_models/model(tmp)-dataset(pass-bottle-hold)-numprim(14)-hold(2)/final-lines.txt","right":"bvh/pass-bottle-hold-training2-lines.txt","att_check":false},"trial_type":"html-keyboard-response","trial_index":186,"time_elapsed":426258,"internal_node_id":"0.0-8.0-3.44","subject":"0w9ejsjqufta7zh","sona":"9160"},{"rt":204,"stimulus":"<p>Bereit?</p>","key_press":32,"trial_type":"html-keyboard-response","trial_index":187,"time_elapsed":426475,"internal_node_id":"0.0-8.0-0.45","subject":"0w9ejsjqufta7zh","sona":"9160"},{"rt":null,"stimulus":"<div style=\"font-size:60px;\">+</div>","key_press":null,"trial_type":"html-keyboard-response","trial_index":188,"time_elapsed":428509,"internal_node_id":"0.0-8.0-1.45","subject":"0w9ejsjqufta7zh","sona":"9160"},{"trial_type":"turing-test","trial_index":189,"time_elapsed":435352,"internal_node_id":"0.0-8.0-2.45","subject":"0w9ejsjqufta7zh","sona":"9160"},{"rt":659,"stimulus":"<p>Welche Sequenz haben Sie als natürlicher empfunden?</p>","key_press":74,"test_part":"response","test_stimulus":{"position":1,"left":"bvh/vr_prediction_models/model(vcgpdm)-dataset(return-bottle)-mode(ELBO)-parts(1)-dyn(15)-lvm(35)-hold(2)/final-lines.txt","right":"bvh/return-bottle-training2-lines.txt","att_check":false},"trial_type":"html-keyboard-response","trial_index":190,"time_elapsed":436019,"internal_node_id":"0.0-8.0-3.45","subject":"0w9ejsjqufta7zh","sona":"9160"},{"rt":234,"stimulus":"<p>Bereit?</p>","key_press":32,"trial_type":"html-keyboard-response","trial_index":191,"time_elapsed":436264,"internal_node_id":"0.0-8.0-0.46","subject":"0w9ejsjqufta7zh","sona":"9160"},{"rt":null,"stimulus":"<div style=\"font-size:60px;\">+</div>","key_press":null,"trial_type":"html-keyboard-response","trial_index":192,"time_elapsed":438301,"internal_node_id":"0.0-8.0-1.46","subject":"0w9ejsjqufta7zh","sona":"9160"},{"trial_type":"turing-test","trial_index":193,"time_elapsed":444443,"internal_node_id":"0.0-8.0-2.46","subject":"0w9ejsjqufta7zh","sona":"9160"},{"rt":541,"stimulus":"<p>Welche Sequenz haben Sie als natürlicher empfunden?</p>","key_press":70,"test_part":"response","test_stimulus":{"position":0,"left":"bvh/pass-bottle-training3-lines.txt","right":"bvh/vr_prediction_models/model(vcgpdm)-dataset(pass-bottle)-mode(ELBO)-parts(3)-dyn(30)-lvm(15)-hold(3)/final-lines.txt","att_check":false},"trial_type":"html-keyboard-response","trial_index":194,"time_elapsed":444992,"internal_node_id":"0.0-8.0-3.46","subject":"0w9ejsjqufta7zh","sona":"9160"},{"rt":208,"stimulus":"<p>Bereit?</p>","key_press":32,"trial_type":"html-keyboard-response","trial_index":195,"time_elapsed":445207,"internal_node_id":"0.0-8.0-0.47","subject":"0w9ejsjqufta7zh","sona":"9160"},{"rt":null,"stimulus":"<div style=\"font-size:60px;\">+</div>","key_press":null,"trial_type":"html-keyboard-response","trial_index":196,"time_elapsed":447241,"internal_node_id":"0.0-8.0-1.47","subject":"0w9ejsjqufta7zh","sona":"9160"},{"trial_type":"turing-test","trial_index":197,"time_elapsed":452544,"internal_node_id":"0.0-8.0-2.47","subject":"0w9ejsjqufta7zh","sona":"9160"},{"rt":770,"stimulus":"<p>Welche Sequenz haben Sie als natürlicher empfunden?</p>","key_press":70,"test_part":"response","test_stimulus":{"position":0,"left":"bvh/return-bottle-hold-training0-lines.txt","right":"bvh/vr_prediction_models/model(dmp)-dataset(return-bottle-hold)-npsi(90)-hold(0)/final-lines.txt","att_check":true},"trial_type":"html-keyboard-response","trial_index":198,"time_elapsed":453322,"internal_node_id":"0.0-8.0-3.47","subject":"0w9ejsjqufta7zh","sona":"9160"},{"rt":179,"stimulus":"<p>Bereit?</p>","key_press":32,"trial_type":"html-keyboard-response","trial_index":199,"time_elapsed":453511,"internal_node_id":"0.0-8.0-0.48","subject":"0w9ejsjqufta7zh","sona":"9160"},{"rt":null,"stimulus":"<div style=\"font-size:60px;\">+</div>","key_press":null,"trial_type":"html-keyboard-response","trial_index":200,"time_elapsed":455546,"internal_node_id":"0.0-8.0-1.48","subject":"0w9ejsjqufta7zh","sona":"9160"},{"trial_type":"turing-test","trial_index":201,"time_elapsed":460326,"internal_node_id":"0.0-8.0-2.48","subject":"0w9ejsjqufta7zh","sona":"9160"},{"rt":590,"stimulus":"<p>Welche Sequenz haben Sie als natürlicher empfunden?</p>","key_press":74,"test_part":"response","test_stimulus":{"position":1,"left":"bvh/vr_prediction_models/model(vcgpdm)-dataset(return-bottle-hold)-mode(ELBO)-parts(3)-dyn(25)-lvm(25)-hold(3)/final-lines.txt","right":"bvh/return-bottle-hold-training3-lines.txt","att_check":false},"trial_type":"html-keyboard-response","trial_index":202,"time_elapsed":460929,"internal_node_id":"0.0-8.0-3.48","subject":"0w9ejsjqufta7zh","sona":"9160"},{"rt":292,"stimulus":"<p>Bereit?</p>","key_press":32,"trial_type":"html-keyboard-response","trial_index":203,"time_elapsed":461230,"internal_node_id":"0.0-8.0-0.49","subject":"0w9ejsjqufta7zh","sona":"9160"},{"rt":null,"stimulus":"<div style=\"font-size:60px;\">+</div>","key_press":null,"trial_type":"html-keyboard-response","trial_index":204,"time_elapsed":463266,"internal_node_id":"0.0-8.0-1.49","subject":"0w9ejsjqufta7zh","sona":"9160"},{"trial_type":"turing-test","trial_index":205,"time_elapsed":470352,"internal_node_id":"0.0-8.0-2.49","subject":"0w9ejsjqufta7zh","sona":"9160"},{"rt":342,"stimulus":"<p>Welche Sequenz haben Sie als natürlicher empfunden?</p>","key_press":74,"test_part":"response","test_stimulus":{"position":0,"left":"bvh/pass-bottle-training0-lines.txt","right":"bvh/vr_prediction_models/model(vcgpdm)-dataset(pass-bottle)-mode(ELBO)-parts(1)-dyn(30)-lvm(30)-hold(0)/final-lines.txt","att_check":false},"trial_type":"html-keyboard-response","trial_index":206,"time_elapsed":470710,"internal_node_id":"0.0-8.0-3.49","subject":"0w9ejsjqufta7zh","sona":"9160"},{"rt":174,"stimulus":"<p>Bereit?</p>","key_press":32,"trial_type":"html-keyboard-response","trial_index":207,"time_elapsed":470892,"internal_node_id":"0.0-8.0-0.50","subject":"0w9ejsjqufta7zh","sona":"9160"},{"rt":null,"stimulus":"<div style=\"font-size:60px;\">+</div>","key_press":null,"trial_type":"html-keyboard-response","trial_index":208,"time_elapsed":472923,"internal_node_id":"0.0-8.0-1.50","subject":"0w9ejsjqufta7zh","sona":"9160"},{"trial_type":"turing-test","trial_index":209,"time_elapsed":476453,"internal_node_id":"0.0-8.0-2.50","subject":"0w9ejsjqufta7zh","sona":"9160"},{"rt":2232,"stimulus":"<p>Welche Sequenz haben Sie als natürlicher empfunden?</p>","key_press":70,"test_part":"response","test_stimulus":{"position":1,"left":"bvh/vr_prediction_models/model(tmp)-dataset(pass-bottle-hold)-numprim(3)-hold(0)/final-lines.txt","right":"bvh/pass-bottle-hold-training0-lines.txt","att_check":false},"trial_type":"html-keyboard-response","trial_index":210,"time_elapsed":478692,"internal_node_id":"0.0-8.0-3.50","subject":"0w9ejsjqufta7zh","sona":"9160"},{"rt":227,"stimulus":"<p>Bereit?</p>","key_press":32,"trial_type":"html-keyboard-response","trial_index":211,"time_elapsed":478928,"internal_node_id":"0.0-8.0-0.51","subject":"0w9ejsjqufta7zh","sona":"9160"},{"rt":null,"stimulus":"<div style=\"font-size:60px;\">+</div>","key_press":null,"trial_type":"html-keyboard-response","trial_index":212,"time_elapsed":480938,"internal_node_id":"0.0-8.0-1.51","subject":"0w9ejsjqufta7zh","sona":"9160"},{"trial_type":"turing-test","trial_index":213,"time_elapsed":487030,"internal_node_id":"0.0-8.0-2.51","subject":"0w9ejsjqufta7zh","sona":"9160"},{"rt":566,"stimulus":"<p>Welche Sequenz haben Sie als natürlicher empfunden?</p>","key_press":70,"test_part":"response","test_stimulus":{"position":0,"left":"bvh/pass-bottle-training3-lines.txt","right":"bvh/vr_prediction_models/model(dmp)-dataset(pass-bottle)-npsi(30)-hold(3)/final-lines.txt","att_check":false},"trial_type":"html-keyboard-response","trial_index":214,"time_elapsed":487606,"internal_node_id":"0.0-8.0-3.51","subject":"0w9ejsjqufta7zh","sona":"9160"},{"rt":177,"stimulus":"<p>Bereit?</p>","key_press":32,"trial_type":"html-keyboard-response","trial_index":215,"time_elapsed":487793,"internal_node_id":"0.0-8.0-0.52","subject":"0w9ejsjqufta7zh","sona":"9160"},{"rt":null,"stimulus":"<div style=\"font-size:60px;\">+</div>","key_press":null,"trial_type":"html-keyboard-response","trial_index":216,"time_elapsed":489814,"internal_node_id":"0.0-8.0-1.52","subject":"0w9ejsjqufta7zh","sona":"9160"},{"trial_type":"turing-test","trial_index":217,"time_elapsed":496140,"internal_node_id":"0.0-8.0-2.52","subject":"0w9ejsjqufta7zh","sona":"9160"},{"rt":712,"stimulus":"<p>Welche Sequenz haben Sie als natürlicher empfunden?</p>","key_press":70,"test_part":"response","test_stimulus":{"position":0,"left":"bvh/pass-bottle-hold-training2-lines.txt","right":"bvh/vr_prediction_models/model(vcgpdm)-dataset(pass-bottle-hold)-mode(ELBO)-parts(1)-dyn(10)-lvm(25)-hold(2)/final-lines.txt","att_check":false},"trial_type":"html-keyboard-response","trial_index":218,"time_elapsed":496862,"internal_node_id":"0.0-8.0-3.52","subject":"0w9ejsjqufta7zh","sona":"9160"},{"rt":241,"stimulus":"<p>Bereit?</p>","key_press":32,"trial_type":"html-keyboard-response","trial_index":219,"time_elapsed":497112,"internal_node_id":"0.0-8.0-0.53","subject":"0w9ejsjqufta7zh","sona":"9160"},{"rt":null,"stimulus":"<div style=\"font-size:60px;\">+</div>","key_press":null,"trial_type":"html-keyboard-response","trial_index":220,"time_elapsed":499140,"internal_node_id":"0.0-8.0-1.53","subject":"0w9ejsjqufta7zh","sona":"9160"},{"trial_type":"turing-test","trial_index":221,"time_elapsed":503216,"internal_node_id":"0.0-8.0-2.53","subject":"0w9ejsjqufta7zh","sona":"9160"},{"rt":457,"stimulus":"<p>Welche Sequenz haben Sie als natürlicher empfunden?</p>","key_press":74,"test_part":"response","test_stimulus":{"position":1,"left":"bvh/vr_prediction_models/model(vcgpdm)-dataset(pass-bottle-hold)-mode(ELBO)-parts(3)-dyn(20)-lvm(20)-hold(4)/final-lines.txt","right":"bvh/pass-bottle-hold-training4-lines.txt","att_check":false},"trial_type":"html-keyboard-response","trial_index":222,"time_elapsed":503685,"internal_node_id":"0.0-8.0-3.53","subject":"0w9ejsjqufta7zh","sona":"9160"},{"rt":166,"stimulus":"<p>Bereit?</p>","key_press":32,"trial_type":"html-keyboard-response","trial_index":223,"time_elapsed":503860,"internal_node_id":"0.0-8.0-0.54","subject":"0w9ejsjqufta7zh","sona":"9160"},{"rt":null,"stimulus":"<div style=\"font-size:60px;\">+</div>","key_press":null,"trial_type":"html-keyboard-response","trial_index":224,"time_elapsed":505886,"internal_node_id":"0.0-8.0-1.54","subject":"0w9ejsjqufta7zh","sona":"9160"},{"trial_type":"turing-test","trial_index":225,"time_elapsed":511629,"internal_node_id":"0.0-8.0-2.54","subject":"0w9ejsjqufta7zh","sona":"9160"},{"rt":403,"stimulus":"<p>Welche Sequenz haben Sie als natürlicher empfunden?</p>","key_press":70,"test_part":"response","test_stimulus":{"position":0,"left":"bvh/return-bottle-hold-training0-lines.txt","right":"bvh/vr_prediction_models/model(tmp)-dataset(return-bottle-hold)-numprim(15)-hold(0)/final-lines.txt","att_check":false},"trial_type":"html-keyboard-response","trial_index":226,"time_elapsed":512042,"internal_node_id":"0.0-8.0-3.54","subject":"0w9ejsjqufta7zh","sona":"9160"},{"rt":200,"stimulus":"<p>Bereit?</p>","key_press":32,"trial_type":"html-keyboard-response","trial_index":227,"time_elapsed":512252,"internal_node_id":"0.0-8.0-0.55","subject":"0w9ejsjqufta7zh","sona":"9160"},{"rt":null,"stimulus":"<div style=\"font-size:60px;\">+</div>","key_press":null,"trial_type":"html-keyboard-response","trial_index":228,"time_elapsed":514258,"internal_node_id":"0.0-8.0-1.55","subject":"0w9ejsjqufta7zh","sona":"9160"},{"trial_type":"turing-test","trial_index":229,"time_elapsed":520420,"internal_node_id":"0.0-8.0-2.55","subject":"0w9ejsjqufta7zh","sona":"9160"},{"rt":364,"stimulus":"<p>Welche Sequenz haben Sie als natürlicher empfunden?</p>","key_press":70,"test_part":"response","test_stimulus":{"position":0,"left":"bvh/return-bottle-training4-lines.txt","right":"bvh/vr_prediction_models/model(vcgpdm)-dataset(return-bottle)-mode(ELBO)-parts(1)-dyn(35)-lvm(10)-hold(4)/final-lines.txt","att_check":false},"trial_type":"html-keyboard-response","trial_index":230,"time_elapsed":520793,"internal_node_id":"0.0-8.0-3.55","subject":"0w9ejsjqufta7zh","sona":"9160"},{"rt":150,"stimulus":"<p>Bereit?</p>","key_press":32,"trial_type":"html-keyboard-response","trial_index":231,"time_elapsed":520952,"internal_node_id":"0.0-8.0-0.56","subject":"0w9ejsjqufta7zh","sona":"9160"},{"rt":null,"stimulus":"<div style=\"font-size:60px;\">+</div>","key_press":null,"trial_type":"html-keyboard-response","trial_index":232,"time_elapsed":522977,"internal_node_id":"0.0-8.0-1.56","subject":"0w9ejsjqufta7zh","sona":"9160"},{"trial_type":"turing-test","trial_index":233,"time_elapsed":526888,"internal_node_id":"0.0-8.0-2.56","subject":"0w9ejsjqufta7zh","sona":"9160"},{"rt":526,"stimulus":"<p>Welche Sequenz haben Sie als natürlicher empfunden?</p>","key_press":70,"test_part":"response","test_stimulus":{"position":0,"left":"bvh/return-bottle-hold-training4-lines.txt","right":"bvh/vr_prediction_models/model(tmp)-dataset(return-bottle-hold)-numprim(4)-hold(4)/final-lines.txt","att_check":false},"trial_type":"html-keyboard-response","trial_index":234,"time_elapsed":527423,"internal_node_id":"0.0-8.0-3.56","subject":"0w9ejsjqufta7zh","sona":"9160"},{"rt":189,"stimulus":"<p>Bereit?</p>","key_press":32,"trial_type":"html-keyboard-response","trial_index":235,"time_elapsed":527621,"internal_node_id":"0.0-8.0-0.57","subject":"0w9ejsjqufta7zh","sona":"9160"},{"rt":null,"stimulus":"<div style=\"font-size:60px;\">+</div>","key_press":null,"trial_type":"html-keyboard-response","trial_index":236,"time_elapsed":529647,"internal_node_id":"0.0-8.0-1.57","subject":"0w9ejsjqufta7zh","sona":"9160"},{"trial_type":"turing-test","trial_index":237,"time_elapsed":533367,"internal_node_id":"0.0-8.0-2.57","subject":"0w9ejsjqufta7zh","sona":"9160"},{"rt":772,"stimulus":"<p>Welche Sequenz haben Sie als natürlicher empfunden?</p>","key_press":74,"test_part":"response","test_stimulus":{"position":1,"left":"bvh/vr_prediction_models/model(dmp)-dataset(return-bottle-hold)-npsi(80)-hold(3)/final-lines.txt","right":"bvh/return-bottle-hold-training3-lines.txt","att_check":false},"trial_type":"html-keyboard-response","trial_index":238,"time_elapsed":534149,"internal_node_id":"0.0-8.0-3.57","subject":"0w9ejsjqufta7zh","sona":"9160"},{"rt":208,"stimulus":"<p>Bereit?</p>","key_press":32,"trial_type":"html-keyboard-response","trial_index":239,"time_elapsed":534367,"internal_node_id":"0.0-8.0-0.58","subject":"0w9ejsjqufta7zh","sona":"9160"},{"rt":null,"stimulus":"<div style=\"font-size:60px;\">+</div>","key_press":null,"trial_type":"html-keyboard-response","trial_index":240,"time_elapsed":536382,"internal_node_id":"0.0-8.0-1.58","subject":"0w9ejsjqufta7zh","sona":"9160"},{"trial_type":"turing-test","trial_index":241,"time_elapsed":540140,"internal_node_id":"0.0-8.0-2.58","subject":"0w9ejsjqufta7zh","sona":"9160"},{"rt":583,"stimulus":"<p>Welche Sequenz haben Sie als natürlicher empfunden?</p>","key_press":70,"test_part":"response","test_stimulus":{"position":1,"left":"bvh/vr_prediction_models/model(vcgpdm)-dataset(return-bottle-hold)-mode(ELBO)-parts(3)-dyn(25)-lvm(15)-hold(2)/final-lines.txt","right":"bvh/return-bottle-hold-training2-lines.txt","att_check":false},"trial_type":"html-keyboard-response","trial_index":242,"time_elapsed":540733,"internal_node_id":"0.0-8.0-3.58","subject":"0w9ejsjqufta7zh","sona":"9160"},{"rt":214,"stimulus":"<p>Bereit?</p>","key_press":32,"trial_type":"html-keyboard-response","trial_index":243,"time_elapsed":540951,"internal_node_id":"0.0-8.0-0.59","subject":"0w9ejsjqufta7zh","sona":"9160"},{"rt":null,"stimulus":"<div style=\"font-size:60px;\">+</div>","key_press":null,"trial_type":"html-keyboard-response","trial_index":244,"time_elapsed":542980,"internal_node_id":"0.0-8.0-1.59","subject":"0w9ejsjqufta7zh","sona":"9160"},{"trial_type":"turing-test","trial_index":245,"time_elapsed":546729,"internal_node_id":"0.0-8.0-2.59","subject":"0w9ejsjqufta7zh","sona":"9160"},{"rt":600,"stimulus":"<p>Welche Sequenz haben Sie als natürlicher empfunden?</p>","key_press":74,"test_part":"response","test_stimulus":{"position":0,"left":"bvh/pass-bottle-hold-training4-lines.txt","right":"bvh/vr_prediction_models/model(dmp)-dataset(pass-bottle-hold)-npsi(30)-hold(4)/final-lines.txt","att_check":false},"trial_type":"html-keyboard-response","trial_index":246,"time_elapsed":547341,"internal_node_id":"0.0-8.0-3.59","subject":"0w9ejsjqufta7zh","sona":"9160"},{"rt":151,"stimulus":"<p>Bereit?</p>","key_press":32,"trial_type":"html-keyboard-response","trial_index":247,"time_elapsed":547503,"internal_node_id":"0.0-8.0-0.60","subject":"0w9ejsjqufta7zh","sona":"9160"},{"rt":null,"stimulus":"<div style=\"font-size:60px;\">+</div>","key_press":null,"trial_type":"html-keyboard-response","trial_index":248,"time_elapsed":549513,"internal_node_id":"0.0-8.0-1.60","subject":"0w9ejsjqufta7zh","sona":"9160"},{"trial_type":"turing-test","trial_index":249,"time_elapsed":553168,"internal_node_id":"0.0-8.0-2.60","subject":"0w9ejsjqufta7zh","sona":"9160"},{"rt":389,"stimulus":"<p>Welche Sequenz haben Sie als natürlicher empfunden?</p>","key_press":74,"test_part":"response","test_stimulus":{"position":1,"left":"bvh/vr_prediction_models/model(tmp)-dataset(return-bottle-hold)-numprim(15)-hold(2)/final-lines.txt","right":"bvh/return-bottle-hold-training2-lines.txt","att_check":false},"trial_type":"html-keyboard-response","trial_index":250,"time_elapsed":553569,"internal_node_id":"0.0-8.0-3.60","subject":"0w9ejsjqufta7zh","sona":"9160"},{"rt":158,"stimulus":"<p>Bereit?</p>","key_press":32,"trial_type":"html-keyboard-response","trial_index":251,"time_elapsed":553738,"internal_node_id":"0.0-8.0-0.61","subject":"0w9ejsjqufta7zh","sona":"9160"},{"rt":null,"stimulus":"<div style=\"font-size:60px;\">+</div>","key_press":null,"trial_type":"html-keyboard-response","trial_index":252,"time_elapsed":555764,"internal_node_id":"0.0-8.0-1.61","subject":"0w9ejsjqufta7zh","sona":"9160"},{"trial_type":"turing-test","trial_index":253,"time_elapsed":561418,"internal_node_id":"0.0-8.0-2.61","subject":"0w9ejsjqufta7zh","sona":"9160"},{"rt":2358,"stimulus":"<p>Welche Sequenz haben Sie als natürlicher empfunden?</p>","key_press":74,"test_part":"response","test_stimulus":{"position":0,"left":"bvh/return-bottle-training0-lines.txt","right":"bvh/vr_prediction_models/model(vcgpdm)-dataset(return-bottle)-mode(ELBO)-parts(1)-dyn(10)-lvm(25)-hold(0)/final-lines.txt","att_check":false},"trial_type":"html-keyboard-response","trial_index":254,"time_elapsed":563789,"internal_node_id":"0.0-8.0-3.61","subject":"0w9ejsjqufta7zh","sona":"9160"},{"rt":140,"stimulus":"<p>Bereit?</p>","key_press":32,"trial_type":"html-keyboard-response","trial_index":255,"time_elapsed":563940,"internal_node_id":"0.0-8.0-0.62","subject":"0w9ejsjqufta7zh","sona":"9160"},{"rt":null,"stimulus":"<div style=\"font-size:60px;\">+</div>","key_press":null,"trial_type":"html-keyboard-response","trial_index":256,"time_elapsed":565959,"internal_node_id":"0.0-8.0-1.62","subject":"0w9ejsjqufta7zh","sona":"9160"},{"trial_type":"turing-test","trial_index":257,"time_elapsed":569849,"internal_node_id":"0.0-8.0-2.62","subject":"0w9ejsjqufta7zh","sona":"9160"},{"rt":652,"stimulus":"<p>Welche Sequenz haben Sie als natürlicher empfunden?</p>","key_press":70,"test_part":"response","test_stimulus":{"position":1,"left":"bvh/vr_prediction_models/model(vcgpdm)-dataset(pass-bottle-hold)-mode(ELBO)-parts(3)-dyn(15)-lvm(30)-hold(4)/final-lines.txt","right":"bvh/pass-bottle-hold-training4-lines.txt","att_check":false},"trial_type":"html-keyboard-response","trial_index":258,"time_elapsed":570512,"internal_node_id":"0.0-8.0-3.62","subject":"0w9ejsjqufta7zh","sona":"9160"},{"rt":176,"stimulus":"<p>Bereit?</p>","key_press":32,"trial_type":"html-keyboard-response","trial_index":259,"time_elapsed":570694,"internal_node_id":"0.0-8.0-0.63","subject":"0w9ejsjqufta7zh","sona":"9160"},{"rt":null,"stimulus":"<div style=\"font-size:60px;\">+</div>","key_press":null,"trial_type":"html-keyboard-response","trial_index":260,"time_elapsed":572708,"internal_node_id":"0.0-8.0-1.63","subject":"0w9ejsjqufta7zh","sona":"9160"},{"trial_type":"turing-test","trial_index":261,"time_elapsed":576256,"internal_node_id":"0.0-8.0-2.63","subject":"0w9ejsjqufta7zh","sona":"9160"},{"rt":559,"stimulus":"<p>Welche Sequenz haben Sie als natürlicher empfunden?</p>","key_press":70,"test_part":"response","test_stimulus":{"position":1,"left":"bvh/vr_prediction_models/model(dmp)-dataset(pass-bottle-hold)-npsi(70)-hold(2)/final-lines.txt","right":"bvh/pass-bottle-hold-training2-lines.txt","att_check":false},"trial_type":"html-keyboard-response","trial_index":262,"time_elapsed":576828,"internal_node_id":"0.0-8.0-3.63","subject":"0w9ejsjqufta7zh","sona":"9160"},{"rt":183,"stimulus":"<p>Bereit?</p>","key_press":32,"trial_type":"html-keyboard-response","trial_index":263,"time_elapsed":577023,"internal_node_id":"0.0-8.0-0.64","subject":"0w9ejsjqufta7zh","sona":"9160"},{"rt":null,"stimulus":"<div style=\"font-size:60px;\">+</div>","key_press":null,"trial_type":"html-keyboard-response","trial_index":264,"time_elapsed":579052,"internal_node_id":"0.0-8.0-1.64","subject":"0w9ejsjqufta7zh","sona":"9160"},{"trial_type":"turing-test","trial_index":265,"time_elapsed":585524,"internal_node_id":"0.0-8.0-2.64","subject":"0w9ejsjqufta7zh","sona":"9160"},{"rt":969,"stimulus":"<p>Welche Sequenz haben Sie als natürlicher empfunden?</p>","key_press":74,"test_part":"response","test_stimulus":{"position":1,"left":"bvh/vr_prediction_models/model(tmp)-dataset(return-bottle)-numprim(4)-hold(3)/final-lines.txt","right":"bvh/return-bottle-training3-lines.txt","att_check":false},"trial_type":"html-keyboard-response","trial_index":266,"time_elapsed":586505,"internal_node_id":"0.0-8.0-3.64","subject":"0w9ejsjqufta7zh","sona":"9160"},{"rt":203,"stimulus":"<p>Bereit?</p>","key_press":32,"trial_type":"html-keyboard-response","trial_index":267,"time_elapsed":586723,"internal_node_id":"0.0-8.0-0.65","subject":"0w9ejsjqufta7zh","sona":"9160"},{"rt":null,"stimulus":"<div style=\"font-size:60px;\">+</div>","key_press":null,"trial_type":"html-keyboard-response","trial_index":268,"time_elapsed":588732,"internal_node_id":"0.0-8.0-1.65","subject":"0w9ejsjqufta7zh","sona":"9160"},{"trial_type":"turing-test","trial_index":269,"time_elapsed":592312,"internal_node_id":"0.0-8.0-2.65","subject":"0w9ejsjqufta7zh","sona":"9160"},{"rt":474,"stimulus":"<p>Welche Sequenz haben Sie als natürlicher empfunden?</p>","key_press":70,"test_part":"response","test_stimulus":{"position":0,"left":"bvh/return-bottle-hold-training3-lines.txt","right":"bvh/vr_prediction_models/model(vcgpdm)-dataset(return-bottle-hold)-mode(ELBO)-parts(3)-dyn(25)-lvm(25)-hold(3)/final-lines.txt","att_check":false},"trial_type":"html-keyboard-response","trial_index":270,"time_elapsed":592798,"internal_node_id":"0.0-8.0-3.65","subject":"0w9ejsjqufta7zh","sona":"9160"},{"rt":246,"stimulus":"<p>Bereit?</p>","key_press":32,"trial_type":"html-keyboard-response","trial_index":271,"time_elapsed":593054,"internal_node_id":"0.0-8.0-0.66","subject":"0w9ejsjqufta7zh","sona":"9160"},{"rt":null,"stimulus":"<div style=\"font-size:60px;\">+</div>","key_press":null,"trial_type":"html-keyboard-response","trial_index":272,"time_elapsed":595087,"internal_node_id":"0.0-8.0-1.66","subject":"0w9ejsjqufta7zh","sona":"9160"},{"trial_type":"turing-test","trial_index":273,"time_elapsed":598942,"internal_node_id":"0.0-8.0-2.66","subject":"0w9ejsjqufta7zh","sona":"9160"},{"rt":347,"stimulus":"<p>Welche Sequenz haben Sie als natürlicher empfunden?</p>","key_press":74,"test_part":"response","test_stimulus":{"position":1,"left":"bvh/vr_prediction_models/model(tmp)-dataset(return-bottle-hold)-numprim(14)-hold(3)/final-lines.txt","right":"bvh/return-bottle-hold-training3-lines.txt","att_check":false},"trial_type":"html-keyboard-response","trial_index":274,"time_elapsed":599296,"internal_node_id":"0.0-8.0-3.66","subject":"0w9ejsjqufta7zh","sona":"9160"},{"rt":154,"stimulus":"<p>Bereit?</p>","key_press":32,"trial_type":"html-keyboard-response","trial_index":275,"time_elapsed":599460,"internal_node_id":"0.0-8.0-0.67","subject":"0w9ejsjqufta7zh","sona":"9160"},{"rt":null,"stimulus":"<div style=\"font-size:60px;\">+</div>","key_press":null,"trial_type":"html-keyboard-response","trial_index":276,"time_elapsed":601482,"internal_node_id":"0.0-8.0-1.67","subject":"0w9ejsjqufta7zh","sona":"9160"},{"trial_type":"turing-test","trial_index":277,"time_elapsed":606134,"internal_node_id":"0.0-8.0-2.67","subject":"0w9ejsjqufta7zh","sona":"9160"},{"rt":458,"stimulus":"<p>Welche Sequenz haben Sie als natürlicher empfunden?</p>","key_press":74,"test_part":"response","test_stimulus":{"position":0,"left":"bvh/pass-bottle-hold-training0-lines.txt","right":"bvh/vr_prediction_models/model(dmp)-dataset(pass-bottle-hold)-npsi(80)-hold(0)/final-lines.txt","att_check":false},"trial_type":"html-keyboard-response","trial_index":278,"time_elapsed":606605,"internal_node_id":"0.0-8.0-3.67","subject":"0w9ejsjqufta7zh","sona":"9160"},{"rt":202,"stimulus":"<p>Bereit?</p>","key_press":32,"trial_type":"html-keyboard-response","trial_index":279,"time_elapsed":606819,"internal_node_id":"0.0-8.0-0.68","subject":"0w9ejsjqufta7zh","sona":"9160"},{"rt":null,"stimulus":"<div style=\"font-size:60px;\">+</div>","key_press":null,"trial_type":"html-keyboard-response","trial_index":280,"time_elapsed":608833,"internal_node_id":"0.0-8.0-1.68","subject":"0w9ejsjqufta7zh","sona":"9160"},{"trial_type":"turing-test","trial_index":281,"time_elapsed":614544,"internal_node_id":"0.0-8.0-2.68","subject":"0w9ejsjqufta7zh","sona":"9160"},{"rt":441,"stimulus":"<p>Welche Sequenz haben Sie als natürlicher empfunden?</p>","key_press":74,"test_part":"response","test_stimulus":{"position":1,"left":"bvh/vr_prediction_models/model(dmp)-dataset(pass-bottle)-npsi(100)-hold(1)/final-lines.txt","right":"bvh/pass-bottle-training1-lines.txt","att_check":false},"trial_type":"html-keyboard-response","trial_index":282,"time_elapsed":614998,"internal_node_id":"0.0-8.0-3.68","subject":"0w9ejsjqufta7zh","sona":"9160"},{"rt":133,"stimulus":"<p>Bereit?</p>","key_press":32,"trial_type":"html-keyboard-response","trial_index":283,"time_elapsed":615142,"internal_node_id":"0.0-8.0-0.69","subject":"0w9ejsjqufta7zh","sona":"9160"},{"rt":null,"stimulus":"<div style=\"font-size:60px;\">+</div>","key_press":null,"trial_type":"html-keyboard-response","trial_index":284,"time_elapsed":617184,"internal_node_id":"0.0-8.0-1.69","subject":"0w9ejsjqufta7zh","sona":"9160"},{"trial_type":"turing-test","trial_index":285,"time_elapsed":623184,"internal_node_id":"0.0-8.0-2.69","subject":"0w9ejsjqufta7zh","sona":"9160"},{"rt":489,"stimulus":"<p>Welche Sequenz haben Sie als natürlicher empfunden?</p>","key_press":74,"test_part":"response","test_stimulus":{"position":0,"left":"bvh/return-bottle-training3-lines.txt","right":"bvh/vr_prediction_models/model(dmp)-dataset(return-bottle)-npsi(30)-hold(3)/final-lines.txt","att_check":true},"trial_type":"html-keyboard-response","trial_index":286,"time_elapsed":623683,"internal_node_id":"0.0-8.0-3.69","subject":"0w9ejsjqufta7zh","sona":"9160"},{"rt":156,"stimulus":"<p>Bereit?</p>","key_press":32,"trial_type":"html-keyboard-response","trial_index":287,"time_elapsed":623849,"internal_node_id":"0.0-8.0-0.70","subject":"0w9ejsjqufta7zh","sona":"9160"},{"rt":null,"stimulus":"<div style=\"font-size:60px;\">+</div>","key_press":null,"trial_type":"html-keyboard-response","trial_index":288,"time_elapsed":625854,"internal_node_id":"0.0-8.0-1.70","subject":"0w9ejsjqufta7zh","sona":"9160"},{"trial_type":"turing-test","trial_index":289,"time_elapsed":629560,"internal_node_id":"0.0-8.0-2.70","subject":"0w9ejsjqufta7zh","sona":"9160"},{"rt":2924,"stimulus":"<p>Welche Sequenz haben Sie als natürlicher empfunden?</p>","key_press":70,"test_part":"response","test_stimulus":{"position":1,"left":"bvh/vr_prediction_models/model(vcgpdm)-dataset(return-bottle-hold)-mode(ELBO)-parts(1)-dyn(10)-lvm(25)-hold(1)/final-lines.txt","right":"bvh/return-bottle-hold-training1-lines.txt","att_check":false},"trial_type":"html-keyboard-response","trial_index":290,"time_elapsed":632495,"internal_node_id":"0.0-8.0-3.70","subject":"0w9ejsjqufta7zh","sona":"9160"},{"rt":207,"stimulus":"<p>Bereit?</p>","key_press":32,"trial_type":"html-keyboard-response","trial_index":291,"time_elapsed":632713,"internal_node_id":"0.0-8.0-0.71","subject":"0w9ejsjqufta7zh","sona":"9160"},{"rt":null,"stimulus":"<div style=\"font-size:60px;\">+</div>","key_press":null,"trial_type":"html-keyboard-response","trial_index":292,"time_elapsed":634740,"internal_node_id":"0.0-8.0-1.71","subject":"0w9ejsjqufta7zh","sona":"9160"},{"trial_type":"turing-test","trial_index":293,"time_elapsed":638377,"internal_node_id":"0.0-8.0-2.71","subject":"0w9ejsjqufta7zh","sona":"9160"},{"rt":496,"stimulus":"<p>Welche Sequenz haben Sie als natürlicher empfunden?</p>","key_press":70,"test_part":"response","test_stimulus":{"position":1,"left":"bvh/vr_prediction_models/model(dmp)-dataset(pass-bottle-hold)-npsi(100)-hold(0)/final-lines.txt","right":"bvh/pass-bottle-hold-training0-lines.txt","att_check":false},"trial_type":"html-keyboard-response","trial_index":294,"time_elapsed":638885,"internal_node_id":"0.0-8.0-3.71","subject":"0w9ejsjqufta7zh","sona":"9160"},{"rt":186,"stimulus":"<p>Bereit?</p>","key_press":32,"trial_type":"html-keyboard-response","trial_index":295,"time_elapsed":639085,"internal_node_id":"0.0-8.0-0.72","subject":"0w9ejsjqufta7zh","sona":"9160"},{"rt":null,"stimulus":"<div style=\"font-size:60px;\">+</div>","key_press":null,"trial_type":"html-keyboard-response","trial_index":296,"time_elapsed":641106,"internal_node_id":"0.0-8.0-1.72","subject":"0w9ejsjqufta7zh","sona":"9160"},{"trial_type":"turing-test","trial_index":297,"time_elapsed":645046,"internal_node_id":"0.0-8.0-2.72","subject":"0w9ejsjqufta7zh","sona":"9160"},{"rt":333,"stimulus":"<p>Welche Sequenz haben Sie als natürlicher empfunden?</p>","key_press":70,"test_part":"response","test_stimulus":{"position":0,"left":"bvh/return-bottle-hold-training2-lines.txt","right":"bvh/vr_prediction_models/model(vcgpdm)-dataset(return-bottle-hold)-mode(ELBO)-parts(1)-dyn(20)-lvm(20)-hold(2)/final-lines.txt","att_check":false},"trial_type":"html-keyboard-response","trial_index":298,"time_elapsed":645391,"internal_node_id":"0.0-8.0-3.72","subject":"0w9ejsjqufta7zh","sona":"9160"},{"rt":291,"stimulus":"<p>Bereit?</p>","key_press":32,"trial_type":"html-keyboard-response","trial_index":299,"time_elapsed":645695,"internal_node_id":"0.0-8.0-0.73","subject":"0w9ejsjqufta7zh","sona":"9160"},{"rt":null,"stimulus":"<div style=\"font-size:60px;\">+</div>","key_press":null,"trial_type":"html-keyboard-response","trial_index":300,"time_elapsed":647709,"internal_node_id":"0.0-8.0-1.73","subject":"0w9ejsjqufta7zh","sona":"9160"},{"trial_type":"turing-test","trial_index":301,"time_elapsed":654454,"internal_node_id":"0.0-8.0-2.73","subject":"0w9ejsjqufta7zh","sona":"9160"},{"rt":530,"stimulus":"<p>Welche Sequenz haben Sie als natürlicher empfunden?</p>","key_press":70,"test_part":"response","test_stimulus":{"position":0,"left":"bvh/return-bottle-training2-lines.txt","right":"bvh/vr_prediction_models/model(dmp)-dataset(return-bottle)-npsi(40)-hold(2)/final-lines.txt","att_check":false},"trial_type":"html-keyboard-response","trial_index":302,"time_elapsed":654996,"internal_node_id":"0.0-8.0-3.73","subject":"0w9ejsjqufta7zh","sona":"9160"},{"rt":199,"stimulus":"<p>Bereit?</p>","key_press":32,"trial_type":"html-keyboard-response","trial_index":303,"time_elapsed":655209,"internal_node_id":"0.0-8.0-0.74","subject":"0w9ejsjqufta7zh","sona":"9160"},{"rt":null,"stimulus":"<div style=\"font-size:60px;\">+</div>","key_press":null,"trial_type":"html-keyboard-response","trial_index":304,"time_elapsed":657244,"internal_node_id":"0.0-8.0-1.74","subject":"0w9ejsjqufta7zh","sona":"9160"},{"trial_type":"turing-test","trial_index":305,"time_elapsed":660854,"internal_node_id":"0.0-8.0-2.74","subject":"0w9ejsjqufta7zh","sona":"9160"},{"rt":1521,"stimulus":"<p>Welche Sequenz haben Sie als natürlicher empfunden?</p>","key_press":70,"test_part":"response","test_stimulus":{"position":1,"left":"bvh/vr_prediction_models/model(vcgpdm)-dataset(pass-bottle-hold)-mode(ELBO)-parts(1)-dyn(30)-lvm(35)-hold(1)/final-lines.txt","right":"bvh/pass-bottle-hold-training1-lines.txt","att_check":false},"trial_type":"html-keyboard-response","trial_index":306,"time_elapsed":662387,"internal_node_id":"0.0-8.0-3.74","subject":"0w9ejsjqufta7zh","sona":"9160"},{"rt":238,"stimulus":"<p>Bereit?</p>","key_press":32,"trial_type":"html-keyboard-response","trial_index":307,"time_elapsed":662636,"internal_node_id":"0.0-8.0-0.75","subject":"0w9ejsjqufta7zh","sona":"9160"},{"rt":null,"stimulus":"<div style=\"font-size:60px;\">+</div>","key_press":null,"trial_type":"html-keyboard-response","trial_index":308,"time_elapsed":664664,"internal_node_id":"0.0-8.0-1.75","subject":"0w9ejsjqufta7zh","sona":"9160"},{"trial_type":"turing-test","trial_index":309,"time_elapsed":670586,"internal_node_id":"0.0-8.0-2.75","subject":"0w9ejsjqufta7zh","sona":"9160"},{"rt":389,"stimulus":"<p>Welche Sequenz haben Sie als natürlicher empfunden?</p>","key_press":70,"test_part":"response","test_stimulus":{"position":1,"left":"bvh/vr_prediction_models/model(tmp)-dataset(return-bottle)-numprim(15)-hold(3)/final-lines.txt","right":"bvh/return-bottle-training3-lines.txt","att_check":false},"trial_type":"html-keyboard-response","trial_index":310,"time_elapsed":670988,"internal_node_id":"0.0-8.0-3.75","subject":"0w9ejsjqufta7zh","sona":"9160"},{"rt":218,"stimulus":"<p>Bereit?</p>","key_press":32,"trial_type":"html-keyboard-response","trial_index":311,"time_elapsed":671219,"internal_node_id":"0.0-8.0-0.76","subject":"0w9ejsjqufta7zh","sona":"9160"},{"rt":null,"stimulus":"<div style=\"font-size:60px;\">+</div>","key_press":null,"trial_type":"html-keyboard-response","trial_index":312,"time_elapsed":673241,"internal_node_id":"0.0-8.0-1.76","subject":"0w9ejsjqufta7zh","sona":"9160"},{"trial_type":"turing-test","trial_index":313,"time_elapsed":676776,"internal_node_id":"0.0-8.0-2.76","subject":"0w9ejsjqufta7zh","sona":"9160"},{"rt":587,"stimulus":"<p>Welche Sequenz haben Sie als natürlicher empfunden?</p>","key_press":74,"test_part":"response","test_stimulus":{"position":0,"left":"bvh/pass-bottle-hold-training1-lines.txt","right":"bvh/vr_prediction_models/model(vcgpdm)-dataset(pass-bottle-hold)-mode(ELBO)-parts(3)-dyn(10)-lvm(10)-hold(1)/final-lines.txt","att_check":false},"trial_type":"html-keyboard-response","trial_index":314,"time_elapsed":677379,"internal_node_id":"0.0-8.0-3.76","subject":"0w9ejsjqufta7zh","sona":"9160"},{"rt":159,"stimulus":"<p>Bereit?</p>","key_press":32,"trial_type":"html-keyboard-response","trial_index":315,"time_elapsed":677551,"internal_node_id":"0.0-8.0-0.77","subject":"0w9ejsjqufta7zh","sona":"9160"},{"rt":null,"stimulus":"<div style=\"font-size:60px;\">+</div>","key_press":null,"trial_type":"html-keyboard-response","trial_index":316,"time_elapsed":679576,"internal_node_id":"0.0-8.0-1.77","subject":"0w9ejsjqufta7zh","sona":"9160"},{"trial_type":"turing-test","trial_index":317,"time_elapsed":683088,"internal_node_id":"0.0-8.0-2.77","subject":"0w9ejsjqufta7zh","sona":"9160"},{"rt":573,"stimulus":"<p>Welche Sequenz haben Sie als natürlicher empfunden?</p>","key_press":74,"test_part":"response","test_stimulus":{"position":1,"left":"bvh/vr_prediction_models/model(tmp)-dataset(pass-bottle-hold)-numprim(11)-hold(0)/final-lines.txt","right":"bvh/pass-bottle-hold-training0-lines.txt","att_check":false},"trial_type":"html-keyboard-response","trial_index":318,"time_elapsed":683675,"internal_node_id":"0.0-8.0-3.77","subject":"0w9ejsjqufta7zh","sona":"9160"},{"rt":138,"stimulus":"<p>Bereit?</p>","key_press":32,"trial_type":"html-keyboard-response","trial_index":319,"time_elapsed":683826,"internal_node_id":"0.0-8.0-0.78","subject":"0w9ejsjqufta7zh","sona":"9160"},{"rt":null,"stimulus":"<div style=\"font-size:60px;\">+</div>","key_press":null,"trial_type":"html-keyboard-response","trial_index":320,"time_elapsed":685848,"internal_node_id":"0.0-8.0-1.78","subject":"0w9ejsjqufta7zh","sona":"9160"},{"trial_type":"turing-test","trial_index":321,"time_elapsed":689452,"internal_node_id":"0.0-8.0-2.78","subject":"0w9ejsjqufta7zh","sona":"9160"},{"rt":542,"stimulus":"<p>Welche Sequenz haben Sie als natürlicher empfunden?</p>","key_press":70,"test_part":"response","test_stimulus":{"position":0,"left":"bvh/return-bottle-hold-training2-lines.txt","right":"bvh/vr_prediction_models/model(dmp)-dataset(return-bottle-hold)-npsi(60)-hold(2)/final-lines.txt","att_check":false},"trial_type":"html-keyboard-response","trial_index":322,"time_elapsed":690007,"internal_node_id":"0.0-8.0-3.78","subject":"0w9ejsjqufta7zh","sona":"9160"},{"rt":206,"stimulus":"<p>Bereit?</p>","key_press":32,"trial_type":"html-keyboard-response","trial_index":323,"time_elapsed":690216,"internal_node_id":"0.0-8.0-0.79","subject":"0w9ejsjqufta7zh","sona":"9160"},{"rt":null,"stimulus":"<div style=\"font-size:60px;\">+</div>","key_press":null,"trial_type":"html-keyboard-response","trial_index":324,"time_elapsed":692251,"internal_node_id":"0.0-8.0-1.79","subject":"0w9ejsjqufta7zh","sona":"9160"},{"trial_type":"turing-test","trial_index":325,"time_elapsed":697886,"internal_node_id":"0.0-8.0-2.79","subject":"0w9ejsjqufta7zh","sona":"9160"},{"rt":526,"stimulus":"<p>Welche Sequenz haben Sie als natürlicher empfunden?</p>","key_press":74,"test_part":"response","test_stimulus":{"position":0,"left":"bvh/return-bottle-training0-lines.txt","right":"bvh/vr_prediction_models/model(dmp)-dataset(return-bottle)-npsi(90)-hold(0)/final-lines.txt","att_check":false},"trial_type":"html-keyboard-response","trial_index":326,"time_elapsed":698424,"internal_node_id":"0.0-8.0-3.79","subject":"0w9ejsjqufta7zh","sona":"9160"},{"rt":11616,"responses":"{\"age\":\" 21\",\"gender\":\"weiblich\"}","trial_type":"survey-text","trial_index":327,"time_elapsed":710069,"internal_node_id":"0.0-10.0-0.0","subject":"0w9ejsjqufta7zh","sona":"9160"},{"rt":143667,"responses":"{\"area\":\"Beine und Arme\",\"Q1\":\"wenn die Bewegung zu steif aussah: Bein- und Armbewegung nicht zusammen gepasst haben\",\"Q2\":\"wenn die Figur auf dem Bildschirm schnell nach unten wanderte oder Bewegungen machte, die unnatürlich aussahen\"}","trial_type":"survey-text","trial_index":328,"time_elapsed":853750,"internal_node_id":"0.0-10.0-1.0","subject":"0w9ejsjqufta7zh","sona":"9160"}]