[{"rt":1806.9250000007742,"stimulus":"<p>Welcome!<br> Please choose your language to start the experiment in the chosen language.</p><p>Willkommen!<br> Bitte wählen Sie eine Sprache, um das Experiment in der ausgewählten Sprache zu starten</p>","button_pressed":"1","trial_type":"html-button-response","trial_index":0,"time_elapsed":1952,"internal_node_id":"0.0-0.0","subject":"ylx76azzcftxw1d","sona":"9286"},{"view_history":"[{\"page_index\":0,\"viewing_time\":5779.590000000098},{\"page_index\":1,\"viewing_time\":2794.175000000905},{\"page_index\":2,\"viewing_time\":3856.4299999998184},{\"page_index\":3,\"viewing_time\":7486.944999998741},{\"page_index\":4,\"viewing_time\":3092.0850000002247}]","rt":23011.31499999974,"trial_type":"instructions","trial_index":1,"time_elapsed":24966,"internal_node_id":"0.0-1.0-0.0","subject":"ylx76azzcftxw1d","sona":"9286"},{"rt":6215.054999998756,"stimulus":"<p>Bereit?</p>","key_press":32,"trial_type":"html-keyboard-response","trial_index":2,"time_elapsed":31187,"internal_node_id":"0.0-3.0","subject":"ylx76azzcftxw1d","sona":"9286"},{"rt":null,"stimulus":"<div style=\"font-size:60px;\">+</div>","key_press":null,"trial_type":"html-keyboard-response","trial_index":3,"time_elapsed":33201,"internal_node_id":"0.0-4.0","subject":"ylx76azzcftxw1d","sona":"9286"},{"trial_type":"training","trial_index":4,"time_elapsed":36798,"internal_node_id":"0.0-5.0","subject":"ylx76azzcftxw1d","sona":"9286"},{"rt":296.06000000057975,"stimulus":"<p>Welche Sequenz haben Sie als natürlicher empfunden?</p>","key_press":74,"trial_type":"html-keyboard-response","trial_index":5,"time_elapsed":37103,"internal_node_id":"0.0-6.0","subject":"ylx76azzcftxw1d","sona":"9286"},{"rt":5054.744999999457,"stimulus":"<p>Das Experiment startet nun.</p><p><small>Bitte drücken Sie den Knopf, wenn Sie bereit sind.</small></p>","button_pressed":"0","trial_type":"html-button-response","trial_index":6,"time_elapsed":42163,"internal_node_id":"0.0-7.0","subject":"ylx76azzcftxw1d","sona":"9286"},{"rt":2408.0700000013167,"stimulus":"<p>Bereit?</p>","key_press":32,"trial_type":"html-keyboard-response","trial_index":7,"time_elapsed":44576,"internal_node_id":"0.0-8.0-0.0","subject":"ylx76azzcftxw1d","sona":"9286"},{"rt":null,"stimulus":"<div style=\"font-size:60px;\">+</div>","key_press":null,"trial_type":"html-keyboard-response","trial_index":8,"time_elapsed":46586,"internal_node_id":"0.0-8.0-1.0","subject":"ylx76azzcftxw1d","sona":"9286"},{"trial_type":"turing-test","trial_index":9,"time_elapsed":52059,"internal_node_id":"0.0-8.0-2.0","subject":"ylx76azzcftxw1d","sona":"9286"},{"rt":880.9550000005402,"stimulus":"<p>Welche Sequenz haben Sie als natürlicher empfunden?</p>","key_press":70,"test_part":"response","test_stimulus":{"position":1,"left":"bvh/vr_prediction_models/model(vcgpdm)-dataset(return-bottle-hold)-mode(ELBO)-parts(3)-dyn(35)-lvm(20)-hold(0)/final-lines.txt","right":"bvh/return-bottle-hold-training0-lines.txt","att_check":false},"trial_type":"html-keyboard-response","trial_index":10,"time_elapsed":52955,"internal_node_id":"0.0-8.0-3.0","subject":"ylx76azzcftxw1d","sona":"9286"},{"rt":1852.9149999994843,"stimulus":"<p>Bereit?</p>","key_press":32,"trial_type":"html-keyboard-response","trial_index":11,"time_elapsed":54812,"internal_node_id":"0.0-8.0-0.1","subject":"ylx76azzcftxw1d","sona":"9286"},{"rt":null,"stimulus":"<div style=\"font-size:60px;\">+</div>","key_press":null,"trial_type":"html-keyboard-response","trial_index":12,"time_elapsed":56824,"internal_node_id":"0.0-8.0-1.1","subject":"ylx76azzcftxw1d","sona":"9286"},{"trial_type":"turing-test","trial_index":13,"time_elapsed":62732,"internal_node_id":"0.0-8.0-2.1","subject":"ylx76azzcftxw1d","sona":"9286"},{"rt":928.2249999996566,"stimulus":"<p>Welche Sequenz haben Sie als natürlicher empfunden?</p>","key_press":70,"test_part":"response","test_stimulus":{"position":0,"left":"bvh/pass-bottle-training4-lines.txt","right":"bvh/vr_prediction_models/model(tmp)-dataset(pass-bottle)-numprim(9)-hold(4)/final-lines.txt","att_check":false},"trial_type":"html-keyboard-response","trial_index":14,"time_elapsed":63674,"internal_node_id":"0.0-8.0-3.1","subject":"ylx76azzcftxw1d","sona":"9286"},{"rt":5190.48500000099,"stimulus":"<p>Bereit?</p>","key_press":32,"trial_type":"html-keyboard-response","trial_index":15,"time_elapsed":68877,"internal_node_id":"0.0-8.0-0.2","subject":"ylx76azzcftxw1d","sona":"9286"},{"rt":null,"stimulus":"<div style=\"font-size:60px;\">+</div>","key_press":null,"trial_type":"html-keyboard-response","trial_index":16,"time_elapsed":70895,"internal_node_id":"0.0-8.0-1.2","subject":"ylx76azzcftxw1d","sona":"9286"},{"trial_type":"turing-test","trial_index":17,"time_elapsed":77200,"internal_node_id":"0.0-8.0-2.2","subject":"ylx76azzcftxw1d","sona":"9286"},{"rt":626.3450000005832,"stimulus":"<p>Welche Sequenz haben Sie als natürlicher empfunden?</p>","key_press":70,"test_part":"response","test_stimulus":{"position":0,"left":"bvh/return-bottle-training1-lines.txt","right":"bvh/vr_prediction_models/model(tmp)-dataset(return-bottle)-numprim(11)-hold(1)/final-lines.txt","att_check":false},"trial_type":"html-keyboard-response","trial_index":18,"time_elapsed":77846,"internal_node_id":"0.0-8.0-3.2","subject":"ylx76azzcftxw1d","sona":"9286"},{"rt":1308.53500000012,"stimulus":"<p>Bereit?</p>","key_press":32,"trial_type":"html-keyboard-response","trial_index":19,"time_elapsed":79164,"internal_node_id":"0.0-8.0-0.3","subject":"ylx76azzcftxw1d","sona":"9286"},{"rt":null,"stimulus":"<div style=\"font-size:60px;\">+</div>","key_press":null,"trial_type":"html-keyboard-response","trial_index":20,"time_elapsed":81178,"internal_node_id":"0.0-8.0-1.3","subject":"ylx76azzcftxw1d","sona":"9286"},{"trial_type":"turing-test","trial_index":21,"time_elapsed":84910,"internal_node_id":"0.0-8.0-2.3","subject":"ylx76azzcftxw1d","sona":"9286"},{"rt":564.9299999986397,"stimulus":"<p>Welche Sequenz haben Sie als natürlicher empfunden?</p>","key_press":74,"test_part":"response","test_stimulus":{"position":1,"left":"bvh/vr_prediction_models/model(vcgpdm)-dataset(return-bottle-hold)-mode(ELBO)-parts(3)-dyn(20)-lvm(15)-hold(2)/final-lines.txt","right":"bvh/return-bottle-hold-training2-lines.txt","att_check":false},"trial_type":"html-keyboard-response","trial_index":22,"time_elapsed":85493,"internal_node_id":"0.0-8.0-3.3","subject":"ylx76azzcftxw1d","sona":"9286"},{"rt":933.5599999994884,"stimulus":"<p>Bereit?</p>","key_press":32,"trial_type":"html-keyboard-response","trial_index":23,"time_elapsed":86434,"internal_node_id":"0.0-8.0-0.4","subject":"ylx76azzcftxw1d","sona":"9286"},{"rt":null,"stimulus":"<div style=\"font-size:60px;\">+</div>","key_press":null,"trial_type":"html-keyboard-response","trial_index":24,"time_elapsed":88452,"internal_node_id":"0.0-8.0-1.4","subject":"ylx76azzcftxw1d","sona":"9286"},{"trial_type":"turing-test","trial_index":25,"time_elapsed":91990,"internal_node_id":"0.0-8.0-2.4","subject":"ylx76azzcftxw1d","sona":"9286"},{"rt":430.95999999968626,"stimulus":"<p>Welche Sequenz haben Sie als natürlicher empfunden?</p>","key_press":74,"test_part":"response","test_stimulus":{"position":1,"left":"bvh/vr_prediction_models/model(tmp)-dataset(return-bottle-hold)-numprim(13)-hold(2)/final-lines.txt","right":"bvh/return-bottle-hold-training2-lines.txt","att_check":false},"trial_type":"html-keyboard-response","trial_index":26,"time_elapsed":92435,"internal_node_id":"0.0-8.0-3.4","subject":"ylx76azzcftxw1d","sona":"9286"},{"rt":1006.8949999986216,"stimulus":"<p>Bereit?</p>","key_press":32,"trial_type":"html-keyboard-response","trial_index":27,"time_elapsed":93446,"internal_node_id":"0.0-8.0-0.5","subject":"ylx76azzcftxw1d","sona":"9286"},{"rt":null,"stimulus":"<div style=\"font-size:60px;\">+</div>","key_press":null,"trial_type":"html-keyboard-response","trial_index":28,"time_elapsed":95458,"internal_node_id":"0.0-8.0-1.5","subject":"ylx76azzcftxw1d","sona":"9286"},{"trial_type":"turing-test","trial_index":29,"time_elapsed":101749,"internal_node_id":"0.0-8.0-2.5","subject":"ylx76azzcftxw1d","sona":"9286"},{"rt":2447.2549999991315,"stimulus":"<p>Welche Sequenz haben Sie als natürlicher empfunden?</p>","key_press":70,"test_part":"response","test_stimulus":{"position":0,"left":"bvh/pass-bottle-training2-lines.txt","right":"bvh/vr_prediction_models/model(tmp)-dataset(pass-bottle)-numprim(5)-hold(2)/final-lines.txt","att_check":false},"trial_type":"html-keyboard-response","trial_index":30,"time_elapsed":104210,"internal_node_id":"0.0-8.0-3.5","subject":"ylx76azzcftxw1d","sona":"9286"},{"rt":764.5250000005035,"stimulus":"<p>Bereit?</p>","key_press":32,"trial_type":"html-keyboard-response","trial_index":31,"time_elapsed":104984,"internal_node_id":"0.0-8.0-0.6","subject":"ylx76azzcftxw1d","sona":"9286"},{"rt":null,"stimulus":"<div style=\"font-size:60px;\">+</div>","key_press":null,"trial_type":"html-keyboard-response","trial_index":32,"time_elapsed":106999,"internal_node_id":"0.0-8.0-1.6","subject":"ylx76azzcftxw1d","sona":"9286"},{"trial_type":"turing-test","trial_index":33,"time_elapsed":112905,"internal_node_id":"0.0-8.0-2.6","subject":"ylx76azzcftxw1d","sona":"9286"},{"rt":555.9099999991304,"stimulus":"<p>Welche Sequenz haben Sie als natürlicher empfunden?</p>","key_press":74,"test_part":"response","test_stimulus":{"position":1,"left":"bvh/vr_prediction_models/model(tmp)-dataset(return-bottle)-numprim(5)-hold(3)/final-lines.txt","right":"bvh/return-bottle-training3-lines.txt","att_check":false},"trial_type":"html-keyboard-response","trial_index":34,"time_elapsed":113476,"internal_node_id":"0.0-8.0-3.6","subject":"ylx76azzcftxw1d","sona":"9286"},{"rt":1905.5650000009337,"stimulus":"<p>Bereit?</p>","key_press":32,"trial_type":"html-keyboard-response","trial_index":35,"time_elapsed":115387,"internal_node_id":"0.0-8.0-0.7","subject":"ylx76azzcftxw1d","sona":"9286"},{"rt":null,"stimulus":"<div style=\"font-size:60px;\">+</div>","key_press":null,"trial_type":"html-keyboard-response","trial_index":36,"time_elapsed":117404,"internal_node_id":"0.0-8.0-1.7","subject":"ylx76azzcftxw1d","sona":"9286"},{"trial_type":"turing-test","trial_index":37,"time_elapsed":122954,"internal_node_id":"0.0-8.0-2.7","subject":"ylx76azzcftxw1d","sona":"9286"},{"rt":563.9999999984866,"stimulus":"<p>Welche Sequenz haben Sie als natürlicher empfunden?</p>","key_press":74,"test_part":"response","test_stimulus":{"position":1,"left":"bvh/vr_prediction_models/model(tmp)-dataset(pass-bottle)-numprim(11)-hold(1)/final-lines.txt","right":"bvh/pass-bottle-training1-lines.txt","att_check":false},"trial_type":"html-keyboard-response","trial_index":38,"time_elapsed":123527,"internal_node_id":"0.0-8.0-3.7","subject":"ylx76azzcftxw1d","sona":"9286"},{"rt":2000.7249999998749,"stimulus":"<p>Bereit?</p>","key_press":32,"trial_type":"html-keyboard-response","trial_index":39,"time_elapsed":125538,"internal_node_id":"0.0-8.0-0.8","subject":"ylx76azzcftxw1d","sona":"9286"},{"rt":null,"stimulus":"<div style=\"font-size:60px;\">+</div>","key_press":null,"trial_type":"html-keyboard-response","trial_index":40,"time_elapsed":127547,"internal_node_id":"0.0-8.0-1.8","subject":"ylx76azzcftxw1d","sona":"9286"},{"trial_type":"turing-test","trial_index":41,"time_elapsed":133859,"internal_node_id":"0.0-8.0-2.8","subject":"ylx76azzcftxw1d","sona":"9286"},{"rt":670.7200000000885,"stimulus":"<p>Welche Sequenz haben Sie als natürlicher empfunden?</p>","key_press":74,"test_part":"response","test_stimulus":{"position":1,"left":"bvh/vr_prediction_models/model(vcgpdm)-dataset(return-bottle)-mode(ELBO)-parts(3)-dyn(20)-lvm(20)-hold(1)/final-lines.txt","right":"bvh/return-bottle-training1-lines.txt","att_check":false},"trial_type":"html-keyboard-response","trial_index":42,"time_elapsed":134546,"internal_node_id":"0.0-8.0-3.8","subject":"ylx76azzcftxw1d","sona":"9286"},{"rt":1154.0050000002957,"stimulus":"<p>Bereit?</p>","key_press":32,"trial_type":"html-keyboard-response","trial_index":43,"time_elapsed":135712,"internal_node_id":"0.0-8.0-0.9","subject":"ylx76azzcftxw1d","sona":"9286"},{"rt":null,"stimulus":"<div style=\"font-size:60px;\">+</div>","key_press":null,"trial_type":"html-keyboard-response","trial_index":44,"time_elapsed":137719,"internal_node_id":"0.0-8.0-1.9","subject":"ylx76azzcftxw1d","sona":"9286"},{"trial_type":"turing-test","trial_index":45,"time_elapsed":141417,"internal_node_id":"0.0-8.0-2.9","subject":"ylx76azzcftxw1d","sona":"9286"},{"rt":314.13000000064494,"stimulus":"<p>Welche Sequenz haben Sie als natürlicher empfunden?</p>","key_press":74,"test_part":"response","test_stimulus":{"position":0,"left":"bvh/pass-bottle-hold-training3-lines.txt","right":"bvh/vr_prediction_models/model(dmp)-dataset(pass-bottle-hold)-npsi(80)-hold(3)/final-lines.txt","att_check":false},"trial_type":"html-keyboard-response","trial_index":46,"time_elapsed":141741,"internal_node_id":"0.0-8.0-3.9","subject":"ylx76azzcftxw1d","sona":"9286"},{"rt":544.7599999988452,"stimulus":"<p>Bereit?</p>","key_press":32,"trial_type":"html-keyboard-response","trial_index":47,"time_elapsed":142298,"internal_node_id":"0.0-8.0-0.10","subject":"ylx76azzcftxw1d","sona":"9286"},{"rt":null,"stimulus":"<div style=\"font-size:60px;\">+</div>","key_press":null,"trial_type":"html-keyboard-response","trial_index":48,"time_elapsed":144308,"internal_node_id":"0.0-8.0-1.10","subject":"ylx76azzcftxw1d","sona":"9286"},{"trial_type":"turing-test","trial_index":49,"time_elapsed":150564,"internal_node_id":"0.0-8.0-2.10","subject":"ylx76azzcftxw1d","sona":"9286"},{"rt":1146.9950000009849,"stimulus":"<p>Welche Sequenz haben Sie als natürlicher empfunden?</p>","key_press":74,"test_part":"response","test_stimulus":{"position":1,"left":"bvh/vr_prediction_models/model(vcgpdm)-dataset(return-bottle)-mode(ELBO)-parts(3)-dyn(10)-lvm(30)-hold(4)/final-lines.txt","right":"bvh/return-bottle-training4-lines.txt","att_check":false},"trial_type":"html-keyboard-response","trial_index":50,"time_elapsed":151730,"internal_node_id":"0.0-8.0-3.10","subject":"ylx76azzcftxw1d","sona":"9286"},{"rt":463.6100000007136,"stimulus":"<p>Bereit?</p>","key_press":32,"trial_type":"html-keyboard-response","trial_index":51,"time_elapsed":152202,"internal_node_id":"0.0-8.0-0.11","subject":"ylx76azzcftxw1d","sona":"9286"},{"rt":null,"stimulus":"<div style=\"font-size:60px;\">+</div>","key_press":null,"trial_type":"html-keyboard-response","trial_index":52,"time_elapsed":154214,"internal_node_id":"0.0-8.0-1.11","subject":"ylx76azzcftxw1d","sona":"9286"}]