[{"rt":2093,"stimulus":"<p>Welcome!<br> Please choose your language to start the experiment in the chosen language.</p><p>Willkommen!<br> Bitte wählen Sie eine Sprache, um das Experiment in der ausgewählten Sprache zu starten</p>","button_pressed":"1","trial_type":"html-button-response","trial_index":0,"time_elapsed":2103,"internal_node_id":"0.0-0.0","subject":"npld8bu5aog51cs","sona":"9646"},{"view_history":"[{\"page_index\":0,\"viewing_time\":533},{\"page_index\":1,\"viewing_time\":884},{\"page_index\":2,\"viewing_time\":553},{\"page_index\":3,\"viewing_time\":909},{\"page_index\":4,\"viewing_time\":1372}]","rt":4252,"trial_type":"instructions","trial_index":1,"time_elapsed":6362,"internal_node_id":"0.0-1.0-0.0","subject":"npld8bu5aog51cs","sona":"9646"},{"rt":5077,"stimulus":"<p>Bereit?</p>","key_press":32,"trial_type":"html-keyboard-response","trial_index":2,"time_elapsed":11444,"internal_node_id":"0.0-3.0","subject":"npld8bu5aog51cs","sona":"9646"},{"rt":null,"stimulus":"<div style=\"font-size:60px;\">+</div>","key_press":null,"trial_type":"html-keyboard-response","trial_index":3,"time_elapsed":13472,"internal_node_id":"0.0-4.0","subject":"npld8bu5aog51cs","sona":"9646"},{"trial_type":"training","trial_index":4,"time_elapsed":16795,"internal_node_id":"0.0-5.0","subject":"npld8bu5aog51cs","sona":"9646"},{"rt":367,"stimulus":"<p>Welche Sequenz haben Sie als natürlicher empfunden?</p>","key_press":70,"trial_type":"html-keyboard-response","trial_index":5,"time_elapsed":17164,"internal_node_id":"0.0-6.0","subject":"npld8bu5aog51cs","sona":"9646"},{"rt":5493,"stimulus":"<p>Das Experiment startet nun.</p><p><small>Bitte drücken Sie den Knopf, wenn Sie bereit sind.</small></p>","button_pressed":"0","trial_type":"html-button-response","trial_index":6,"time_elapsed":22660,"internal_node_id":"0.0-7.0","subject":"npld8bu5aog51cs","sona":"9646"},{"rt":2817,"stimulus":"<p>Bereit?</p>","key_press":32,"trial_type":"html-keyboard-response","trial_index":7,"time_elapsed":25483,"internal_node_id":"0.0-8.0-0.0","subject":"npld8bu5aog51cs","sona":"9646"},{"rt":null,"stimulus":"<div style=\"font-size:60px;\">+</div>","key_press":null,"trial_type":"html-keyboard-response","trial_index":8,"time_elapsed":27498,"internal_node_id":"0.0-8.0-1.0","subject":"npld8bu5aog51cs","sona":"9646"},{"trial_type":"turing-test","trial_index":9,"time_elapsed":33504,"internal_node_id":"0.0-8.0-2.0","subject":"npld8bu5aog51cs","sona":"9646"},{"rt":368,"stimulus":"<p>Welche Sequenz haben Sie als natürlicher empfunden?</p>","key_press":74,"test_part":"response","test_stimulus":{"position":1,"left":"bvh/vr_prediction_models/model(tmp)-dataset(pass-bottle)-numprim(3)-hold(3)/final-lines.txt","right":"bvh/pass-bottle-training3-lines.txt","att_check":false},"trial_type":"html-keyboard-response","trial_index":10,"time_elapsed":33876,"internal_node_id":"0.0-8.0-3.0","subject":"npld8bu5aog51cs","sona":"9646"},{"rt":219,"stimulus":"<p>Bereit?</p>","key_press":32,"trial_type":"html-keyboard-response","trial_index":11,"time_elapsed":34098,"internal_node_id":"0.0-8.0-0.1","subject":"npld8bu5aog51cs","sona":"9646"},{"rt":null,"stimulus":"<div style=\"font-size:60px;\">+</div>","key_press":null,"trial_type":"html-keyboard-response","trial_index":12,"time_elapsed":36124,"internal_node_id":"0.0-8.0-1.1","subject":"npld8bu5aog51cs","sona":"9646"},{"trial_type":"turing-test","trial_index":13,"time_elapsed":42018,"internal_node_id":"0.0-8.0-2.1","subject":"npld8bu5aog51cs","sona":"9646"},{"rt":1811,"stimulus":"<p>Welche Sequenz haben Sie als natürlicher empfunden?</p>","key_press":74,"test_part":"response","test_stimulus":{"position":1,"left":"bvh/vr_prediction_models/model(dmp)-dataset(pass-bottle)-npsi(30)-hold(4)/final-lines.txt","right":"bvh/pass-bottle-training4-lines.txt","att_check":false},"trial_type":"html-keyboard-response","trial_index":14,"time_elapsed":43831,"internal_node_id":"0.0-8.0-3.1","subject":"npld8bu5aog51cs","sona":"9646"},{"rt":30427,"stimulus":"<p>Bereit?</p>","key_press":32,"trial_type":"html-keyboard-response","trial_index":15,"time_elapsed":74261,"internal_node_id":"0.0-8.0-0.2","subject":"npld8bu5aog51cs","sona":"9646"},{"rt":null,"stimulus":"<div style=\"font-size:60px;\">+</div>","key_press":null,"trial_type":"html-keyboard-response","trial_index":16,"time_elapsed":76276,"internal_node_id":"0.0-8.0-1.2","subject":"npld8bu5aog51cs","sona":"9646"},{"trial_type":"turing-test","trial_index":17,"time_elapsed":79670,"internal_node_id":"0.0-8.0-2.2","subject":"npld8bu5aog51cs","sona":"9646"},{"rt":888,"stimulus":"<p>Welche Sequenz haben Sie als natürlicher empfunden?</p>","key_press":74,"test_part":"response","test_stimulus":{"position":1,"left":"bvh/vr_prediction_models/model(tmp)-dataset(pass-bottle-hold)-numprim(11)-hold(1)/final-lines.txt","right":"bvh/pass-bottle-hold-training1-lines.txt","att_check":false},"trial_type":"html-keyboard-response","trial_index":18,"time_elapsed":80560,"internal_node_id":"0.0-8.0-3.2","subject":"npld8bu5aog51cs","sona":"9646"},{"rt":177,"stimulus":"<p>Bereit?</p>","key_press":32,"trial_type":"html-keyboard-response","trial_index":19,"time_elapsed":80739,"internal_node_id":"0.0-8.0-0.3","subject":"npld8bu5aog51cs","sona":"9646"},{"rt":null,"stimulus":"<div style=\"font-size:60px;\">+</div>","key_press":null,"trial_type":"html-keyboard-response","trial_index":20,"time_elapsed":82762,"internal_node_id":"0.0-8.0-1.3","subject":"npld8bu5aog51cs","sona":"9646"},{"trial_type":"turing-test","trial_index":21,"time_elapsed":89702,"internal_node_id":"0.0-8.0-2.3","subject":"npld8bu5aog51cs","sona":"9646"},{"rt":289,"stimulus":"<p>Welche Sequenz haben Sie als natürlicher empfunden?</p>","key_press":70,"test_part":"response","test_stimulus":{"position":0,"left":"bvh/pass-bottle-training0-lines.txt","right":"bvh/vr_prediction_models/model(dmp)-dataset(pass-bottle)-npsi(40)-hold(0)/final-lines.txt","att_check":false},"trial_type":"html-keyboard-response","trial_index":22,"time_elapsed":89997,"internal_node_id":"0.0-8.0-3.3","subject":"npld8bu5aog51cs","sona":"9646"},{"rt":225,"stimulus":"<p>Bereit?</p>","key_press":32,"trial_type":"html-keyboard-response","trial_index":23,"time_elapsed":90225,"internal_node_id":"0.0-8.0-0.4","subject":"npld8bu5aog51cs","sona":"9646"},{"rt":null,"stimulus":"<div style=\"font-size:60px;\">+</div>","key_press":null,"trial_type":"html-keyboard-response","trial_index":24,"time_elapsed":92229,"internal_node_id":"0.0-8.0-1.4","subject":"npld8bu5aog51cs","sona":"9646"},{"trial_type":"turing-test","trial_index":25,"time_elapsed":97239,"internal_node_id":"0.0-8.0-2.4","subject":"npld8bu5aog51cs","sona":"9646"},{"rt":317,"stimulus":"<p>Welche Sequenz haben Sie als natürlicher empfunden?</p>","key_press":74,"test_part":"response","test_stimulus":{"position":1,"left":"bvh/vr_prediction_models/model(vcgpdm)-dataset(pass-bottle-hold)-mode(ELBO)-parts(3)-dyn(25)-lvm(15)-hold(4)/final-lines.txt","right":"bvh/pass-bottle-hold-training4-lines.txt","att_check":false},"trial_type":"html-keyboard-response","trial_index":26,"time_elapsed":97561,"internal_node_id":"0.0-8.0-3.4","subject":"npld8bu5aog51cs","sona":"9646"},{"rt":138,"stimulus":"<p>Bereit?</p>","key_press":32,"trial_type":"html-keyboard-response","trial_index":27,"time_elapsed":97702,"internal_node_id":"0.0-8.0-0.5","subject":"npld8bu5aog51cs","sona":"9646"},{"rt":null,"stimulus":"<div style=\"font-size:60px;\">+</div>","key_press":null,"trial_type":"html-keyboard-response","trial_index":28,"time_elapsed":99728,"internal_node_id":"0.0-8.0-1.5","subject":"npld8bu5aog51cs","sona":"9646"},{"trial_type":"turing-test","trial_index":29,"time_elapsed":107207,"internal_node_id":"0.0-8.0-2.5","subject":"npld8bu5aog51cs","sona":"9646"},{"rt":339,"stimulus":"<p>Welche Sequenz haben Sie als natürlicher empfunden?</p>","key_press":74,"test_part":"response","test_stimulus":{"position":1,"left":"bvh/vr_prediction_models/model(vcgpdm)-dataset(pass-bottle)-mode(ELBO)-parts(1)-dyn(20)-lvm(5)-hold(2)/final-lines.txt","right":"bvh/pass-bottle-training2-lines.txt","att_check":false},"trial_type":"html-keyboard-response","trial_index":30,"time_elapsed":107549,"internal_node_id":"0.0-8.0-3.5","subject":"npld8bu5aog51cs","sona":"9646"},{"rt":147,"stimulus":"<p>Bereit?</p>","key_press":32,"trial_type":"html-keyboard-response","trial_index":31,"time_elapsed":107699,"internal_node_id":"0.0-8.0-0.6","subject":"npld8bu5aog51cs","sona":"9646"},{"rt":null,"stimulus":"<div style=\"font-size:60px;\">+</div>","key_press":null,"trial_type":"html-keyboard-response","trial_index":32,"time_elapsed":109717,"internal_node_id":"0.0-8.0-1.6","subject":"npld8bu5aog51cs","sona":"9646"},{"trial_type":"turing-test","trial_index":33,"time_elapsed":117153,"internal_node_id":"0.0-8.0-2.6","subject":"npld8bu5aog51cs","sona":"9646"},{"rt":304,"stimulus":"<p>Welche Sequenz haben Sie als natürlicher empfunden?</p>","key_press":74,"test_part":"response","test_stimulus":{"position":1,"left":"bvh/vr_prediction_models/model(vcgpdm)-dataset(return-bottle)-mode(ELBO)-parts(1)-dyn(15)-lvm(35)-hold(1)/final-lines.txt","right":"bvh/return-bottle-training1-lines.txt","att_check":false},"trial_type":"html-keyboard-response","trial_index":34,"time_elapsed":117460,"internal_node_id":"0.0-8.0-3.6","subject":"npld8bu5aog51cs","sona":"9646"},{"rt":178,"stimulus":"<p>Bereit?</p>","key_press":32,"trial_type":"html-keyboard-response","trial_index":35,"time_elapsed":117641,"internal_node_id":"0.0-8.0-0.7","subject":"npld8bu5aog51cs","sona":"9646"},{"rt":null,"stimulus":"<div style=\"font-size:60px;\">+</div>","key_press":null,"trial_type":"html-keyboard-response","trial_index":36,"time_elapsed":119646,"internal_node_id":"0.0-8.0-1.7","subject":"npld8bu5aog51cs","sona":"9646"},{"trial_type":"turing-test","trial_index":37,"time_elapsed":126426,"internal_node_id":"0.0-8.0-2.7","subject":"npld8bu5aog51cs","sona":"9646"},{"rt":561,"stimulus":"<p>Welche Sequenz haben Sie als natürlicher empfunden?</p>","key_press":70,"test_part":"response","test_stimulus":{"position":0,"left":"bvh/return-bottle-training0-lines.txt","right":"bvh/vr_prediction_models/model(vcgpdm)-dataset(return-bottle)-mode(MAP)-parts(3)-hold(0)/final-lines.txt","att_check":false},"trial_type":"html-keyboard-response","trial_index":38,"time_elapsed":126991,"internal_node_id":"0.0-8.0-3.7","subject":"npld8bu5aog51cs","sona":"9646"},{"rt":305,"stimulus":"<p>Bereit?</p>","key_press":32,"trial_type":"html-keyboard-response","trial_index":39,"time_elapsed":127299,"internal_node_id":"0.0-8.0-0.8","subject":"npld8bu5aog51cs","sona":"9646"},{"rt":null,"stimulus":"<div style=\"font-size:60px;\">+</div>","key_press":null,"trial_type":"html-keyboard-response","trial_index":40,"time_elapsed":129314,"internal_node_id":"0.0-8.0-1.8","subject":"npld8bu5aog51cs","sona":"9646"},{"trial_type":"turing-test","trial_index":41,"time_elapsed":137375,"internal_node_id":"0.0-8.0-2.8","subject":"npld8bu5aog51cs","sona":"9646"},{"rt":347,"stimulus":"<p>Welche Sequenz haben Sie als natürlicher empfunden?</p>","key_press":70,"test_part":"response","test_stimulus":{"position":0,"left":"bvh/return-bottle-training2-lines.txt","right":"bvh/vr_prediction_models/model(vcgpdm)-dataset(return-bottle)-mode(ELBO)-parts(3)-dyn(10)-lvm(10)-hold(2)/final-lines.txt","att_check":false},"trial_type":"html-keyboard-response","trial_index":42,"time_elapsed":137725,"internal_node_id":"0.0-8.0-3.8","subject":"npld8bu5aog51cs","sona":"9646"},{"rt":243,"stimulus":"<p>Bereit?</p>","key_press":32,"trial_type":"html-keyboard-response","trial_index":43,"time_elapsed":137969,"internal_node_id":"0.0-8.0-0.9","subject":"npld8bu5aog51cs","sona":"9646"},{"rt":null,"stimulus":"<div style=\"font-size:60px;\">+</div>","key_press":null,"trial_type":"html-keyboard-response","trial_index":44,"time_elapsed":139987,"internal_node_id":"0.0-8.0-1.9","subject":"npld8bu5aog51cs","sona":"9646"},{"trial_type":"turing-test","trial_index":45,"time_elapsed":144872,"internal_node_id":"0.0-8.0-2.9","subject":"npld8bu5aog51cs","sona":"9646"},{"rt":318,"stimulus":"<p>Welche Sequenz haben Sie als natürlicher empfunden?</p>","key_press":74,"test_part":"response","test_stimulus":{"position":1,"left":"bvh/vr_prediction_models/model(vcgpdm)-dataset(return-bottle-hold)-mode(ELBO)-parts(1)-dyn(10)-lvm(5)-hold(2)/final-lines.txt","right":"bvh/return-bottle-hold-training2-lines.txt","att_check":false},"trial_type":"html-keyboard-response","trial_index":46,"time_elapsed":145192,"internal_node_id":"0.0-8.0-3.9","subject":"npld8bu5aog51cs","sona":"9646"},{"rt":180,"stimulus":"<p>Bereit?</p>","key_press":32,"trial_type":"html-keyboard-response","trial_index":47,"time_elapsed":145372,"internal_node_id":"0.0-8.0-0.10","subject":"npld8bu5aog51cs","sona":"9646"},{"rt":null,"stimulus":"<div style=\"font-size:60px;\">+</div>","key_press":null,"trial_type":"html-keyboard-response","trial_index":48,"time_elapsed":147400,"internal_node_id":"0.0-8.0-1.10","subject":"npld8bu5aog51cs","sona":"9646"},{"trial_type":"turing-test","trial_index":49,"time_elapsed":150570,"internal_node_id":"0.0-8.0-2.10","subject":"npld8bu5aog51cs","sona":"9646"},{"rt":736,"stimulus":"<p>Welche Sequenz haben Sie als natürlicher empfunden?</p>","key_press":70,"test_part":"response","test_stimulus":{"position":1,"left":"bvh/vr_prediction_models/model(vcgpdm)-dataset(pass-bottle-hold)-mode(ELBO)-parts(1)-dyn(25)-lvm(35)-hold(1)/final-lines.txt","right":"bvh/pass-bottle-hold-training1-lines.txt","att_check":false},"trial_type":"html-keyboard-response","trial_index":50,"time_elapsed":151308,"internal_node_id":"0.0-8.0-3.10","subject":"npld8bu5aog51cs","sona":"9646"},{"rt":170,"stimulus":"<p>Bereit?</p>","key_press":32,"trial_type":"html-keyboard-response","trial_index":51,"time_elapsed":151481,"internal_node_id":"0.0-8.0-0.11","subject":"npld8bu5aog51cs","sona":"9646"},{"rt":null,"stimulus":"<div style=\"font-size:60px;\">+</div>","key_press":null,"trial_type":"html-keyboard-response","trial_index":52,"time_elapsed":153499,"internal_node_id":"0.0-8.0-1.11","subject":"npld8bu5aog51cs","sona":"9646"},{"trial_type":"turing-test","trial_index":53,"time_elapsed":160150,"internal_node_id":"0.0-8.0-2.11","subject":"npld8bu5aog51cs","sona":"9646"}]