[{"rt":4172,"stimulus":"<p>Welcome!<br> Please choose your language to start the experiment in the chosen language.</p><p>Willkommen!<br> Bitte wählen Sie eine Sprache, um das Experiment in der ausgewählten Sprache zu starten</p>","button_pressed":"1","trial_type":"html-button-response","trial_index":0,"time_elapsed":4184,"internal_node_id":"0.0-0.0","subject":"l41r551bn4btfsj","sona":"5164"},{"view_history":"[{\"page_index\":0,\"viewing_time\":3953},{\"page_index\":1,\"viewing_time\":14108},{\"page_index\":2,\"viewing_time\":13347},{\"page_index\":3,\"viewing_time\":4215},{\"page_index\":4,\"viewing_time\":2628}]","rt":38252,"trial_type":"instructions","trial_index":1,"time_elapsed":42440,"internal_node_id":"0.0-1.0-0.0","subject":"l41r551bn4btfsj","sona":"5164"},{"rt":2776,"stimulus":"<p>Bereit?</p>","key_press":32,"trial_type":"html-keyboard-response","trial_index":2,"time_elapsed":45218,"internal_node_id":"0.0-3.0","subject":"l41r551bn4btfsj","sona":"5164"},{"rt":null,"stimulus":"<div style=\"font-size:60px;\">+</div>","key_press":null,"trial_type":"html-keyboard-response","trial_index":3,"time_elapsed":47222,"internal_node_id":"0.0-4.0","subject":"l41r551bn4btfsj","sona":"5164"},{"trial_type":"training","trial_index":4,"time_elapsed":50769,"internal_node_id":"0.0-5.0","subject":"l41r551bn4btfsj","sona":"5164"},{"rt":2542,"stimulus":"<p>Welche Sequenz haben Sie als natürlicher empfunden?</p>","key_press":70,"trial_type":"html-keyboard-response","trial_index":5,"time_elapsed":53313,"internal_node_id":"0.0-6.0","subject":"l41r551bn4btfsj","sona":"5164"},{"rt":13641,"stimulus":"<p>Das Experiment startet nun.</p><p><small>Bitte drücken Sie den Knopf, wenn Sie bereit sind.</small></p>","button_pressed":"0","trial_type":"html-button-response","trial_index":6,"time_elapsed":66957,"internal_node_id":"0.0-7.0","subject":"l41r551bn4btfsj","sona":"5164"},{"rt":2306,"stimulus":"<p>Bereit?</p>","key_press":32,"trial_type":"html-keyboard-response","trial_index":7,"time_elapsed":69267,"internal_node_id":"0.0-8.0-0.0","subject":"l41r551bn4btfsj","sona":"5164"},{"rt":null,"stimulus":"<div style=\"font-size:60px;\">+</div>","key_press":null,"trial_type":"html-keyboard-response","trial_index":8,"time_elapsed":71271,"internal_node_id":"0.0-8.0-1.0","subject":"l41r551bn4btfsj","sona":"5164"},{"trial_type":"turing-test","trial_index":9,"time_elapsed":77360,"internal_node_id":"0.0-8.0-2.0","subject":"l41r551bn4btfsj","sona":"5164"},{"rt":750,"stimulus":"<p>Welche Sequenz haben Sie als natürlicher empfunden?</p>","key_press":74,"test_part":"response","test_stimulus":{"position":1,"left":"bvh/vr_prediction_models/model(dmp)-dataset(return-bottle)-npsi(10)-hold(1)/final-lines.txt","right":"bvh/return-bottle-training1-lines.txt","att_check":true},"trial_type":"html-keyboard-response","trial_index":10,"time_elapsed":78114,"internal_node_id":"0.0-8.0-3.0","subject":"l41r551bn4btfsj","sona":"5164"},{"rt":1228,"stimulus":"<p>Bereit?</p>","key_press":32,"trial_type":"html-keyboard-response","trial_index":11,"time_elapsed":79346,"internal_node_id":"0.0-8.0-0.1","subject":"l41r551bn4btfsj","sona":"5164"},{"rt":null,"stimulus":"<div style=\"font-size:60px;\">+</div>","key_press":null,"trial_type":"html-keyboard-response","trial_index":12,"time_elapsed":81350,"internal_node_id":"0.0-8.0-1.1","subject":"l41r551bn4btfsj","sona":"5164"},{"trial_type":"turing-test","trial_index":13,"time_elapsed":84778,"internal_node_id":"0.0-8.0-2.1","subject":"l41r551bn4btfsj","sona":"5164"},{"rt":781,"stimulus":"<p>Welche Sequenz haben Sie als natürlicher empfunden?</p>","key_press":74,"test_part":"response","test_stimulus":{"position":1,"left":"bvh/vr_prediction_models/model(vcgpdm)-dataset(pass-bottle-hold)-mode(ELBO)-parts(3)-dyn(20)-lvm(20)-hold(0)/final-lines.txt","right":"bvh/pass-bottle-hold-training0-lines.txt","att_check":false},"trial_type":"html-keyboard-response","trial_index":14,"time_elapsed":85562,"internal_node_id":"0.0-8.0-3.1","subject":"l41r551bn4btfsj","sona":"5164"},{"rt":1051,"stimulus":"<p>Bereit?</p>","key_press":32,"trial_type":"html-keyboard-response","trial_index":15,"time_elapsed":86614,"internal_node_id":"0.0-8.0-0.2","subject":"l41r551bn4btfsj","sona":"5164"},{"rt":null,"stimulus":"<div style=\"font-size:60px;\">+</div>","key_press":null,"trial_type":"html-keyboard-response","trial_index":16,"time_elapsed":88617,"internal_node_id":"0.0-8.0-1.2","subject":"l41r551bn4btfsj","sona":"5164"},{"trial_type":"turing-test","trial_index":17,"time_elapsed":92650,"internal_node_id":"0.0-8.0-2.2","subject":"l41r551bn4btfsj","sona":"5164"},{"rt":704,"stimulus":"<p>Welche Sequenz haben Sie als natürlicher empfunden?</p>","key_press":74,"test_part":"response","test_stimulus":{"position":1,"left":"bvh/vr_prediction_models/model(vcgpdm)-dataset(return-bottle-hold)-mode(ELBO)-parts(1)-dyn(10)-lvm(30)-hold(4)/final-lines.txt","right":"bvh/return-bottle-hold-training4-lines.txt","att_check":false},"trial_type":"html-keyboard-response","trial_index":18,"time_elapsed":93356,"internal_node_id":"0.0-8.0-3.2","subject":"l41r551bn4btfsj","sona":"5164"},{"rt":851,"stimulus":"<p>Bereit?</p>","key_press":32,"trial_type":"html-keyboard-response","trial_index":19,"time_elapsed":94207,"internal_node_id":"0.0-8.0-0.3","subject":"l41r551bn4btfsj","sona":"5164"},{"rt":null,"stimulus":"<div style=\"font-size:60px;\">+</div>","key_press":null,"trial_type":"html-keyboard-response","trial_index":20,"time_elapsed":96209,"internal_node_id":"0.0-8.0-1.3","subject":"l41r551bn4btfsj","sona":"5164"},{"trial_type":"turing-test","trial_index":21,"time_elapsed":102462,"internal_node_id":"0.0-8.0-2.3","subject":"l41r551bn4btfsj","sona":"5164"},{"rt":701,"stimulus":"<p>Welche Sequenz haben Sie als natürlicher empfunden?</p>","key_press":74,"test_part":"response","test_stimulus":{"position":1,"left":"bvh/vr_prediction_models/model(vcgpdm)-dataset(pass-bottle)-mode(ELBO)-parts(1)-dyn(30)-lvm(30)-hold(2)/final-lines.txt","right":"bvh/pass-bottle-training2-lines.txt","att_check":false},"trial_type":"html-keyboard-response","trial_index":22,"time_elapsed":103166,"internal_node_id":"0.0-8.0-3.3","subject":"l41r551bn4btfsj","sona":"5164"},{"rt":542,"stimulus":"<p>Bereit?</p>","key_press":32,"trial_type":"html-keyboard-response","trial_index":23,"time_elapsed":103710,"internal_node_id":"0.0-8.0-0.4","subject":"l41r551bn4btfsj","sona":"5164"},{"rt":null,"stimulus":"<div style=\"font-size:60px;\">+</div>","key_press":null,"trial_type":"html-keyboard-response","trial_index":24,"time_elapsed":105713,"internal_node_id":"0.0-8.0-1.4","subject":"l41r551bn4btfsj","sona":"5164"},{"trial_type":"turing-test","trial_index":25,"time_elapsed":109575,"internal_node_id":"0.0-8.0-2.4","subject":"l41r551bn4btfsj","sona":"5164"},{"rt":521,"stimulus":"<p>Welche Sequenz haben Sie als natürlicher empfunden?</p>","key_press":70,"test_part":"response","test_stimulus":{"position":0,"left":"bvh/return-bottle-hold-training4-lines.txt","right":"bvh/vr_prediction_models/model(tmp)-dataset(return-bottle-hold)-numprim(10)-hold(4)/final-lines.txt","att_check":false},"trial_type":"html-keyboard-response","trial_index":26,"time_elapsed":110097,"internal_node_id":"0.0-8.0-3.4","subject":"l41r551bn4btfsj","sona":"5164"},{"rt":520,"stimulus":"<p>Bereit?</p>","key_press":32,"trial_type":"html-keyboard-response","trial_index":27,"time_elapsed":110620,"internal_node_id":"0.0-8.0-0.5","subject":"l41r551bn4btfsj","sona":"5164"},{"rt":null,"stimulus":"<div style=\"font-size:60px;\">+</div>","key_press":null,"trial_type":"html-keyboard-response","trial_index":28,"time_elapsed":112623,"internal_node_id":"0.0-8.0-1.5","subject":"l41r551bn4btfsj","sona":"5164"},{"trial_type":"turing-test","trial_index":29,"time_elapsed":116013,"internal_node_id":"0.0-8.0-2.5","subject":"l41r551bn4btfsj","sona":"5164"},{"rt":882,"stimulus":"<p>Welche Sequenz haben Sie als natürlicher empfunden?</p>","key_press":70,"test_part":"response","test_stimulus":{"position":0,"left":"bvh/pass-bottle-hold-training1-lines.txt","right":"bvh/vr_prediction_models/model(vcgpdm)-dataset(pass-bottle-hold)-mode(ELBO)-parts(1)-dyn(30)-lvm(20)-hold(1)/final-lines.txt","att_check":false},"trial_type":"html-keyboard-response","trial_index":30,"time_elapsed":116897,"internal_node_id":"0.0-8.0-3.5","subject":"l41r551bn4btfsj","sona":"5164"},{"rt":418,"stimulus":"<p>Bereit?</p>","key_press":32,"trial_type":"html-keyboard-response","trial_index":31,"time_elapsed":117317,"internal_node_id":"0.0-8.0-0.6","subject":"l41r551bn4btfsj","sona":"5164"},{"rt":null,"stimulus":"<div style=\"font-size:60px;\">+</div>","key_press":null,"trial_type":"html-keyboard-response","trial_index":32,"time_elapsed":119320,"internal_node_id":"0.0-8.0-1.6","subject":"l41r551bn4btfsj","sona":"5164"},{"trial_type":"turing-test","trial_index":33,"time_elapsed":126054,"internal_node_id":"0.0-8.0-2.6","subject":"l41r551bn4btfsj","sona":"5164"},{"rt":482,"stimulus":"<p>Welche Sequenz haben Sie als natürlicher empfunden?</p>","key_press":70,"test_part":"response","test_stimulus":{"position":0,"left":"bvh/pass-bottle-training0-lines.txt","right":"bvh/vr_prediction_models/model(dmp)-dataset(pass-bottle)-npsi(20)-hold(0)/final-lines.txt","att_check":false},"trial_type":"html-keyboard-response","trial_index":34,"time_elapsed":126540,"internal_node_id":"0.0-8.0-3.6","subject":"l41r551bn4btfsj","sona":"5164"},{"rt":675,"stimulus":"<p>Bereit?</p>","key_press":32,"trial_type":"html-keyboard-response","trial_index":35,"time_elapsed":127216,"internal_node_id":"0.0-8.0-0.7","subject":"l41r551bn4btfsj","sona":"5164"},{"rt":null,"stimulus":"<div style=\"font-size:60px;\">+</div>","key_press":null,"trial_type":"html-keyboard-response","trial_index":36,"time_elapsed":129217,"internal_node_id":"0.0-8.0-1.7","subject":"l41r551bn4btfsj","sona":"5164"},{"trial_type":"turing-test","trial_index":37,"time_elapsed":134759,"internal_node_id":"0.0-8.0-2.7","subject":"l41r551bn4btfsj","sona":"5164"},{"rt":357,"stimulus":"<p>Welche Sequenz haben Sie als natürlicher empfunden?</p>","key_press":70,"test_part":"response","test_stimulus":{"position":0,"left":"bvh/pass-bottle-training1-lines.txt","right":"bvh/vr_prediction_models/model(vcgpdm)-dataset(pass-bottle)-mode(ELBO)-parts(3)-dyn(10)-lvm(25)-hold(1)/final-lines.txt","att_check":false},"trial_type":"html-keyboard-response","trial_index":38,"time_elapsed":135119,"internal_node_id":"0.0-8.0-3.7","subject":"l41r551bn4btfsj","sona":"5164"},{"rt":379,"stimulus":"<p>Bereit?</p>","key_press":32,"trial_type":"html-keyboard-response","trial_index":39,"time_elapsed":135498,"internal_node_id":"0.0-8.0-0.8","subject":"l41r551bn4btfsj","sona":"5164"},{"rt":null,"stimulus":"<div style=\"font-size:60px;\">+</div>","key_press":null,"trial_type":"html-keyboard-response","trial_index":40,"time_elapsed":137500,"internal_node_id":"0.0-8.0-1.8","subject":"l41r551bn4btfsj","sona":"5164"},{"trial_type":"turing-test","trial_index":41,"time_elapsed":143079,"internal_node_id":"0.0-8.0-2.8","subject":"l41r551bn4btfsj","sona":"5164"},{"rt":752,"stimulus":"<p>Welche Sequenz haben Sie als natürlicher empfunden?</p>","key_press":74,"test_part":"response","test_stimulus":{"position":1,"left":"bvh/vr_prediction_models/model(dmp)-dataset(pass-bottle)-npsi(10)-hold(1)/final-lines.txt","right":"bvh/pass-bottle-training1-lines.txt","att_check":false},"trial_type":"html-keyboard-response","trial_index":42,"time_elapsed":143834,"internal_node_id":"0.0-8.0-3.8","subject":"l41r551bn4btfsj","sona":"5164"},{"rt":649,"stimulus":"<p>Bereit?</p>","key_press":32,"trial_type":"html-keyboard-response","trial_index":43,"time_elapsed":144485,"internal_node_id":"0.0-8.0-0.9","subject":"l41r551bn4btfsj","sona":"5164"},{"rt":null,"stimulus":"<div style=\"font-size:60px;\">+</div>","key_press":null,"trial_type":"html-keyboard-response","trial_index":44,"time_elapsed":146487,"internal_node_id":"0.0-8.0-1.9","subject":"l41r551bn4btfsj","sona":"5164"},{"trial_type":"turing-test","trial_index":45,"time_elapsed":150108,"internal_node_id":"0.0-8.0-2.9","subject":"l41r551bn4btfsj","sona":"5164"},{"rt":665,"stimulus":"<p>Welche Sequenz haben Sie als natürlicher empfunden?</p>","key_press":70,"test_part":"response","test_stimulus":{"position":0,"left":"bvh/return-bottle-hold-training2-lines.txt","right":"bvh/vr_prediction_models/model(vcgpdm)-dataset(return-bottle-hold)-mode(ELBO)-parts(1)-dyn(20)-lvm(30)-hold(2)/final-lines.txt","att_check":false},"trial_type":"html-keyboard-response","trial_index":46,"time_elapsed":150775,"internal_node_id":"0.0-8.0-3.9","subject":"l41r551bn4btfsj","sona":"5164"},{"rt":409,"stimulus":"<p>Bereit?</p>","key_press":32,"trial_type":"html-keyboard-response","trial_index":47,"time_elapsed":151186,"internal_node_id":"0.0-8.0-0.10","subject":"l41r551bn4btfsj","sona":"5164"},{"rt":null,"stimulus":"<div style=\"font-size:60px;\">+</div>","key_press":null,"trial_type":"html-keyboard-response","trial_index":48,"time_elapsed":153188,"internal_node_id":"0.0-8.0-1.10","subject":"l41r551bn4btfsj","sona":"5164"},{"trial_type":"turing-test","trial_index":49,"time_elapsed":156480,"internal_node_id":"0.0-8.0-2.10","subject":"l41r551bn4btfsj","sona":"5164"},{"rt":629,"stimulus":"<p>Welche Sequenz haben Sie als natürlicher empfunden?</p>","key_press":70,"test_part":"response","test_stimulus":{"position":0,"left":"bvh/pass-bottle-hold-training0-lines.txt","right":"bvh/vr_prediction_models/model(tmp)-dataset(pass-bottle-hold)-numprim(7)-hold(0)/final-lines.txt","att_check":false},"trial_type":"html-keyboard-response","trial_index":50,"time_elapsed":157111,"internal_node_id":"0.0-8.0-3.10","subject":"l41r551bn4btfsj","sona":"5164"},{"rt":500,"stimulus":"<p>Bereit?</p>","key_press":32,"trial_type":"html-keyboard-response","trial_index":51,"time_elapsed":157612,"internal_node_id":"0.0-8.0-0.11","subject":"l41r551bn4btfsj","sona":"5164"},{"rt":null,"stimulus":"<div style=\"font-size:60px;\">+</div>","key_press":null,"trial_type":"html-keyboard-response","trial_index":52,"time_elapsed":159613,"internal_node_id":"0.0-8.0-1.11","subject":"l41r551bn4btfsj","sona":"5164"},{"trial_type":"turing-test","trial_index":53,"time_elapsed":163162,"internal_node_id":"0.0-8.0-2.11","subject":"l41r551bn4btfsj","sona":"5164"},{"rt":645,"stimulus":"<p>Welche Sequenz haben Sie als natürlicher empfunden?</p>","key_press":70,"test_part":"response","test_stimulus":{"position":0,"left":"bvh/pass-bottle-hold-training3-lines.txt","right":"bvh/vr_prediction_models/model(tmp)-dataset(pass-bottle-hold)-numprim(12)-hold(3)/final-lines.txt","att_check":false},"trial_type":"html-keyboard-response","trial_index":54,"time_elapsed":163809,"internal_node_id":"0.0-8.0-3.11","subject":"l41r551bn4btfsj","sona":"5164"},{"rt":643,"stimulus":"<p>Bereit?</p>","key_press":32,"trial_type":"html-keyboard-response","trial_index":55,"time_elapsed":164453,"internal_node_id":"0.0-8.0-0.12","subject":"l41r551bn4btfsj","sona":"5164"},{"rt":null,"stimulus":"<div style=\"font-size:60px;\">+</div>","key_press":null,"trial_type":"html-keyboard-response","trial_index":56,"time_elapsed":166457,"internal_node_id":"0.0-8.0-1.12","subject":"l41r551bn4btfsj","sona":"5164"},{"trial_type":"turing-test","trial_index":57,"time_elapsed":172270,"internal_node_id":"0.0-8.0-2.12","subject":"l41r551bn4btfsj","sona":"5164"},{"rt":276,"stimulus":"<p>Welche Sequenz haben Sie als natürlicher empfunden?</p>","key_press":74,"test_part":"response","test_stimulus":{"position":1,"left":"bvh/vr_prediction_models/model(vcgpdm)-dataset(pass-bottle)-mode(ELBO)-parts(3)-dyn(35)-lvm(20)-hold(4)/final-lines.txt","right":"bvh/pass-bottle-training4-lines.txt","att_check":false},"trial_type":"html-keyboard-response","trial_index":58,"time_elapsed":172548,"internal_node_id":"0.0-8.0-3.12","subject":"l41r551bn4btfsj","sona":"5164"},{"rt":398,"stimulus":"<p>Bereit?</p>","key_press":32,"trial_type":"html-keyboard-response","trial_index":59,"time_elapsed":172948,"internal_node_id":"0.0-8.0-0.13","subject":"l41r551bn4btfsj","sona":"5164"},{"rt":null,"stimulus":"<div style=\"font-size:60px;\">+</div>","key_press":null,"trial_type":"html-keyboard-response","trial_index":60,"time_elapsed":174952,"internal_node_id":"0.0-8.0-1.13","subject":"l41r551bn4btfsj","sona":"5164"},{"trial_type":"turing-test","trial_index":61,"time_elapsed":178782,"internal_node_id":"0.0-8.0-2.13","subject":"l41r551bn4btfsj","sona":"5164"},{"rt":614,"stimulus":"<p>Welche Sequenz haben Sie als natürlicher empfunden?</p>","key_press":74,"test_part":"response","test_stimulus":{"position":1,"left":"bvh/vr_prediction_models/model(vcgpdm)-dataset(return-bottle-hold)-mode(ELBO)-parts(3)-dyn(25)-lvm(25)-hold(4)/final-lines.txt","right":"bvh/return-bottle-hold-training4-lines.txt","att_check":false},"trial_type":"html-keyboard-response","trial_index":62,"time_elapsed":179398,"internal_node_id":"0.0-8.0-3.13","subject":"l41r551bn4btfsj","sona":"5164"},{"rt":332,"stimulus":"<p>Bereit?</p>","key_press":32,"trial_type":"html-keyboard-response","trial_index":63,"time_elapsed":179732,"internal_node_id":"0.0-8.0-0.14","subject":"l41r551bn4btfsj","sona":"5164"},{"rt":null,"stimulus":"<div style=\"font-size:60px;\">+</div>","key_press":null,"trial_type":"html-keyboard-response","trial_index":64,"time_elapsed":181733,"internal_node_id":"0.0-8.0-1.14","subject":"l41r551bn4btfsj","sona":"5164"},{"trial_type":"turing-test","trial_index":65,"time_elapsed":185154,"internal_node_id":"0.0-8.0-2.14","subject":"l41r551bn4btfsj","sona":"5164"},{"rt":316,"stimulus":"<p>Welche Sequenz haben Sie als natürlicher empfunden?</p>","key_press":70,"test_part":"response","test_stimulus":{"position":0,"left":"bvh/pass-bottle-hold-training2-lines.txt","right":"bvh/vr_prediction_models/model(vcgpdm)-dataset(pass-bottle-hold)-mode(ELBO)-parts(3)-dyn(10)-lvm(10)-hold(2)/final-lines.txt","att_check":false},"trial_type":"html-keyboard-response","trial_index":66,"time_elapsed":185471,"internal_node_id":"0.0-8.0-3.14","subject":"l41r551bn4btfsj","sona":"5164"},{"rt":289,"stimulus":"<p>Bereit?</p>","key_press":32,"trial_type":"html-keyboard-response","trial_index":67,"time_elapsed":185763,"internal_node_id":"0.0-8.0-0.15","subject":"l41r551bn4btfsj","sona":"5164"},{"rt":null,"stimulus":"<div style=\"font-size:60px;\">+</div>","key_press":null,"trial_type":"html-keyboard-response","trial_index":68,"time_elapsed":187765,"internal_node_id":"0.0-8.0-1.15","subject":"l41r551bn4btfsj","sona":"5164"},{"trial_type":"turing-test","trial_index":69,"time_elapsed":194539,"internal_node_id":"0.0-8.0-2.15","subject":"l41r551bn4btfsj","sona":"5164"},{"rt":379,"stimulus":"<p>Welche Sequenz haben Sie als natürlicher empfunden?</p>","key_press":70,"test_part":"response","test_stimulus":{"position":1,"left":"bvh/vr_prediction_models/model(vcgpdm)-dataset(pass-bottle)-mode(ELBO)-parts(1)-dyn(35)-lvm(30)-hold(0)/final-lines.txt","right":"bvh/pass-bottle-training0-lines.txt","att_check":false},"trial_type":"html-keyboard-response","trial_index":70,"time_elapsed":194921,"internal_node_id":"0.0-8.0-3.15","subject":"l41r551bn4btfsj","sona":"5164"},{"rt":344,"stimulus":"<p>Bereit?</p>","key_press":32,"trial_type":"html-keyboard-response","trial_index":71,"time_elapsed":195266,"internal_node_id":"0.0-8.0-0.16","subject":"l41r551bn4btfsj","sona":"5164"},{"rt":null,"stimulus":"<div style=\"font-size:60px;\">+</div>","key_press":null,"trial_type":"html-keyboard-response","trial_index":72,"time_elapsed":197268,"internal_node_id":"0.0-8.0-1.16","subject":"l41r551bn4btfsj","sona":"5164"},{"trial_type":"turing-test","trial_index":73,"time_elapsed":200780,"internal_node_id":"0.0-8.0-2.16","subject":"l41r551bn4btfsj","sona":"5164"},{"rt":637,"stimulus":"<p>Welche Sequenz haben Sie als natürlicher empfunden?</p>","key_press":70,"test_part":"response","test_stimulus":{"position":0,"left":"bvh/pass-bottle-hold-training3-lines.txt","right":"bvh/vr_prediction_models/model(dmp)-dataset(pass-bottle-hold)-npsi(80)-hold(3)/final-lines.txt","att_check":false},"trial_type":"html-keyboard-response","trial_index":74,"time_elapsed":201421,"internal_node_id":"0.0-8.0-3.16","subject":"l41r551bn4btfsj","sona":"5164"},{"rt":438,"stimulus":"<p>Bereit?</p>","key_press":32,"trial_type":"html-keyboard-response","trial_index":75,"time_elapsed":201862,"internal_node_id":"0.0-8.0-0.17","subject":"l41r551bn4btfsj","sona":"5164"},{"rt":null,"stimulus":"<div style=\"font-size:60px;\">+</div>","key_press":null,"trial_type":"html-keyboard-response","trial_index":76,"time_elapsed":203864,"internal_node_id":"0.0-8.0-1.17","subject":"l41r551bn4btfsj","sona":"5164"},{"trial_type":"turing-test","trial_index":77,"time_elapsed":209903,"internal_node_id":"0.0-8.0-2.17","subject":"l41r551bn4btfsj","sona":"5164"},{"rt":1116,"stimulus":"<p>Welche Sequenz haben Sie als natürlicher empfunden?</p>","key_press":70,"test_part":"response","test_stimulus":{"position":1,"left":"bvh/vr_prediction_models/model(tmp)-dataset(return-bottle)-numprim(13)-hold(1)/final-lines.txt","right":"bvh/return-bottle-training1-lines.txt","att_check":false},"trial_type":"html-keyboard-response","trial_index":78,"time_elapsed":211022,"internal_node_id":"0.0-8.0-3.17","subject":"l41r551bn4btfsj","sona":"5164"},{"rt":300,"stimulus":"<p>Bereit?</p>","key_press":32,"trial_type":"html-keyboard-response","trial_index":79,"time_elapsed":211323,"internal_node_id":"0.0-8.0-0.18","subject":"l41r551bn4btfsj","sona":"5164"},{"rt":null,"stimulus":"<div style=\"font-size:60px;\">+</div>","key_press":null,"trial_type":"html-keyboard-response","trial_index":80,"time_elapsed":213324,"internal_node_id":"0.0-8.0-1.18","subject":"l41r551bn4btfsj","sona":"5164"},{"trial_type":"turing-test","trial_index":81,"time_elapsed":219463,"internal_node_id":"0.0-8.0-2.18","subject":"l41r551bn4btfsj","sona":"5164"},{"rt":459,"stimulus":"<p>Welche Sequenz haben Sie als natürlicher empfunden?</p>","key_press":74,"test_part":"response","test_stimulus":{"position":1,"left":"bvh/vr_prediction_models/model(vcgpdm)-dataset(return-bottle)-mode(ELBO)-parts(1)-dyn(10)-lvm(25)-hold(1)/final-lines.txt","right":"bvh/return-bottle-training1-lines.txt","att_check":false},"trial_type":"html-keyboard-response","trial_index":82,"time_elapsed":219923,"internal_node_id":"0.0-8.0-3.18","subject":"l41r551bn4btfsj","sona":"5164"},{"rt":337,"stimulus":"<p>Bereit?</p>","key_press":32,"trial_type":"html-keyboard-response","trial_index":83,"time_elapsed":220262,"internal_node_id":"0.0-8.0-0.19","subject":"l41r551bn4btfsj","sona":"5164"},{"rt":null,"stimulus":"<div style=\"font-size:60px;\">+</div>","key_press":null,"trial_type":"html-keyboard-response","trial_index":84,"time_elapsed":222263,"internal_node_id":"0.0-8.0-1.19","subject":"l41r551bn4btfsj","sona":"5164"},{"trial_type":"turing-test","trial_index":85,"time_elapsed":228204,"internal_node_id":"0.0-8.0-2.19","subject":"l41r551bn4btfsj","sona":"5164"},{"rt":362,"stimulus":"<p>Welche Sequenz haben Sie als natürlicher empfunden?</p>","key_press":70,"test_part":"response","test_stimulus":{"position":0,"left":"bvh/pass-bottle-training3-lines.txt","right":"bvh/vr_prediction_models/model(vcgpdm)-dataset(pass-bottle)-mode(ELBO)-parts(1)-dyn(30)-lvm(30)-hold(3)/final-lines.txt","att_check":false},"trial_type":"html-keyboard-response","trial_index":86,"time_elapsed":228568,"internal_node_id":"0.0-8.0-3.19","subject":"l41r551bn4btfsj","sona":"5164"},{"rt":378,"stimulus":"<p>Bereit?</p>","key_press":32,"trial_type":"html-keyboard-response","trial_index":87,"time_elapsed":228949,"internal_node_id":"0.0-8.0-0.20","subject":"l41r551bn4btfsj","sona":"5164"},{"rt":null,"stimulus":"<div style=\"font-size:60px;\">+</div>","key_press":null,"trial_type":"html-keyboard-response","trial_index":88,"time_elapsed":230949,"internal_node_id":"0.0-8.0-1.20","subject":"l41r551bn4btfsj","sona":"5164"},{"trial_type":"turing-test","trial_index":89,"time_elapsed":237525,"internal_node_id":"0.0-8.0-2.20","subject":"l41r551bn4btfsj","sona":"5164"},{"rt":611,"stimulus":"<p>Welche Sequenz haben Sie als natürlicher empfunden?</p>","key_press":74,"test_part":"response","test_stimulus":{"position":1,"left":"bvh/vr_prediction_models/model(dmp)-dataset(return-bottle)-npsi(40)-hold(2)/final-lines.txt","right":"bvh/return-bottle-training2-lines.txt","att_check":false},"trial_type":"html-keyboard-response","trial_index":90,"time_elapsed":238139,"internal_node_id":"0.0-8.0-3.20","subject":"l41r551bn4btfsj","sona":"5164"},{"rt":319,"stimulus":"<p>Bereit?</p>","key_press":32,"trial_type":"html-keyboard-response","trial_index":91,"time_elapsed":238460,"internal_node_id":"0.0-8.0-0.21","subject":"l41r551bn4btfsj","sona":"5164"},{"rt":null,"stimulus":"<div style=\"font-size:60px;\">+</div>","key_press":null,"trial_type":"html-keyboard-response","trial_index":92,"time_elapsed":240463,"internal_node_id":"0.0-8.0-1.21","subject":"l41r551bn4btfsj","sona":"5164"},{"trial_type":"turing-test","trial_index":93,"time_elapsed":246379,"internal_node_id":"0.0-8.0-2.21","subject":"l41r551bn4btfsj","sona":"5164"},{"rt":359,"stimulus":"<p>Welche Sequenz haben Sie als natürlicher empfunden?</p>","key_press":74,"test_part":"response","test_stimulus":{"position":1,"left":"bvh/vr_prediction_models/model(vcgpdm)-dataset(return-bottle)-mode(ELBO)-parts(1)-dyn(20)-lvm(20)-hold(4)/final-lines.txt","right":"bvh/return-bottle-training4-lines.txt","att_check":false},"trial_type":"html-keyboard-response","trial_index":94,"time_elapsed":246740,"internal_node_id":"0.0-8.0-3.21","subject":"l41r551bn4btfsj","sona":"5164"},{"rt":317,"stimulus":"<p>Bereit?</p>","key_press":32,"trial_type":"html-keyboard-response","trial_index":95,"time_elapsed":247061,"internal_node_id":"0.0-8.0-0.22","subject":"l41r551bn4btfsj","sona":"5164"},{"rt":null,"stimulus":"<div style=\"font-size:60px;\">+</div>","key_press":null,"trial_type":"html-keyboard-response","trial_index":96,"time_elapsed":249062,"internal_node_id":"0.0-8.0-1.22","subject":"l41r551bn4btfsj","sona":"5164"},{"trial_type":"turing-test","trial_index":97,"time_elapsed":252982,"internal_node_id":"0.0-8.0-2.22","subject":"l41r551bn4btfsj","sona":"5164"},{"rt":427,"stimulus":"<p>Welche Sequenz haben Sie als natürlicher empfunden?</p>","key_press":74,"test_part":"response","test_stimulus":{"position":1,"left":"bvh/vr_prediction_models/model(vcgpdm)-dataset(return-bottle-hold)-mode(ELBO)-parts(3)-dyn(10)-lvm(10)-hold(4)/final-lines.txt","right":"bvh/return-bottle-hold-training4-lines.txt","att_check":false},"trial_type":"html-keyboard-response","trial_index":98,"time_elapsed":253411,"internal_node_id":"0.0-8.0-3.22","subject":"l41r551bn4btfsj","sona":"5164"},{"rt":307,"stimulus":"<p>Bereit?</p>","key_press":32,"trial_type":"html-keyboard-response","trial_index":99,"time_elapsed":253721,"internal_node_id":"0.0-8.0-0.23","subject":"l41r551bn4btfsj","sona":"5164"},{"rt":null,"stimulus":"<div style=\"font-size:60px;\">+</div>","key_press":null,"trial_type":"html-keyboard-response","trial_index":100,"time_elapsed":255723,"internal_node_id":"0.0-8.0-1.23","subject":"l41r551bn4btfsj","sona":"5164"},{"trial_type":"turing-test","trial_index":101,"time_elapsed":261531,"internal_node_id":"0.0-8.0-2.23","subject":"l41r551bn4btfsj","sona":"5164"},{"rt":473,"stimulus":"<p>Welche Sequenz haben Sie als natürlicher empfunden?</p>","key_press":70,"test_part":"response","test_stimulus":{"position":0,"left":"bvh/pass-bottle-training3-lines.txt","right":"bvh/vr_prediction_models/model(dmp)-dataset(pass-bottle)-npsi(80)-hold(3)/final-lines.txt","att_check":false},"trial_type":"html-keyboard-response","trial_index":102,"time_elapsed":262008,"internal_node_id":"0.0-8.0-3.23","subject":"l41r551bn4btfsj","sona":"5164"},{"rt":323,"stimulus":"<p>Bereit?</p>","key_press":32,"trial_type":"html-keyboard-response","trial_index":103,"time_elapsed":262331,"internal_node_id":"0.0-8.0-0.24","subject":"l41r551bn4btfsj","sona":"5164"},{"rt":null,"stimulus":"<div style=\"font-size:60px;\">+</div>","key_press":null,"trial_type":"html-keyboard-response","trial_index":104,"time_elapsed":264333,"internal_node_id":"0.0-8.0-1.24","subject":"l41r551bn4btfsj","sona":"5164"},{"trial_type":"turing-test","trial_index":105,"time_elapsed":270980,"internal_node_id":"0.0-8.0-2.24","subject":"l41r551bn4btfsj","sona":"5164"},{"rt":756,"stimulus":"<p>Welche Sequenz haben Sie als natürlicher empfunden?</p>","key_press":70,"test_part":"response","test_stimulus":{"position":0,"left":"bvh/pass-bottle-training0-lines.txt","right":"bvh/vr_prediction_models/model(vcgpdm)-dataset(pass-bottle)-mode(ELBO)-parts(1)-dyn(35)-lvm(30)-hold(0)/final-lines.txt","att_check":false},"trial_type":"html-keyboard-response","trial_index":106,"time_elapsed":271737,"internal_node_id":"0.0-8.0-3.24","subject":"l41r551bn4btfsj","sona":"5164"},{"rt":238,"stimulus":"<p>Bereit?</p>","key_press":32,"trial_type":"html-keyboard-response","trial_index":107,"time_elapsed":271978,"internal_node_id":"0.0-8.0-0.25","subject":"l41r551bn4btfsj","sona":"5164"},{"rt":null,"stimulus":"<div style=\"font-size:60px;\">+</div>","key_press":null,"trial_type":"html-keyboard-response","trial_index":108,"time_elapsed":273980,"internal_node_id":"0.0-8.0-1.25","subject":"l41r551bn4btfsj","sona":"5164"},{"trial_type":"turing-test","trial_index":109,"time_elapsed":280167,"internal_node_id":"0.0-8.0-2.25","subject":"l41r551bn4btfsj","sona":"5164"},{"rt":646,"stimulus":"<p>Welche Sequenz haben Sie als natürlicher empfunden?</p>","key_press":74,"test_part":"response","test_stimulus":{"position":1,"left":"bvh/vr_prediction_models/model(vcgpdm)-dataset(pass-bottle)-mode(ELBO)-parts(3)-dyn(10)-lvm(10)-hold(2)/final-lines.txt","right":"bvh/pass-bottle-training2-lines.txt","att_check":false},"trial_type":"html-keyboard-response","trial_index":110,"time_elapsed":280816,"internal_node_id":"0.0-8.0-3.25","subject":"l41r551bn4btfsj","sona":"5164"},{"rt":684,"stimulus":"<p>Bereit?</p>","key_press":32,"trial_type":"html-keyboard-response","trial_index":111,"time_elapsed":281503,"internal_node_id":"0.0-8.0-0.26","subject":"l41r551bn4btfsj","sona":"5164"},{"rt":null,"stimulus":"<div style=\"font-size:60px;\">+</div>","key_press":null,"trial_type":"html-keyboard-response","trial_index":112,"time_elapsed":283504,"internal_node_id":"0.0-8.0-1.26","subject":"l41r551bn4btfsj","sona":"5164"},{"trial_type":"turing-test","trial_index":113,"time_elapsed":289733,"internal_node_id":"0.0-8.0-2.26","subject":"l41r551bn4btfsj","sona":"5164"},{"rt":342,"stimulus":"<p>Welche Sequenz haben Sie als natürlicher empfunden?</p>","key_press":74,"test_part":"response","test_stimulus":{"position":1,"left":"bvh/vr_prediction_models/model(vcgpdm)-dataset(pass-bottle)-mode(ELBO)-parts(1)-dyn(10)-lvm(5)-hold(2)/final-lines.txt","right":"bvh/pass-bottle-training2-lines.txt","att_check":false},"trial_type":"html-keyboard-response","trial_index":114,"time_elapsed":290077,"internal_node_id":"0.0-8.0-3.26","subject":"l41r551bn4btfsj","sona":"5164"},{"rt":306,"stimulus":"<p>Bereit?</p>","key_press":32,"trial_type":"html-keyboard-response","trial_index":115,"time_elapsed":290387,"internal_node_id":"0.0-8.0-0.27","subject":"l41r551bn4btfsj","sona":"5164"},{"rt":null,"stimulus":"<div style=\"font-size:60px;\">+</div>","key_press":null,"trial_type":"html-keyboard-response","trial_index":116,"time_elapsed":292388,"internal_node_id":"0.0-8.0-1.27","subject":"l41r551bn4btfsj","sona":"5164"},{"trial_type":"turing-test","trial_index":117,"time_elapsed":297807,"internal_node_id":"0.0-8.0-2.27","subject":"l41r551bn4btfsj","sona":"5164"},{"rt":999,"stimulus":"<p>Welche Sequenz haben Sie als natürlicher empfunden?</p>","key_press":70,"test_part":"response","test_stimulus":{"position":0,"left":"bvh/pass-bottle-training1-lines.txt","right":"bvh/vr_prediction_models/model(dmp)-dataset(pass-bottle)-npsi(90)-hold(1)/final-lines.txt","att_check":false},"trial_type":"html-keyboard-response","trial_index":118,"time_elapsed":298808,"internal_node_id":"0.0-8.0-3.27","subject":"l41r551bn4btfsj","sona":"5164"},{"rt":293,"stimulus":"<p>Bereit?</p>","key_press":32,"trial_type":"html-keyboard-response","trial_index":119,"time_elapsed":299104,"internal_node_id":"0.0-8.0-0.28","subject":"l41r551bn4btfsj","sona":"5164"},{"rt":null,"stimulus":"<div style=\"font-size:60px;\">+</div>","key_press":null,"trial_type":"html-keyboard-response","trial_index":120,"time_elapsed":301106,"internal_node_id":"0.0-8.0-1.28","subject":"l41r551bn4btfsj","sona":"5164"},{"trial_type":"turing-test","trial_index":121,"time_elapsed":307077,"internal_node_id":"0.0-8.0-2.28","subject":"l41r551bn4btfsj","sona":"5164"},{"rt":292,"stimulus":"<p>Welche Sequenz haben Sie als natürlicher empfunden?</p>","key_press":70,"test_part":"response","test_stimulus":{"position":0,"left":"bvh/pass-bottle-training3-lines.txt","right":"bvh/vr_prediction_models/model(vcgpdm)-dataset(pass-bottle)-mode(ELBO)-parts(3)-dyn(10)-lvm(25)-hold(3)/final-lines.txt","att_check":false},"trial_type":"html-keyboard-response","trial_index":122,"time_elapsed":307373,"internal_node_id":"0.0-8.0-3.28","subject":"l41r551bn4btfsj","sona":"5164"},{"rt":9391,"stimulus":"<p>Bereit?</p>","key_press":32,"trial_type":"html-keyboard-response","trial_index":123,"time_elapsed":316768,"internal_node_id":"0.0-8.0-0.29","subject":"l41r551bn4btfsj","sona":"5164"},{"rt":null,"stimulus":"<div style=\"font-size:60px;\">+</div>","key_press":null,"trial_type":"html-keyboard-response","trial_index":124,"time_elapsed":318771,"internal_node_id":"0.0-8.0-1.29","subject":"l41r551bn4btfsj","sona":"5164"},{"trial_type":"turing-test","trial_index":125,"time_elapsed":324187,"internal_node_id":"0.0-8.0-2.29","subject":"l41r551bn4btfsj","sona":"5164"},{"rt":888,"stimulus":"<p>Welche Sequenz haben Sie als natürlicher empfunden?</p>","key_press":74,"test_part":"response","test_stimulus":{"position":1,"left":"bvh/vr_prediction_models/model(dmp)-dataset(return-bottle)-npsi(20)-hold(0)/final-lines.txt","right":"bvh/return-bottle-training0-lines.txt","att_check":true},"trial_type":"html-keyboard-response","trial_index":126,"time_elapsed":325079,"internal_node_id":"0.0-8.0-3.29","subject":"l41r551bn4btfsj","sona":"5164"},{"rt":582,"stimulus":"<p>Bereit?</p>","key_press":32,"trial_type":"html-keyboard-response","trial_index":127,"time_elapsed":325667,"internal_node_id":"0.0-8.0-0.30","subject":"l41r551bn4btfsj","sona":"5164"},{"rt":null,"stimulus":"<div style=\"font-size:60px;\">+</div>","key_press":null,"trial_type":"html-keyboard-response","trial_index":128,"time_elapsed":327669,"internal_node_id":"0.0-8.0-1.30","subject":"l41r551bn4btfsj","sona":"5164"},{"trial_type":"turing-test","trial_index":129,"time_elapsed":334417,"internal_node_id":"0.0-8.0-2.30","subject":"l41r551bn4btfsj","sona":"5164"},{"rt":1004,"stimulus":"<p>Welche Sequenz haben Sie als natürlicher empfunden?</p>","key_press":70,"test_part":"response","test_stimulus":{"position":1,"left":"bvh/vr_prediction_models/model(vcgpdm)-dataset(return-bottle)-mode(ELBO)-parts(3)-dyn(30)-lvm(15)-hold(2)/final-lines.txt","right":"bvh/return-bottle-training2-lines.txt","att_check":false},"trial_type":"html-keyboard-response","trial_index":130,"time_elapsed":335424,"internal_node_id":"0.0-8.0-3.30","subject":"l41r551bn4btfsj","sona":"5164"},{"rt":240,"stimulus":"<p>Bereit?</p>","key_press":32,"trial_type":"html-keyboard-response","trial_index":131,"time_elapsed":335667,"internal_node_id":"0.0-8.0-0.31","subject":"l41r551bn4btfsj","sona":"5164"},{"rt":null,"stimulus":"<div style=\"font-size:60px;\">+</div>","key_press":null,"trial_type":"html-keyboard-response","trial_index":132,"time_elapsed":337671,"internal_node_id":"0.0-8.0-1.31","subject":"l41r551bn4btfsj","sona":"5164"},{"trial_type":"turing-test","trial_index":133,"time_elapsed":343482,"internal_node_id":"0.0-8.0-2.31","subject":"l41r551bn4btfsj","sona":"5164"},{"rt":255,"stimulus":"<p>Welche Sequenz haben Sie als natürlicher empfunden?</p>","key_press":74,"test_part":"response","test_stimulus":{"position":0,"left":"bvh/return-bottle-training4-lines.txt","right":"bvh/vr_prediction_models/model(dmp)-dataset(return-bottle)-npsi(10)-hold(4)/final-lines.txt","att_check":false},"trial_type":"html-keyboard-response","trial_index":134,"time_elapsed":343741,"internal_node_id":"0.0-8.0-3.31","subject":"l41r551bn4btfsj","sona":"5164"},{"rt":247,"stimulus":"<p>Bereit?</p>","key_press":32,"trial_type":"html-keyboard-response","trial_index":135,"time_elapsed":343993,"internal_node_id":"0.0-8.0-0.32","subject":"l41r551bn4btfsj","sona":"5164"},{"rt":null,"stimulus":"<div style=\"font-size:60px;\">+</div>","key_press":null,"trial_type":"html-keyboard-response","trial_index":136,"time_elapsed":345996,"internal_node_id":"0.0-8.0-1.32","subject":"l41r551bn4btfsj","sona":"5164"},{"trial_type":"turing-test","trial_index":137,"time_elapsed":349404,"internal_node_id":"0.0-8.0-2.32","subject":"l41r551bn4btfsj","sona":"5164"},{"rt":353,"stimulus":"<p>Welche Sequenz haben Sie als natürlicher empfunden?</p>","key_press":74,"test_part":"response","test_stimulus":{"position":1,"left":"bvh/vr_prediction_models/model(tmp)-dataset(pass-bottle-hold)-numprim(11)-hold(2)/final-lines.txt","right":"bvh/pass-bottle-hold-training2-lines.txt","att_check":false},"trial_type":"html-keyboard-response","trial_index":138,"time_elapsed":349761,"internal_node_id":"0.0-8.0-3.32","subject":"l41r551bn4btfsj","sona":"5164"},{"rt":284,"stimulus":"<p>Bereit?</p>","key_press":32,"trial_type":"html-keyboard-response","trial_index":139,"time_elapsed":350051,"internal_node_id":"0.0-8.0-0.33","subject":"l41r551bn4btfsj","sona":"5164"},{"rt":null,"stimulus":"<div style=\"font-size:60px;\">+</div>","key_press":null,"trial_type":"html-keyboard-response","trial_index":140,"time_elapsed":352052,"internal_node_id":"0.0-8.0-1.33","subject":"l41r551bn4btfsj","sona":"5164"},{"trial_type":"turing-test","trial_index":141,"time_elapsed":358673,"internal_node_id":"0.0-8.0-2.33","subject":"l41r551bn4btfsj","sona":"5164"},{"rt":286,"stimulus":"<p>Welche Sequenz haben Sie als natürlicher empfunden?</p>","key_press":70,"test_part":"response","test_stimulus":{"position":0,"left":"bvh/return-bottle-training2-lines.txt","right":"bvh/vr_prediction_models/model(vcgpdm)-dataset(return-bottle)-mode(ELBO)-parts(1)-dyn(30)-lvm(35)-hold(2)/final-lines.txt","att_check":false},"trial_type":"html-keyboard-response","trial_index":142,"time_elapsed":358962,"internal_node_id":"0.0-8.0-3.33","subject":"l41r551bn4btfsj","sona":"5164"},{"rt":308,"stimulus":"<p>Bereit?</p>","key_press":32,"trial_type":"html-keyboard-response","trial_index":143,"time_elapsed":359276,"internal_node_id":"0.0-8.0-0.34","subject":"l41r551bn4btfsj","sona":"5164"},{"rt":null,"stimulus":"<div style=\"font-size:60px;\">+</div>","key_press":null,"trial_type":"html-keyboard-response","trial_index":144,"time_elapsed":361278,"internal_node_id":"0.0-8.0-1.34","subject":"l41r551bn4btfsj","sona":"5164"},{"trial_type":"turing-test","trial_index":145,"time_elapsed":366930,"internal_node_id":"0.0-8.0-2.34","subject":"l41r551bn4btfsj","sona":"5164"},{"rt":917,"stimulus":"<p>Welche Sequenz haben Sie als natürlicher empfunden?</p>","key_press":70,"test_part":"response","test_stimulus":{"position":1,"left":"bvh/vr_prediction_models/model(vcgpdm)-dataset(pass-bottle)-mode(ELBO)-parts(3)-dyn(35)-lvm(20)-hold(4)/final-lines.txt","right":"bvh/pass-bottle-training4-lines.txt","att_check":false},"trial_type":"html-keyboard-response","trial_index":146,"time_elapsed":367850,"internal_node_id":"0.0-8.0-3.34","subject":"l41r551bn4btfsj","sona":"5164"},{"rt":262,"stimulus":"<p>Bereit?</p>","key_press":32,"trial_type":"html-keyboard-response","trial_index":147,"time_elapsed":368115,"internal_node_id":"0.0-8.0-0.35","subject":"l41r551bn4btfsj","sona":"5164"},{"rt":null,"stimulus":"<div style=\"font-size:60px;\">+</div>","key_press":null,"trial_type":"html-keyboard-response","trial_index":148,"time_elapsed":370117,"internal_node_id":"0.0-8.0-1.35","subject":"l41r551bn4btfsj","sona":"5164"},{"trial_type":"turing-test","trial_index":149,"time_elapsed":375252,"internal_node_id":"0.0-8.0-2.35","subject":"l41r551bn4btfsj","sona":"5164"},{"rt":820,"stimulus":"<p>Welche Sequenz haben Sie als natürlicher empfunden?</p>","key_press":74,"test_part":"response","test_stimulus":{"position":1,"left":"bvh/vr_prediction_models/model(tmp)-dataset(return-bottle-hold)-numprim(6)-hold(0)/final-lines.txt","right":"bvh/return-bottle-hold-training0-lines.txt","att_check":false},"trial_type":"html-keyboard-response","trial_index":150,"time_elapsed":376075,"internal_node_id":"0.0-8.0-3.35","subject":"l41r551bn4btfsj","sona":"5164"},{"rt":237,"stimulus":"<p>Bereit?</p>","key_press":32,"trial_type":"html-keyboard-response","trial_index":151,"time_elapsed":376315,"internal_node_id":"0.0-8.0-0.36","subject":"l41r551bn4btfsj","sona":"5164"},{"rt":null,"stimulus":"<div style=\"font-size:60px;\">+</div>","key_press":null,"trial_type":"html-keyboard-response","trial_index":152,"time_elapsed":378317,"internal_node_id":"0.0-8.0-1.36","subject":"l41r551bn4btfsj","sona":"5164"},{"trial_type":"turing-test","trial_index":153,"time_elapsed":384198,"internal_node_id":"0.0-8.0-2.36","subject":"l41r551bn4btfsj","sona":"5164"},{"rt":237,"stimulus":"<p>Welche Sequenz haben Sie als natürlicher empfunden?</p>","key_press":70,"test_part":"response","test_stimulus":{"position":1,"left":"bvh/vr_prediction_models/model(vcgpdm)-dataset(pass-bottle)-mode(ELBO)-parts(1)-dyn(20)-lvm(30)-hold(3)/final-lines.txt","right":"bvh/pass-bottle-training3-lines.txt","att_check":false},"trial_type":"html-keyboard-response","trial_index":154,"time_elapsed":384438,"internal_node_id":"0.0-8.0-3.36","subject":"l41r551bn4btfsj","sona":"5164"},{"rt":259,"stimulus":"<p>Bereit?</p>","key_press":32,"trial_type":"html-keyboard-response","trial_index":155,"time_elapsed":384703,"internal_node_id":"0.0-8.0-0.37","subject":"l41r551bn4btfsj","sona":"5164"},{"rt":null,"stimulus":"<div style=\"font-size:60px;\">+</div>","key_press":null,"trial_type":"html-keyboard-response","trial_index":156,"time_elapsed":386705,"internal_node_id":"0.0-8.0-1.37","subject":"l41r551bn4btfsj","sona":"5164"},{"trial_type":"turing-test","trial_index":157,"time_elapsed":392557,"internal_node_id":"0.0-8.0-2.37","subject":"l41r551bn4btfsj","sona":"5164"},{"rt":305,"stimulus":"<p>Welche Sequenz haben Sie als natürlicher empfunden?</p>","key_press":74,"test_part":"response","test_stimulus":{"position":1,"left":"bvh/vr_prediction_models/model(vcgpdm)-dataset(return-bottle)-mode(ELBO)-parts(1)-dyn(20)-lvm(30)-hold(3)/final-lines.txt","right":"bvh/return-bottle-training3-lines.txt","att_check":false},"trial_type":"html-keyboard-response","trial_index":158,"time_elapsed":392866,"internal_node_id":"0.0-8.0-3.37","subject":"l41r551bn4btfsj","sona":"5164"},{"rt":250,"stimulus":"<p>Bereit?</p>","key_press":32,"trial_type":"html-keyboard-response","trial_index":159,"time_elapsed":393118,"internal_node_id":"0.0-8.0-0.38","subject":"l41r551bn4btfsj","sona":"5164"},{"rt":null,"stimulus":"<div style=\"font-size:60px;\">+</div>","key_press":null,"trial_type":"html-keyboard-response","trial_index":160,"time_elapsed":395120,"internal_node_id":"0.0-8.0-1.38","subject":"l41r551bn4btfsj","sona":"5164"},{"trial_type":"turing-test","trial_index":161,"time_elapsed":398566,"internal_node_id":"0.0-8.0-2.38","subject":"l41r551bn4btfsj","sona":"5164"},{"rt":751,"stimulus":"<p>Welche Sequenz haben Sie als natürlicher empfunden?</p>","key_press":70,"test_part":"response","test_stimulus":{"position":1,"left":"bvh/vr_prediction_models/model(tmp)-dataset(return-bottle-hold)-numprim(5)-hold(2)/final-lines.txt","right":"bvh/return-bottle-hold-training2-lines.txt","att_check":false},"trial_type":"html-keyboard-response","trial_index":162,"time_elapsed":399320,"internal_node_id":"0.0-8.0-3.38","subject":"l41r551bn4btfsj","sona":"5164"},{"rt":204,"stimulus":"<p>Bereit?</p>","key_press":32,"trial_type":"html-keyboard-response","trial_index":163,"time_elapsed":399525,"internal_node_id":"0.0-8.0-0.39","subject":"l41r551bn4btfsj","sona":"5164"},{"rt":null,"stimulus":"<div style=\"font-size:60px;\">+</div>","key_press":null,"trial_type":"html-keyboard-response","trial_index":164,"time_elapsed":401527,"internal_node_id":"0.0-8.0-1.39","subject":"l41r551bn4btfsj","sona":"5164"},{"trial_type":"turing-test","trial_index":165,"time_elapsed":407567,"internal_node_id":"0.0-8.0-2.39","subject":"l41r551bn4btfsj","sona":"5164"},{"rt":378,"stimulus":"<p>Welche Sequenz haben Sie als natürlicher empfunden?</p>","key_press":74,"test_part":"response","test_stimulus":{"position":1,"left":"bvh/vr_prediction_models/model(tmp)-dataset(return-bottle)-numprim(14)-hold(1)/final-lines.txt","right":"bvh/return-bottle-training1-lines.txt","att_check":false},"trial_type":"html-keyboard-response","trial_index":166,"time_elapsed":407946,"internal_node_id":"0.0-8.0-3.39","subject":"l41r551bn4btfsj","sona":"5164"},{"rt":277,"stimulus":"<p>Bereit?</p>","key_press":32,"trial_type":"html-keyboard-response","trial_index":167,"time_elapsed":408226,"internal_node_id":"0.0-8.0-0.40","subject":"l41r551bn4btfsj","sona":"5164"},{"rt":null,"stimulus":"<div style=\"font-size:60px;\">+</div>","key_press":null,"trial_type":"html-keyboard-response","trial_index":168,"time_elapsed":410227,"internal_node_id":"0.0-8.0-1.40","subject":"l41r551bn4btfsj","sona":"5164"},{"trial_type":"turing-test","trial_index":169,"time_elapsed":416349,"internal_node_id":"0.0-8.0-2.40","subject":"l41r551bn4btfsj","sona":"5164"},{"rt":269,"stimulus":"<p>Welche Sequenz haben Sie als natürlicher empfunden?</p>","key_press":70,"test_part":"response","test_stimulus":{"position":0,"left":"bvh/return-bottle-training1-lines.txt","right":"bvh/vr_prediction_models/model(vcgpdm)-dataset(return-bottle)-mode(ELBO)-parts(1)-dyn(25)-lvm(35)-hold(1)/final-lines.txt","att_check":false},"trial_type":"html-keyboard-response","trial_index":170,"time_elapsed":416621,"internal_node_id":"0.0-8.0-3.40","subject":"l41r551bn4btfsj","sona":"5164"},{"rt":289,"stimulus":"<p>Bereit?</p>","key_press":32,"trial_type":"html-keyboard-response","trial_index":171,"time_elapsed":416912,"internal_node_id":"0.0-8.0-0.41","subject":"l41r551bn4btfsj","sona":"5164"},{"rt":null,"stimulus":"<div style=\"font-size:60px;\">+</div>","key_press":null,"trial_type":"html-keyboard-response","trial_index":172,"time_elapsed":418914,"internal_node_id":"0.0-8.0-1.41","subject":"l41r551bn4btfsj","sona":"5164"},{"trial_type":"turing-test","trial_index":173,"time_elapsed":424066,"internal_node_id":"0.0-8.0-2.41","subject":"l41r551bn4btfsj","sona":"5164"},{"rt":308,"stimulus":"<p>Welche Sequenz haben Sie als natürlicher empfunden?</p>","key_press":74,"test_part":"response","test_stimulus":{"position":1,"left":"bvh/vr_prediction_models/model(tmp)-dataset(return-bottle-hold)-numprim(9)-hold(0)/final-lines.txt","right":"bvh/return-bottle-hold-training0-lines.txt","att_check":false},"trial_type":"html-keyboard-response","trial_index":174,"time_elapsed":424377,"internal_node_id":"0.0-8.0-3.41","subject":"l41r551bn4btfsj","sona":"5164"},{"rt":302,"stimulus":"<p>Bereit?</p>","key_press":32,"trial_type":"html-keyboard-response","trial_index":175,"time_elapsed":424682,"internal_node_id":"0.0-8.0-0.42","subject":"l41r551bn4btfsj","sona":"5164"},{"rt":null,"stimulus":"<div style=\"font-size:60px;\">+</div>","key_press":null,"trial_type":"html-keyboard-response","trial_index":176,"time_elapsed":426683,"internal_node_id":"0.0-8.0-1.42","subject":"l41r551bn4btfsj","sona":"5164"},{"trial_type":"turing-test","trial_index":177,"time_elapsed":430216,"internal_node_id":"0.0-8.0-2.42","subject":"l41r551bn4btfsj","sona":"5164"},{"rt":385,"stimulus":"<p>Welche Sequenz haben Sie als natürlicher empfunden?</p>","key_press":70,"test_part":"response","test_stimulus":{"position":0,"left":"bvh/pass-bottle-hold-training3-lines.txt","right":"bvh/vr_prediction_models/model(tmp)-dataset(pass-bottle-hold)-numprim(12)-hold(3)/final-lines.txt","att_check":false},"trial_type":"html-keyboard-response","trial_index":178,"time_elapsed":430603,"internal_node_id":"0.0-8.0-3.42","subject":"l41r551bn4btfsj","sona":"5164"},{"rt":292,"stimulus":"<p>Bereit?</p>","key_press":32,"trial_type":"html-keyboard-response","trial_index":179,"time_elapsed":430899,"internal_node_id":"0.0-8.0-0.43","subject":"l41r551bn4btfsj","sona":"5164"},{"rt":null,"stimulus":"<div style=\"font-size:60px;\">+</div>","key_press":null,"trial_type":"html-keyboard-response","trial_index":180,"time_elapsed":432899,"internal_node_id":"0.0-8.0-1.43","subject":"l41r551bn4btfsj","sona":"5164"},{"trial_type":"turing-test","trial_index":181,"time_elapsed":438993,"internal_node_id":"0.0-8.0-2.43","subject":"l41r551bn4btfsj","sona":"5164"},{"rt":355,"stimulus":"<p>Welche Sequenz haben Sie als natürlicher empfunden?</p>","key_press":74,"test_part":"response","test_stimulus":{"position":1,"left":"bvh/vr_prediction_models/model(tmp)-dataset(pass-bottle)-numprim(14)-hold(2)/final-lines.txt","right":"bvh/pass-bottle-training2-lines.txt","att_check":false},"trial_type":"html-keyboard-response","trial_index":182,"time_elapsed":439349,"internal_node_id":"0.0-8.0-3.43","subject":"l41r551bn4btfsj","sona":"5164"},{"rt":325,"stimulus":"<p>Bereit?</p>","key_press":32,"trial_type":"html-keyboard-response","trial_index":183,"time_elapsed":439677,"internal_node_id":"0.0-8.0-0.44","subject":"l41r551bn4btfsj","sona":"5164"},{"rt":null,"stimulus":"<div style=\"font-size:60px;\">+</div>","key_press":null,"trial_type":"html-keyboard-response","trial_index":184,"time_elapsed":441678,"internal_node_id":"0.0-8.0-1.44","subject":"l41r551bn4btfsj","sona":"5164"},{"trial_type":"turing-test","trial_index":185,"time_elapsed":447722,"internal_node_id":"0.0-8.0-2.44","subject":"l41r551bn4btfsj","sona":"5164"},{"rt":732,"stimulus":"<p>Welche Sequenz haben Sie als natürlicher empfunden?</p>","key_press":74,"test_part":"response","test_stimulus":{"position":0,"left":"bvh/pass-bottle-training2-lines.txt","right":"bvh/vr_prediction_models/model(vcgpdm)-dataset(pass-bottle)-mode(ELBO)-parts(1)-dyn(30)-lvm(30)-hold(2)/final-lines.txt","att_check":false},"trial_type":"html-keyboard-response","trial_index":186,"time_elapsed":448456,"internal_node_id":"0.0-8.0-3.44","subject":"l41r551bn4btfsj","sona":"5164"},{"rt":312,"stimulus":"<p>Bereit?</p>","key_press":32,"trial_type":"html-keyboard-response","trial_index":187,"time_elapsed":448772,"internal_node_id":"0.0-8.0-0.45","subject":"l41r551bn4btfsj","sona":"5164"},{"rt":null,"stimulus":"<div style=\"font-size:60px;\">+</div>","key_press":null,"trial_type":"html-keyboard-response","trial_index":188,"time_elapsed":450773,"internal_node_id":"0.0-8.0-1.45","subject":"l41r551bn4btfsj","sona":"5164"},{"trial_type":"turing-test","trial_index":189,"time_elapsed":456609,"internal_node_id":"0.0-8.0-2.45","subject":"l41r551bn4btfsj","sona":"5164"},{"rt":322,"stimulus":"<p>Welche Sequenz haben Sie als natürlicher empfunden?</p>","key_press":70,"test_part":"response","test_stimulus":{"position":0,"left":"bvh/return-bottle-training3-lines.txt","right":"bvh/vr_prediction_models/model(vcgpdm)-dataset(return-bottle)-mode(ELBO)-parts(3)-dyn(20)-lvm(35)-hold(3)/final-lines.txt","att_check":false},"trial_type":"html-keyboard-response","trial_index":190,"time_elapsed":456933,"internal_node_id":"0.0-8.0-3.45","subject":"l41r551bn4btfsj","sona":"5164"},{"rt":258,"stimulus":"<p>Bereit?</p>","key_press":32,"trial_type":"html-keyboard-response","trial_index":191,"time_elapsed":457193,"internal_node_id":"0.0-8.0-0.46","subject":"l41r551bn4btfsj","sona":"5164"},{"rt":null,"stimulus":"<div style=\"font-size:60px;\">+</div>","key_press":null,"trial_type":"html-keyboard-response","trial_index":192,"time_elapsed":459195,"internal_node_id":"0.0-8.0-1.46","subject":"l41r551bn4btfsj","sona":"5164"},{"trial_type":"turing-test","trial_index":193,"time_elapsed":463008,"internal_node_id":"0.0-8.0-2.46","subject":"l41r551bn4btfsj","sona":"5164"},{"rt":735,"stimulus":"<p>Welche Sequenz haben Sie als natürlicher empfunden?</p>","key_press":74,"test_part":"response","test_stimulus":{"position":1,"left":"bvh/vr_prediction_models/model(vcgpdm)-dataset(return-bottle-hold)-mode(ELBO)-parts(3)-dyn(20)-lvm(35)-hold(4)/final-lines.txt","right":"bvh/return-bottle-hold-training4-lines.txt","att_check":false},"trial_type":"html-keyboard-response","trial_index":194,"time_elapsed":463747,"internal_node_id":"0.0-8.0-3.46","subject":"l41r551bn4btfsj","sona":"5164"},{"rt":292,"stimulus":"<p>Bereit?</p>","key_press":32,"trial_type":"html-keyboard-response","trial_index":195,"time_elapsed":464040,"internal_node_id":"0.0-8.0-0.47","subject":"l41r551bn4btfsj","sona":"5164"},{"rt":null,"stimulus":"<div style=\"font-size:60px;\">+</div>","key_press":null,"trial_type":"html-keyboard-response","trial_index":196,"time_elapsed":466043,"internal_node_id":"0.0-8.0-1.47","subject":"l41r551bn4btfsj","sona":"5164"},{"trial_type":"turing-test","trial_index":197,"time_elapsed":471232,"internal_node_id":"0.0-8.0-2.47","subject":"l41r551bn4btfsj","sona":"5164"},{"rt":1395,"stimulus":"<p>Welche Sequenz haben Sie als natürlicher empfunden?</p>","key_press":74,"test_part":"response","test_stimulus":{"position":1,"left":"bvh/vr_prediction_models/model(vcgpdm)-dataset(return-bottle-hold)-mode(ELBO)-parts(3)-dyn(30)-lvm(15)-hold(0)/final-lines.txt","right":"bvh/return-bottle-hold-training0-lines.txt","att_check":false},"trial_type":"html-keyboard-response","trial_index":198,"time_elapsed":472630,"internal_node_id":"0.0-8.0-3.47","subject":"l41r551bn4btfsj","sona":"5164"},{"rt":759,"stimulus":"<p>Bereit?</p>","key_press":32,"trial_type":"html-keyboard-response","trial_index":199,"time_elapsed":473390,"internal_node_id":"0.0-8.0-0.48","subject":"l41r551bn4btfsj","sona":"5164"},{"rt":null,"stimulus":"<div style=\"font-size:60px;\">+</div>","key_press":null,"trial_type":"html-keyboard-response","trial_index":200,"time_elapsed":475391,"internal_node_id":"0.0-8.0-1.48","subject":"l41r551bn4btfsj","sona":"5164"},{"trial_type":"turing-test","trial_index":201,"time_elapsed":481130,"internal_node_id":"0.0-8.0-2.48","subject":"l41r551bn4btfsj","sona":"5164"},{"rt":1511,"stimulus":"<p>Welche Sequenz haben Sie als natürlicher empfunden?</p>","key_press":74,"test_part":"response","test_stimulus":{"position":0,"left":"bvh/pass-bottle-training4-lines.txt","right":"bvh/vr_prediction_models/model(tmp)-dataset(pass-bottle)-numprim(13)-hold(4)/final-lines.txt","att_check":false},"trial_type":"html-keyboard-response","trial_index":202,"time_elapsed":482644,"internal_node_id":"0.0-8.0-3.48","subject":"l41r551bn4btfsj","sona":"5164"},{"rt":219,"stimulus":"<p>Bereit?</p>","key_press":32,"trial_type":"html-keyboard-response","trial_index":203,"time_elapsed":482865,"internal_node_id":"0.0-8.0-0.49","subject":"l41r551bn4btfsj","sona":"5164"},{"rt":null,"stimulus":"<div style=\"font-size:60px;\">+</div>","key_press":null,"trial_type":"html-keyboard-response","trial_index":204,"time_elapsed":484867,"internal_node_id":"0.0-8.0-1.49","subject":"l41r551bn4btfsj","sona":"5164"},{"trial_type":"turing-test","trial_index":205,"time_elapsed":488299,"internal_node_id":"0.0-8.0-2.49","subject":"l41r551bn4btfsj","sona":"5164"},{"rt":379,"stimulus":"<p>Welche Sequenz haben Sie als natürlicher empfunden?</p>","key_press":70,"test_part":"response","test_stimulus":{"position":0,"left":"bvh/pass-bottle-hold-training2-lines.txt","right":"bvh/vr_prediction_models/model(vcgpdm)-dataset(pass-bottle-hold)-mode(ELBO)-parts(1)-dyn(5)-lvm(5)-hold(2)/final-lines.txt","att_check":false},"trial_type":"html-keyboard-response","trial_index":206,"time_elapsed":488680,"internal_node_id":"0.0-8.0-3.49","subject":"l41r551bn4btfsj","sona":"5164"},{"rt":273,"stimulus":"<p>Bereit?</p>","key_press":32,"trial_type":"html-keyboard-response","trial_index":207,"time_elapsed":488955,"internal_node_id":"0.0-8.0-0.50","subject":"l41r551bn4btfsj","sona":"5164"},{"rt":null,"stimulus":"<div style=\"font-size:60px;\">+</div>","key_press":null,"trial_type":"html-keyboard-response","trial_index":208,"time_elapsed":490956,"internal_node_id":"0.0-8.0-1.50","subject":"l41r551bn4btfsj","sona":"5164"},{"trial_type":"turing-test","trial_index":209,"time_elapsed":494418,"internal_node_id":"0.0-8.0-2.50","subject":"l41r551bn4btfsj","sona":"5164"},{"rt":613,"stimulus":"<p>Welche Sequenz haben Sie als natürlicher empfunden?</p>","key_press":70,"test_part":"response","test_stimulus":{"position":1,"left":"bvh/vr_prediction_models/model(dmp)-dataset(pass-bottle-hold)-npsi(80)-hold(3)/final-lines.txt","right":"bvh/pass-bottle-hold-training3-lines.txt","att_check":false},"trial_type":"html-keyboard-response","trial_index":210,"time_elapsed":495034,"internal_node_id":"0.0-8.0-3.50","subject":"l41r551bn4btfsj","sona":"5164"},{"rt":276,"stimulus":"<p>Bereit?</p>","key_press":32,"trial_type":"html-keyboard-response","trial_index":211,"time_elapsed":495319,"internal_node_id":"0.0-8.0-0.51","subject":"l41r551bn4btfsj","sona":"5164"},{"rt":null,"stimulus":"<div style=\"font-size:60px;\">+</div>","key_press":null,"trial_type":"html-keyboard-response","trial_index":212,"time_elapsed":497319,"internal_node_id":"0.0-8.0-1.51","subject":"l41r551bn4btfsj","sona":"5164"},{"trial_type":"turing-test","trial_index":213,"time_elapsed":502855,"internal_node_id":"0.0-8.0-2.51","subject":"l41r551bn4btfsj","sona":"5164"},{"rt":331,"stimulus":"<p>Welche Sequenz haben Sie als natürlicher empfunden?</p>","key_press":74,"test_part":"response","test_stimulus":{"position":1,"left":"bvh/vr_prediction_models/model(vcgpdm)-dataset(pass-bottle)-mode(ELBO)-parts(3)-dyn(35)-lvm(20)-hold(1)/final-lines.txt","right":"bvh/pass-bottle-training1-lines.txt","att_check":false},"trial_type":"html-keyboard-response","trial_index":214,"time_elapsed":503191,"internal_node_id":"0.0-8.0-3.51","subject":"l41r551bn4btfsj","sona":"5164"},{"rt":322,"stimulus":"<p>Bereit?</p>","key_press":32,"trial_type":"html-keyboard-response","trial_index":215,"time_elapsed":503517,"internal_node_id":"0.0-8.0-0.52","subject":"l41r551bn4btfsj","sona":"5164"},{"rt":null,"stimulus":"<div style=\"font-size:60px;\">+</div>","key_press":null,"trial_type":"html-keyboard-response","trial_index":216,"time_elapsed":505518,"internal_node_id":"0.0-8.0-1.52","subject":"l41r551bn4btfsj","sona":"5164"},{"trial_type":"turing-test","trial_index":217,"time_elapsed":511648,"internal_node_id":"0.0-8.0-2.52","subject":"l41r551bn4btfsj","sona":"5164"},{"rt":494,"stimulus":"<p>Welche Sequenz haben Sie als natürlicher empfunden?</p>","key_press":74,"test_part":"response","test_stimulus":{"position":1,"left":"bvh/vr_prediction_models/model(vcgpdm)-dataset(return-bottle)-mode(ELBO)-parts(3)-dyn(25)-lvm(15)-hold(1)/final-lines.txt","right":"bvh/return-bottle-training1-lines.txt","att_check":false},"trial_type":"html-keyboard-response","trial_index":218,"time_elapsed":512143,"internal_node_id":"0.0-8.0-3.52","subject":"l41r551bn4btfsj","sona":"5164"},{"rt":310,"stimulus":"<p>Bereit?</p>","key_press":32,"trial_type":"html-keyboard-response","trial_index":219,"time_elapsed":512453,"internal_node_id":"0.0-8.0-0.53","subject":"l41r551bn4btfsj","sona":"5164"},{"rt":null,"stimulus":"<div style=\"font-size:60px;\">+</div>","key_press":null,"trial_type":"html-keyboard-response","trial_index":220,"time_elapsed":514455,"internal_node_id":"0.0-8.0-1.53","subject":"l41r551bn4btfsj","sona":"5164"},{"trial_type":"turing-test","trial_index":221,"time_elapsed":520271,"internal_node_id":"0.0-8.0-2.53","subject":"l41r551bn4btfsj","sona":"5164"},{"rt":751,"stimulus":"<p>Welche Sequenz haben Sie als natürlicher empfunden?</p>","key_press":74,"test_part":"response","test_stimulus":{"position":0,"left":"bvh/pass-bottle-training3-lines.txt","right":"bvh/vr_prediction_models/model(tmp)-dataset(pass-bottle)-numprim(3)-hold(3)/final-lines.txt","att_check":false},"trial_type":"html-keyboard-response","trial_index":222,"time_elapsed":521025,"internal_node_id":"0.0-8.0-3.53","subject":"l41r551bn4btfsj","sona":"5164"},{"rt":272,"stimulus":"<p>Bereit?</p>","key_press":32,"trial_type":"html-keyboard-response","trial_index":223,"time_elapsed":521300,"internal_node_id":"0.0-8.0-0.54","subject":"l41r551bn4btfsj","sona":"5164"},{"rt":null,"stimulus":"<div style=\"font-size:60px;\">+</div>","key_press":null,"trial_type":"html-keyboard-response","trial_index":224,"time_elapsed":523302,"internal_node_id":"0.0-8.0-1.54","subject":"l41r551bn4btfsj","sona":"5164"},{"trial_type":"turing-test","trial_index":225,"time_elapsed":527129,"internal_node_id":"0.0-8.0-2.54","subject":"l41r551bn4btfsj","sona":"5164"},{"rt":846,"stimulus":"<p>Welche Sequenz haben Sie als natürlicher empfunden?</p>","key_press":70,"test_part":"response","test_stimulus":{"position":0,"left":"bvh/return-bottle-hold-training4-lines.txt","right":"bvh/vr_prediction_models/model(vcgpdm)-dataset(return-bottle-hold)-mode(ELBO)-parts(1)-dyn(30)-lvm(30)-hold(4)/final-lines.txt","att_check":false},"trial_type":"html-keyboard-response","trial_index":226,"time_elapsed":527978,"internal_node_id":"0.0-8.0-3.54","subject":"l41r551bn4btfsj","sona":"5164"},{"rt":313,"stimulus":"<p>Bereit?</p>","key_press":32,"trial_type":"html-keyboard-response","trial_index":227,"time_elapsed":528293,"internal_node_id":"0.0-8.0-0.55","subject":"l41r551bn4btfsj","sona":"5164"},{"rt":null,"stimulus":"<div style=\"font-size:60px;\">+</div>","key_press":null,"trial_type":"html-keyboard-response","trial_index":228,"time_elapsed":530294,"internal_node_id":"0.0-8.0-1.55","subject":"l41r551bn4btfsj","sona":"5164"},{"trial_type":"turing-test","trial_index":229,"time_elapsed":536027,"internal_node_id":"0.0-8.0-2.55","subject":"l41r551bn4btfsj","sona":"5164"},{"rt":631,"stimulus":"<p>Welche Sequenz haben Sie als natürlicher empfunden?</p>","key_press":74,"test_part":"response","test_stimulus":{"position":0,"left":"bvh/pass-bottle-training4-lines.txt","right":"bvh/vr_prediction_models/model(tmp)-dataset(pass-bottle)-numprim(4)-hold(4)/final-lines.txt","att_check":false},"trial_type":"html-keyboard-response","trial_index":230,"time_elapsed":536660,"internal_node_id":"0.0-8.0-3.55","subject":"l41r551bn4btfsj","sona":"5164"},{"rt":262,"stimulus":"<p>Bereit?</p>","key_press":32,"trial_type":"html-keyboard-response","trial_index":231,"time_elapsed":536925,"internal_node_id":"0.0-8.0-0.56","subject":"l41r551bn4btfsj","sona":"5164"},{"rt":null,"stimulus":"<div style=\"font-size:60px;\">+</div>","key_press":null,"trial_type":"html-keyboard-response","trial_index":232,"time_elapsed":538927,"internal_node_id":"0.0-8.0-1.56","subject":"l41r551bn4btfsj","sona":"5164"},{"trial_type":"turing-test","trial_index":233,"time_elapsed":542360,"internal_node_id":"0.0-8.0-2.56","subject":"l41r551bn4btfsj","sona":"5164"},{"rt":479,"stimulus":"<p>Welche Sequenz haben Sie als natürlicher empfunden?</p>","key_press":74,"test_part":"response","test_stimulus":{"position":1,"left":"bvh/vr_prediction_models/model(vcgpdm)-dataset(pass-bottle-hold)-mode(ELBO)-parts(1)-dyn(25)-lvm(35)-hold(2)/final-lines.txt","right":"bvh/pass-bottle-hold-training2-lines.txt","att_check":false},"trial_type":"html-keyboard-response","trial_index":234,"time_elapsed":542841,"internal_node_id":"0.0-8.0-3.56","subject":"l41r551bn4btfsj","sona":"5164"},{"rt":223,"stimulus":"<p>Bereit?</p>","key_press":32,"trial_type":"html-keyboard-response","trial_index":235,"time_elapsed":543074,"internal_node_id":"0.0-8.0-0.57","subject":"l41r551bn4btfsj","sona":"5164"},{"rt":null,"stimulus":"<div style=\"font-size:60px;\">+</div>","key_press":null,"trial_type":"html-keyboard-response","trial_index":236,"time_elapsed":545077,"internal_node_id":"0.0-8.0-1.57","subject":"l41r551bn4btfsj","sona":"5164"},{"trial_type":"turing-test","trial_index":237,"time_elapsed":548439,"internal_node_id":"0.0-8.0-2.57","subject":"l41r551bn4btfsj","sona":"5164"},{"rt":555,"stimulus":"<p>Welche Sequenz haben Sie als natürlicher empfunden?</p>","key_press":74,"test_part":"response","test_stimulus":{"position":0,"left":"bvh/return-bottle-hold-training1-lines.txt","right":"bvh/vr_prediction_models/model(tmp)-dataset(return-bottle-hold)-numprim(3)-hold(1)/final-lines.txt","att_check":false},"trial_type":"html-keyboard-response","trial_index":238,"time_elapsed":548998,"internal_node_id":"0.0-8.0-3.57","subject":"l41r551bn4btfsj","sona":"5164"},{"rt":181,"stimulus":"<p>Bereit?</p>","key_press":32,"trial_type":"html-keyboard-response","trial_index":239,"time_elapsed":549181,"internal_node_id":"0.0-8.0-0.58","subject":"l41r551bn4btfsj","sona":"5164"},{"rt":null,"stimulus":"<div style=\"font-size:60px;\">+</div>","key_press":null,"trial_type":"html-keyboard-response","trial_index":240,"time_elapsed":551183,"internal_node_id":"0.0-8.0-1.58","subject":"l41r551bn4btfsj","sona":"5164"},{"trial_type":"turing-test","trial_index":241,"time_elapsed":554972,"internal_node_id":"0.0-8.0-2.58","subject":"l41r551bn4btfsj","sona":"5164"},{"rt":213,"stimulus":"<p>Welche Sequenz haben Sie als natürlicher empfunden?</p>","key_press":74,"test_part":"response","test_stimulus":{"position":1,"left":"bvh/vr_prediction_models/model(vcgpdm)-dataset(pass-bottle-hold)-mode(ELBO)-parts(3)-dyn(25)-lvm(30)-hold(4)/final-lines.txt","right":"bvh/pass-bottle-hold-training4-lines.txt","att_check":false},"trial_type":"html-keyboard-response","trial_index":242,"time_elapsed":555188,"internal_node_id":"0.0-8.0-3.58","subject":"l41r551bn4btfsj","sona":"5164"},{"rt":173,"stimulus":"<p>Bereit?</p>","key_press":32,"trial_type":"html-keyboard-response","trial_index":243,"time_elapsed":555363,"internal_node_id":"0.0-8.0-0.59","subject":"l41r551bn4btfsj","sona":"5164"},{"rt":null,"stimulus":"<div style=\"font-size:60px;\">+</div>","key_press":null,"trial_type":"html-keyboard-response","trial_index":244,"time_elapsed":557364,"internal_node_id":"0.0-8.0-1.59","subject":"l41r551bn4btfsj","sona":"5164"},{"trial_type":"turing-test","trial_index":245,"time_elapsed":560853,"internal_node_id":"0.0-8.0-2.59","subject":"l41r551bn4btfsj","sona":"5164"},{"rt":529,"stimulus":"<p>Welche Sequenz haben Sie als natürlicher empfunden?</p>","key_press":70,"test_part":"response","test_stimulus":{"position":1,"left":"bvh/vr_prediction_models/model(vcgpdm)-dataset(pass-bottle-hold)-mode(ELBO)-parts(1)-dyn(30)-lvm(20)-hold(2)/final-lines.txt","right":"bvh/pass-bottle-hold-training2-lines.txt","att_check":false},"trial_type":"html-keyboard-response","trial_index":246,"time_elapsed":561387,"internal_node_id":"0.0-8.0-3.59","subject":"l41r551bn4btfsj","sona":"5164"},{"rt":170,"stimulus":"<p>Bereit?</p>","key_press":32,"trial_type":"html-keyboard-response","trial_index":247,"time_elapsed":561559,"internal_node_id":"0.0-8.0-0.60","subject":"l41r551bn4btfsj","sona":"5164"},{"rt":null,"stimulus":"<div style=\"font-size:60px;\">+</div>","key_press":null,"trial_type":"html-keyboard-response","trial_index":248,"time_elapsed":563564,"internal_node_id":"0.0-8.0-1.60","subject":"l41r551bn4btfsj","sona":"5164"},{"trial_type":"turing-test","trial_index":249,"time_elapsed":566840,"internal_node_id":"0.0-8.0-2.60","subject":"l41r551bn4btfsj","sona":"5164"},{"rt":536,"stimulus":"<p>Welche Sequenz haben Sie als natürlicher empfunden?</p>","key_press":70,"test_part":"response","test_stimulus":{"position":0,"left":"bvh/pass-bottle-hold-training0-lines.txt","right":"bvh/vr_prediction_models/model(vcgpdm)-dataset(pass-bottle-hold)-mode(ELBO)-parts(3)-dyn(20)-lvm(20)-hold(0)/final-lines.txt","att_check":false},"trial_type":"html-keyboard-response","trial_index":250,"time_elapsed":567379,"internal_node_id":"0.0-8.0-3.60","subject":"l41r551bn4btfsj","sona":"5164"},{"rt":139,"stimulus":"<p>Bereit?</p>","key_press":32,"trial_type":"html-keyboard-response","trial_index":251,"time_elapsed":567521,"internal_node_id":"0.0-8.0-0.61","subject":"l41r551bn4btfsj","sona":"5164"},{"rt":null,"stimulus":"<div style=\"font-size:60px;\">+</div>","key_press":null,"trial_type":"html-keyboard-response","trial_index":252,"time_elapsed":569522,"internal_node_id":"0.0-8.0-1.61","subject":"l41r551bn4btfsj","sona":"5164"},{"trial_type":"turing-test","trial_index":253,"time_elapsed":575612,"internal_node_id":"0.0-8.0-2.61","subject":"l41r551bn4btfsj","sona":"5164"},{"rt":367,"stimulus":"<p>Welche Sequenz haben Sie als natürlicher empfunden?</p>","key_press":74,"test_part":"response","test_stimulus":{"position":1,"left":"bvh/vr_prediction_models/model(tmp)-dataset(pass-bottle)-numprim(7)-hold(2)/final-lines.txt","right":"bvh/pass-bottle-training2-lines.txt","att_check":false},"trial_type":"html-keyboard-response","trial_index":254,"time_elapsed":575985,"internal_node_id":"0.0-8.0-3.61","subject":"l41r551bn4btfsj","sona":"5164"},{"rt":198,"stimulus":"<p>Bereit?</p>","key_press":32,"trial_type":"html-keyboard-response","trial_index":255,"time_elapsed":576185,"internal_node_id":"0.0-8.0-0.62","subject":"l41r551bn4btfsj","sona":"5164"},{"rt":null,"stimulus":"<div style=\"font-size:60px;\">+</div>","key_press":null,"trial_type":"html-keyboard-response","trial_index":256,"time_elapsed":578188,"internal_node_id":"0.0-8.0-1.62","subject":"l41r551bn4btfsj","sona":"5164"},{"trial_type":"turing-test","trial_index":257,"time_elapsed":583646,"internal_node_id":"0.0-8.0-2.62","subject":"l41r551bn4btfsj","sona":"5164"},{"rt":340,"stimulus":"<p>Welche Sequenz haben Sie als natürlicher empfunden?</p>","key_press":70,"test_part":"response","test_stimulus":{"position":0,"left":"bvh/return-bottle-training0-lines.txt","right":"bvh/vr_prediction_models/model(vcgpdm)-dataset(return-bottle)-mode(ELBO)-parts(1)-dyn(35)-lvm(30)-hold(0)/final-lines.txt","att_check":false},"trial_type":"html-keyboard-response","trial_index":258,"time_elapsed":583991,"internal_node_id":"0.0-8.0-3.62","subject":"l41r551bn4btfsj","sona":"5164"},{"rt":223,"stimulus":"<p>Bereit?</p>","key_press":32,"trial_type":"html-keyboard-response","trial_index":259,"time_elapsed":584218,"internal_node_id":"0.0-8.0-0.63","subject":"l41r551bn4btfsj","sona":"5164"},{"rt":null,"stimulus":"<div style=\"font-size:60px;\">+</div>","key_press":null,"trial_type":"html-keyboard-response","trial_index":260,"time_elapsed":586222,"internal_node_id":"0.0-8.0-1.63","subject":"l41r551bn4btfsj","sona":"5164"},{"trial_type":"turing-test","trial_index":261,"time_elapsed":592951,"internal_node_id":"0.0-8.0-2.63","subject":"l41r551bn4btfsj","sona":"5164"},{"rt":501,"stimulus":"<p>Welche Sequenz haben Sie als natürlicher empfunden?</p>","key_press":74,"test_part":"response","test_stimulus":{"position":1,"left":"bvh/vr_prediction_models/model(dmp)-dataset(pass-bottle)-npsi(100)-hold(0)/final-lines.txt","right":"bvh/pass-bottle-training0-lines.txt","att_check":false},"trial_type":"html-keyboard-response","trial_index":262,"time_elapsed":593455,"internal_node_id":"0.0-8.0-3.63","subject":"l41r551bn4btfsj","sona":"5164"},{"rt":701,"stimulus":"<p>Bereit?</p>","key_press":32,"trial_type":"html-keyboard-response","trial_index":263,"time_elapsed":594160,"internal_node_id":"0.0-8.0-0.64","subject":"l41r551bn4btfsj","sona":"5164"},{"rt":null,"stimulus":"<div style=\"font-size:60px;\">+</div>","key_press":null,"trial_type":"html-keyboard-response","trial_index":264,"time_elapsed":596162,"internal_node_id":"0.0-8.0-1.64","subject":"l41r551bn4btfsj","sona":"5164"},{"trial_type":"turing-test","trial_index":265,"time_elapsed":599942,"internal_node_id":"0.0-8.0-2.64","subject":"l41r551bn4btfsj","sona":"5164"},{"rt":408,"stimulus":"<p>Welche Sequenz haben Sie als natürlicher empfunden?</p>","key_press":70,"test_part":"response","test_stimulus":{"position":0,"left":"bvh/return-bottle-hold-training4-lines.txt","right":"bvh/vr_prediction_models/model(dmp)-dataset(return-bottle-hold)-npsi(30)-hold(4)/final-lines.txt","att_check":false},"trial_type":"html-keyboard-response","trial_index":266,"time_elapsed":600354,"internal_node_id":"0.0-8.0-3.64","subject":"l41r551bn4btfsj","sona":"5164"},{"rt":198,"stimulus":"<p>Bereit?</p>","key_press":32,"trial_type":"html-keyboard-response","trial_index":267,"time_elapsed":600558,"internal_node_id":"0.0-8.0-0.65","subject":"l41r551bn4btfsj","sona":"5164"},{"rt":null,"stimulus":"<div style=\"font-size:60px;\">+</div>","key_press":null,"trial_type":"html-keyboard-response","trial_index":268,"time_elapsed":602559,"internal_node_id":"0.0-8.0-1.65","subject":"l41r551bn4btfsj","sona":"5164"},{"trial_type":"turing-test","trial_index":269,"time_elapsed":605829,"internal_node_id":"0.0-8.0-2.65","subject":"l41r551bn4btfsj","sona":"5164"},{"rt":595,"stimulus":"<p>Welche Sequenz haben Sie als natürlicher empfunden?</p>","key_press":70,"test_part":"response","test_stimulus":{"position":0,"left":"bvh/pass-bottle-hold-training2-lines.txt","right":"bvh/vr_prediction_models/model(vcgpdm)-dataset(pass-bottle-hold)-mode(ELBO)-parts(1)-dyn(25)-lvm(35)-hold(2)/final-lines.txt","att_check":false},"trial_type":"html-keyboard-response","trial_index":270,"time_elapsed":606427,"internal_node_id":"0.0-8.0-3.65","subject":"l41r551bn4btfsj","sona":"5164"},{"rt":213,"stimulus":"<p>Bereit?</p>","key_press":32,"trial_type":"html-keyboard-response","trial_index":271,"time_elapsed":606644,"internal_node_id":"0.0-8.0-0.66","subject":"l41r551bn4btfsj","sona":"5164"},{"rt":null,"stimulus":"<div style=\"font-size:60px;\">+</div>","key_press":null,"trial_type":"html-keyboard-response","trial_index":272,"time_elapsed":608645,"internal_node_id":"0.0-8.0-1.66","subject":"l41r551bn4btfsj","sona":"5164"},{"trial_type":"turing-test","trial_index":273,"time_elapsed":612071,"internal_node_id":"0.0-8.0-2.66","subject":"l41r551bn4btfsj","sona":"5164"},{"rt":478,"stimulus":"<p>Welche Sequenz haben Sie als natürlicher empfunden?</p>","key_press":70,"test_part":"response","test_stimulus":{"position":0,"left":"bvh/return-bottle-hold-training2-lines.txt","right":"bvh/vr_prediction_models/model(tmp)-dataset(return-bottle-hold)-numprim(5)-hold(2)/final-lines.txt","att_check":false},"trial_type":"html-keyboard-response","trial_index":274,"time_elapsed":612551,"internal_node_id":"0.0-8.0-3.66","subject":"l41r551bn4btfsj","sona":"5164"},{"rt":169,"stimulus":"<p>Bereit?</p>","key_press":32,"trial_type":"html-keyboard-response","trial_index":275,"time_elapsed":612723,"internal_node_id":"0.0-8.0-0.67","subject":"l41r551bn4btfsj","sona":"5164"},{"rt":null,"stimulus":"<div style=\"font-size:60px;\">+</div>","key_press":null,"trial_type":"html-keyboard-response","trial_index":276,"time_elapsed":614725,"internal_node_id":"0.0-8.0-1.67","subject":"l41r551bn4btfsj","sona":"5164"},{"trial_type":"turing-test","trial_index":277,"time_elapsed":618068,"internal_node_id":"0.0-8.0-2.67","subject":"l41r551bn4btfsj","sona":"5164"},{"rt":703,"stimulus":"<p>Welche Sequenz haben Sie als natürlicher empfunden?</p>","key_press":74,"test_part":"response","test_stimulus":{"position":0,"left":"bvh/pass-bottle-hold-training0-lines.txt","right":"bvh/vr_prediction_models/model(tmp)-dataset(pass-bottle-hold)-numprim(5)-hold(0)/final-lines.txt","att_check":false},"trial_type":"html-keyboard-response","trial_index":278,"time_elapsed":618776,"internal_node_id":"0.0-8.0-3.67","subject":"l41r551bn4btfsj","sona":"5164"},{"rt":225,"stimulus":"<p>Bereit?</p>","key_press":32,"trial_type":"html-keyboard-response","trial_index":279,"time_elapsed":619010,"internal_node_id":"0.0-8.0-0.68","subject":"l41r551bn4btfsj","sona":"5164"},{"rt":null,"stimulus":"<div style=\"font-size:60px;\">+</div>","key_press":null,"trial_type":"html-keyboard-response","trial_index":280,"time_elapsed":621036,"internal_node_id":"0.0-8.0-1.68","subject":"l41r551bn4btfsj","sona":"5164"},{"trial_type":"turing-test","trial_index":281,"time_elapsed":627165,"internal_node_id":"0.0-8.0-2.68","subject":"l41r551bn4btfsj","sona":"5164"},{"rt":351,"stimulus":"<p>Welche Sequenz haben Sie als natürlicher empfunden?</p>","key_press":70,"test_part":"response","test_stimulus":{"position":0,"left":"bvh/pass-bottle-training2-lines.txt","right":"bvh/vr_prediction_models/model(tmp)-dataset(pass-bottle)-numprim(12)-hold(2)/final-lines.txt","att_check":false},"trial_type":"html-keyboard-response","trial_index":282,"time_elapsed":627520,"internal_node_id":"0.0-8.0-3.68","subject":"l41r551bn4btfsj","sona":"5164"},{"rt":235,"stimulus":"<p>Bereit?</p>","key_press":32,"trial_type":"html-keyboard-response","trial_index":283,"time_elapsed":627757,"internal_node_id":"0.0-8.0-0.69","subject":"l41r551bn4btfsj","sona":"5164"},{"rt":null,"stimulus":"<div style=\"font-size:60px;\">+</div>","key_press":null,"trial_type":"html-keyboard-response","trial_index":284,"time_elapsed":629760,"internal_node_id":"0.0-8.0-1.69","subject":"l41r551bn4btfsj","sona":"5164"},{"trial_type":"turing-test","trial_index":285,"time_elapsed":633134,"internal_node_id":"0.0-8.0-2.69","subject":"l41r551bn4btfsj","sona":"5164"},{"rt":387,"stimulus":"<p>Welche Sequenz haben Sie als natürlicher empfunden?</p>","key_press":70,"test_part":"response","test_stimulus":{"position":1,"left":"bvh/vr_prediction_models/model(tmp)-dataset(pass-bottle-hold)-numprim(6)-hold(2)/final-lines.txt","right":"bvh/pass-bottle-hold-training2-lines.txt","att_check":false},"trial_type":"html-keyboard-response","trial_index":286,"time_elapsed":633528,"internal_node_id":"0.0-8.0-3.69","subject":"l41r551bn4btfsj","sona":"5164"},{"rt":230,"stimulus":"<p>Bereit?</p>","key_press":32,"trial_type":"html-keyboard-response","trial_index":287,"time_elapsed":633760,"internal_node_id":"0.0-8.0-0.70","subject":"l41r551bn4btfsj","sona":"5164"},{"rt":null,"stimulus":"<div style=\"font-size:60px;\">+</div>","key_press":null,"trial_type":"html-keyboard-response","trial_index":288,"time_elapsed":635762,"internal_node_id":"0.0-8.0-1.70","subject":"l41r551bn4btfsj","sona":"5164"},{"trial_type":"turing-test","trial_index":289,"time_elapsed":639375,"internal_node_id":"0.0-8.0-2.70","subject":"l41r551bn4btfsj","sona":"5164"},{"rt":524,"stimulus":"<p>Welche Sequenz haben Sie als natürlicher empfunden?</p>","key_press":70,"test_part":"response","test_stimulus":{"position":0,"left":"bvh/pass-bottle-hold-training4-lines.txt","right":"bvh/vr_prediction_models/model(dmp)-dataset(pass-bottle-hold)-npsi(70)-hold(4)/final-lines.txt","att_check":false},"trial_type":"html-keyboard-response","trial_index":290,"time_elapsed":639906,"internal_node_id":"0.0-8.0-3.70","subject":"l41r551bn4btfsj","sona":"5164"},{"rt":131,"stimulus":"<p>Bereit?</p>","key_press":32,"trial_type":"html-keyboard-response","trial_index":291,"time_elapsed":640040,"internal_node_id":"0.0-8.0-0.71","subject":"l41r551bn4btfsj","sona":"5164"},{"rt":null,"stimulus":"<div style=\"font-size:60px;\">+</div>","key_press":null,"trial_type":"html-keyboard-response","trial_index":292,"time_elapsed":642043,"internal_node_id":"0.0-8.0-1.71","subject":"l41r551bn4btfsj","sona":"5164"},{"trial_type":"turing-test","trial_index":293,"time_elapsed":645726,"internal_node_id":"0.0-8.0-2.71","subject":"l41r551bn4btfsj","sona":"5164"},{"rt":437,"stimulus":"<p>Welche Sequenz haben Sie als natürlicher empfunden?</p>","key_press":74,"test_part":"response","test_stimulus":{"position":1,"left":"bvh/vr_prediction_models/model(vcgpdm)-dataset(pass-bottle-hold)-mode(MAP)-parts(1)-hold(3)/final-lines.txt","right":"bvh/pass-bottle-hold-training3-lines.txt","att_check":false},"trial_type":"html-keyboard-response","trial_index":294,"time_elapsed":646167,"internal_node_id":"0.0-8.0-3.71","subject":"l41r551bn4btfsj","sona":"5164"},{"rt":234,"stimulus":"<p>Bereit?</p>","key_press":32,"trial_type":"html-keyboard-response","trial_index":295,"time_elapsed":646411,"internal_node_id":"0.0-8.0-0.72","subject":"l41r551bn4btfsj","sona":"5164"},{"rt":null,"stimulus":"<div style=\"font-size:60px;\">+</div>","key_press":null,"trial_type":"html-keyboard-response","trial_index":296,"time_elapsed":648413,"internal_node_id":"0.0-8.0-1.72","subject":"l41r551bn4btfsj","sona":"5164"},{"trial_type":"turing-test","trial_index":297,"time_elapsed":651567,"internal_node_id":"0.0-8.0-2.72","subject":"l41r551bn4btfsj","sona":"5164"},{"rt":455,"stimulus":"<p>Welche Sequenz haben Sie als natürlicher empfunden?</p>","key_press":74,"test_part":"response","test_stimulus":{"position":0,"left":"bvh/pass-bottle-hold-training1-lines.txt","right":"bvh/vr_prediction_models/model(dmp)-dataset(pass-bottle-hold)-npsi(60)-hold(1)/final-lines.txt","att_check":true},"trial_type":"html-keyboard-response","trial_index":298,"time_elapsed":652029,"internal_node_id":"0.0-8.0-3.72","subject":"l41r551bn4btfsj","sona":"5164"},{"rt":200,"stimulus":"<p>Bereit?</p>","key_press":32,"trial_type":"html-keyboard-response","trial_index":299,"time_elapsed":652232,"internal_node_id":"0.0-8.0-0.73","subject":"l41r551bn4btfsj","sona":"5164"},{"rt":null,"stimulus":"<div style=\"font-size:60px;\">+</div>","key_press":null,"trial_type":"html-keyboard-response","trial_index":300,"time_elapsed":654233,"internal_node_id":"0.0-8.0-1.73","subject":"l41r551bn4btfsj","sona":"5164"},{"trial_type":"turing-test","trial_index":301,"time_elapsed":659418,"internal_node_id":"0.0-8.0-2.73","subject":"l41r551bn4btfsj","sona":"5164"},{"rt":442,"stimulus":"<p>Welche Sequenz haben Sie als natürlicher empfunden?</p>","key_press":74,"test_part":"response","test_stimulus":{"position":0,"left":"bvh/return-bottle-hold-training0-lines.txt","right":"bvh/vr_prediction_models/model(vcgpdm)-dataset(return-bottle-hold)-mode(ELBO)-parts(3)-dyn(25)-lvm(25)-hold(0)/final-lines.txt","att_check":false},"trial_type":"html-keyboard-response","trial_index":302,"time_elapsed":659865,"internal_node_id":"0.0-8.0-3.73","subject":"l41r551bn4btfsj","sona":"5164"},{"rt":175,"stimulus":"<p>Bereit?</p>","key_press":32,"trial_type":"html-keyboard-response","trial_index":303,"time_elapsed":660044,"internal_node_id":"0.0-8.0-0.74","subject":"l41r551bn4btfsj","sona":"5164"},{"rt":null,"stimulus":"<div style=\"font-size:60px;\">+</div>","key_press":null,"trial_type":"html-keyboard-response","trial_index":304,"time_elapsed":662046,"internal_node_id":"0.0-8.0-1.74","subject":"l41r551bn4btfsj","sona":"5164"},{"trial_type":"turing-test","trial_index":305,"time_elapsed":666029,"internal_node_id":"0.0-8.0-2.74","subject":"l41r551bn4btfsj","sona":"5164"},{"rt":270,"stimulus":"<p>Welche Sequenz haben Sie als natürlicher empfunden?</p>","key_press":70,"test_part":"response","test_stimulus":{"position":0,"left":"bvh/return-bottle-hold-training4-lines.txt","right":"bvh/vr_prediction_models/model(vcgpdm)-dataset(return-bottle-hold)-mode(ELBO)-parts(1)-dyn(10)-lvm(25)-hold(4)/final-lines.txt","att_check":false},"trial_type":"html-keyboard-response","trial_index":306,"time_elapsed":666302,"internal_node_id":"0.0-8.0-3.74","subject":"l41r551bn4btfsj","sona":"5164"},{"rt":178,"stimulus":"<p>Bereit?</p>","key_press":32,"trial_type":"html-keyboard-response","trial_index":307,"time_elapsed":666482,"internal_node_id":"0.0-8.0-0.75","subject":"l41r551bn4btfsj","sona":"5164"},{"rt":null,"stimulus":"<div style=\"font-size:60px;\">+</div>","key_press":null,"trial_type":"html-keyboard-response","trial_index":308,"time_elapsed":668485,"internal_node_id":"0.0-8.0-1.75","subject":"l41r551bn4btfsj","sona":"5164"},{"trial_type":"turing-test","trial_index":309,"time_elapsed":671810,"internal_node_id":"0.0-8.0-2.75","subject":"l41r551bn4btfsj","sona":"5164"},{"rt":340,"stimulus":"<p>Welche Sequenz haben Sie als natürlicher empfunden?</p>","key_press":70,"test_part":"response","test_stimulus":{"position":0,"left":"bvh/pass-bottle-hold-training0-lines.txt","right":"bvh/vr_prediction_models/model(tmp)-dataset(pass-bottle-hold)-numprim(9)-hold(0)/final-lines.txt","att_check":false},"trial_type":"html-keyboard-response","trial_index":310,"time_elapsed":672154,"internal_node_id":"0.0-8.0-3.75","subject":"l41r551bn4btfsj","sona":"5164"},{"rt":148,"stimulus":"<p>Bereit?</p>","key_press":32,"trial_type":"html-keyboard-response","trial_index":311,"time_elapsed":672304,"internal_node_id":"0.0-8.0-0.76","subject":"l41r551bn4btfsj","sona":"5164"},{"rt":null,"stimulus":"<div style=\"font-size:60px;\">+</div>","key_press":null,"trial_type":"html-keyboard-response","trial_index":312,"time_elapsed":674307,"internal_node_id":"0.0-8.0-1.76","subject":"l41r551bn4btfsj","sona":"5164"},{"trial_type":"turing-test","trial_index":313,"time_elapsed":679691,"internal_node_id":"0.0-8.0-2.76","subject":"l41r551bn4btfsj","sona":"5164"},{"rt":316,"stimulus":"<p>Welche Sequenz haben Sie als natürlicher empfunden?</p>","key_press":70,"test_part":"response","test_stimulus":{"position":0,"left":"bvh/return-bottle-training0-lines.txt","right":"bvh/vr_prediction_models/model(dmp)-dataset(return-bottle)-npsi(60)-hold(0)/final-lines.txt","att_check":false},"trial_type":"html-keyboard-response","trial_index":314,"time_elapsed":680010,"internal_node_id":"0.0-8.0-3.76","subject":"l41r551bn4btfsj","sona":"5164"},{"rt":188,"stimulus":"<p>Bereit?</p>","key_press":32,"trial_type":"html-keyboard-response","trial_index":315,"time_elapsed":680200,"internal_node_id":"0.0-8.0-0.77","subject":"l41r551bn4btfsj","sona":"5164"},{"rt":null,"stimulus":"<div style=\"font-size:60px;\">+</div>","key_press":null,"trial_type":"html-keyboard-response","trial_index":316,"time_elapsed":682201,"internal_node_id":"0.0-8.0-1.77","subject":"l41r551bn4btfsj","sona":"5164"},{"trial_type":"turing-test","trial_index":317,"time_elapsed":686010,"internal_node_id":"0.0-8.0-2.77","subject":"l41r551bn4btfsj","sona":"5164"},{"rt":280,"stimulus":"<p>Welche Sequenz haben Sie als natürlicher empfunden?</p>","key_press":70,"test_part":"response","test_stimulus":{"position":1,"left":"bvh/vr_prediction_models/model(vcgpdm)-dataset(return-bottle-hold)-mode(MAP)-parts(1)-hold(4)/final-lines.txt","right":"bvh/return-bottle-hold-training4-lines.txt","att_check":false},"trial_type":"html-keyboard-response","trial_index":318,"time_elapsed":686293,"internal_node_id":"0.0-8.0-3.77","subject":"l41r551bn4btfsj","sona":"5164"},{"rt":208,"stimulus":"<p>Bereit?</p>","key_press":32,"trial_type":"html-keyboard-response","trial_index":319,"time_elapsed":686504,"internal_node_id":"0.0-8.0-0.78","subject":"l41r551bn4btfsj","sona":"5164"},{"rt":null,"stimulus":"<div style=\"font-size:60px;\">+</div>","key_press":null,"trial_type":"html-keyboard-response","trial_index":320,"time_elapsed":688505,"internal_node_id":"0.0-8.0-1.78","subject":"l41r551bn4btfsj","sona":"5164"},{"trial_type":"turing-test","trial_index":321,"time_elapsed":691743,"internal_node_id":"0.0-8.0-2.78","subject":"l41r551bn4btfsj","sona":"5164"},{"rt":340,"stimulus":"<p>Welche Sequenz haben Sie als natürlicher empfunden?</p>","key_press":74,"test_part":"response","test_stimulus":{"position":1,"left":"bvh/vr_prediction_models/model(tmp)-dataset(pass-bottle-hold)-numprim(5)-hold(1)/final-lines.txt","right":"bvh/pass-bottle-hold-training1-lines.txt","att_check":false},"trial_type":"html-keyboard-response","trial_index":322,"time_elapsed":692086,"internal_node_id":"0.0-8.0-3.78","subject":"l41r551bn4btfsj","sona":"5164"},{"rt":248,"stimulus":"<p>Bereit?</p>","key_press":32,"trial_type":"html-keyboard-response","trial_index":323,"time_elapsed":692337,"internal_node_id":"0.0-8.0-0.79","subject":"l41r551bn4btfsj","sona":"5164"},{"rt":null,"stimulus":"<div style=\"font-size:60px;\">+</div>","key_press":null,"trial_type":"html-keyboard-response","trial_index":324,"time_elapsed":694339,"internal_node_id":"0.0-8.0-1.79","subject":"l41r551bn4btfsj","sona":"5164"},{"trial_type":"turing-test","trial_index":325,"time_elapsed":700517,"internal_node_id":"0.0-8.0-2.79","subject":"l41r551bn4btfsj","sona":"5164"},{"rt":326,"stimulus":"<p>Welche Sequenz haben Sie als natürlicher empfunden?</p>","key_press":74,"test_part":"response","test_stimulus":{"position":1,"left":"bvh/vr_prediction_models/model(vcgpdm)-dataset(pass-bottle)-mode(ELBO)-parts(3)-dyn(10)-lvm(30)-hold(2)/final-lines.txt","right":"bvh/pass-bottle-training2-lines.txt","att_check":false},"trial_type":"html-keyboard-response","trial_index":326,"time_elapsed":700846,"internal_node_id":"0.0-8.0-3.79","subject":"l41r551bn4btfsj","sona":"5164"},{"rt":13200,"responses":"{\"age\":\"21\",\"gender\":\"weiblich\"}","trial_type":"survey-text","trial_index":327,"time_elapsed":714066,"internal_node_id":"0.0-10.0-0.0","subject":"l41r551bn4btfsj","sona":"5164"},{"rt":59849,"responses":"{\"area\":\"Arme\",\"Q1\":\"weniger kleine \\\"Zwischenbewegungen\\\", um bspw. nochmal etwas zu korrigieren (eine andere Bewegung oder das bewegte Objket)\",\"Q2\":\"Arme, selten auch Beine\"}","trial_type":"survey-text","trial_index":328,"time_elapsed":773930,"internal_node_id":"0.0-10.0-1.0","subject":"l41r551bn4btfsj","sona":"5164"}]