[{"rt":8605,"stimulus":"<p>Welcome!<br> Please choose your language to start the experiment in the chosen language.</p><p>Willkommen!<br> Bitte wählen Sie eine Sprache, um das Experiment in der ausgewählten Sprache zu starten</p>","button_pressed":"0","trial_type":"html-button-response","trial_index":0,"time_elapsed":8617,"internal_node_id":"0.0-0.0","subject":"cyyphvhr3usb837","sona":"7624"},{"view_history":"[{\"page_index\":0,\"viewing_time\":12137},{\"page_index\":1,\"viewing_time\":13449},{\"page_index\":2,\"viewing_time\":7740},{\"page_index\":3,\"viewing_time\":4772},{\"page_index\":4,\"viewing_time\":3347}]","rt":41445,"trial_type":"instructions","trial_index":1,"time_elapsed":50064,"internal_node_id":"0.0-2.0-0.0","subject":"cyyphvhr3usb837","sona":"7624"},{"rt":9303,"stimulus":"<p>Ready?</p>","key_press":32,"trial_type":"html-keyboard-response","trial_index":2,"time_elapsed":59369,"internal_node_id":"0.0-3.0","subject":"cyyphvhr3usb837","sona":"7624"},{"rt":null,"stimulus":"<div style=\"font-size:60px;\">+</div>","key_press":null,"trial_type":"html-keyboard-response","trial_index":3,"time_elapsed":61370,"internal_node_id":"0.0-4.0","subject":"cyyphvhr3usb837","sona":"7624"},{"trial_type":"training","trial_index":4,"time_elapsed":64767,"internal_node_id":"0.0-5.0","subject":"cyyphvhr3usb837","sona":"7624"},{"rt":2175,"stimulus":"<p>Which sequence did you perceive as more natural?</p>","key_press":70,"trial_type":"html-keyboard-response","trial_index":5,"time_elapsed":66942,"internal_node_id":"0.0-6.0","subject":"cyyphvhr3usb837","sona":"7624"},{"rt":6476,"stimulus":"<p>The experiment starts now.</p><p><small>Please click the button if you are ready.</small></p>","button_pressed":"0","trial_type":"html-button-response","trial_index":6,"time_elapsed":73421,"internal_node_id":"0.0-7.0","subject":"cyyphvhr3usb837","sona":"7624"},{"rt":1372,"stimulus":"<p>Ready?</p>","key_press":32,"trial_type":"html-keyboard-response","trial_index":7,"time_elapsed":74794,"internal_node_id":"0.0-8.0-0.0","subject":"cyyphvhr3usb837","sona":"7624"},{"rt":null,"stimulus":"<div style=\"font-size:60px;\">+</div>","key_press":null,"trial_type":"html-keyboard-response","trial_index":8,"time_elapsed":76798,"internal_node_id":"0.0-8.0-1.0","subject":"cyyphvhr3usb837","sona":"7624"},{"trial_type":"turing-test","trial_index":9,"time_elapsed":82287,"internal_node_id":"0.0-8.0-2.0","subject":"cyyphvhr3usb837","sona":"7624"},{"rt":598,"stimulus":"<p>Which sequence did you perceive as more natural?</p>","key_press":70,"test_part":"response","test_stimulus":{"position":1,"left":"bvh/vr_prediction_models/model(vcgpdm)-dataset(return-bottle-hold)-mode(ELBO)-parts(3)-dyn(35)-lvm(20)-hold(0)/final-lines.txt","right":"bvh/return-bottle-hold-training0-lines.txt","att_check":false},"trial_type":"html-keyboard-response","trial_index":10,"time_elapsed":82887,"internal_node_id":"0.0-8.0-3.0","subject":"cyyphvhr3usb837","sona":"7624"},{"rt":806,"stimulus":"<p>Ready?</p>","key_press":32,"trial_type":"html-keyboard-response","trial_index":11,"time_elapsed":83695,"internal_node_id":"0.0-8.0-0.1","subject":"cyyphvhr3usb837","sona":"7624"},{"rt":null,"stimulus":"<div style=\"font-size:60px;\">+</div>","key_press":null,"trial_type":"html-keyboard-response","trial_index":12,"time_elapsed":85699,"internal_node_id":"0.0-8.0-1.1","subject":"cyyphvhr3usb837","sona":"7624"},{"trial_type":"turing-test","trial_index":13,"time_elapsed":89565,"internal_node_id":"0.0-8.0-2.1","subject":"cyyphvhr3usb837","sona":"7624"},{"rt":681,"stimulus":"<p>Which sequence did you perceive as more natural?</p>","key_press":74,"test_part":"response","test_stimulus":{"position":1,"left":"bvh/vr_prediction_models/model(vcgpdm)-dataset(return-bottle-hold)-mode(ELBO)-parts(1)-dyn(20)-lvm(30)-hold(3)/final-lines.txt","right":"bvh/return-bottle-hold-training3-lines.txt","att_check":false},"trial_type":"html-keyboard-response","trial_index":14,"time_elapsed":90247,"internal_node_id":"0.0-8.0-3.1","subject":"cyyphvhr3usb837","sona":"7624"},{"rt":590,"stimulus":"<p>Ready?</p>","key_press":32,"trial_type":"html-keyboard-response","trial_index":15,"time_elapsed":90838,"internal_node_id":"0.0-8.0-0.2","subject":"cyyphvhr3usb837","sona":"7624"},{"rt":null,"stimulus":"<div style=\"font-size:60px;\">+</div>","key_press":null,"trial_type":"html-keyboard-response","trial_index":16,"time_elapsed":92841,"internal_node_id":"0.0-8.0-1.2","subject":"cyyphvhr3usb837","sona":"7624"},{"trial_type":"turing-test","trial_index":17,"time_elapsed":96405,"internal_node_id":"0.0-8.0-2.2","subject":"cyyphvhr3usb837","sona":"7624"},{"rt":535,"stimulus":"<p>Which sequence did you perceive as more natural?</p>","key_press":74,"test_part":"response","test_stimulus":{"position":1,"left":"bvh/vr_prediction_models/model(dmp)-dataset(return-bottle-hold)-npsi(10)-hold(1)/final-lines.txt","right":"bvh/return-bottle-hold-training1-lines.txt","att_check":false},"trial_type":"html-keyboard-response","trial_index":18,"time_elapsed":96942,"internal_node_id":"0.0-8.0-3.2","subject":"cyyphvhr3usb837","sona":"7624"},{"rt":1303,"stimulus":"<p>Ready?</p>","key_press":32,"trial_type":"html-keyboard-response","trial_index":19,"time_elapsed":98246,"internal_node_id":"0.0-8.0-0.3","subject":"cyyphvhr3usb837","sona":"7624"},{"rt":null,"stimulus":"<div style=\"font-size:60px;\">+</div>","key_press":null,"trial_type":"html-keyboard-response","trial_index":20,"time_elapsed":100248,"internal_node_id":"0.0-8.0-1.3","subject":"cyyphvhr3usb837","sona":"7624"},{"trial_type":"turing-test","trial_index":21,"time_elapsed":106288,"internal_node_id":"0.0-8.0-2.3","subject":"cyyphvhr3usb837","sona":"7624"},{"rt":324,"stimulus":"<p>Which sequence did you perceive as more natural?</p>","key_press":74,"test_part":"response","test_stimulus":{"position":1,"left":"bvh/vr_prediction_models/model(vcgpdm)-dataset(return-bottle)-mode(ELBO)-parts(1)-dyn(10)-lvm(30)-hold(3)/final-lines.txt","right":"bvh/return-bottle-training3-lines.txt","att_check":false},"trial_type":"html-keyboard-response","trial_index":22,"time_elapsed":106615,"internal_node_id":"0.0-8.0-3.3","subject":"cyyphvhr3usb837","sona":"7624"},{"rt":751,"stimulus":"<p>Ready?</p>","key_press":32,"trial_type":"html-keyboard-response","trial_index":23,"time_elapsed":107366,"internal_node_id":"0.0-8.0-0.4","subject":"cyyphvhr3usb837","sona":"7624"},{"rt":null,"stimulus":"<div style=\"font-size:60px;\">+</div>","key_press":null,"trial_type":"html-keyboard-response","trial_index":24,"time_elapsed":109368,"internal_node_id":"0.0-8.0-1.4","subject":"cyyphvhr3usb837","sona":"7624"},{"trial_type":"turing-test","trial_index":25,"time_elapsed":116132,"internal_node_id":"0.0-8.0-2.4","subject":"cyyphvhr3usb837","sona":"7624"},{"rt":466,"stimulus":"<p>Which sequence did you perceive as more natural?</p>","key_press":74,"test_part":"response","test_stimulus":{"position":1,"left":"bvh/vr_prediction_models/model(tmp)-dataset(pass-bottle)-numprim(12)-hold(0)/final-lines.txt","right":"bvh/pass-bottle-training0-lines.txt","att_check":false},"trial_type":"html-keyboard-response","trial_index":26,"time_elapsed":116599,"internal_node_id":"0.0-8.0-3.4","subject":"cyyphvhr3usb837","sona":"7624"},{"rt":478,"stimulus":"<p>Ready?</p>","key_press":32,"trial_type":"html-keyboard-response","trial_index":27,"time_elapsed":117078,"internal_node_id":"0.0-8.0-0.5","subject":"cyyphvhr3usb837","sona":"7624"},{"rt":null,"stimulus":"<div style=\"font-size:60px;\">+</div>","key_press":null,"trial_type":"html-keyboard-response","trial_index":28,"time_elapsed":119079,"internal_node_id":"0.0-8.0-1.5","subject":"cyyphvhr3usb837","sona":"7624"},{"trial_type":"turing-test","trial_index":29,"time_elapsed":122917,"internal_node_id":"0.0-8.0-2.5","subject":"cyyphvhr3usb837","sona":"7624"},{"rt":385,"stimulus":"<p>Which sequence did you perceive as more natural?</p>","key_press":74,"test_part":"response","test_stimulus":{"position":0,"left":"bvh/pass-bottle-hold-training4-lines.txt","right":"bvh/vr_prediction_models/model(vcgpdm)-dataset(pass-bottle-hold)-mode(ELBO)-parts(1)-dyn(30)-lvm(30)-hold(4)/final-lines.txt","att_check":false},"trial_type":"html-keyboard-response","trial_index":30,"time_elapsed":123303,"internal_node_id":"0.0-8.0-3.5","subject":"cyyphvhr3usb837","sona":"7624"},{"rt":367,"stimulus":"<p>Ready?</p>","key_press":32,"trial_type":"html-keyboard-response","trial_index":31,"time_elapsed":123670,"internal_node_id":"0.0-8.0-0.6","subject":"cyyphvhr3usb837","sona":"7624"},{"rt":null,"stimulus":"<div style=\"font-size:60px;\">+</div>","key_press":null,"trial_type":"html-keyboard-response","trial_index":32,"time_elapsed":125674,"internal_node_id":"0.0-8.0-1.6","subject":"cyyphvhr3usb837","sona":"7624"},{"trial_type":"turing-test","trial_index":33,"time_elapsed":132351,"internal_node_id":"0.0-8.0-2.6","subject":"cyyphvhr3usb837","sona":"7624"},{"rt":382,"stimulus":"<p>Which sequence did you perceive as more natural?</p>","key_press":70,"test_part":"response","test_stimulus":{"position":0,"left":"bvh/return-bottle-training2-lines.txt","right":"bvh/vr_prediction_models/model(dmp)-dataset(return-bottle)-npsi(70)-hold(2)/final-lines.txt","att_check":false},"trial_type":"html-keyboard-response","trial_index":34,"time_elapsed":132734,"internal_node_id":"0.0-8.0-3.6","subject":"cyyphvhr3usb837","sona":"7624"},{"rt":440,"stimulus":"<p>Ready?</p>","key_press":32,"trial_type":"html-keyboard-response","trial_index":35,"time_elapsed":133175,"internal_node_id":"0.0-8.0-0.7","subject":"cyyphvhr3usb837","sona":"7624"},{"rt":null,"stimulus":"<div style=\"font-size:60px;\">+</div>","key_press":null,"trial_type":"html-keyboard-response","trial_index":36,"time_elapsed":135180,"internal_node_id":"0.0-8.0-1.7","subject":"cyyphvhr3usb837","sona":"7624"},{"trial_type":"turing-test","trial_index":37,"time_elapsed":141880,"internal_node_id":"0.0-8.0-2.7","subject":"cyyphvhr3usb837","sona":"7624"},{"rt":414,"stimulus":"<p>Which sequence did you perceive as more natural?</p>","key_press":70,"test_part":"response","test_stimulus":{"position":0,"left":"bvh/pass-bottle-training0-lines.txt","right":"bvh/vr_prediction_models/model(tmp)-dataset(pass-bottle)-numprim(4)-hold(0)/final-lines.txt","att_check":false},"trial_type":"html-keyboard-response","trial_index":38,"time_elapsed":142295,"internal_node_id":"0.0-8.0-3.7","subject":"cyyphvhr3usb837","sona":"7624"},{"rt":447,"stimulus":"<p>Ready?</p>","key_press":32,"trial_type":"html-keyboard-response","trial_index":39,"time_elapsed":142742,"internal_node_id":"0.0-8.0-0.8","subject":"cyyphvhr3usb837","sona":"7624"},{"rt":null,"stimulus":"<div style=\"font-size:60px;\">+</div>","key_press":null,"trial_type":"html-keyboard-response","trial_index":40,"time_elapsed":144744,"internal_node_id":"0.0-8.0-1.8","subject":"cyyphvhr3usb837","sona":"7624"},{"trial_type":"turing-test","trial_index":41,"time_elapsed":148388,"internal_node_id":"0.0-8.0-2.8","subject":"cyyphvhr3usb837","sona":"7624"},{"rt":523,"stimulus":"<p>Which sequence did you perceive as more natural?</p>","key_press":70,"test_part":"response","test_stimulus":{"position":0,"left":"bvh/return-bottle-hold-training3-lines.txt","right":"bvh/vr_prediction_models/model(tmp)-dataset(return-bottle-hold)-numprim(4)-hold(3)/final-lines.txt","att_check":false},"trial_type":"html-keyboard-response","trial_index":42,"time_elapsed":148911,"internal_node_id":"0.0-8.0-3.8","subject":"cyyphvhr3usb837","sona":"7624"},{"rt":318,"stimulus":"<p>Ready?</p>","key_press":32,"trial_type":"html-keyboard-response","trial_index":43,"time_elapsed":149230,"internal_node_id":"0.0-8.0-0.9","subject":"cyyphvhr3usb837","sona":"7624"},{"rt":null,"stimulus":"<div style=\"font-size:60px;\">+</div>","key_press":null,"trial_type":"html-keyboard-response","trial_index":44,"time_elapsed":151233,"internal_node_id":"0.0-8.0-1.9","subject":"cyyphvhr3usb837","sona":"7624"},{"trial_type":"turing-test","trial_index":45,"time_elapsed":154525,"internal_node_id":"0.0-8.0-2.9","subject":"cyyphvhr3usb837","sona":"7624"},{"rt":656,"stimulus":"<p>Which sequence did you perceive as more natural?</p>","key_press":70,"test_part":"response","test_stimulus":{"position":0,"left":"bvh/return-bottle-hold-training1-lines.txt","right":"bvh/vr_prediction_models/model(tmp)-dataset(return-bottle-hold)-numprim(12)-hold(1)/final-lines.txt","att_check":false},"trial_type":"html-keyboard-response","trial_index":46,"time_elapsed":155182,"internal_node_id":"0.0-8.0-3.9","subject":"cyyphvhr3usb837","sona":"7624"},{"rt":287,"stimulus":"<p>Ready?</p>","key_press":32,"trial_type":"html-keyboard-response","trial_index":47,"time_elapsed":155470,"internal_node_id":"0.0-8.0-0.10","subject":"cyyphvhr3usb837","sona":"7624"},{"rt":null,"stimulus":"<div style=\"font-size:60px;\">+</div>","key_press":null,"trial_type":"html-keyboard-response","trial_index":48,"time_elapsed":157477,"internal_node_id":"0.0-8.0-1.10","subject":"cyyphvhr3usb837","sona":"7624"},{"trial_type":"turing-test","trial_index":49,"time_elapsed":163179,"internal_node_id":"0.0-8.0-2.10","subject":"cyyphvhr3usb837","sona":"7624"},{"rt":386,"stimulus":"<p>Which sequence did you perceive as more natural?</p>","key_press":70,"test_part":"response","test_stimulus":{"position":0,"left":"bvh/return-bottle-training0-lines.txt","right":"bvh/vr_prediction_models/model(dmp)-dataset(return-bottle)-npsi(50)-hold(0)/final-lines.txt","att_check":false},"trial_type":"html-keyboard-response","trial_index":50,"time_elapsed":163567,"internal_node_id":"0.0-8.0-3.10","subject":"cyyphvhr3usb837","sona":"7624"},{"rt":390,"stimulus":"<p>Ready?</p>","key_press":32,"trial_type":"html-keyboard-response","trial_index":51,"time_elapsed":163958,"internal_node_id":"0.0-8.0-0.11","subject":"cyyphvhr3usb837","sona":"7624"},{"rt":null,"stimulus":"<div style=\"font-size:60px;\">+</div>","key_press":null,"trial_type":"html-keyboard-response","trial_index":52,"time_elapsed":165963,"internal_node_id":"0.0-8.0-1.11","subject":"cyyphvhr3usb837","sona":"7624"},{"trial_type":"turing-test","trial_index":53,"time_elapsed":169722,"internal_node_id":"0.0-8.0-2.11","subject":"cyyphvhr3usb837","sona":"7624"},{"rt":779,"stimulus":"<p>Which sequence did you perceive as more natural?</p>","key_press":74,"test_part":"response","test_stimulus":{"position":0,"left":"bvh/pass-bottle-hold-training4-lines.txt","right":"bvh/vr_prediction_models/model(vcgpdm)-dataset(pass-bottle-hold)-mode(ELBO)-parts(3)-dyn(15)-lvm(30)-hold(4)/final-lines.txt","att_check":false},"trial_type":"html-keyboard-response","trial_index":54,"time_elapsed":170502,"internal_node_id":"0.0-8.0-3.11","subject":"cyyphvhr3usb837","sona":"7624"},{"rt":318,"stimulus":"<p>Ready?</p>","key_press":32,"trial_type":"html-keyboard-response","trial_index":55,"time_elapsed":170822,"internal_node_id":"0.0-8.0-0.12","subject":"cyyphvhr3usb837","sona":"7624"},{"rt":null,"stimulus":"<div style=\"font-size:60px;\">+</div>","key_press":null,"trial_type":"html-keyboard-response","trial_index":56,"time_elapsed":172823,"internal_node_id":"0.0-8.0-1.12","subject":"cyyphvhr3usb837","sona":"7624"},{"trial_type":"turing-test","trial_index":57,"time_elapsed":178095,"internal_node_id":"0.0-8.0-2.12","subject":"cyyphvhr3usb837","sona":"7624"},{"rt":141,"stimulus":"<p>Which sequence did you perceive as more natural?</p>","key_press":74,"test_part":"response","test_stimulus":{"position":1,"left":"bvh/vr_prediction_models/model(vcgpdm)-dataset(return-bottle-hold)-mode(ELBO)-parts(1)-dyn(10)-lvm(25)-hold(0)/final-lines.txt","right":"bvh/return-bottle-hold-training0-lines.txt","att_check":false},"trial_type":"html-keyboard-response","trial_index":58,"time_elapsed":178239,"internal_node_id":"0.0-8.0-3.12","subject":"cyyphvhr3usb837","sona":"7624"},{"rt":551,"stimulus":"<p>Ready?</p>","key_press":32,"trial_type":"html-keyboard-response","trial_index":59,"time_elapsed":178790,"internal_node_id":"0.0-8.0-0.13","subject":"cyyphvhr3usb837","sona":"7624"},{"rt":null,"stimulus":"<div style=\"font-size:60px;\">+</div>","key_press":null,"trial_type":"html-keyboard-response","trial_index":60,"time_elapsed":180799,"internal_node_id":"0.0-8.0-1.13","subject":"cyyphvhr3usb837","sona":"7624"},{"trial_type":"turing-test","trial_index":61,"time_elapsed":184298,"internal_node_id":"0.0-8.0-2.13","subject":"cyyphvhr3usb837","sona":"7624"},{"rt":331,"stimulus":"<p>Which sequence did you perceive as more natural?</p>","key_press":74,"test_part":"response","test_stimulus":{"position":1,"left":"bvh/vr_prediction_models/model(vcgpdm)-dataset(return-bottle-hold)-mode(ELBO)-parts(1)-dyn(20)-lvm(30)-hold(1)/final-lines.txt","right":"bvh/return-bottle-hold-training1-lines.txt","att_check":false},"trial_type":"html-keyboard-response","trial_index":62,"time_elapsed":184631,"internal_node_id":"0.0-8.0-3.13","subject":"cyyphvhr3usb837","sona":"7624"},{"rt":359,"stimulus":"<p>Ready?</p>","key_press":32,"trial_type":"html-keyboard-response","trial_index":63,"time_elapsed":184990,"internal_node_id":"0.0-8.0-0.14","subject":"cyyphvhr3usb837","sona":"7624"},{"rt":null,"stimulus":"<div style=\"font-size:60px;\">+</div>","key_press":null,"trial_type":"html-keyboard-response","trial_index":64,"time_elapsed":186992,"internal_node_id":"0.0-8.0-1.14","subject":"cyyphvhr3usb837","sona":"7624"},{"trial_type":"turing-test","trial_index":65,"time_elapsed":193789,"internal_node_id":"0.0-8.0-2.14","subject":"cyyphvhr3usb837","sona":"7624"},{"rt":329,"stimulus":"<p>Which sequence did you perceive as more natural?</p>","key_press":70,"test_part":"response","test_stimulus":{"position":0,"left":"bvh/return-bottle-training2-lines.txt","right":"bvh/vr_prediction_models/model(vcgpdm)-dataset(return-bottle)-mode(ELBO)-parts(1)-dyn(35)-lvm(30)-hold(2)/final-lines.txt","att_check":false},"trial_type":"html-keyboard-response","trial_index":66,"time_elapsed":194118,"internal_node_id":"0.0-8.0-3.14","subject":"cyyphvhr3usb837","sona":"7624"},{"rt":391,"stimulus":"<p>Ready?</p>","key_press":32,"trial_type":"html-keyboard-response","trial_index":67,"time_elapsed":194510,"internal_node_id":"0.0-8.0-0.15","subject":"cyyphvhr3usb837","sona":"7624"},{"rt":null,"stimulus":"<div style=\"font-size:60px;\">+</div>","key_press":null,"trial_type":"html-keyboard-response","trial_index":68,"time_elapsed":196517,"internal_node_id":"0.0-8.0-1.15","subject":"cyyphvhr3usb837","sona":"7624"},{"trial_type":"turing-test","trial_index":69,"time_elapsed":203123,"internal_node_id":"0.0-8.0-2.15","subject":"cyyphvhr3usb837","sona":"7624"},{"rt":362,"stimulus":"<p>Which sequence did you perceive as more natural?</p>","key_press":70,"test_part":"response","test_stimulus":{"position":0,"left":"bvh/return-bottle-training2-lines.txt","right":"bvh/vr_prediction_models/model(tmp)-dataset(return-bottle)-numprim(11)-hold(2)/final-lines.txt","att_check":false},"trial_type":"html-keyboard-response","trial_index":70,"time_elapsed":203486,"internal_node_id":"0.0-8.0-3.15","subject":"cyyphvhr3usb837","sona":"7624"},{"rt":302,"stimulus":"<p>Ready?</p>","key_press":32,"trial_type":"html-keyboard-response","trial_index":71,"time_elapsed":203790,"internal_node_id":"0.0-8.0-0.16","subject":"cyyphvhr3usb837","sona":"7624"},{"rt":null,"stimulus":"<div style=\"font-size:60px;\">+</div>","key_press":null,"trial_type":"html-keyboard-response","trial_index":72,"time_elapsed":205793,"internal_node_id":"0.0-8.0-1.16","subject":"cyyphvhr3usb837","sona":"7624"},{"trial_type":"turing-test","trial_index":73,"time_elapsed":209147,"internal_node_id":"0.0-8.0-2.16","subject":"cyyphvhr3usb837","sona":"7624"},{"rt":1617,"stimulus":"<p>Which sequence did you perceive as more natural?</p>","key_press":70,"test_part":"response","test_stimulus":{"position":1,"left":"bvh/vr_prediction_models/model(dmp)-dataset(pass-bottle-hold)-npsi(70)-hold(2)/final-lines.txt","right":"bvh/pass-bottle-hold-training2-lines.txt","att_check":false},"trial_type":"html-keyboard-response","trial_index":74,"time_elapsed":210767,"internal_node_id":"0.0-8.0-3.16","subject":"cyyphvhr3usb837","sona":"7624"},{"rt":477,"stimulus":"<p>Ready?</p>","key_press":32,"trial_type":"html-keyboard-response","trial_index":75,"time_elapsed":211246,"internal_node_id":"0.0-8.0-0.17","subject":"cyyphvhr3usb837","sona":"7624"},{"rt":null,"stimulus":"<div style=\"font-size:60px;\">+</div>","key_press":null,"trial_type":"html-keyboard-response","trial_index":76,"time_elapsed":213252,"internal_node_id":"0.0-8.0-1.17","subject":"cyyphvhr3usb837","sona":"7624"},{"trial_type":"turing-test","trial_index":77,"time_elapsed":216479,"internal_node_id":"0.0-8.0-2.17","subject":"cyyphvhr3usb837","sona":"7624"},{"rt":398,"stimulus":"<p>Which sequence did you perceive as more natural?</p>","key_press":70,"test_part":"response","test_stimulus":{"position":1,"left":"bvh/vr_prediction_models/model(tmp)-dataset(pass-bottle-hold)-numprim(8)-hold(1)/final-lines.txt","right":"bvh/pass-bottle-hold-training1-lines.txt","att_check":false},"trial_type":"html-keyboard-response","trial_index":78,"time_elapsed":216879,"internal_node_id":"0.0-8.0-3.17","subject":"cyyphvhr3usb837","sona":"7624"},{"rt":246,"stimulus":"<p>Ready?</p>","key_press":32,"trial_type":"html-keyboard-response","trial_index":79,"time_elapsed":217126,"internal_node_id":"0.0-8.0-0.18","subject":"cyyphvhr3usb837","sona":"7624"},{"rt":null,"stimulus":"<div style=\"font-size:60px;\">+</div>","key_press":null,"trial_type":"html-keyboard-response","trial_index":80,"time_elapsed":219130,"internal_node_id":"0.0-8.0-1.18","subject":"cyyphvhr3usb837","sona":"7624"},{"trial_type":"turing-test","trial_index":81,"time_elapsed":222641,"internal_node_id":"0.0-8.0-2.18","subject":"cyyphvhr3usb837","sona":"7624"},{"rt":12302,"stimulus":"<p>Which sequence did you perceive as more natural?</p>","key_press":74,"test_part":"response","test_stimulus":{"position":0,"left":"bvh/return-bottle-hold-training1-lines.txt","right":"bvh/vr_prediction_models/model(vcgpdm)-dataset(return-bottle-hold)-mode(ELBO)-parts(1)-dyn(15)-lvm(35)-hold(1)/final-lines.txt","att_check":false},"trial_type":"html-keyboard-response","trial_index":82,"time_elapsed":234944,"internal_node_id":"0.0-8.0-3.18","subject":"cyyphvhr3usb837","sona":"7624"},{"rt":1085,"stimulus":"<p>Ready?</p>","key_press":32,"trial_type":"html-keyboard-response","trial_index":83,"time_elapsed":236031,"internal_node_id":"0.0-8.0-0.19","subject":"cyyphvhr3usb837","sona":"7624"},{"rt":null,"stimulus":"<div style=\"font-size:60px;\">+</div>","key_press":null,"trial_type":"html-keyboard-response","trial_index":84,"time_elapsed":238041,"internal_node_id":"0.0-8.0-1.19","subject":"cyyphvhr3usb837","sona":"7624"},{"trial_type":"turing-test","trial_index":85,"time_elapsed":241534,"internal_node_id":"0.0-8.0-2.19","subject":"cyyphvhr3usb837","sona":"7624"},{"rt":343,"stimulus":"<p>Which sequence did you perceive as more natural?</p>","key_press":74,"test_part":"response","test_stimulus":{"position":1,"left":"bvh/vr_prediction_models/model(dmp)-dataset(return-bottle-hold)-npsi(100)-hold(2)/final-lines.txt","right":"bvh/return-bottle-hold-training2-lines.txt","att_check":false},"trial_type":"html-keyboard-response","trial_index":86,"time_elapsed":241878,"internal_node_id":"0.0-8.0-3.19","subject":"cyyphvhr3usb837","sona":"7624"},{"rt":279,"stimulus":"<p>Ready?</p>","key_press":32,"trial_type":"html-keyboard-response","trial_index":87,"time_elapsed":242159,"internal_node_id":"0.0-8.0-0.20","subject":"cyyphvhr3usb837","sona":"7624"},{"rt":null,"stimulus":"<div style=\"font-size:60px;\">+</div>","key_press":null,"trial_type":"html-keyboard-response","trial_index":88,"time_elapsed":244161,"internal_node_id":"0.0-8.0-1.20","subject":"cyyphvhr3usb837","sona":"7624"},{"trial_type":"turing-test","trial_index":89,"time_elapsed":247730,"internal_node_id":"0.0-8.0-2.20","subject":"cyyphvhr3usb837","sona":"7624"},{"rt":354,"stimulus":"<p>Which sequence did you perceive as more natural?</p>","key_press":74,"test_part":"response","test_stimulus":{"position":1,"left":"bvh/vr_prediction_models/model(vcgpdm)-dataset(pass-bottle-hold)-mode(ELBO)-parts(3)-dyn(25)-lvm(25)-hold(0)/final-lines.txt","right":"bvh/pass-bottle-hold-training0-lines.txt","att_check":false},"trial_type":"html-keyboard-response","trial_index":90,"time_elapsed":248085,"internal_node_id":"0.0-8.0-3.20","subject":"cyyphvhr3usb837","sona":"7624"},{"rt":262,"stimulus":"<p>Ready?</p>","key_press":32,"trial_type":"html-keyboard-response","trial_index":91,"time_elapsed":248349,"internal_node_id":"0.0-8.0-0.21","subject":"cyyphvhr3usb837","sona":"7624"},{"rt":null,"stimulus":"<div style=\"font-size:60px;\">+</div>","key_press":null,"trial_type":"html-keyboard-response","trial_index":92,"time_elapsed":250354,"internal_node_id":"0.0-8.0-1.21","subject":"cyyphvhr3usb837","sona":"7624"},{"trial_type":"turing-test","trial_index":93,"time_elapsed":255913,"internal_node_id":"0.0-8.0-2.21","subject":"cyyphvhr3usb837","sona":"7624"},{"rt":346,"stimulus":"<p>Which sequence did you perceive as more natural?</p>","key_press":74,"test_part":"response","test_stimulus":{"position":1,"left":"bvh/vr_prediction_models/model(tmp)-dataset(return-bottle)-numprim(15)-hold(0)/final-lines.txt","right":"bvh/return-bottle-training0-lines.txt","att_check":false},"trial_type":"html-keyboard-response","trial_index":94,"time_elapsed":256259,"internal_node_id":"0.0-8.0-3.21","subject":"cyyphvhr3usb837","sona":"7624"},{"rt":358,"stimulus":"<p>Ready?</p>","key_press":32,"trial_type":"html-keyboard-response","trial_index":95,"time_elapsed":256619,"internal_node_id":"0.0-8.0-0.22","subject":"cyyphvhr3usb837","sona":"7624"},{"rt":null,"stimulus":"<div style=\"font-size:60px;\">+</div>","key_press":null,"trial_type":"html-keyboard-response","trial_index":96,"time_elapsed":258625,"internal_node_id":"0.0-8.0-1.22","subject":"cyyphvhr3usb837","sona":"7624"},{"trial_type":"turing-test","trial_index":97,"time_elapsed":262023,"internal_node_id":"0.0-8.0-2.22","subject":"cyyphvhr3usb837","sona":"7624"},{"rt":705,"stimulus":"<p>Which sequence did you perceive as more natural?</p>","key_press":70,"test_part":"response","test_stimulus":{"position":0,"left":"bvh/return-bottle-hold-training2-lines.txt","right":"bvh/vr_prediction_models/model(tmp)-dataset(return-bottle-hold)-numprim(9)-hold(2)/final-lines.txt","att_check":false},"trial_type":"html-keyboard-response","trial_index":98,"time_elapsed":262729,"internal_node_id":"0.0-8.0-3.22","subject":"cyyphvhr3usb837","sona":"7624"},{"rt":335,"stimulus":"<p>Ready?</p>","key_press":32,"trial_type":"html-keyboard-response","trial_index":99,"time_elapsed":263065,"internal_node_id":"0.0-8.0-0.23","subject":"cyyphvhr3usb837","sona":"7624"},{"rt":null,"stimulus":"<div style=\"font-size:60px;\">+</div>","key_press":null,"trial_type":"html-keyboard-response","trial_index":100,"time_elapsed":265074,"internal_node_id":"0.0-8.0-1.23","subject":"cyyphvhr3usb837","sona":"7624"},{"trial_type":"turing-test","trial_index":101,"time_elapsed":271988,"internal_node_id":"0.0-8.0-2.23","subject":"cyyphvhr3usb837","sona":"7624"},{"rt":290,"stimulus":"<p>Which sequence did you perceive as more natural?</p>","key_press":74,"test_part":"response","test_stimulus":{"position":1,"left":"bvh/vr_prediction_models/model(dmp)-dataset(pass-bottle)-npsi(100)-hold(0)/final-lines.txt","right":"bvh/pass-bottle-training0-lines.txt","att_check":false},"trial_type":"html-keyboard-response","trial_index":102,"time_elapsed":272280,"internal_node_id":"0.0-8.0-3.23","subject":"cyyphvhr3usb837","sona":"7624"},{"rt":614,"stimulus":"<p>Ready?</p>","key_press":32,"trial_type":"html-keyboard-response","trial_index":103,"time_elapsed":272896,"internal_node_id":"0.0-8.0-0.24","subject":"cyyphvhr3usb837","sona":"7624"},{"rt":null,"stimulus":"<div style=\"font-size:60px;\">+</div>","key_press":null,"trial_type":"html-keyboard-response","trial_index":104,"time_elapsed":274905,"internal_node_id":"0.0-8.0-1.24","subject":"cyyphvhr3usb837","sona":"7624"},{"trial_type":"turing-test","trial_index":105,"time_elapsed":280636,"internal_node_id":"0.0-8.0-2.24","subject":"cyyphvhr3usb837","sona":"7624"},{"rt":347,"stimulus":"<p>Which sequence did you perceive as more natural?</p>","key_press":74,"test_part":"response","test_stimulus":{"position":1,"left":"bvh/vr_prediction_models/model(vcgpdm)-dataset(return-bottle)-mode(ELBO)-parts(3)-dyn(10)-lvm(10)-hold(0)/final-lines.txt","right":"bvh/return-bottle-training0-lines.txt","att_check":false},"trial_type":"html-keyboard-response","trial_index":106,"time_elapsed":280984,"internal_node_id":"0.0-8.0-3.24","subject":"cyyphvhr3usb837","sona":"7624"},{"rt":351,"stimulus":"<p>Ready?</p>","key_press":32,"trial_type":"html-keyboard-response","trial_index":107,"time_elapsed":281336,"internal_node_id":"0.0-8.0-0.25","subject":"cyyphvhr3usb837","sona":"7624"},{"rt":null,"stimulus":"<div style=\"font-size:60px;\">+</div>","key_press":null,"trial_type":"html-keyboard-response","trial_index":108,"time_elapsed":283341,"internal_node_id":"0.0-8.0-1.25","subject":"cyyphvhr3usb837","sona":"7624"},{"trial_type":"turing-test","trial_index":109,"time_elapsed":288383,"internal_node_id":"0.0-8.0-2.25","subject":"cyyphvhr3usb837","sona":"7624"},{"rt":1193,"stimulus":"<p>Which sequence did you perceive as more natural?</p>","key_press":70,"test_part":"response","test_stimulus":{"position":0,"left":"bvh/return-bottle-hold-training0-lines.txt","right":"bvh/vr_prediction_models/model(dmp)-dataset(return-bottle-hold)-npsi(20)-hold(0)/final-lines.txt","att_check":false},"trial_type":"html-keyboard-response","trial_index":110,"time_elapsed":289577,"internal_node_id":"0.0-8.0-3.25","subject":"cyyphvhr3usb837","sona":"7624"},{"rt":783,"stimulus":"<p>Ready?</p>","key_press":32,"trial_type":"html-keyboard-response","trial_index":111,"time_elapsed":290361,"internal_node_id":"0.0-8.0-0.26","subject":"cyyphvhr3usb837","sona":"7624"},{"rt":null,"stimulus":"<div style=\"font-size:60px;\">+</div>","key_press":null,"trial_type":"html-keyboard-response","trial_index":112,"time_elapsed":292365,"internal_node_id":"0.0-8.0-1.26","subject":"cyyphvhr3usb837","sona":"7624"},{"trial_type":"turing-test","trial_index":113,"time_elapsed":296258,"internal_node_id":"0.0-8.0-2.26","subject":"cyyphvhr3usb837","sona":"7624"},{"rt":580,"stimulus":"<p>Which sequence did you perceive as more natural?</p>","key_press":70,"test_part":"response","test_stimulus":{"position":0,"left":"bvh/pass-bottle-hold-training0-lines.txt","right":"bvh/vr_prediction_models/model(vcgpdm)-dataset(pass-bottle-hold)-mode(ELBO)-parts(1)-dyn(30)-lvm(20)-hold(0)/final-lines.txt","att_check":false},"trial_type":"html-keyboard-response","trial_index":114,"time_elapsed":296838,"internal_node_id":"0.0-8.0-3.26","subject":"cyyphvhr3usb837","sona":"7624"},{"rt":319,"stimulus":"<p>Ready?</p>","key_press":32,"trial_type":"html-keyboard-response","trial_index":115,"time_elapsed":297158,"internal_node_id":"0.0-8.0-0.27","subject":"cyyphvhr3usb837","sona":"7624"},{"rt":null,"stimulus":"<div style=\"font-size:60px;\">+</div>","key_press":null,"trial_type":"html-keyboard-response","trial_index":116,"time_elapsed":299164,"internal_node_id":"0.0-8.0-1.27","subject":"cyyphvhr3usb837","sona":"7624"},{"trial_type":"turing-test","trial_index":117,"time_elapsed":305431,"internal_node_id":"0.0-8.0-2.27","subject":"cyyphvhr3usb837","sona":"7624"},{"rt":237,"stimulus":"<p>Which sequence did you perceive as more natural?</p>","key_press":74,"test_part":"response","test_stimulus":{"position":1,"left":"bvh/vr_prediction_models/model(vcgpdm)-dataset(return-bottle)-mode(ELBO)-parts(3)-dyn(25)-lvm(30)-hold(1)/final-lines.txt","right":"bvh/return-bottle-training1-lines.txt","att_check":false},"trial_type":"html-keyboard-response","trial_index":118,"time_elapsed":305670,"internal_node_id":"0.0-8.0-3.27","subject":"cyyphvhr3usb837","sona":"7624"},{"rt":453,"stimulus":"<p>Ready?</p>","key_press":32,"trial_type":"html-keyboard-response","trial_index":119,"time_elapsed":306125,"internal_node_id":"0.0-8.0-0.28","subject":"cyyphvhr3usb837","sona":"7624"},{"rt":null,"stimulus":"<div style=\"font-size:60px;\">+</div>","key_press":null,"trial_type":"html-keyboard-response","trial_index":120,"time_elapsed":308128,"internal_node_id":"0.0-8.0-1.28","subject":"cyyphvhr3usb837","sona":"7624"},{"trial_type":"turing-test","trial_index":121,"time_elapsed":311330,"internal_node_id":"0.0-8.0-2.28","subject":"cyyphvhr3usb837","sona":"7624"},{"rt":451,"stimulus":"<p>Which sequence did you perceive as more natural?</p>","key_press":70,"test_part":"response","test_stimulus":{"position":0,"left":"bvh/pass-bottle-hold-training1-lines.txt","right":"bvh/vr_prediction_models/model(dmp)-dataset(pass-bottle-hold)-npsi(10)-hold(1)/final-lines.txt","att_check":false},"trial_type":"html-keyboard-response","trial_index":122,"time_elapsed":311782,"internal_node_id":"0.0-8.0-3.28","subject":"cyyphvhr3usb837","sona":"7624"},{"rt":391,"stimulus":"<p>Ready?</p>","key_press":32,"trial_type":"html-keyboard-response","trial_index":123,"time_elapsed":312174,"internal_node_id":"0.0-8.0-0.29","subject":"cyyphvhr3usb837","sona":"7624"},{"rt":null,"stimulus":"<div style=\"font-size:60px;\">+</div>","key_press":null,"trial_type":"html-keyboard-response","trial_index":124,"time_elapsed":314176,"internal_node_id":"0.0-8.0-1.29","subject":"cyyphvhr3usb837","sona":"7624"},{"trial_type":"turing-test","trial_index":125,"time_elapsed":318101,"internal_node_id":"0.0-8.0-2.29","subject":"cyyphvhr3usb837","sona":"7624"},{"rt":460,"stimulus":"<p>Which sequence did you perceive as more natural?</p>","key_press":74,"test_part":"response","test_stimulus":{"position":0,"left":"bvh/return-bottle-hold-training3-lines.txt","right":"bvh/vr_prediction_models/model(vcgpdm)-dataset(return-bottle-hold)-mode(ELBO)-parts(1)-dyn(35)-lvm(30)-hold(3)/final-lines.txt","att_check":false},"trial_type":"html-keyboard-response","trial_index":126,"time_elapsed":318562,"internal_node_id":"0.0-8.0-3.29","subject":"cyyphvhr3usb837","sona":"7624"},{"rt":302,"stimulus":"<p>Ready?</p>","key_press":32,"trial_type":"html-keyboard-response","trial_index":127,"time_elapsed":318866,"internal_node_id":"0.0-8.0-0.30","subject":"cyyphvhr3usb837","sona":"7624"},{"rt":null,"stimulus":"<div style=\"font-size:60px;\">+</div>","key_press":null,"trial_type":"html-keyboard-response","trial_index":128,"time_elapsed":320873,"internal_node_id":"0.0-8.0-1.30","subject":"cyyphvhr3usb837","sona":"7624"},{"trial_type":"turing-test","trial_index":129,"time_elapsed":325998,"internal_node_id":"0.0-8.0-2.30","subject":"cyyphvhr3usb837","sona":"7624"},{"rt":416,"stimulus":"<p>Which sequence did you perceive as more natural?</p>","key_press":74,"test_part":"response","test_stimulus":{"position":1,"left":"bvh/vr_prediction_models/model(dmp)-dataset(return-bottle-hold)-npsi(80)-hold(0)/final-lines.txt","right":"bvh/return-bottle-hold-training0-lines.txt","att_check":false},"trial_type":"html-keyboard-response","trial_index":130,"time_elapsed":326414,"internal_node_id":"0.0-8.0-3.30","subject":"cyyphvhr3usb837","sona":"7624"},{"rt":343,"stimulus":"<p>Ready?</p>","key_press":32,"trial_type":"html-keyboard-response","trial_index":131,"time_elapsed":326758,"internal_node_id":"0.0-8.0-0.31","subject":"cyyphvhr3usb837","sona":"7624"},{"rt":null,"stimulus":"<div style=\"font-size:60px;\">+</div>","key_press":null,"trial_type":"html-keyboard-response","trial_index":132,"time_elapsed":328766,"internal_node_id":"0.0-8.0-1.31","subject":"cyyphvhr3usb837","sona":"7624"},{"trial_type":"turing-test","trial_index":133,"time_elapsed":332083,"internal_node_id":"0.0-8.0-2.31","subject":"cyyphvhr3usb837","sona":"7624"},{"rt":11113,"stimulus":"<p>Which sequence did you perceive as more natural?</p>","key_press":74,"test_part":"response","test_stimulus":{"position":0,"left":"bvh/pass-bottle-hold-training0-lines.txt","right":"bvh/vr_prediction_models/model(dmp)-dataset(pass-bottle-hold)-npsi(80)-hold(0)/final-lines.txt","att_check":false},"trial_type":"html-keyboard-response","trial_index":134,"time_elapsed":343198,"internal_node_id":"0.0-8.0-3.31","subject":"cyyphvhr3usb837","sona":"7624"},{"rt":405,"stimulus":"<p>Ready?</p>","key_press":32,"trial_type":"html-keyboard-response","trial_index":135,"time_elapsed":343605,"internal_node_id":"0.0-8.0-0.32","subject":"cyyphvhr3usb837","sona":"7624"},{"rt":null,"stimulus":"<div style=\"font-size:60px;\">+</div>","key_press":null,"trial_type":"html-keyboard-response","trial_index":136,"time_elapsed":345613,"internal_node_id":"0.0-8.0-1.32","subject":"cyyphvhr3usb837","sona":"7624"},{"trial_type":"turing-test","trial_index":137,"time_elapsed":349187,"internal_node_id":"0.0-8.0-2.32","subject":"cyyphvhr3usb837","sona":"7624"},{"rt":526,"stimulus":"<p>Which sequence did you perceive as more natural?</p>","key_press":74,"test_part":"response","test_stimulus":{"position":1,"left":"bvh/vr_prediction_models/model(tmp)-dataset(pass-bottle-hold)-numprim(4)-hold(3)/final-lines.txt","right":"bvh/pass-bottle-hold-training3-lines.txt","att_check":false},"trial_type":"html-keyboard-response","trial_index":138,"time_elapsed":349714,"internal_node_id":"0.0-8.0-3.32","subject":"cyyphvhr3usb837","sona":"7624"},{"rt":246,"stimulus":"<p>Ready?</p>","key_press":32,"trial_type":"html-keyboard-response","trial_index":139,"time_elapsed":349963,"internal_node_id":"0.0-8.0-0.33","subject":"cyyphvhr3usb837","sona":"7624"},{"rt":null,"stimulus":"<div style=\"font-size:60px;\">+</div>","key_press":null,"trial_type":"html-keyboard-response","trial_index":140,"time_elapsed":351965,"internal_node_id":"0.0-8.0-1.33","subject":"cyyphvhr3usb837","sona":"7624"},{"trial_type":"turing-test","trial_index":141,"time_elapsed":358874,"internal_node_id":"0.0-8.0-2.33","subject":"cyyphvhr3usb837","sona":"7624"},{"rt":375,"stimulus":"<p>Which sequence did you perceive as more natural?</p>","key_press":70,"test_part":"response","test_stimulus":{"position":0,"left":"bvh/pass-bottle-training0-lines.txt","right":"bvh/vr_prediction_models/model(vcgpdm)-dataset(pass-bottle)-mode(MAP)-parts(3)-hold(0)/final-lines.txt","att_check":false},"trial_type":"html-keyboard-response","trial_index":142,"time_elapsed":359250,"internal_node_id":"0.0-8.0-3.33","subject":"cyyphvhr3usb837","sona":"7624"},{"rt":390,"stimulus":"<p>Ready?</p>","key_press":32,"trial_type":"html-keyboard-response","trial_index":143,"time_elapsed":359641,"internal_node_id":"0.0-8.0-0.34","subject":"cyyphvhr3usb837","sona":"7624"},{"rt":null,"stimulus":"<div style=\"font-size:60px;\">+</div>","key_press":null,"trial_type":"html-keyboard-response","trial_index":144,"time_elapsed":361643,"internal_node_id":"0.0-8.0-1.34","subject":"cyyphvhr3usb837","sona":"7624"},{"trial_type":"turing-test","trial_index":145,"time_elapsed":367611,"internal_node_id":"0.0-8.0-2.34","subject":"cyyphvhr3usb837","sona":"7624"},{"rt":293,"stimulus":"<p>Which sequence did you perceive as more natural?</p>","key_press":70,"test_part":"response","test_stimulus":{"position":1,"left":"bvh/vr_prediction_models/model(vcgpdm)-dataset(return-bottle)-mode(ELBO)-parts(1)-dyn(10)-lvm(25)-hold(4)/final-lines.txt","right":"bvh/return-bottle-training4-lines.txt","att_check":false},"trial_type":"html-keyboard-response","trial_index":146,"time_elapsed":367904,"internal_node_id":"0.0-8.0-3.34","subject":"cyyphvhr3usb837","sona":"7624"},{"rt":398,"stimulus":"<p>Ready?</p>","key_press":32,"trial_type":"html-keyboard-response","trial_index":147,"time_elapsed":368304,"internal_node_id":"0.0-8.0-0.35","subject":"cyyphvhr3usb837","sona":"7624"},{"rt":null,"stimulus":"<div style=\"font-size:60px;\">+</div>","key_press":null,"trial_type":"html-keyboard-response","trial_index":148,"time_elapsed":370311,"internal_node_id":"0.0-8.0-1.35","subject":"cyyphvhr3usb837","sona":"7624"},{"trial_type":"turing-test","trial_index":149,"time_elapsed":375779,"internal_node_id":"0.0-8.0-2.35","subject":"cyyphvhr3usb837","sona":"7624"},{"rt":425,"stimulus":"<p>Which sequence did you perceive as more natural?</p>","key_press":70,"test_part":"response","test_stimulus":{"position":0,"left":"bvh/return-bottle-training0-lines.txt","right":"bvh/vr_prediction_models/model(vcgpdm)-dataset(return-bottle)-mode(ELBO)-parts(3)-dyn(20)-lvm(35)-hold(0)/final-lines.txt","att_check":false},"trial_type":"html-keyboard-response","trial_index":150,"time_elapsed":376206,"internal_node_id":"0.0-8.0-3.35","subject":"cyyphvhr3usb837","sona":"7624"},{"rt":310,"stimulus":"<p>Ready?</p>","key_press":32,"trial_type":"html-keyboard-response","trial_index":151,"time_elapsed":376518,"internal_node_id":"0.0-8.0-0.36","subject":"cyyphvhr3usb837","sona":"7624"},{"rt":null,"stimulus":"<div style=\"font-size:60px;\">+</div>","key_press":null,"trial_type":"html-keyboard-response","trial_index":152,"time_elapsed":378522,"internal_node_id":"0.0-8.0-1.36","subject":"cyyphvhr3usb837","sona":"7624"},{"trial_type":"turing-test","trial_index":153,"time_elapsed":384423,"internal_node_id":"0.0-8.0-2.36","subject":"cyyphvhr3usb837","sona":"7624"},{"rt":379,"stimulus":"<p>Which sequence did you perceive as more natural?</p>","key_press":70,"test_part":"response","test_stimulus":{"position":0,"left":"bvh/return-bottle-training4-lines.txt","right":"bvh/vr_prediction_models/model(vcgpdm)-dataset(return-bottle)-mode(ELBO)-parts(1)-dyn(30)-lvm(35)-hold(4)/final-lines.txt","att_check":false},"trial_type":"html-keyboard-response","trial_index":154,"time_elapsed":384804,"internal_node_id":"0.0-8.0-3.36","subject":"cyyphvhr3usb837","sona":"7624"},{"rt":502,"stimulus":"<p>Ready?</p>","key_press":32,"trial_type":"html-keyboard-response","trial_index":155,"time_elapsed":385309,"internal_node_id":"0.0-8.0-0.37","subject":"cyyphvhr3usb837","sona":"7624"},{"rt":null,"stimulus":"<div style=\"font-size:60px;\">+</div>","key_press":null,"trial_type":"html-keyboard-response","trial_index":156,"time_elapsed":387311,"internal_node_id":"0.0-8.0-1.37","subject":"cyyphvhr3usb837","sona":"7624"},{"trial_type":"turing-test","trial_index":157,"time_elapsed":393100,"internal_node_id":"0.0-8.0-2.37","subject":"cyyphvhr3usb837","sona":"7624"},{"rt":140,"stimulus":"<p>Which sequence did you perceive as more natural?</p>","key_press":70,"test_part":"response","test_stimulus":{"position":0,"left":"bvh/return-bottle-training0-lines.txt","right":"bvh/vr_prediction_models/model(vcgpdm)-dataset(return-bottle)-mode(MAP)-parts(3)-hold(0)/final-lines.txt","att_check":false},"trial_type":"html-keyboard-response","trial_index":158,"time_elapsed":393242,"internal_node_id":"0.0-8.0-3.37","subject":"cyyphvhr3usb837","sona":"7624"},{"rt":1007,"stimulus":"<p>Ready?</p>","key_press":32,"trial_type":"html-keyboard-response","trial_index":159,"time_elapsed":394250,"internal_node_id":"0.0-8.0-0.38","subject":"cyyphvhr3usb837","sona":"7624"},{"rt":null,"stimulus":"<div style=\"font-size:60px;\">+</div>","key_press":null,"trial_type":"html-keyboard-response","trial_index":160,"time_elapsed":396252,"internal_node_id":"0.0-8.0-1.38","subject":"cyyphvhr3usb837","sona":"7624"},{"trial_type":"turing-test","trial_index":161,"time_elapsed":402398,"internal_node_id":"0.0-8.0-2.38","subject":"cyyphvhr3usb837","sona":"7624"},{"rt":352,"stimulus":"<p>Which sequence did you perceive as more natural?</p>","key_press":70,"test_part":"response","test_stimulus":{"position":0,"left":"bvh/pass-bottle-training2-lines.txt","right":"bvh/vr_prediction_models/model(dmp)-dataset(pass-bottle)-npsi(40)-hold(2)/final-lines.txt","att_check":true},"trial_type":"html-keyboard-response","trial_index":162,"time_elapsed":402752,"internal_node_id":"0.0-8.0-3.38","subject":"cyyphvhr3usb837","sona":"7624"},{"rt":311,"stimulus":"<p>Ready?</p>","key_press":32,"trial_type":"html-keyboard-response","trial_index":163,"time_elapsed":403064,"internal_node_id":"0.0-8.0-0.39","subject":"cyyphvhr3usb837","sona":"7624"},{"rt":null,"stimulus":"<div style=\"font-size:60px;\">+</div>","key_press":null,"trial_type":"html-keyboard-response","trial_index":164,"time_elapsed":405066,"internal_node_id":"0.0-8.0-1.39","subject":"cyyphvhr3usb837","sona":"7624"},{"trial_type":"turing-test","trial_index":165,"time_elapsed":408895,"internal_node_id":"0.0-8.0-2.39","subject":"cyyphvhr3usb837","sona":"7624"},{"rt":1012,"stimulus":"<p>Which sequence did you perceive as more natural?</p>","key_press":74,"test_part":"response","test_stimulus":{"position":1,"left":"bvh/vr_prediction_models/model(vcgpdm)-dataset(pass-bottle-hold)-mode(ELBO)-parts(1)-dyn(10)-lvm(30)-hold(3)/final-lines.txt","right":"bvh/pass-bottle-hold-training3-lines.txt","att_check":false},"trial_type":"html-keyboard-response","trial_index":166,"time_elapsed":409909,"internal_node_id":"0.0-8.0-3.39","subject":"cyyphvhr3usb837","sona":"7624"},{"rt":328,"stimulus":"<p>Ready?</p>","key_press":32,"trial_type":"html-keyboard-response","trial_index":167,"time_elapsed":410237,"internal_node_id":"0.0-8.0-0.40","subject":"cyyphvhr3usb837","sona":"7624"},{"rt":null,"stimulus":"<div style=\"font-size:60px;\">+</div>","key_press":null,"trial_type":"html-keyboard-response","trial_index":168,"time_elapsed":412239,"internal_node_id":"0.0-8.0-1.40","subject":"cyyphvhr3usb837","sona":"7624"},{"trial_type":"turing-test","trial_index":169,"time_elapsed":418644,"internal_node_id":"0.0-8.0-2.40","subject":"cyyphvhr3usb837","sona":"7624"},{"rt":294,"stimulus":"<p>Which sequence did you perceive as more natural?</p>","key_press":70,"test_part":"response","test_stimulus":{"position":1,"left":"bvh/vr_prediction_models/model(vcgpdm)-dataset(pass-bottle)-mode(ELBO)-parts(3)-dyn(30)-lvm(15)-hold(2)/final-lines.txt","right":"bvh/pass-bottle-training2-lines.txt","att_check":false},"trial_type":"html-keyboard-response","trial_index":170,"time_elapsed":418940,"internal_node_id":"0.0-8.0-3.40","subject":"cyyphvhr3usb837","sona":"7624"},{"rt":367,"stimulus":"<p>Ready?</p>","key_press":32,"trial_type":"html-keyboard-response","trial_index":171,"time_elapsed":419308,"internal_node_id":"0.0-8.0-0.41","subject":"cyyphvhr3usb837","sona":"7624"},{"rt":null,"stimulus":"<div style=\"font-size:60px;\">+</div>","key_press":null,"trial_type":"html-keyboard-response","trial_index":172,"time_elapsed":421311,"internal_node_id":"0.0-8.0-1.41","subject":"cyyphvhr3usb837","sona":"7624"},{"trial_type":"turing-test","trial_index":173,"time_elapsed":427076,"internal_node_id":"0.0-8.0-2.41","subject":"cyyphvhr3usb837","sona":"7624"},{"rt":354,"stimulus":"<p>Which sequence did you perceive as more natural?</p>","key_press":74,"test_part":"response","test_stimulus":{"position":1,"left":"bvh/vr_prediction_models/model(tmp)-dataset(return-bottle)-numprim(6)-hold(4)/final-lines.txt","right":"bvh/return-bottle-training4-lines.txt","att_check":false},"trial_type":"html-keyboard-response","trial_index":174,"time_elapsed":427432,"internal_node_id":"0.0-8.0-3.41","subject":"cyyphvhr3usb837","sona":"7624"},{"rt":278,"stimulus":"<p>Ready?</p>","key_press":32,"trial_type":"html-keyboard-response","trial_index":175,"time_elapsed":427712,"internal_node_id":"0.0-8.0-0.42","subject":"cyyphvhr3usb837","sona":"7624"},{"rt":null,"stimulus":"<div style=\"font-size:60px;\">+</div>","key_press":null,"trial_type":"html-keyboard-response","trial_index":176,"time_elapsed":429717,"internal_node_id":"0.0-8.0-1.42","subject":"cyyphvhr3usb837","sona":"7624"},{"trial_type":"turing-test","trial_index":177,"time_elapsed":433209,"internal_node_id":"0.0-8.0-2.42","subject":"cyyphvhr3usb837","sona":"7624"},{"rt":305,"stimulus":"<p>Which sequence did you perceive as more natural?</p>","key_press":74,"test_part":"response","test_stimulus":{"position":1,"left":"bvh/vr_prediction_models/model(vcgpdm)-dataset(pass-bottle-hold)-mode(MAP)-parts(3)-hold(2)/final-lines.txt","right":"bvh/pass-bottle-hold-training2-lines.txt","att_check":false},"trial_type":"html-keyboard-response","trial_index":178,"time_elapsed":433516,"internal_node_id":"0.0-8.0-3.42","subject":"cyyphvhr3usb837","sona":"7624"},{"rt":214,"stimulus":"<p>Ready?</p>","key_press":32,"trial_type":"html-keyboard-response","trial_index":179,"time_elapsed":433731,"internal_node_id":"0.0-8.0-0.43","subject":"cyyphvhr3usb837","sona":"7624"},{"rt":null,"stimulus":"<div style=\"font-size:60px;\">+</div>","key_press":null,"trial_type":"html-keyboard-response","trial_index":180,"time_elapsed":435737,"internal_node_id":"0.0-8.0-1.43","subject":"cyyphvhr3usb837","sona":"7624"},{"trial_type":"turing-test","trial_index":181,"time_elapsed":441646,"internal_node_id":"0.0-8.0-2.43","subject":"cyyphvhr3usb837","sona":"7624"},{"rt":356,"stimulus":"<p>Which sequence did you perceive as more natural?</p>","key_press":70,"test_part":"response","test_stimulus":{"position":1,"left":"bvh/vr_prediction_models/model(dmp)-dataset(pass-bottle)-npsi(100)-hold(3)/final-lines.txt","right":"bvh/pass-bottle-training3-lines.txt","att_check":true},"trial_type":"html-keyboard-response","trial_index":182,"time_elapsed":442004,"internal_node_id":"0.0-8.0-3.43","subject":"cyyphvhr3usb837","sona":"7624"},{"rt":317,"stimulus":"<p>Ready?</p>","key_press":32,"trial_type":"html-keyboard-response","trial_index":183,"time_elapsed":442324,"internal_node_id":"0.0-8.0-0.44","subject":"cyyphvhr3usb837","sona":"7624"},{"rt":null,"stimulus":"<div style=\"font-size:60px;\">+</div>","key_press":null,"trial_type":"html-keyboard-response","trial_index":184,"time_elapsed":444328,"internal_node_id":"0.0-8.0-1.44","subject":"cyyphvhr3usb837","sona":"7624"},{"trial_type":"turing-test","trial_index":185,"time_elapsed":447754,"internal_node_id":"0.0-8.0-2.44","subject":"cyyphvhr3usb837","sona":"7624"},{"rt":450,"stimulus":"<p>Which sequence did you perceive as more natural?</p>","key_press":70,"test_part":"response","test_stimulus":{"position":1,"left":"bvh/vr_prediction_models/model(dmp)-dataset(pass-bottle-hold)-npsi(60)-hold(2)/final-lines.txt","right":"bvh/pass-bottle-hold-training2-lines.txt","att_check":false},"trial_type":"html-keyboard-response","trial_index":186,"time_elapsed":448205,"internal_node_id":"0.0-8.0-3.44","subject":"cyyphvhr3usb837","sona":"7624"},{"rt":181,"stimulus":"<p>Ready?</p>","key_press":32,"trial_type":"html-keyboard-response","trial_index":187,"time_elapsed":448388,"internal_node_id":"0.0-8.0-0.45","subject":"cyyphvhr3usb837","sona":"7624"},{"rt":null,"stimulus":"<div style=\"font-size:60px;\">+</div>","key_press":null,"trial_type":"html-keyboard-response","trial_index":188,"time_elapsed":450395,"internal_node_id":"0.0-8.0-1.45","subject":"cyyphvhr3usb837","sona":"7624"},{"trial_type":"turing-test","trial_index":189,"time_elapsed":456511,"internal_node_id":"0.0-8.0-2.45","subject":"cyyphvhr3usb837","sona":"7624"},{"rt":262,"stimulus":"<p>Which sequence did you perceive as more natural?</p>","key_press":70,"test_part":"response","test_stimulus":{"position":1,"left":"bvh/vr_prediction_models/model(tmp)-dataset(pass-bottle)-numprim(14)-hold(2)/final-lines.txt","right":"bvh/pass-bottle-training2-lines.txt","att_check":false},"trial_type":"html-keyboard-response","trial_index":190,"time_elapsed":456774,"internal_node_id":"0.0-8.0-3.45","subject":"cyyphvhr3usb837","sona":"7624"},{"rt":262,"stimulus":"<p>Ready?</p>","key_press":32,"trial_type":"html-keyboard-response","trial_index":191,"time_elapsed":457038,"internal_node_id":"0.0-8.0-0.46","subject":"cyyphvhr3usb837","sona":"7624"},{"rt":null,"stimulus":"<div style=\"font-size:60px;\">+</div>","key_press":null,"trial_type":"html-keyboard-response","trial_index":192,"time_elapsed":459045,"internal_node_id":"0.0-8.0-1.46","subject":"cyyphvhr3usb837","sona":"7624"},{"trial_type":"turing-test","trial_index":193,"time_elapsed":464983,"internal_node_id":"0.0-8.0-2.46","subject":"cyyphvhr3usb837","sona":"7624"},{"rt":385,"stimulus":"<p>Which sequence did you perceive as more natural?</p>","key_press":70,"test_part":"response","test_stimulus":{"position":0,"left":"bvh/return-bottle-training4-lines.txt","right":"bvh/vr_prediction_models/model(vcgpdm)-dataset(return-bottle)-mode(ELBO)-parts(1)-dyn(35)-lvm(30)-hold(4)/final-lines.txt","att_check":false},"trial_type":"html-keyboard-response","trial_index":194,"time_elapsed":465371,"internal_node_id":"0.0-8.0-3.46","subject":"cyyphvhr3usb837","sona":"7624"},{"rt":310,"stimulus":"<p>Ready?</p>","key_press":32,"trial_type":"html-keyboard-response","trial_index":195,"time_elapsed":465682,"internal_node_id":"0.0-8.0-0.47","subject":"cyyphvhr3usb837","sona":"7624"},{"rt":null,"stimulus":"<div style=\"font-size:60px;\">+</div>","key_press":null,"trial_type":"html-keyboard-response","trial_index":196,"time_elapsed":467686,"internal_node_id":"0.0-8.0-1.47","subject":"cyyphvhr3usb837","sona":"7624"},{"trial_type":"turing-test","trial_index":197,"time_elapsed":474324,"internal_node_id":"0.0-8.0-2.47","subject":"cyyphvhr3usb837","sona":"7624"},{"rt":1057,"stimulus":"<p>Which sequence did you perceive as more natural?</p>","key_press":70,"test_part":"response","test_stimulus":{"position":1,"left":"bvh/vr_prediction_models/model(vcgpdm)-dataset(pass-bottle)-mode(ELBO)-parts(1)-dyn(20)-lvm(20)-hold(2)/final-lines.txt","right":"bvh/pass-bottle-training2-lines.txt","att_check":false},"trial_type":"html-keyboard-response","trial_index":198,"time_elapsed":475382,"internal_node_id":"0.0-8.0-3.47","subject":"cyyphvhr3usb837","sona":"7624"},{"rt":278,"stimulus":"<p>Ready?</p>","key_press":32,"trial_type":"html-keyboard-response","trial_index":199,"time_elapsed":475661,"internal_node_id":"0.0-8.0-0.48","subject":"cyyphvhr3usb837","sona":"7624"},{"rt":null,"stimulus":"<div style=\"font-size:60px;\">+</div>","key_press":null,"trial_type":"html-keyboard-response","trial_index":200,"time_elapsed":477664,"internal_node_id":"0.0-8.0-1.48","subject":"cyyphvhr3usb837","sona":"7624"},{"trial_type":"turing-test","trial_index":201,"time_elapsed":483663,"internal_node_id":"0.0-8.0-2.48","subject":"cyyphvhr3usb837","sona":"7624"},{"rt":390,"stimulus":"<p>Which sequence did you perceive as more natural?</p>","key_press":74,"test_part":"response","test_stimulus":{"position":1,"left":"bvh/vr_prediction_models/model(vcgpdm)-dataset(return-bottle)-mode(ELBO)-parts(1)-dyn(15)-lvm(35)-hold(4)/final-lines.txt","right":"bvh/return-bottle-training4-lines.txt","att_check":false},"trial_type":"html-keyboard-response","trial_index":202,"time_elapsed":484057,"internal_node_id":"0.0-8.0-3.48","subject":"cyyphvhr3usb837","sona":"7624"},{"rt":382,"stimulus":"<p>Ready?</p>","key_press":32,"trial_type":"html-keyboard-response","trial_index":203,"time_elapsed":484440,"internal_node_id":"0.0-8.0-0.49","subject":"cyyphvhr3usb837","sona":"7624"},{"rt":null,"stimulus":"<div style=\"font-size:60px;\">+</div>","key_press":null,"trial_type":"html-keyboard-response","trial_index":204,"time_elapsed":486444,"internal_node_id":"0.0-8.0-1.49","subject":"cyyphvhr3usb837","sona":"7624"},{"trial_type":"turing-test","trial_index":205,"time_elapsed":490163,"internal_node_id":"0.0-8.0-2.49","subject":"cyyphvhr3usb837","sona":"7624"},{"rt":558,"stimulus":"<p>Which sequence did you perceive as more natural?</p>","key_press":74,"test_part":"response","test_stimulus":{"position":1,"left":"bvh/vr_prediction_models/model(vcgpdm)-dataset(pass-bottle-hold)-mode(ELBO)-parts(1)-dyn(20)-lvm(5)-hold(3)/final-lines.txt","right":"bvh/pass-bottle-hold-training3-lines.txt","att_check":false},"trial_type":"html-keyboard-response","trial_index":206,"time_elapsed":490724,"internal_node_id":"0.0-8.0-3.49","subject":"cyyphvhr3usb837","sona":"7624"},{"rt":214,"stimulus":"<p>Ready?</p>","key_press":32,"trial_type":"html-keyboard-response","trial_index":207,"time_elapsed":490939,"internal_node_id":"0.0-8.0-0.50","subject":"cyyphvhr3usb837","sona":"7624"},{"rt":null,"stimulus":"<div style=\"font-size:60px;\">+</div>","key_press":null,"trial_type":"html-keyboard-response","trial_index":208,"time_elapsed":492941,"internal_node_id":"0.0-8.0-1.50","subject":"cyyphvhr3usb837","sona":"7624"},{"trial_type":"turing-test","trial_index":209,"time_elapsed":496990,"internal_node_id":"0.0-8.0-2.50","subject":"cyyphvhr3usb837","sona":"7624"},{"rt":327,"stimulus":"<p>Which sequence did you perceive as more natural?</p>","key_press":70,"test_part":"response","test_stimulus":{"position":1,"left":"bvh/vr_prediction_models/model(vcgpdm)-dataset(return-bottle-hold)-mode(ELBO)-parts(3)-dyn(10)-lvm(10)-hold(3)/final-lines.txt","right":"bvh/return-bottle-hold-training3-lines.txt","att_check":false},"trial_type":"html-keyboard-response","trial_index":210,"time_elapsed":497318,"internal_node_id":"0.0-8.0-3.50","subject":"cyyphvhr3usb837","sona":"7624"},{"rt":279,"stimulus":"<p>Ready?</p>","key_press":32,"trial_type":"html-keyboard-response","trial_index":211,"time_elapsed":497599,"internal_node_id":"0.0-8.0-0.51","subject":"cyyphvhr3usb837","sona":"7624"},{"rt":null,"stimulus":"<div style=\"font-size:60px;\">+</div>","key_press":null,"trial_type":"html-keyboard-response","trial_index":212,"time_elapsed":499603,"internal_node_id":"0.0-8.0-1.51","subject":"cyyphvhr3usb837","sona":"7624"},{"trial_type":"turing-test","trial_index":213,"time_elapsed":503778,"internal_node_id":"0.0-8.0-2.51","subject":"cyyphvhr3usb837","sona":"7624"},{"rt":404,"stimulus":"<p>Which sequence did you perceive as more natural?</p>","key_press":74,"test_part":"response","test_stimulus":{"position":0,"left":"bvh/pass-bottle-hold-training1-lines.txt","right":"bvh/vr_prediction_models/model(vcgpdm)-dataset(pass-bottle-hold)-mode(ELBO)-parts(3)-dyn(25)-lvm(15)-hold(1)/final-lines.txt","att_check":false},"trial_type":"html-keyboard-response","trial_index":214,"time_elapsed":504183,"internal_node_id":"0.0-8.0-3.51","subject":"cyyphvhr3usb837","sona":"7624"},{"rt":388,"stimulus":"<p>Ready?</p>","key_press":32,"trial_type":"html-keyboard-response","trial_index":215,"time_elapsed":504573,"internal_node_id":"0.0-8.0-0.52","subject":"cyyphvhr3usb837","sona":"7624"},{"rt":null,"stimulus":"<div style=\"font-size:60px;\">+</div>","key_press":null,"trial_type":"html-keyboard-response","trial_index":216,"time_elapsed":506575,"internal_node_id":"0.0-8.0-1.52","subject":"cyyphvhr3usb837","sona":"7624"},{"trial_type":"turing-test","trial_index":217,"time_elapsed":510387,"internal_node_id":"0.0-8.0-2.52","subject":"cyyphvhr3usb837","sona":"7624"},{"rt":382,"stimulus":"<p>Which sequence did you perceive as more natural?</p>","key_press":70,"test_part":"response","test_stimulus":{"position":0,"left":"bvh/return-bottle-hold-training3-lines.txt","right":"bvh/vr_prediction_models/model(vcgpdm)-dataset(return-bottle-hold)-mode(MAP)-parts(3)-hold(3)/final-lines.txt","att_check":false},"trial_type":"html-keyboard-response","trial_index":218,"time_elapsed":510771,"internal_node_id":"0.0-8.0-3.52","subject":"cyyphvhr3usb837","sona":"7624"},{"rt":326,"stimulus":"<p>Ready?</p>","key_press":32,"trial_type":"html-keyboard-response","trial_index":219,"time_elapsed":511097,"internal_node_id":"0.0-8.0-0.53","subject":"cyyphvhr3usb837","sona":"7624"},{"rt":null,"stimulus":"<div style=\"font-size:60px;\">+</div>","key_press":null,"trial_type":"html-keyboard-response","trial_index":220,"time_elapsed":513101,"internal_node_id":"0.0-8.0-1.53","subject":"cyyphvhr3usb837","sona":"7624"},{"trial_type":"turing-test","trial_index":221,"time_elapsed":518747,"internal_node_id":"0.0-8.0-2.53","subject":"cyyphvhr3usb837","sona":"7624"},{"rt":435,"stimulus":"<p>Which sequence did you perceive as more natural?</p>","key_press":74,"test_part":"response","test_stimulus":{"position":1,"left":"bvh/vr_prediction_models/model(vcgpdm)-dataset(return-bottle)-mode(ELBO)-parts(1)-dyn(10)-lvm(25)-hold(4)/final-lines.txt","right":"bvh/return-bottle-training4-lines.txt","att_check":false},"trial_type":"html-keyboard-response","trial_index":222,"time_elapsed":519183,"internal_node_id":"0.0-8.0-3.53","subject":"cyyphvhr3usb837","sona":"7624"},{"rt":367,"stimulus":"<p>Ready?</p>","key_press":32,"trial_type":"html-keyboard-response","trial_index":223,"time_elapsed":519551,"internal_node_id":"0.0-8.0-0.54","subject":"cyyphvhr3usb837","sona":"7624"},{"rt":null,"stimulus":"<div style=\"font-size:60px;\">+</div>","key_press":null,"trial_type":"html-keyboard-response","trial_index":224,"time_elapsed":521557,"internal_node_id":"0.0-8.0-1.54","subject":"cyyphvhr3usb837","sona":"7624"},{"trial_type":"turing-test","trial_index":225,"time_elapsed":527265,"internal_node_id":"0.0-8.0-2.54","subject":"cyyphvhr3usb837","sona":"7624"},{"rt":390,"stimulus":"<p>Which sequence did you perceive as more natural?</p>","key_press":70,"test_part":"response","test_stimulus":{"position":0,"left":"bvh/return-bottle-training3-lines.txt","right":"bvh/vr_prediction_models/model(dmp)-dataset(return-bottle)-npsi(30)-hold(3)/final-lines.txt","att_check":false},"trial_type":"html-keyboard-response","trial_index":226,"time_elapsed":527658,"internal_node_id":"0.0-8.0-3.54","subject":"cyyphvhr3usb837","sona":"7624"},{"rt":333,"stimulus":"<p>Ready?</p>","key_press":32,"trial_type":"html-keyboard-response","trial_index":227,"time_elapsed":527993,"internal_node_id":"0.0-8.0-0.55","subject":"cyyphvhr3usb837","sona":"7624"},{"rt":null,"stimulus":"<div style=\"font-size:60px;\">+</div>","key_press":null,"trial_type":"html-keyboard-response","trial_index":228,"time_elapsed":529998,"internal_node_id":"0.0-8.0-1.55","subject":"cyyphvhr3usb837","sona":"7624"},{"trial_type":"turing-test","trial_index":229,"time_elapsed":536210,"internal_node_id":"0.0-8.0-2.55","subject":"cyyphvhr3usb837","sona":"7624"},{"rt":103,"stimulus":"<p>Which sequence did you perceive as more natural?</p>","key_press":74,"test_part":"response","test_stimulus":{"position":0,"left":"bvh/return-bottle-training4-lines.txt","right":"bvh/vr_prediction_models/model(vcgpdm)-dataset(return-bottle)-mode(MAP)-parts(1)-hold(4)/final-lines.txt","att_check":false},"trial_type":"html-keyboard-response","trial_index":230,"time_elapsed":536315,"internal_node_id":"0.0-8.0-3.55","subject":"cyyphvhr3usb837","sona":"7624"},{"rt":471,"stimulus":"<p>Ready?</p>","key_press":32,"trial_type":"html-keyboard-response","trial_index":231,"time_elapsed":536786,"internal_node_id":"0.0-8.0-0.56","subject":"cyyphvhr3usb837","sona":"7624"},{"rt":null,"stimulus":"<div style=\"font-size:60px;\">+</div>","key_press":null,"trial_type":"html-keyboard-response","trial_index":232,"time_elapsed":538790,"internal_node_id":"0.0-8.0-1.56","subject":"cyyphvhr3usb837","sona":"7624"},{"trial_type":"turing-test","trial_index":233,"time_elapsed":541891,"internal_node_id":"0.0-8.0-2.56","subject":"cyyphvhr3usb837","sona":"7624"},{"rt":400,"stimulus":"<p>Which sequence did you perceive as more natural?</p>","key_press":70,"test_part":"response","test_stimulus":{"position":1,"left":"bvh/vr_prediction_models/model(dmp)-dataset(pass-bottle-hold)-npsi(10)-hold(1)/final-lines.txt","right":"bvh/pass-bottle-hold-training1-lines.txt","att_check":false},"trial_type":"html-keyboard-response","trial_index":234,"time_elapsed":542293,"internal_node_id":"0.0-8.0-3.56","subject":"cyyphvhr3usb837","sona":"7624"},{"rt":255,"stimulus":"<p>Ready?</p>","key_press":32,"trial_type":"html-keyboard-response","trial_index":235,"time_elapsed":542549,"internal_node_id":"0.0-8.0-0.57","subject":"cyyphvhr3usb837","sona":"7624"},{"rt":null,"stimulus":"<div style=\"font-size:60px;\">+</div>","key_press":null,"trial_type":"html-keyboard-response","trial_index":236,"time_elapsed":544549,"internal_node_id":"0.0-8.0-1.57","subject":"cyyphvhr3usb837","sona":"7624"},{"trial_type":"turing-test","trial_index":237,"time_elapsed":552748,"internal_node_id":"0.0-8.0-2.57","subject":"cyyphvhr3usb837","sona":"7624"},{"rt":388,"stimulus":"<p>Which sequence did you perceive as more natural?</p>","key_press":70,"test_part":"response","test_stimulus":{"position":1,"left":"bvh/vr_prediction_models/model(vcgpdm)-dataset(pass-bottle)-mode(ELBO)-parts(1)-dyn(10)-lvm(5)-hold(0)/final-lines.txt","right":"bvh/pass-bottle-training0-lines.txt","att_check":false},"trial_type":"html-keyboard-response","trial_index":238,"time_elapsed":553138,"internal_node_id":"0.0-8.0-3.57","subject":"cyyphvhr3usb837","sona":"7624"},{"rt":303,"stimulus":"<p>Ready?</p>","key_press":32,"trial_type":"html-keyboard-response","trial_index":239,"time_elapsed":553443,"internal_node_id":"0.0-8.0-0.58","subject":"cyyphvhr3usb837","sona":"7624"},{"rt":null,"stimulus":"<div style=\"font-size:60px;\">+</div>","key_press":null,"trial_type":"html-keyboard-response","trial_index":240,"time_elapsed":555445,"internal_node_id":"0.0-8.0-1.58","subject":"cyyphvhr3usb837","sona":"7624"},{"trial_type":"turing-test","trial_index":241,"time_elapsed":561252,"internal_node_id":"0.0-8.0-2.58","subject":"cyyphvhr3usb837","sona":"7624"},{"rt":385,"stimulus":"<p>Which sequence did you perceive as more natural?</p>","key_press":74,"test_part":"response","test_stimulus":{"position":1,"left":"bvh/vr_prediction_models/model(dmp)-dataset(pass-bottle)-npsi(90)-hold(3)/final-lines.txt","right":"bvh/pass-bottle-training3-lines.txt","att_check":false},"trial_type":"html-keyboard-response","trial_index":242,"time_elapsed":561639,"internal_node_id":"0.0-8.0-3.58","subject":"cyyphvhr3usb837","sona":"7624"},{"rt":439,"stimulus":"<p>Ready?</p>","key_press":32,"trial_type":"html-keyboard-response","trial_index":243,"time_elapsed":562078,"internal_node_id":"0.0-8.0-0.59","subject":"cyyphvhr3usb837","sona":"7624"},{"rt":null,"stimulus":"<div style=\"font-size:60px;\">+</div>","key_press":null,"trial_type":"html-keyboard-response","trial_index":244,"time_elapsed":564082,"internal_node_id":"0.0-8.0-1.59","subject":"cyyphvhr3usb837","sona":"7624"},{"trial_type":"turing-test","trial_index":245,"time_elapsed":569934,"internal_node_id":"0.0-8.0-2.59","subject":"cyyphvhr3usb837","sona":"7624"},{"rt":329,"stimulus":"<p>Which sequence did you perceive as more natural?</p>","key_press":74,"test_part":"response","test_stimulus":{"position":0,"left":"bvh/return-bottle-hold-training0-lines.txt","right":"bvh/vr_prediction_models/model(tmp)-dataset(return-bottle-hold)-numprim(5)-hold(0)/final-lines.txt","att_check":false},"trial_type":"html-keyboard-response","trial_index":246,"time_elapsed":570265,"internal_node_id":"0.0-8.0-3.59","subject":"cyyphvhr3usb837","sona":"7624"},{"rt":364,"stimulus":"<p>Ready?</p>","key_press":32,"trial_type":"html-keyboard-response","trial_index":247,"time_elapsed":570632,"internal_node_id":"0.0-8.0-0.60","subject":"cyyphvhr3usb837","sona":"7624"},{"rt":null,"stimulus":"<div style=\"font-size:60px;\">+</div>","key_press":null,"trial_type":"html-keyboard-response","trial_index":248,"time_elapsed":572637,"internal_node_id":"0.0-8.0-1.60","subject":"cyyphvhr3usb837","sona":"7624"},{"trial_type":"turing-test","trial_index":249,"time_elapsed":576176,"internal_node_id":"0.0-8.0-2.60","subject":"cyyphvhr3usb837","sona":"7624"},{"rt":365,"stimulus":"<p>Which sequence did you perceive as more natural?</p>","key_press":74,"test_part":"response","test_stimulus":{"position":1,"left":"bvh/vr_prediction_models/model(vcgpdm)-dataset(pass-bottle-hold)-mode(ELBO)-parts(1)-dyn(30)-lvm(30)-hold(0)/final-lines.txt","right":"bvh/pass-bottle-hold-training0-lines.txt","att_check":false},"trial_type":"html-keyboard-response","trial_index":250,"time_elapsed":576544,"internal_node_id":"0.0-8.0-3.60","subject":"cyyphvhr3usb837","sona":"7624"},{"rt":389,"stimulus":"<p>Ready?</p>","key_press":32,"trial_type":"html-keyboard-response","trial_index":251,"time_elapsed":576935,"internal_node_id":"0.0-8.0-0.61","subject":"cyyphvhr3usb837","sona":"7624"},{"rt":null,"stimulus":"<div style=\"font-size:60px;\">+</div>","key_press":null,"trial_type":"html-keyboard-response","trial_index":252,"time_elapsed":578940,"internal_node_id":"0.0-8.0-1.61","subject":"cyyphvhr3usb837","sona":"7624"},{"trial_type":"turing-test","trial_index":253,"time_elapsed":584992,"internal_node_id":"0.0-8.0-2.61","subject":"cyyphvhr3usb837","sona":"7624"},{"rt":340,"stimulus":"<p>Which sequence did you perceive as more natural?</p>","key_press":74,"test_part":"response","test_stimulus":{"position":1,"left":"bvh/vr_prediction_models/model(dmp)-dataset(return-bottle)-npsi(10)-hold(3)/final-lines.txt","right":"bvh/return-bottle-training3-lines.txt","att_check":false},"trial_type":"html-keyboard-response","trial_index":254,"time_elapsed":585334,"internal_node_id":"0.0-8.0-3.61","subject":"cyyphvhr3usb837","sona":"7624"},{"rt":326,"stimulus":"<p>Ready?</p>","key_press":32,"trial_type":"html-keyboard-response","trial_index":255,"time_elapsed":585663,"internal_node_id":"0.0-8.0-0.62","subject":"cyyphvhr3usb837","sona":"7624"},{"rt":null,"stimulus":"<div style=\"font-size:60px;\">+</div>","key_press":null,"trial_type":"html-keyboard-response","trial_index":256,"time_elapsed":587665,"internal_node_id":"0.0-8.0-1.62","subject":"cyyphvhr3usb837","sona":"7624"},{"trial_type":"turing-test","trial_index":257,"time_elapsed":591391,"internal_node_id":"0.0-8.0-2.62","subject":"cyyphvhr3usb837","sona":"7624"},{"rt":308,"stimulus":"<p>Which sequence did you perceive as more natural?</p>","key_press":70,"test_part":"response","test_stimulus":{"position":0,"left":"bvh/return-bottle-hold-training3-lines.txt","right":"bvh/vr_prediction_models/model(tmp)-dataset(return-bottle-hold)-numprim(10)-hold(3)/final-lines.txt","att_check":false},"trial_type":"html-keyboard-response","trial_index":258,"time_elapsed":591701,"internal_node_id":"0.0-8.0-3.62","subject":"cyyphvhr3usb837","sona":"7624"},{"rt":301,"stimulus":"<p>Ready?</p>","key_press":32,"trial_type":"html-keyboard-response","trial_index":259,"time_elapsed":592005,"internal_node_id":"0.0-8.0-0.63","subject":"cyyphvhr3usb837","sona":"7624"},{"rt":null,"stimulus":"<div style=\"font-size:60px;\">+</div>","key_press":null,"trial_type":"html-keyboard-response","trial_index":260,"time_elapsed":594013,"internal_node_id":"0.0-8.0-1.63","subject":"cyyphvhr3usb837","sona":"7624"},{"trial_type":"turing-test","trial_index":261,"time_elapsed":597749,"internal_node_id":"0.0-8.0-2.63","subject":"cyyphvhr3usb837","sona":"7624"},{"rt":384,"stimulus":"<p>Which sequence did you perceive as more natural?</p>","key_press":70,"test_part":"response","test_stimulus":{"position":0,"left":"bvh/pass-bottle-hold-training4-lines.txt","right":"bvh/vr_prediction_models/model(tmp)-dataset(pass-bottle-hold)-numprim(4)-hold(4)/final-lines.txt","att_check":false},"trial_type":"html-keyboard-response","trial_index":262,"time_elapsed":598134,"internal_node_id":"0.0-8.0-3.63","subject":"cyyphvhr3usb837","sona":"7624"},{"rt":238,"stimulus":"<p>Ready?</p>","key_press":32,"trial_type":"html-keyboard-response","trial_index":263,"time_elapsed":598374,"internal_node_id":"0.0-8.0-0.64","subject":"cyyphvhr3usb837","sona":"7624"},{"rt":null,"stimulus":"<div style=\"font-size:60px;\">+</div>","key_press":null,"trial_type":"html-keyboard-response","trial_index":264,"time_elapsed":600378,"internal_node_id":"0.0-8.0-1.64","subject":"cyyphvhr3usb837","sona":"7624"},{"trial_type":"turing-test","trial_index":265,"time_elapsed":606432,"internal_node_id":"0.0-8.0-2.64","subject":"cyyphvhr3usb837","sona":"7624"},{"rt":328,"stimulus":"<p>Which sequence did you perceive as more natural?</p>","key_press":74,"test_part":"response","test_stimulus":{"position":1,"left":"bvh/vr_prediction_models/model(vcgpdm)-dataset(return-bottle)-mode(ELBO)-parts(3)-dyn(25)-lvm(30)-hold(4)/final-lines.txt","right":"bvh/return-bottle-training4-lines.txt","att_check":false},"trial_type":"html-keyboard-response","trial_index":266,"time_elapsed":606761,"internal_node_id":"0.0-8.0-3.64","subject":"cyyphvhr3usb837","sona":"7624"},{"rt":318,"stimulus":"<p>Ready?</p>","key_press":32,"trial_type":"html-keyboard-response","trial_index":267,"time_elapsed":607081,"internal_node_id":"0.0-8.0-0.65","subject":"cyyphvhr3usb837","sona":"7624"},{"rt":null,"stimulus":"<div style=\"font-size:60px;\">+</div>","key_press":null,"trial_type":"html-keyboard-response","trial_index":268,"time_elapsed":609084,"internal_node_id":"0.0-8.0-1.65","subject":"cyyphvhr3usb837","sona":"7624"},{"trial_type":"turing-test","trial_index":269,"time_elapsed":616128,"internal_node_id":"0.0-8.0-2.65","subject":"cyyphvhr3usb837","sona":"7624"},{"rt":367,"stimulus":"<p>Which sequence did you perceive as more natural?</p>","key_press":74,"test_part":"response","test_stimulus":{"position":0,"left":"bvh/return-bottle-training2-lines.txt","right":"bvh/vr_prediction_models/model(vcgpdm)-dataset(return-bottle)-mode(ELBO)-parts(1)-dyn(10)-lvm(25)-hold(2)/final-lines.txt","att_check":false},"trial_type":"html-keyboard-response","trial_index":270,"time_elapsed":616496,"internal_node_id":"0.0-8.0-3.65","subject":"cyyphvhr3usb837","sona":"7624"},{"rt":365,"stimulus":"<p>Ready?</p>","key_press":32,"trial_type":"html-keyboard-response","trial_index":271,"time_elapsed":616864,"internal_node_id":"0.0-8.0-0.66","subject":"cyyphvhr3usb837","sona":"7624"},{"rt":null,"stimulus":"<div style=\"font-size:60px;\">+</div>","key_press":null,"trial_type":"html-keyboard-response","trial_index":272,"time_elapsed":618872,"internal_node_id":"0.0-8.0-1.66","subject":"cyyphvhr3usb837","sona":"7624"},{"trial_type":"turing-test","trial_index":273,"time_elapsed":622331,"internal_node_id":"0.0-8.0-2.66","subject":"cyyphvhr3usb837","sona":"7624"},{"rt":522,"stimulus":"<p>Which sequence did you perceive as more natural?</p>","key_press":70,"test_part":"response","test_stimulus":{"position":0,"left":"bvh/return-bottle-hold-training2-lines.txt","right":"bvh/vr_prediction_models/model(dmp)-dataset(return-bottle-hold)-npsi(30)-hold(2)/final-lines.txt","att_check":false},"trial_type":"html-keyboard-response","trial_index":274,"time_elapsed":622855,"internal_node_id":"0.0-8.0-3.66","subject":"cyyphvhr3usb837","sona":"7624"},{"rt":422,"stimulus":"<p>Ready?</p>","key_press":32,"trial_type":"html-keyboard-response","trial_index":275,"time_elapsed":623278,"internal_node_id":"0.0-8.0-0.67","subject":"cyyphvhr3usb837","sona":"7624"},{"rt":null,"stimulus":"<div style=\"font-size:60px;\">+</div>","key_press":null,"trial_type":"html-keyboard-response","trial_index":276,"time_elapsed":625280,"internal_node_id":"0.0-8.0-1.67","subject":"cyyphvhr3usb837","sona":"7624"},{"trial_type":"turing-test","trial_index":277,"time_elapsed":628854,"internal_node_id":"0.0-8.0-2.67","subject":"cyyphvhr3usb837","sona":"7624"},{"rt":393,"stimulus":"<p>Which sequence did you perceive as more natural?</p>","key_press":70,"test_part":"response","test_stimulus":{"position":0,"left":"bvh/pass-bottle-hold-training2-lines.txt","right":"bvh/vr_prediction_models/model(vcgpdm)-dataset(pass-bottle-hold)-mode(ELBO)-parts(3)-dyn(10)-lvm(25)-hold(2)/final-lines.txt","att_check":false},"trial_type":"html-keyboard-response","trial_index":278,"time_elapsed":629249,"internal_node_id":"0.0-8.0-3.67","subject":"cyyphvhr3usb837","sona":"7624"},{"rt":334,"stimulus":"<p>Ready?</p>","key_press":32,"trial_type":"html-keyboard-response","trial_index":279,"time_elapsed":629585,"internal_node_id":"0.0-8.0-0.68","subject":"cyyphvhr3usb837","sona":"7624"},{"rt":null,"stimulus":"<div style=\"font-size:60px;\">+</div>","key_press":null,"trial_type":"html-keyboard-response","trial_index":280,"time_elapsed":631589,"internal_node_id":"0.0-8.0-1.68","subject":"cyyphvhr3usb837","sona":"7624"},{"trial_type":"turing-test","trial_index":281,"time_elapsed":635282,"internal_node_id":"0.0-8.0-2.68","subject":"cyyphvhr3usb837","sona":"7624"},{"rt":714,"stimulus":"<p>Which sequence did you perceive as more natural?</p>","key_press":74,"test_part":"response","test_stimulus":{"position":0,"left":"bvh/return-bottle-hold-training2-lines.txt","right":"bvh/vr_prediction_models/model(vcgpdm)-dataset(return-bottle-hold)-mode(ELBO)-parts(3)-dyn(20)-lvm(15)-hold(2)/final-lines.txt","att_check":false},"trial_type":"html-keyboard-response","trial_index":282,"time_elapsed":635998,"internal_node_id":"0.0-8.0-3.68","subject":"cyyphvhr3usb837","sona":"7624"},{"rt":334,"stimulus":"<p>Ready?</p>","key_press":32,"trial_type":"html-keyboard-response","trial_index":283,"time_elapsed":636334,"internal_node_id":"0.0-8.0-0.69","subject":"cyyphvhr3usb837","sona":"7624"},{"rt":null,"stimulus":"<div style=\"font-size:60px;\">+</div>","key_press":null,"trial_type":"html-keyboard-response","trial_index":284,"time_elapsed":638338,"internal_node_id":"0.0-8.0-1.69","subject":"cyyphvhr3usb837","sona":"7624"},{"trial_type":"turing-test","trial_index":285,"time_elapsed":645378,"internal_node_id":"0.0-8.0-2.69","subject":"cyyphvhr3usb837","sona":"7624"},{"rt":378,"stimulus":"<p>Which sequence did you perceive as more natural?</p>","key_press":70,"test_part":"response","test_stimulus":{"position":0,"left":"bvh/pass-bottle-training4-lines.txt","right":"bvh/vr_prediction_models/model(tmp)-dataset(pass-bottle)-numprim(9)-hold(4)/final-lines.txt","att_check":false},"trial_type":"html-keyboard-response","trial_index":286,"time_elapsed":645757,"internal_node_id":"0.0-8.0-3.69","subject":"cyyphvhr3usb837","sona":"7624"},{"rt":261,"stimulus":"<p>Ready?</p>","key_press":32,"trial_type":"html-keyboard-response","trial_index":287,"time_elapsed":646021,"internal_node_id":"0.0-8.0-0.70","subject":"cyyphvhr3usb837","sona":"7624"},{"rt":null,"stimulus":"<div style=\"font-size:60px;\">+</div>","key_press":null,"trial_type":"html-keyboard-response","trial_index":288,"time_elapsed":648025,"internal_node_id":"0.0-8.0-1.70","subject":"cyyphvhr3usb837","sona":"7624"},{"trial_type":"turing-test","trial_index":289,"time_elapsed":653712,"internal_node_id":"0.0-8.0-2.70","subject":"cyyphvhr3usb837","sona":"7624"},{"rt":411,"stimulus":"<p>Which sequence did you perceive as more natural?</p>","key_press":74,"test_part":"response","test_stimulus":{"position":1,"left":"bvh/vr_prediction_models/model(dmp)-dataset(pass-bottle)-npsi(90)-hold(3)/final-lines.txt","right":"bvh/pass-bottle-training3-lines.txt","att_check":false},"trial_type":"html-keyboard-response","trial_index":290,"time_elapsed":654125,"internal_node_id":"0.0-8.0-3.70","subject":"cyyphvhr3usb837","sona":"7624"},{"rt":374,"stimulus":"<p>Ready?</p>","key_press":32,"trial_type":"html-keyboard-response","trial_index":291,"time_elapsed":654500,"internal_node_id":"0.0-8.0-0.71","subject":"cyyphvhr3usb837","sona":"7624"},{"rt":null,"stimulus":"<div style=\"font-size:60px;\">+</div>","key_press":null,"trial_type":"html-keyboard-response","trial_index":292,"time_elapsed":656504,"internal_node_id":"0.0-8.0-1.71","subject":"cyyphvhr3usb837","sona":"7624"},{"trial_type":"turing-test","trial_index":293,"time_elapsed":662951,"internal_node_id":"0.0-8.0-2.71","subject":"cyyphvhr3usb837","sona":"7624"},{"rt":601,"stimulus":"<p>Which sequence did you perceive as more natural?</p>","key_press":74,"test_part":"response","test_stimulus":{"position":1,"left":"bvh/vr_prediction_models/model(vcgpdm)-dataset(pass-bottle-hold)-mode(ELBO)-parts(1)-dyn(30)-lvm(20)-hold(4)/final-lines.txt","right":"bvh/pass-bottle-hold-training4-lines.txt","att_check":false},"trial_type":"html-keyboard-response","trial_index":294,"time_elapsed":663554,"internal_node_id":"0.0-8.0-3.71","subject":"cyyphvhr3usb837","sona":"7624"},{"rt":510,"stimulus":"<p>Ready?</p>","key_press":32,"trial_type":"html-keyboard-response","trial_index":295,"time_elapsed":664066,"internal_node_id":"0.0-8.0-0.72","subject":"cyyphvhr3usb837","sona":"7624"},{"rt":null,"stimulus":"<div style=\"font-size:60px;\">+</div>","key_press":null,"trial_type":"html-keyboard-response","trial_index":296,"time_elapsed":666072,"internal_node_id":"0.0-8.0-1.72","subject":"cyyphvhr3usb837","sona":"7624"},{"trial_type":"turing-test","trial_index":297,"time_elapsed":675204,"internal_node_id":"0.0-8.0-2.72","subject":"cyyphvhr3usb837","sona":"7624"},{"rt":647,"stimulus":"<p>Which sequence did you perceive as more natural?</p>","key_press":74,"test_part":"response","test_stimulus":{"position":1,"left":"bvh/vr_prediction_models/model(vcgpdm)-dataset(return-bottle)-mode(ELBO)-parts(3)-dyn(10)-lvm(10)-hold(4)/final-lines.txt","right":"bvh/return-bottle-training4-lines.txt","att_check":false},"trial_type":"html-keyboard-response","trial_index":298,"time_elapsed":675853,"internal_node_id":"0.0-8.0-3.72","subject":"cyyphvhr3usb837","sona":"7624"},{"rt":356,"stimulus":"<p>Ready?</p>","key_press":32,"trial_type":"html-keyboard-response","trial_index":299,"time_elapsed":676213,"internal_node_id":"0.0-8.0-0.73","subject":"cyyphvhr3usb837","sona":"7624"},{"rt":null,"stimulus":"<div style=\"font-size:60px;\">+</div>","key_press":null,"trial_type":"html-keyboard-response","trial_index":300,"time_elapsed":678216,"internal_node_id":"0.0-8.0-1.73","subject":"cyyphvhr3usb837","sona":"7624"},{"trial_type":"turing-test","trial_index":301,"time_elapsed":685391,"internal_node_id":"0.0-8.0-2.73","subject":"cyyphvhr3usb837","sona":"7624"},{"rt":386,"stimulus":"<p>Which sequence did you perceive as more natural?</p>","key_press":74,"test_part":"response","test_stimulus":{"position":1,"left":"bvh/vr_prediction_models/model(vcgpdm)-dataset(pass-bottle)-mode(ELBO)-parts(1)-dyn(15)-lvm(35)-hold(0)/final-lines.txt","right":"bvh/pass-bottle-training0-lines.txt","att_check":false},"trial_type":"html-keyboard-response","trial_index":302,"time_elapsed":685781,"internal_node_id":"0.0-8.0-3.73","subject":"cyyphvhr3usb837","sona":"7624"},{"rt":358,"stimulus":"<p>Ready?</p>","key_press":32,"trial_type":"html-keyboard-response","trial_index":303,"time_elapsed":686141,"internal_node_id":"0.0-8.0-0.74","subject":"cyyphvhr3usb837","sona":"7624"},{"rt":null,"stimulus":"<div style=\"font-size:60px;\">+</div>","key_press":null,"trial_type":"html-keyboard-response","trial_index":304,"time_elapsed":688143,"internal_node_id":"0.0-8.0-1.74","subject":"cyyphvhr3usb837","sona":"7624"},{"trial_type":"turing-test","trial_index":305,"time_elapsed":691747,"internal_node_id":"0.0-8.0-2.74","subject":"cyyphvhr3usb837","sona":"7624"},{"rt":538,"stimulus":"<p>Which sequence did you perceive as more natural?</p>","key_press":74,"test_part":"response","test_stimulus":{"position":1,"left":"bvh/vr_prediction_models/model(dmp)-dataset(pass-bottle-hold)-npsi(80)-hold(3)/final-lines.txt","right":"bvh/pass-bottle-hold-training3-lines.txt","att_check":true},"trial_type":"html-keyboard-response","trial_index":306,"time_elapsed":692288,"internal_node_id":"0.0-8.0-3.74","subject":"cyyphvhr3usb837","sona":"7624"},{"rt":285,"stimulus":"<p>Ready?</p>","key_press":32,"trial_type":"html-keyboard-response","trial_index":307,"time_elapsed":692575,"internal_node_id":"0.0-8.0-0.75","subject":"cyyphvhr3usb837","sona":"7624"},{"rt":null,"stimulus":"<div style=\"font-size:60px;\">+</div>","key_press":null,"trial_type":"html-keyboard-response","trial_index":308,"time_elapsed":694577,"internal_node_id":"0.0-8.0-1.75","subject":"cyyphvhr3usb837","sona":"7624"},{"trial_type":"turing-test","trial_index":309,"time_elapsed":702762,"internal_node_id":"0.0-8.0-2.75","subject":"cyyphvhr3usb837","sona":"7624"},{"rt":452,"stimulus":"<p>Which sequence did you perceive as more natural?</p>","key_press":70,"test_part":"response","test_stimulus":{"position":0,"left":"bvh/pass-bottle-training1-lines.txt","right":"bvh/vr_prediction_models/model(vcgpdm)-dataset(pass-bottle)-mode(ELBO)-parts(1)-dyn(20)-lvm(30)-hold(1)/final-lines.txt","att_check":false},"trial_type":"html-keyboard-response","trial_index":310,"time_elapsed":703216,"internal_node_id":"0.0-8.0-3.75","subject":"cyyphvhr3usb837","sona":"7624"},{"rt":414,"stimulus":"<p>Ready?</p>","key_press":32,"trial_type":"html-keyboard-response","trial_index":311,"time_elapsed":703632,"internal_node_id":"0.0-8.0-0.76","subject":"cyyphvhr3usb837","sona":"7624"},{"rt":null,"stimulus":"<div style=\"font-size:60px;\">+</div>","key_press":null,"trial_type":"html-keyboard-response","trial_index":312,"time_elapsed":705638,"internal_node_id":"0.0-8.0-1.76","subject":"cyyphvhr3usb837","sona":"7624"},{"trial_type":"turing-test","trial_index":313,"time_elapsed":709279,"internal_node_id":"0.0-8.0-2.76","subject":"cyyphvhr3usb837","sona":"7624"},{"rt":351,"stimulus":"<p>Which sequence did you perceive as more natural?</p>","key_press":70,"test_part":"response","test_stimulus":{"position":1,"left":"bvh/vr_prediction_models/model(tmp)-dataset(pass-bottle-hold)-numprim(12)-hold(3)/final-lines.txt","right":"bvh/pass-bottle-hold-training3-lines.txt","att_check":false},"trial_type":"html-keyboard-response","trial_index":314,"time_elapsed":709632,"internal_node_id":"0.0-8.0-3.76","subject":"cyyphvhr3usb837","sona":"7624"},{"rt":262,"stimulus":"<p>Ready?</p>","key_press":32,"trial_type":"html-keyboard-response","trial_index":315,"time_elapsed":709896,"internal_node_id":"0.0-8.0-0.77","subject":"cyyphvhr3usb837","sona":"7624"},{"rt":null,"stimulus":"<div style=\"font-size:60px;\">+</div>","key_press":null,"trial_type":"html-keyboard-response","trial_index":316,"time_elapsed":711902,"internal_node_id":"0.0-8.0-1.77","subject":"cyyphvhr3usb837","sona":"7624"},{"trial_type":"turing-test","trial_index":317,"time_elapsed":715400,"internal_node_id":"0.0-8.0-2.77","subject":"cyyphvhr3usb837","sona":"7624"},{"rt":491,"stimulus":"<p>Which sequence did you perceive as more natural?</p>","key_press":74,"test_part":"response","test_stimulus":{"position":1,"left":"bvh/vr_prediction_models/model(dmp)-dataset(return-bottle-hold)-npsi(70)-hold(1)/final-lines.txt","right":"bvh/return-bottle-hold-training1-lines.txt","att_check":false},"trial_type":"html-keyboard-response","trial_index":318,"time_elapsed":715894,"internal_node_id":"0.0-8.0-3.77","subject":"cyyphvhr3usb837","sona":"7624"},{"rt":205,"stimulus":"<p>Ready?</p>","key_press":32,"trial_type":"html-keyboard-response","trial_index":319,"time_elapsed":716102,"internal_node_id":"0.0-8.0-0.78","subject":"cyyphvhr3usb837","sona":"7624"},{"rt":null,"stimulus":"<div style=\"font-size:60px;\">+</div>","key_press":null,"trial_type":"html-keyboard-response","trial_index":320,"time_elapsed":718109,"internal_node_id":"0.0-8.0-1.78","subject":"cyyphvhr3usb837","sona":"7624"},{"trial_type":"turing-test","trial_index":321,"time_elapsed":725266,"internal_node_id":"0.0-8.0-2.78","subject":"cyyphvhr3usb837","sona":"7624"},{"rt":339,"stimulus":"<p>Which sequence did you perceive as more natural?</p>","key_press":74,"test_part":"response","test_stimulus":{"position":1,"left":"bvh/vr_prediction_models/model(vcgpdm)-dataset(pass-bottle)-mode(ELBO)-parts(1)-dyn(20)-lvm(30)-hold(0)/final-lines.txt","right":"bvh/pass-bottle-training0-lines.txt","att_check":false},"trial_type":"html-keyboard-response","trial_index":322,"time_elapsed":725607,"internal_node_id":"0.0-8.0-3.78","subject":"cyyphvhr3usb837","sona":"7624"},{"rt":340,"stimulus":"<p>Ready?</p>","key_press":32,"trial_type":"html-keyboard-response","trial_index":323,"time_elapsed":725949,"internal_node_id":"0.0-8.0-0.79","subject":"cyyphvhr3usb837","sona":"7624"},{"rt":null,"stimulus":"<div style=\"font-size:60px;\">+</div>","key_press":null,"trial_type":"html-keyboard-response","trial_index":324,"time_elapsed":727954,"internal_node_id":"0.0-8.0-1.79","subject":"cyyphvhr3usb837","sona":"7624"},{"trial_type":"turing-test","trial_index":325,"time_elapsed":731906,"internal_node_id":"0.0-8.0-2.79","subject":"cyyphvhr3usb837","sona":"7624"},{"rt":357,"stimulus":"<p>Which sequence did you perceive as more natural?</p>","key_press":70,"test_part":"response","test_stimulus":{"position":0,"left":"bvh/pass-bottle-hold-training4-lines.txt","right":"bvh/vr_prediction_models/model(vcgpdm)-dataset(pass-bottle-hold)-mode(ELBO)-parts(1)-dyn(10)-lvm(30)-hold(4)/final-lines.txt","att_check":false},"trial_type":"html-keyboard-response","trial_index":326,"time_elapsed":732267,"internal_node_id":"0.0-8.0-3.79","subject":"cyyphvhr3usb837","sona":"7624"},{"rt":18041,"responses":"{\"age\":\"19\",\"gender\":\"male\"}","trial_type":"survey-text","trial_index":327,"time_elapsed":750324,"internal_node_id":"0.0-9.0-0.0","subject":"cyyphvhr3usb837","sona":"7624"},{"rt":76319,"responses":"{\"area\":\"Arms\",\"Q1\":\"Not fluid enough or rapid, impossible movements\",\"Q2\":\"Rapid, impossible movements or unnatural turning of the body.\\n\"}","trial_type":"survey-text","trial_index":328,"time_elapsed":826690,"internal_node_id":"0.0-9.0-1.0","subject":"cyyphvhr3usb837","sona":"7624"}]