[{"rt":4406.5950000076555,"stimulus":"<p>Welcome!<br> Please choose your language to start the experiment in the chosen language.</p><p>Willkommen!<br> Bitte wählen Sie eine Sprache, um das Experiment in der ausgewählten Sprache zu starten</p>","button_pressed":"1","trial_type":"html-button-response","trial_index":0,"time_elapsed":4455,"internal_node_id":"0.0-0.0","subject":"ffnnlohqkmbqjmh","sona":"7891"},{"view_history":"[{\"page_index\":0,\"viewing_time\":5573.599999988801},{\"page_index\":1,\"viewing_time\":2728.370000011637},{\"page_index\":2,\"viewing_time\":5092.655000000377},{\"page_index\":3,\"viewing_time\":3769.1649999906076},{\"page_index\":4,\"viewing_time\":4409.35499999614}]","rt":21574.38999999431,"trial_type":"instructions","trial_index":1,"time_elapsed":26032,"internal_node_id":"0.0-1.0-0.0","subject":"ffnnlohqkmbqjmh","sona":"7891"},{"rt":3065.4650000069523,"stimulus":"<p>Bereit?</p>","key_press":32,"trial_type":"html-keyboard-response","trial_index":2,"time_elapsed":29100,"internal_node_id":"0.0-3.0","subject":"ffnnlohqkmbqjmh","sona":"7891"},{"rt":null,"stimulus":"<div style=\"font-size:60px;\">+</div>","key_press":null,"trial_type":"html-keyboard-response","trial_index":3,"time_elapsed":31103,"internal_node_id":"0.0-4.0","subject":"ffnnlohqkmbqjmh","sona":"7891"},{"trial_type":"training","trial_index":4,"time_elapsed":34517,"internal_node_id":"0.0-5.0","subject":"ffnnlohqkmbqjmh","sona":"7891"},{"rt":1955.6900000025053,"stimulus":"<p>Welche Sequenz haben Sie als natürlicher empfunden?</p>","key_press":70,"trial_type":"html-keyboard-response","trial_index":5,"time_elapsed":36475,"internal_node_id":"0.0-6.0","subject":"ffnnlohqkmbqjmh","sona":"7891"},{"rt":2424.044999992475,"stimulus":"<p>Das Experiment startet nun.</p><p><small>Bitte drücken Sie den Knopf, wenn Sie bereit sind.</small></p>","button_pressed":"0","trial_type":"html-button-response","trial_index":6,"time_elapsed":38900,"internal_node_id":"0.0-7.0","subject":"ffnnlohqkmbqjmh","sona":"7891"},{"rt":1028.9099999936298,"stimulus":"<p>Bereit?</p>","key_press":32,"trial_type":"html-keyboard-response","trial_index":7,"time_elapsed":39931,"internal_node_id":"0.0-8.0-0.0","subject":"ffnnlohqkmbqjmh","sona":"7891"},{"rt":null,"stimulus":"<div style=\"font-size:60px;\">+</div>","key_press":null,"trial_type":"html-keyboard-response","trial_index":8,"time_elapsed":41935,"internal_node_id":"0.0-8.0-1.0","subject":"ffnnlohqkmbqjmh","sona":"7891"},{"trial_type":"turing-test","trial_index":9,"time_elapsed":47833,"internal_node_id":"0.0-8.0-2.0","subject":"ffnnlohqkmbqjmh","sona":"7891"},{"rt":1303.4499999921536,"stimulus":"<p>Welche Sequenz haben Sie als natürlicher empfunden?</p>","key_press":74,"test_part":"response","test_stimulus":{"position":1,"left":"bvh/vr_prediction_models/model(vcgpdm)-dataset(return-bottle)-mode(ELBO)-parts(3)-dyn(25)-lvm(25)-hold(3)/final-lines.txt","right":"bvh/return-bottle-training3-lines.txt","att_check":false},"trial_type":"html-keyboard-response","trial_index":10,"time_elapsed":49147,"internal_node_id":"0.0-8.0-3.0","subject":"ffnnlohqkmbqjmh","sona":"7891"},{"rt":701.2200000026496,"stimulus":"<p>Bereit?</p>","key_press":32,"trial_type":"html-keyboard-response","trial_index":11,"time_elapsed":49851,"internal_node_id":"0.0-8.0-0.1","subject":"ffnnlohqkmbqjmh","sona":"7891"},{"rt":null,"stimulus":"<div style=\"font-size:60px;\">+</div>","key_press":null,"trial_type":"html-keyboard-response","trial_index":12,"time_elapsed":51855,"internal_node_id":"0.0-8.0-1.1","subject":"ffnnlohqkmbqjmh","sona":"7891"},{"trial_type":"turing-test","trial_index":13,"time_elapsed":55202,"internal_node_id":"0.0-8.0-2.1","subject":"ffnnlohqkmbqjmh","sona":"7891"},{"rt":894.6900000009919,"stimulus":"<p>Welche Sequenz haben Sie als natürlicher empfunden?</p>","key_press":74,"test_part":"response","test_stimulus":{"position":1,"left":"bvh/vr_prediction_models/model(tmp)-dataset(pass-bottle-hold)-numprim(14)-hold(0)/final-lines.txt","right":"bvh/pass-bottle-hold-training0-lines.txt","att_check":false},"trial_type":"html-keyboard-response","trial_index":14,"time_elapsed":56107,"internal_node_id":"0.0-8.0-3.1","subject":"ffnnlohqkmbqjmh","sona":"7891"},{"rt":1165.7149999955436,"stimulus":"<p>Bereit?</p>","key_press":32,"trial_type":"html-keyboard-response","trial_index":15,"time_elapsed":57275,"internal_node_id":"0.0-8.0-0.2","subject":"ffnnlohqkmbqjmh","sona":"7891"},{"rt":null,"stimulus":"<div style=\"font-size:60px;\">+</div>","key_press":null,"trial_type":"html-keyboard-response","trial_index":16,"time_elapsed":59279,"internal_node_id":"0.0-8.0-1.2","subject":"ffnnlohqkmbqjmh","sona":"7891"},{"trial_type":"turing-test","trial_index":17,"time_elapsed":62612,"internal_node_id":"0.0-8.0-2.2","subject":"ffnnlohqkmbqjmh","sona":"7891"},{"rt":647.5499999942258,"stimulus":"<p>Welche Sequenz haben Sie als natürlicher empfunden?</p>","key_press":70,"test_part":"response","test_stimulus":{"position":0,"left":"bvh/pass-bottle-hold-training0-lines.txt","right":"bvh/vr_prediction_models/model(dmp)-dataset(pass-bottle-hold)-npsi(30)-hold(0)/final-lines.txt","att_check":false},"trial_type":"html-keyboard-response","trial_index":18,"time_elapsed":63268,"internal_node_id":"0.0-8.0-3.2","subject":"ffnnlohqkmbqjmh","sona":"7891"},{"rt":764.5649999903981,"stimulus":"<p>Bereit?</p>","key_press":32,"trial_type":"html-keyboard-response","trial_index":19,"time_elapsed":64035,"internal_node_id":"0.0-8.0-0.3","subject":"ffnnlohqkmbqjmh","sona":"7891"},{"rt":null,"stimulus":"<div style=\"font-size:60px;\">+</div>","key_press":null,"trial_type":"html-keyboard-response","trial_index":20,"time_elapsed":66037,"internal_node_id":"0.0-8.0-1.3","subject":"ffnnlohqkmbqjmh","sona":"7891"},{"trial_type":"turing-test","trial_index":21,"time_elapsed":72914,"internal_node_id":"0.0-8.0-2.3","subject":"ffnnlohqkmbqjmh","sona":"7891"},{"rt":44772.97999999428,"stimulus":"<p>Welche Sequenz haben Sie als natürlicher empfunden?</p>","key_press":70,"test_part":"response","test_stimulus":{"position":0,"left":"bvh/pass-bottle-training0-lines.txt","right":"bvh/vr_prediction_models/model(vcgpdm)-dataset(pass-bottle)-mode(ELBO)-parts(3)-dyn(20)-lvm(15)-hold(0)/final-lines.txt","att_check":false},"trial_type":"html-keyboard-response","trial_index":22,"time_elapsed":117692,"internal_node_id":"0.0-8.0-3.3","subject":"ffnnlohqkmbqjmh","sona":"7891"},{"rt":3843.569999997271,"stimulus":"<p>Bereit?</p>","key_press":32,"trial_type":"html-keyboard-response","trial_index":23,"time_elapsed":121539,"internal_node_id":"0.0-8.0-0.4","subject":"ffnnlohqkmbqjmh","sona":"7891"},{"rt":null,"stimulus":"<div style=\"font-size:60px;\">+</div>","key_press":null,"trial_type":"html-keyboard-response","trial_index":24,"time_elapsed":123541,"internal_node_id":"0.0-8.0-1.4","subject":"ffnnlohqkmbqjmh","sona":"7891"},{"trial_type":"turing-test","trial_index":25,"time_elapsed":129715,"internal_node_id":"0.0-8.0-2.4","subject":"ffnnlohqkmbqjmh","sona":"7891"},{"rt":637.1199999994133,"stimulus":"<p>Welche Sequenz haben Sie als natürlicher empfunden?</p>","key_press":70,"test_part":"response","test_stimulus":{"position":0,"left":"bvh/pass-bottle-training2-lines.txt","right":"bvh/vr_prediction_models/model(dmp)-dataset(pass-bottle)-npsi(70)-hold(2)/final-lines.txt","att_check":false},"trial_type":"html-keyboard-response","trial_index":26,"time_elapsed":130356,"internal_node_id":"0.0-8.0-3.4","subject":"ffnnlohqkmbqjmh","sona":"7891"},{"rt":587.4049999983981,"stimulus":"<p>Bereit?</p>","key_press":32,"trial_type":"html-keyboard-response","trial_index":27,"time_elapsed":130947,"internal_node_id":"0.0-8.0-0.5","subject":"ffnnlohqkmbqjmh","sona":"7891"},{"rt":null,"stimulus":"<div style=\"font-size:60px;\">+</div>","key_press":null,"trial_type":"html-keyboard-response","trial_index":28,"time_elapsed":132950,"internal_node_id":"0.0-8.0-1.5","subject":"ffnnlohqkmbqjmh","sona":"7891"},{"trial_type":"turing-test","trial_index":29,"time_elapsed":136408,"internal_node_id":"0.0-8.0-2.5","subject":"ffnnlohqkmbqjmh","sona":"7891"},{"rt":1711.5500000072643,"stimulus":"<p>Welche Sequenz haben Sie als natürlicher empfunden?</p>","key_press":70,"test_part":"response","test_stimulus":{"position":0,"left":"bvh/pass-bottle-hold-training2-lines.txt","right":"bvh/vr_prediction_models/model(vcgpdm)-dataset(pass-bottle-hold)-mode(ELBO)-parts(3)-dyn(25)-lvm(25)-hold(2)/final-lines.txt","att_check":false},"trial_type":"html-keyboard-response","trial_index":30,"time_elapsed":138123,"internal_node_id":"0.0-8.0-3.5","subject":"ffnnlohqkmbqjmh","sona":"7891"},{"rt":2549.9049999925774,"stimulus":"<p>Bereit?</p>","key_press":32,"trial_type":"html-keyboard-response","trial_index":31,"time_elapsed":140676,"internal_node_id":"0.0-8.0-0.6","subject":"ffnnlohqkmbqjmh","sona":"7891"},{"rt":null,"stimulus":"<div style=\"font-size:60px;\">+</div>","key_press":null,"trial_type":"html-keyboard-response","trial_index":32,"time_elapsed":142677,"internal_node_id":"0.0-8.0-1.6","subject":"ffnnlohqkmbqjmh","sona":"7891"},{"trial_type":"turing-test","trial_index":33,"time_elapsed":149266,"internal_node_id":"0.0-8.0-2.6","subject":"ffnnlohqkmbqjmh","sona":"7891"}]