[{"rt":3322,"stimulus":"<p>Welcome!<br> Please choose your language to start the experiment in the chosen language.</p><p>Willkommen!<br> Bitte wählen Sie eine Sprache, um das Experiment in der ausgewählten Sprache zu starten</p>","button_pressed":"1","trial_type":"html-button-response","trial_index":0,"time_elapsed":3328,"internal_node_id":"0.0-0.0","subject":"jy53g2d1wj0vvem","sona":"9517"},{"view_history":"[{\"page_index\":0,\"viewing_time\":28695},{\"page_index\":1,\"viewing_time\":5807},{\"page_index\":2,\"viewing_time\":7176},{\"page_index\":3,\"viewing_time\":14648},{\"page_index\":4,\"viewing_time\":2760}]","rt":59086,"trial_type":"instructions","trial_index":1,"time_elapsed":62416,"internal_node_id":"0.0-1.0-0.0","subject":"jy53g2d1wj0vvem","sona":"9517"},{"rt":2606,"stimulus":"<p>Bereit?</p>","key_press":32,"trial_type":"html-keyboard-response","trial_index":2,"time_elapsed":65024,"internal_node_id":"0.0-3.0","subject":"jy53g2d1wj0vvem","sona":"9517"},{"rt":null,"stimulus":"<div style=\"font-size:60px;\">+</div>","key_press":null,"trial_type":"html-keyboard-response","trial_index":3,"time_elapsed":67050,"internal_node_id":"0.0-4.0","subject":"jy53g2d1wj0vvem","sona":"9517"},{"trial_type":"training","trial_index":4,"time_elapsed":70462,"internal_node_id":"0.0-5.0","subject":"jy53g2d1wj0vvem","sona":"9517"},{"rt":1665,"stimulus":"<p>Welche Sequenz haben Sie als natürlicher empfunden?</p>","key_press":70,"trial_type":"html-keyboard-response","trial_index":5,"time_elapsed":72132,"internal_node_id":"0.0-6.0","subject":"jy53g2d1wj0vvem","sona":"9517"},{"rt":5329,"stimulus":"<p>Das Experiment startet nun.</p><p><small>Bitte drücken Sie den Knopf, wenn Sie bereit sind.</small></p>","button_pressed":"0","trial_type":"html-button-response","trial_index":6,"time_elapsed":77464,"internal_node_id":"0.0-7.0","subject":"jy53g2d1wj0vvem","sona":"9517"},{"rt":4577,"stimulus":"<p>Bereit?</p>","key_press":32,"trial_type":"html-keyboard-response","trial_index":7,"time_elapsed":82043,"internal_node_id":"0.0-8.0-0.0","subject":"jy53g2d1wj0vvem","sona":"9517"},{"rt":null,"stimulus":"<div style=\"font-size:60px;\">+</div>","key_press":null,"trial_type":"html-keyboard-response","trial_index":8,"time_elapsed":84062,"internal_node_id":"0.0-8.0-1.0","subject":"jy53g2d1wj0vvem","sona":"9517"},{"trial_type":"turing-test","trial_index":9,"time_elapsed":90742,"internal_node_id":"0.0-8.0-2.0","subject":"jy53g2d1wj0vvem","sona":"9517"},{"rt":2259,"stimulus":"<p>Welche Sequenz haben Sie als natürlicher empfunden?</p>","key_press":74,"test_part":"response","test_stimulus":{"position":1,"left":"bvh/vr_prediction_models/model(dmp)-dataset(return-bottle)-npsi(90)-hold(2)/final-lines.txt","right":"bvh/return-bottle-training2-lines.txt","att_check":false},"trial_type":"html-keyboard-response","trial_index":10,"time_elapsed":93005,"internal_node_id":"0.0-8.0-3.0","subject":"jy53g2d1wj0vvem","sona":"9517"},{"rt":1202,"stimulus":"<p>Bereit?</p>","key_press":32,"trial_type":"html-keyboard-response","trial_index":11,"time_elapsed":94212,"internal_node_id":"0.0-8.0-0.1","subject":"jy53g2d1wj0vvem","sona":"9517"},{"rt":null,"stimulus":"<div style=\"font-size:60px;\">+</div>","key_press":null,"trial_type":"html-keyboard-response","trial_index":12,"time_elapsed":96252,"internal_node_id":"0.0-8.0-1.1","subject":"jy53g2d1wj0vvem","sona":"9517"},{"trial_type":"turing-test","trial_index":13,"time_elapsed":102852,"internal_node_id":"0.0-8.0-2.1","subject":"jy53g2d1wj0vvem","sona":"9517"},{"rt":1547,"stimulus":"<p>Welche Sequenz haben Sie als natürlicher empfunden?</p>","key_press":74,"test_part":"response","test_stimulus":{"position":1,"left":"bvh/vr_prediction_models/model(dmp)-dataset(return-bottle)-npsi(80)-hold(2)/final-lines.txt","right":"bvh/return-bottle-training2-lines.txt","att_check":false},"trial_type":"html-keyboard-response","trial_index":14,"time_elapsed":104404,"internal_node_id":"0.0-8.0-3.1","subject":"jy53g2d1wj0vvem","sona":"9517"},{"rt":1004,"stimulus":"<p>Bereit?</p>","key_press":32,"trial_type":"html-keyboard-response","trial_index":15,"time_elapsed":105413,"internal_node_id":"0.0-8.0-0.2","subject":"jy53g2d1wj0vvem","sona":"9517"},{"rt":null,"stimulus":"<div style=\"font-size:60px;\">+</div>","key_press":null,"trial_type":"html-keyboard-response","trial_index":16,"time_elapsed":107441,"internal_node_id":"0.0-8.0-1.2","subject":"jy53g2d1wj0vvem","sona":"9517"},{"trial_type":"turing-test","trial_index":17,"time_elapsed":110841,"internal_node_id":"0.0-8.0-2.2","subject":"jy53g2d1wj0vvem","sona":"9517"},{"rt":1112,"stimulus":"<p>Welche Sequenz haben Sie als natürlicher empfunden?</p>","key_press":70,"test_part":"response","test_stimulus":{"position":0,"left":"bvh/pass-bottle-hold-training1-lines.txt","right":"bvh/vr_prediction_models/model(vcgpdm)-dataset(pass-bottle-hold)-mode(ELBO)-parts(1)-dyn(5)-lvm(5)-hold(1)/final-lines.txt","att_check":false},"trial_type":"html-keyboard-response","trial_index":18,"time_elapsed":111956,"internal_node_id":"0.0-8.0-3.2","subject":"jy53g2d1wj0vvem","sona":"9517"},{"rt":667,"stimulus":"<p>Bereit?</p>","key_press":32,"trial_type":"html-keyboard-response","trial_index":19,"time_elapsed":112627,"internal_node_id":"0.0-8.0-0.3","subject":"jy53g2d1wj0vvem","sona":"9517"},{"rt":null,"stimulus":"<div style=\"font-size:60px;\">+</div>","key_press":null,"trial_type":"html-keyboard-response","trial_index":20,"time_elapsed":114651,"internal_node_id":"0.0-8.0-1.3","subject":"jy53g2d1wj0vvem","sona":"9517"},{"trial_type":"turing-test","trial_index":21,"time_elapsed":120852,"internal_node_id":"0.0-8.0-2.3","subject":"jy53g2d1wj0vvem","sona":"9517"},{"rt":1114,"stimulus":"<p>Welche Sequenz haben Sie als natürlicher empfunden?</p>","key_press":74,"test_part":"response","test_stimulus":{"position":1,"left":"bvh/vr_prediction_models/model(tmp)-dataset(pass-bottle)-numprim(5)-hold(2)/final-lines.txt","right":"bvh/pass-bottle-training2-lines.txt","att_check":false},"trial_type":"html-keyboard-response","trial_index":22,"time_elapsed":121972,"internal_node_id":"0.0-8.0-3.3","subject":"jy53g2d1wj0vvem","sona":"9517"},{"rt":2381,"stimulus":"<p>Bereit?</p>","key_press":32,"trial_type":"html-keyboard-response","trial_index":23,"time_elapsed":124357,"internal_node_id":"0.0-8.0-0.4","subject":"jy53g2d1wj0vvem","sona":"9517"},{"rt":null,"stimulus":"<div style=\"font-size:60px;\">+</div>","key_press":null,"trial_type":"html-keyboard-response","trial_index":24,"time_elapsed":126391,"internal_node_id":"0.0-8.0-1.4","subject":"jy53g2d1wj0vvem","sona":"9517"},{"trial_type":"turing-test","trial_index":25,"time_elapsed":133233,"internal_node_id":"0.0-8.0-2.4","subject":"jy53g2d1wj0vvem","sona":"9517"},{"rt":922,"stimulus":"<p>Welche Sequenz haben Sie als natürlicher empfunden?</p>","key_press":70,"test_part":"response","test_stimulus":{"position":0,"left":"bvh/pass-bottle-training0-lines.txt","right":"bvh/vr_prediction_models/model(dmp)-dataset(pass-bottle)-npsi(90)-hold(0)/final-lines.txt","att_check":false},"trial_type":"html-keyboard-response","trial_index":26,"time_elapsed":134158,"internal_node_id":"0.0-8.0-3.4","subject":"jy53g2d1wj0vvem","sona":"9517"},{"rt":1225,"stimulus":"<p>Bereit?</p>","key_press":32,"trial_type":"html-keyboard-response","trial_index":27,"time_elapsed":135388,"internal_node_id":"0.0-8.0-0.5","subject":"jy53g2d1wj0vvem","sona":"9517"},{"rt":null,"stimulus":"<div style=\"font-size:60px;\">+</div>","key_press":null,"trial_type":"html-keyboard-response","trial_index":28,"time_elapsed":137412,"internal_node_id":"0.0-8.0-1.5","subject":"jy53g2d1wj0vvem","sona":"9517"},{"trial_type":"turing-test","trial_index":29,"time_elapsed":143561,"internal_node_id":"0.0-8.0-2.5","subject":"jy53g2d1wj0vvem","sona":"9517"},{"rt":471,"stimulus":"<p>Welche Sequenz haben Sie als natürlicher empfunden?</p>","key_press":70,"test_part":"response","test_stimulus":{"position":0,"left":"bvh/return-bottle-training1-lines.txt","right":"bvh/vr_prediction_models/model(tmp)-dataset(return-bottle)-numprim(13)-hold(1)/final-lines.txt","att_check":false},"trial_type":"html-keyboard-response","trial_index":30,"time_elapsed":144035,"internal_node_id":"0.0-8.0-3.5","subject":"jy53g2d1wj0vvem","sona":"9517"},{"rt":1214,"stimulus":"<p>Bereit?</p>","key_press":32,"trial_type":"html-keyboard-response","trial_index":31,"time_elapsed":145252,"internal_node_id":"0.0-8.0-0.6","subject":"jy53g2d1wj0vvem","sona":"9517"},{"rt":null,"stimulus":"<div style=\"font-size:60px;\">+</div>","key_press":null,"trial_type":"html-keyboard-response","trial_index":32,"time_elapsed":147292,"internal_node_id":"0.0-8.0-1.6","subject":"jy53g2d1wj0vvem","sona":"9517"},{"trial_type":"turing-test","trial_index":33,"time_elapsed":154072,"internal_node_id":"0.0-8.0-2.6","subject":"jy53g2d1wj0vvem","sona":"9517"},{"rt":391,"stimulus":"<p>Welche Sequenz haben Sie als natürlicher empfunden?</p>","key_press":74,"test_part":"response","test_stimulus":{"position":1,"left":"bvh/vr_prediction_models/model(vcgpdm)-dataset(return-bottle)-mode(MAP)-parts(3)-hold(2)/final-lines.txt","right":"bvh/return-bottle-training2-lines.txt","att_check":false},"trial_type":"html-keyboard-response","trial_index":34,"time_elapsed":154467,"internal_node_id":"0.0-8.0-3.6","subject":"jy53g2d1wj0vvem","sona":"9517"},{"rt":548,"stimulus":"<p>Bereit?</p>","key_press":32,"trial_type":"html-keyboard-response","trial_index":35,"time_elapsed":155019,"internal_node_id":"0.0-8.0-0.7","subject":"jy53g2d1wj0vvem","sona":"9517"},{"rt":null,"stimulus":"<div style=\"font-size:60px;\">+</div>","key_press":null,"trial_type":"html-keyboard-response","trial_index":36,"time_elapsed":157044,"internal_node_id":"0.0-8.0-1.7","subject":"jy53g2d1wj0vvem","sona":"9517"},{"trial_type":"turing-test","trial_index":37,"time_elapsed":160402,"internal_node_id":"0.0-8.0-2.7","subject":"jy53g2d1wj0vvem","sona":"9517"},{"rt":2654,"stimulus":"<p>Welche Sequenz haben Sie als natürlicher empfunden?</p>","key_press":74,"test_part":"response","test_stimulus":{"position":1,"left":"bvh/vr_prediction_models/model(dmp)-dataset(pass-bottle-hold)-npsi(70)-hold(0)/final-lines.txt","right":"bvh/pass-bottle-hold-training0-lines.txt","att_check":false},"trial_type":"html-keyboard-response","trial_index":38,"time_elapsed":163059,"internal_node_id":"0.0-8.0-3.7","subject":"jy53g2d1wj0vvem","sona":"9517"},{"rt":706,"stimulus":"<p>Bereit?</p>","key_press":32,"trial_type":"html-keyboard-response","trial_index":39,"time_elapsed":163771,"internal_node_id":"0.0-8.0-0.8","subject":"jy53g2d1wj0vvem","sona":"9517"},{"rt":null,"stimulus":"<div style=\"font-size:60px;\">+</div>","key_press":null,"trial_type":"html-keyboard-response","trial_index":40,"time_elapsed":165793,"internal_node_id":"0.0-8.0-1.8","subject":"jy53g2d1wj0vvem","sona":"9517"},{"trial_type":"turing-test","trial_index":41,"time_elapsed":169494,"internal_node_id":"0.0-8.0-2.8","subject":"jy53g2d1wj0vvem","sona":"9517"},{"rt":562,"stimulus":"<p>Welche Sequenz haben Sie als natürlicher empfunden?</p>","key_press":74,"test_part":"response","test_stimulus":{"position":1,"left":"bvh/vr_prediction_models/model(vcgpdm)-dataset(return-bottle-hold)-mode(ELBO)-parts(1)-dyn(35)-lvm(30)-hold(2)/final-lines.txt","right":"bvh/return-bottle-hold-training2-lines.txt","att_check":false},"trial_type":"html-keyboard-response","trial_index":42,"time_elapsed":170060,"internal_node_id":"0.0-8.0-3.8","subject":"jy53g2d1wj0vvem","sona":"9517"},{"rt":467,"stimulus":"<p>Bereit?</p>","key_press":32,"trial_type":"html-keyboard-response","trial_index":43,"time_elapsed":170531,"internal_node_id":"0.0-8.0-0.9","subject":"jy53g2d1wj0vvem","sona":"9517"},{"rt":null,"stimulus":"<div style=\"font-size:60px;\">+</div>","key_press":null,"trial_type":"html-keyboard-response","trial_index":44,"time_elapsed":172554,"internal_node_id":"0.0-8.0-1.9","subject":"jy53g2d1wj0vvem","sona":"9517"},{"trial_type":"turing-test","trial_index":45,"time_elapsed":178208,"internal_node_id":"0.0-8.0-2.9","subject":"jy53g2d1wj0vvem","sona":"9517"},{"rt":1048,"stimulus":"<p>Welche Sequenz haben Sie als natürlicher empfunden?</p>","key_press":70,"test_part":"response","test_stimulus":{"position":0,"left":"bvh/pass-bottle-training1-lines.txt","right":"bvh/vr_prediction_models/model(vcgpdm)-dataset(pass-bottle)-mode(ELBO)-parts(1)-dyn(30)-lvm(35)-hold(1)/final-lines.txt","att_check":false},"trial_type":"html-keyboard-response","trial_index":46,"time_elapsed":179260,"internal_node_id":"0.0-8.0-3.9","subject":"jy53g2d1wj0vvem","sona":"9517"},{"rt":577,"stimulus":"<p>Bereit?</p>","key_press":32,"trial_type":"html-keyboard-response","trial_index":47,"time_elapsed":179842,"internal_node_id":"0.0-8.0-0.10","subject":"jy53g2d1wj0vvem","sona":"9517"},{"rt":null,"stimulus":"<div style=\"font-size:60px;\">+</div>","key_press":null,"trial_type":"html-keyboard-response","trial_index":48,"time_elapsed":181878,"internal_node_id":"0.0-8.0-1.10","subject":"jy53g2d1wj0vvem","sona":"9517"},{"trial_type":"turing-test","trial_index":49,"time_elapsed":187360,"internal_node_id":"0.0-8.0-2.10","subject":"jy53g2d1wj0vvem","sona":"9517"},{"rt":575,"stimulus":"<p>Welche Sequenz haben Sie als natürlicher empfunden?</p>","key_press":74,"test_part":"response","test_stimulus":{"position":1,"left":"bvh/vr_prediction_models/model(tmp)-dataset(return-bottle)-numprim(10)-hold(0)/final-lines.txt","right":"bvh/return-bottle-training0-lines.txt","att_check":false},"trial_type":"html-keyboard-response","trial_index":50,"time_elapsed":187941,"internal_node_id":"0.0-8.0-3.10","subject":"jy53g2d1wj0vvem","sona":"9517"},{"rt":931,"stimulus":"<p>Bereit?</p>","key_press":32,"trial_type":"html-keyboard-response","trial_index":51,"time_elapsed":188875,"internal_node_id":"0.0-8.0-0.11","subject":"jy53g2d1wj0vvem","sona":"9517"},{"rt":null,"stimulus":"<div style=\"font-size:60px;\">+</div>","key_press":null,"trial_type":"html-keyboard-response","trial_index":52,"time_elapsed":190898,"internal_node_id":"0.0-8.0-1.11","subject":"jy53g2d1wj0vvem","sona":"9517"},{"trial_type":"turing-test","trial_index":53,"time_elapsed":196797,"internal_node_id":"0.0-8.0-2.11","subject":"jy53g2d1wj0vvem","sona":"9517"}]