[{"rt":1797.8149999980815,"stimulus":"<p>Welcome!<br> Please choose your language to start the experiment in the chosen language.</p><p>Willkommen!<br> Bitte wählen Sie eine Sprache, um das Experiment in der ausgewählten Sprache zu starten</p>","button_pressed":"1","trial_type":"html-button-response","trial_index":0,"time_elapsed":1830,"internal_node_id":"0.0-0.0","subject":"8kj2g6v2eedmt5w","sona":"8653"},{"view_history":"[{\"page_index\":0,\"viewing_time\":977.370000036899},{\"page_index\":1,\"viewing_time\":1260.6449999730103},{\"page_index\":2,\"viewing_time\":2468.1950000231154},{\"page_index\":3,\"viewing_time\":1323.774999997113},{\"page_index\":4,\"viewing_time\":1133.8749999995343}]","rt":7164.880000054836,"trial_type":"instructions","trial_index":1,"time_elapsed":8996,"internal_node_id":"0.0-1.0-0.0","subject":"8kj2g6v2eedmt5w","sona":"8653"},{"rt":692.7850000211038,"stimulus":"<p>Bereit?</p>","key_press":32,"trial_type":"html-keyboard-response","trial_index":2,"time_elapsed":9690,"internal_node_id":"0.0-3.0","subject":"8kj2g6v2eedmt5w","sona":"8653"},{"rt":null,"stimulus":"<div style=\"font-size:60px;\">+</div>","key_press":null,"trial_type":"html-keyboard-response","trial_index":3,"time_elapsed":11693,"internal_node_id":"0.0-4.0","subject":"8kj2g6v2eedmt5w","sona":"8653"},{"trial_type":"training","trial_index":4,"time_elapsed":15157,"internal_node_id":"0.0-5.0","subject":"8kj2g6v2eedmt5w","sona":"8653"},{"rt":516.2850000197068,"stimulus":"<p>Welche Sequenz haben Sie als natürlicher empfunden?</p>","key_press":70,"trial_type":"html-keyboard-response","trial_index":5,"time_elapsed":15676,"internal_node_id":"0.0-6.0","subject":"8kj2g6v2eedmt5w","sona":"8653"},{"rt":4849.580000038259,"stimulus":"<p>Das Experiment startet nun.</p><p><small>Bitte drücken Sie den Knopf, wenn Sie bereit sind.</small></p>","button_pressed":"0","trial_type":"html-button-response","trial_index":6,"time_elapsed":20528,"internal_node_id":"0.0-7.0","subject":"8kj2g6v2eedmt5w","sona":"8653"},{"rt":4319.699999992736,"stimulus":"<p>Bereit?</p>","key_press":32,"trial_type":"html-keyboard-response","trial_index":7,"time_elapsed":24849,"internal_node_id":"0.0-8.0-0.0","subject":"8kj2g6v2eedmt5w","sona":"8653"},{"rt":null,"stimulus":"<div style=\"font-size:60px;\">+</div>","key_press":null,"trial_type":"html-keyboard-response","trial_index":8,"time_elapsed":26883,"internal_node_id":"0.0-8.0-1.0","subject":"8kj2g6v2eedmt5w","sona":"8653"},{"trial_type":"turing-test","trial_index":9,"time_elapsed":33280,"internal_node_id":"0.0-8.0-2.0","subject":"8kj2g6v2eedmt5w","sona":"8653"},{"rt":717.8950000088662,"stimulus":"<p>Welche Sequenz haben Sie als natürlicher empfunden?</p>","key_press":74,"test_part":"response","test_stimulus":{"position":1,"left":"bvh/vr_prediction_models/model(vcgpdm)-dataset(return-bottle)-mode(ELBO)-parts(3)-dyn(10)-lvm(10)-hold(1)/final-lines.txt","right":"bvh/return-bottle-training1-lines.txt","att_check":false},"trial_type":"html-keyboard-response","trial_index":10,"time_elapsed":34008,"internal_node_id":"0.0-8.0-3.0","subject":"8kj2g6v2eedmt5w","sona":"8653"},{"rt":1958.664999983739,"stimulus":"<p>Bereit?</p>","key_press":32,"trial_type":"html-keyboard-response","trial_index":11,"time_elapsed":35973,"internal_node_id":"0.0-8.0-0.1","subject":"8kj2g6v2eedmt5w","sona":"8653"},{"rt":null,"stimulus":"<div style=\"font-size:60px;\">+</div>","key_press":null,"trial_type":"html-keyboard-response","trial_index":12,"time_elapsed":37986,"internal_node_id":"0.0-8.0-1.1","subject":"8kj2g6v2eedmt5w","sona":"8653"},{"trial_type":"turing-test","trial_index":13,"time_elapsed":43911,"internal_node_id":"0.0-8.0-2.1","subject":"8kj2g6v2eedmt5w","sona":"8653"},{"rt":317.5249999621883,"stimulus":"<p>Welche Sequenz haben Sie als natürlicher empfunden?</p>","key_press":70,"test_part":"response","test_stimulus":{"position":0,"left":"bvh/return-bottle-training4-lines.txt","right":"bvh/vr_prediction_models/model(tmp)-dataset(return-bottle)-numprim(3)-hold(4)/final-lines.txt","att_check":false},"trial_type":"html-keyboard-response","trial_index":14,"time_elapsed":44238,"internal_node_id":"0.0-8.0-3.1","subject":"8kj2g6v2eedmt5w","sona":"8653"},{"rt":631.1350000323728,"stimulus":"<p>Bereit?</p>","key_press":32,"trial_type":"html-keyboard-response","trial_index":15,"time_elapsed":44873,"internal_node_id":"0.0-8.0-0.2","subject":"8kj2g6v2eedmt5w","sona":"8653"},{"rt":null,"stimulus":"<div style=\"font-size:60px;\">+</div>","key_press":null,"trial_type":"html-keyboard-response","trial_index":16,"time_elapsed":46880,"internal_node_id":"0.0-8.0-1.2","subject":"8kj2g6v2eedmt5w","sona":"8653"},{"trial_type":"turing-test","trial_index":17,"time_elapsed":50262,"internal_node_id":"0.0-8.0-2.2","subject":"8kj2g6v2eedmt5w","sona":"8653"},{"rt":281.8550000083633,"stimulus":"<p>Welche Sequenz haben Sie als natürlicher empfunden?</p>","key_press":74,"test_part":"response","test_stimulus":{"position":1,"left":"bvh/vr_prediction_models/model(tmp)-dataset(pass-bottle-hold)-numprim(15)-hold(1)/final-lines.txt","right":"bvh/pass-bottle-hold-training1-lines.txt","att_check":false},"trial_type":"html-keyboard-response","trial_index":18,"time_elapsed":50550,"internal_node_id":"0.0-8.0-3.2","subject":"8kj2g6v2eedmt5w","sona":"8653"},{"rt":463.9249999891035,"stimulus":"<p>Bereit?</p>","key_press":32,"trial_type":"html-keyboard-response","trial_index":19,"time_elapsed":51019,"internal_node_id":"0.0-8.0-0.3","subject":"8kj2g6v2eedmt5w","sona":"8653"},{"rt":null,"stimulus":"<div style=\"font-size:60px;\">+</div>","key_press":null,"trial_type":"html-keyboard-response","trial_index":20,"time_elapsed":53043,"internal_node_id":"0.0-8.0-1.3","subject":"8kj2g6v2eedmt5w","sona":"8653"},{"trial_type":"turing-test","trial_index":21,"time_elapsed":56997,"internal_node_id":"0.0-8.0-2.3","subject":"8kj2g6v2eedmt5w","sona":"8653"},{"rt":243.0700000259094,"stimulus":"<p>Welche Sequenz haben Sie als natürlicher empfunden?</p>","key_press":74,"test_part":"response","test_stimulus":{"position":0,"left":"bvh/pass-bottle-hold-training3-lines.txt","right":"bvh/vr_prediction_models/model(vcgpdm)-dataset(pass-bottle-hold)-mode(ELBO)-parts(1)-dyn(10)-lvm(5)-hold(3)/final-lines.txt","att_check":false},"trial_type":"html-keyboard-response","trial_index":22,"time_elapsed":57249,"internal_node_id":"0.0-8.0-3.3","subject":"8kj2g6v2eedmt5w","sona":"8653"},{"rt":450.74999995995313,"stimulus":"<p>Bereit?</p>","key_press":32,"trial_type":"html-keyboard-response","trial_index":23,"time_elapsed":57705,"internal_node_id":"0.0-8.0-0.4","subject":"8kj2g6v2eedmt5w","sona":"8653"},{"rt":null,"stimulus":"<div style=\"font-size:60px;\">+</div>","key_press":null,"trial_type":"html-keyboard-response","trial_index":24,"time_elapsed":59718,"internal_node_id":"0.0-8.0-1.4","subject":"8kj2g6v2eedmt5w","sona":"8653"},{"trial_type":"turing-test","trial_index":25,"time_elapsed":63706,"internal_node_id":"0.0-8.0-2.4","subject":"8kj2g6v2eedmt5w","sona":"8653"},{"rt":349.16499996325,"stimulus":"<p>Welche Sequenz haben Sie als natürlicher empfunden?</p>","key_press":70,"test_part":"response","test_stimulus":{"position":1,"left":"bvh/vr_prediction_models/model(vcgpdm)-dataset(pass-bottle-hold)-mode(ELBO)-parts(3)-dyn(10)-lvm(25)-hold(3)/final-lines.txt","right":"bvh/pass-bottle-hold-training3-lines.txt","att_check":false},"trial_type":"html-keyboard-response","trial_index":26,"time_elapsed":64064,"internal_node_id":"0.0-8.0-3.4","subject":"8kj2g6v2eedmt5w","sona":"8653"},{"rt":260.9300000476651,"stimulus":"<p>Bereit?</p>","key_press":32,"trial_type":"html-keyboard-response","trial_index":27,"time_elapsed":64336,"internal_node_id":"0.0-8.0-0.5","subject":"8kj2g6v2eedmt5w","sona":"8653"},{"rt":null,"stimulus":"<div style=\"font-size:60px;\">+</div>","key_press":null,"trial_type":"html-keyboard-response","trial_index":28,"time_elapsed":66356,"internal_node_id":"0.0-8.0-1.5","subject":"8kj2g6v2eedmt5w","sona":"8653"},{"trial_type":"turing-test","trial_index":29,"time_elapsed":71958,"internal_node_id":"0.0-8.0-2.5","subject":"8kj2g6v2eedmt5w","sona":"8653"},{"rt":417.14500001398847,"stimulus":"<p>Welche Sequenz haben Sie als natürlicher empfunden?</p>","key_press":70,"test_part":"response","test_stimulus":{"position":1,"left":"bvh/vr_prediction_models/model(dmp)-dataset(pass-bottle)-npsi(40)-hold(1)/final-lines.txt","right":"bvh/pass-bottle-training1-lines.txt","att_check":false},"trial_type":"html-keyboard-response","trial_index":30,"time_elapsed":72384,"internal_node_id":"0.0-8.0-3.5","subject":"8kj2g6v2eedmt5w","sona":"8653"},{"rt":325.8749999804422,"stimulus":"<p>Bereit?</p>","key_press":32,"trial_type":"html-keyboard-response","trial_index":31,"time_elapsed":72716,"internal_node_id":"0.0-8.0-0.6","subject":"8kj2g6v2eedmt5w","sona":"8653"},{"rt":null,"stimulus":"<div style=\"font-size:60px;\">+</div>","key_press":null,"trial_type":"html-keyboard-response","trial_index":32,"time_elapsed":74735,"internal_node_id":"0.0-8.0-1.6","subject":"8kj2g6v2eedmt5w","sona":"8653"},{"trial_type":"turing-test","trial_index":33,"time_elapsed":78275,"internal_node_id":"0.0-8.0-2.6","subject":"8kj2g6v2eedmt5w","sona":"8653"},{"rt":543.8900000299327,"stimulus":"<p>Welche Sequenz haben Sie als natürlicher empfunden?</p>","key_press":70,"test_part":"response","test_stimulus":{"position":0,"left":"bvh/pass-bottle-hold-training1-lines.txt","right":"bvh/vr_prediction_models/model(vcgpdm)-dataset(pass-bottle-hold)-mode(ELBO)-parts(1)-dyn(10)-lvm(30)-hold(1)/final-lines.txt","att_check":false},"trial_type":"html-keyboard-response","trial_index":34,"time_elapsed":78826,"internal_node_id":"0.0-8.0-3.6","subject":"8kj2g6v2eedmt5w","sona":"8653"},{"rt":291.7899999883957,"stimulus":"<p>Bereit?</p>","key_press":32,"trial_type":"html-keyboard-response","trial_index":35,"time_elapsed":79121,"internal_node_id":"0.0-8.0-0.7","subject":"8kj2g6v2eedmt5w","sona":"8653"},{"rt":null,"stimulus":"<div style=\"font-size:60px;\">+</div>","key_press":null,"trial_type":"html-keyboard-response","trial_index":36,"time_elapsed":81137,"internal_node_id":"0.0-8.0-1.7","subject":"8kj2g6v2eedmt5w","sona":"8653"},{"trial_type":"turing-test","trial_index":37,"time_elapsed":88208,"internal_node_id":"0.0-8.0-2.7","subject":"8kj2g6v2eedmt5w","sona":"8653"},{"rt":237.5350000220351,"stimulus":"<p>Welche Sequenz haben Sie als natürlicher empfunden?</p>","key_press":74,"test_part":"response","test_stimulus":{"position":1,"left":"bvh/vr_prediction_models/model(vcgpdm)-dataset(pass-bottle)-mode(ELBO)-parts(1)-dyn(20)-lvm(30)-hold(0)/final-lines.txt","right":"bvh/pass-bottle-training0-lines.txt","att_check":false},"trial_type":"html-keyboard-response","trial_index":38,"time_elapsed":88462,"internal_node_id":"0.0-8.0-3.7","subject":"8kj2g6v2eedmt5w","sona":"8653"},{"rt":323.0300000286661,"stimulus":"<p>Bereit?</p>","key_press":32,"trial_type":"html-keyboard-response","trial_index":39,"time_elapsed":88793,"internal_node_id":"0.0-8.0-0.8","subject":"8kj2g6v2eedmt5w","sona":"8653"},{"rt":null,"stimulus":"<div style=\"font-size:60px;\">+</div>","key_press":null,"trial_type":"html-keyboard-response","trial_index":40,"time_elapsed":90812,"internal_node_id":"0.0-8.0-1.8","subject":"8kj2g6v2eedmt5w","sona":"8653"},{"trial_type":"turing-test","trial_index":41,"time_elapsed":97648,"internal_node_id":"0.0-8.0-2.8","subject":"8kj2g6v2eedmt5w","sona":"8653"},{"rt":128.04000003961846,"stimulus":"<p>Welche Sequenz haben Sie als natürlicher empfunden?</p>","key_press":70,"test_part":"response","test_stimulus":{"position":0,"left":"bvh/pass-bottle-training0-lines.txt","right":"bvh/vr_prediction_models/model(tmp)-dataset(pass-bottle)-numprim(6)-hold(0)/final-lines.txt","att_check":false},"trial_type":"html-keyboard-response","trial_index":42,"time_elapsed":97786,"internal_node_id":"0.0-8.0-3.8","subject":"8kj2g6v2eedmt5w","sona":"8653"},{"rt":245.86999998427927,"stimulus":"<p>Bereit?</p>","key_press":32,"trial_type":"html-keyboard-response","trial_index":43,"time_elapsed":98043,"internal_node_id":"0.0-8.0-0.9","subject":"8kj2g6v2eedmt5w","sona":"8653"},{"rt":null,"stimulus":"<div style=\"font-size:60px;\">+</div>","key_press":null,"trial_type":"html-keyboard-response","trial_index":44,"time_elapsed":100056,"internal_node_id":"0.0-8.0-1.9","subject":"8kj2g6v2eedmt5w","sona":"8653"},{"trial_type":"turing-test","trial_index":45,"time_elapsed":106639,"internal_node_id":"0.0-8.0-2.9","subject":"8kj2g6v2eedmt5w","sona":"8653"},{"rt":104.92499999236315,"stimulus":"<p>Welche Sequenz haben Sie als natürlicher empfunden?</p>","key_press":74,"test_part":"response","test_stimulus":{"position":1,"left":"bvh/vr_prediction_models/model(vcgpdm)-dataset(pass-bottle)-mode(ELBO)-parts(3)-dyn(35)-lvm(20)-hold(2)/final-lines.txt","right":"bvh/pass-bottle-training2-lines.txt","att_check":false},"trial_type":"html-keyboard-response","trial_index":46,"time_elapsed":106752,"internal_node_id":"0.0-8.0-3.9","subject":"8kj2g6v2eedmt5w","sona":"8653"},{"rt":292.589999968186,"stimulus":"<p>Bereit?</p>","key_press":32,"trial_type":"html-keyboard-response","trial_index":47,"time_elapsed":107051,"internal_node_id":"0.0-8.0-0.10","subject":"8kj2g6v2eedmt5w","sona":"8653"},{"rt":null,"stimulus":"<div style=\"font-size:60px;\">+</div>","key_press":null,"trial_type":"html-keyboard-response","trial_index":48,"time_elapsed":109068,"internal_node_id":"0.0-8.0-1.10","subject":"8kj2g6v2eedmt5w","sona":"8653"},{"trial_type":"turing-test","trial_index":49,"time_elapsed":115041,"internal_node_id":"0.0-8.0-2.10","subject":"8kj2g6v2eedmt5w","sona":"8653"},{"rt":548.5249999910593,"stimulus":"<p>Welche Sequenz haben Sie als natürlicher empfunden?</p>","key_press":70,"test_part":"response","test_stimulus":{"position":0,"left":"bvh/pass-bottle-training3-lines.txt","right":"bvh/vr_prediction_models/model(dmp)-dataset(pass-bottle)-npsi(100)-hold(3)/final-lines.txt","att_check":false},"trial_type":"html-keyboard-response","trial_index":50,"time_elapsed":115600,"internal_node_id":"0.0-8.0-3.10","subject":"8kj2g6v2eedmt5w","sona":"8653"},{"rt":242.19499999890104,"stimulus":"<p>Bereit?</p>","key_press":32,"trial_type":"html-keyboard-response","trial_index":51,"time_elapsed":115846,"internal_node_id":"0.0-8.0-0.11","subject":"8kj2g6v2eedmt5w","sona":"8653"},{"rt":null,"stimulus":"<div style=\"font-size:60px;\">+</div>","key_press":null,"trial_type":"html-keyboard-response","trial_index":52,"time_elapsed":117876,"internal_node_id":"0.0-8.0-1.11","subject":"8kj2g6v2eedmt5w","sona":"8653"},{"trial_type":"turing-test","trial_index":53,"time_elapsed":122006,"internal_node_id":"0.0-8.0-2.11","subject":"8kj2g6v2eedmt5w","sona":"8653"},{"rt":190.88999996893108,"stimulus":"<p>Welche Sequenz haben Sie als natürlicher empfunden?</p>","key_press":74,"test_part":"response","test_stimulus":{"position":1,"left":"bvh/vr_prediction_models/model(vcgpdm)-dataset(return-bottle-hold)-mode(ELBO)-parts(1)-dyn(30)-lvm(30)-hold(4)/final-lines.txt","right":"bvh/return-bottle-hold-training4-lines.txt","att_check":false},"trial_type":"html-keyboard-response","trial_index":54,"time_elapsed":122204,"internal_node_id":"0.0-8.0-3.11","subject":"8kj2g6v2eedmt5w","sona":"8653"},{"rt":270.72500000940636,"stimulus":"<p>Bereit?</p>","key_press":32,"trial_type":"html-keyboard-response","trial_index":55,"time_elapsed":122479,"internal_node_id":"0.0-8.0-0.12","subject":"8kj2g6v2eedmt5w","sona":"8653"},{"rt":null,"stimulus":"<div style=\"font-size:60px;\">+</div>","key_press":null,"trial_type":"html-keyboard-response","trial_index":56,"time_elapsed":124502,"internal_node_id":"0.0-8.0-1.12","subject":"8kj2g6v2eedmt5w","sona":"8653"},{"trial_type":"turing-test","trial_index":57,"time_elapsed":131497,"internal_node_id":"0.0-8.0-2.12","subject":"8kj2g6v2eedmt5w","sona":"8653"},{"rt":290.7300000078976,"stimulus":"<p>Welche Sequenz haben Sie als natürlicher empfunden?</p>","key_press":74,"test_part":"response","test_stimulus":{"position":1,"left":"bvh/vr_prediction_models/model(vcgpdm)-dataset(pass-bottle)-mode(ELBO)-parts(1)-dyn(35)-lvm(30)-hold(0)/final-lines.txt","right":"bvh/pass-bottle-training0-lines.txt","att_check":false},"trial_type":"html-keyboard-response","trial_index":58,"time_elapsed":131798,"internal_node_id":"0.0-8.0-3.12","subject":"8kj2g6v2eedmt5w","sona":"8653"},{"rt":299.4300000136718,"stimulus":"<p>Bereit?</p>","key_press":32,"trial_type":"html-keyboard-response","trial_index":59,"time_elapsed":132104,"internal_node_id":"0.0-8.0-0.13","subject":"8kj2g6v2eedmt5w","sona":"8653"},{"rt":null,"stimulus":"<div style=\"font-size:60px;\">+</div>","key_press":null,"trial_type":"html-keyboard-response","trial_index":60,"time_elapsed":134129,"internal_node_id":"0.0-8.0-1.13","subject":"8kj2g6v2eedmt5w","sona":"8653"},{"trial_type":"turing-test","trial_index":61,"time_elapsed":138008,"internal_node_id":"0.0-8.0-2.13","subject":"8kj2g6v2eedmt5w","sona":"8653"},{"rt":635.9200000297278,"stimulus":"<p>Welche Sequenz haben Sie als natürlicher empfunden?</p>","key_press":70,"test_part":"response","test_stimulus":{"position":0,"left":"bvh/pass-bottle-hold-training3-lines.txt","right":"bvh/vr_prediction_models/model(vcgpdm)-dataset(pass-bottle-hold)-mode(ELBO)-parts(1)-dyn(10)-lvm(30)-hold(3)/final-lines.txt","att_check":false},"trial_type":"html-keyboard-response","trial_index":62,"time_elapsed":138655,"internal_node_id":"0.0-8.0-3.13","subject":"8kj2g6v2eedmt5w","sona":"8653"},{"rt":282.584999979008,"stimulus":"<p>Bereit?</p>","key_press":32,"trial_type":"html-keyboard-response","trial_index":63,"time_elapsed":138943,"internal_node_id":"0.0-8.0-0.14","subject":"8kj2g6v2eedmt5w","sona":"8653"},{"rt":null,"stimulus":"<div style=\"font-size:60px;\">+</div>","key_press":null,"trial_type":"html-keyboard-response","trial_index":64,"time_elapsed":140960,"internal_node_id":"0.0-8.0-1.14","subject":"8kj2g6v2eedmt5w","sona":"8653"},{"trial_type":"turing-test","trial_index":65,"time_elapsed":146472,"internal_node_id":"0.0-8.0-2.14","subject":"8kj2g6v2eedmt5w","sona":"8653"},{"rt":268.9350000000559,"stimulus":"<p>Welche Sequenz haben Sie als natürlicher empfunden?</p>","key_press":74,"test_part":"response","test_stimulus":{"position":0,"left":"bvh/return-bottle-hold-training0-lines.txt","right":"bvh/vr_prediction_models/model(vcgpdm)-dataset(return-bottle-hold)-mode(ELBO)-parts(1)-dyn(20)-lvm(30)-hold(0)/final-lines.txt","att_check":false},"trial_type":"html-keyboard-response","trial_index":66,"time_elapsed":146749,"internal_node_id":"0.0-8.0-3.14","subject":"8kj2g6v2eedmt5w","sona":"8653"},{"rt":390.5650000087917,"stimulus":"<p>Bereit?</p>","key_press":32,"trial_type":"html-keyboard-response","trial_index":67,"time_elapsed":147145,"internal_node_id":"0.0-8.0-0.15","subject":"8kj2g6v2eedmt5w","sona":"8653"},{"rt":null,"stimulus":"<div style=\"font-size:60px;\">+</div>","key_press":null,"trial_type":"html-keyboard-response","trial_index":68,"time_elapsed":149173,"internal_node_id":"0.0-8.0-1.15","subject":"8kj2g6v2eedmt5w","sona":"8653"},{"trial_type":"turing-test","trial_index":69,"time_elapsed":155395,"internal_node_id":"0.0-8.0-2.15","subject":"8kj2g6v2eedmt5w","sona":"8653"},{"rt":547.6349999662489,"stimulus":"<p>Welche Sequenz haben Sie als natürlicher empfunden?</p>","key_press":70,"test_part":"response","test_stimulus":{"position":0,"left":"bvh/pass-bottle-training2-lines.txt","right":"bvh/vr_prediction_models/model(dmp)-dataset(pass-bottle)-npsi(60)-hold(2)/final-lines.txt","att_check":false},"trial_type":"html-keyboard-response","trial_index":70,"time_elapsed":155953,"internal_node_id":"0.0-8.0-3.15","subject":"8kj2g6v2eedmt5w","sona":"8653"},{"rt":235.82999996142462,"stimulus":"<p>Bereit?</p>","key_press":32,"trial_type":"html-keyboard-response","trial_index":71,"time_elapsed":156195,"internal_node_id":"0.0-8.0-0.16","subject":"8kj2g6v2eedmt5w","sona":"8653"},{"rt":null,"stimulus":"<div style=\"font-size:60px;\">+</div>","key_press":null,"trial_type":"html-keyboard-response","trial_index":72,"time_elapsed":158208,"internal_node_id":"0.0-8.0-1.16","subject":"8kj2g6v2eedmt5w","sona":"8653"},{"trial_type":"turing-test","trial_index":73,"time_elapsed":161934,"internal_node_id":"0.0-8.0-2.16","subject":"8kj2g6v2eedmt5w","sona":"8653"},{"rt":253.47499997587875,"stimulus":"<p>Welche Sequenz haben Sie als natürlicher empfunden?</p>","key_press":74,"test_part":"response","test_stimulus":{"position":1,"left":"bvh/vr_prediction_models/model(dmp)-dataset(pass-bottle-hold)-npsi(10)-hold(4)/final-lines.txt","right":"bvh/pass-bottle-hold-training4-lines.txt","att_check":true},"trial_type":"html-keyboard-response","trial_index":74,"time_elapsed":162198,"internal_node_id":"0.0-8.0-3.16","subject":"8kj2g6v2eedmt5w","sona":"8653"},{"rt":250.47000002814457,"stimulus":"<p>Bereit?</p>","key_press":32,"trial_type":"html-keyboard-response","trial_index":75,"time_elapsed":162457,"internal_node_id":"0.0-8.0-0.17","subject":"8kj2g6v2eedmt5w","sona":"8653"},{"rt":null,"stimulus":"<div style=\"font-size:60px;\">+</div>","key_press":null,"trial_type":"html-keyboard-response","trial_index":76,"time_elapsed":164477,"internal_node_id":"0.0-8.0-1.17","subject":"8kj2g6v2eedmt5w","sona":"8653"},{"trial_type":"turing-test","trial_index":77,"time_elapsed":170807,"internal_node_id":"0.0-8.0-2.17","subject":"8kj2g6v2eedmt5w","sona":"8653"},{"rt":324.7450000490062,"stimulus":"<p>Welche Sequenz haben Sie als natürlicher empfunden?</p>","key_press":70,"test_part":"response","test_stimulus":{"position":0,"left":"bvh/pass-bottle-training2-lines.txt","right":"bvh/vr_prediction_models/model(vcgpdm)-dataset(pass-bottle)-mode(ELBO)-parts(1)-dyn(20)-lvm(30)-hold(2)/final-lines.txt","att_check":false},"trial_type":"html-keyboard-response","trial_index":78,"time_elapsed":171142,"internal_node_id":"0.0-8.0-3.17","subject":"8kj2g6v2eedmt5w","sona":"8653"},{"rt":184.6650000079535,"stimulus":"<p>Bereit?</p>","key_press":32,"trial_type":"html-keyboard-response","trial_index":79,"time_elapsed":171332,"internal_node_id":"0.0-8.0-0.18","subject":"8kj2g6v2eedmt5w","sona":"8653"},{"rt":null,"stimulus":"<div style=\"font-size:60px;\">+</div>","key_press":null,"trial_type":"html-keyboard-response","trial_index":80,"time_elapsed":173341,"internal_node_id":"0.0-8.0-1.18","subject":"8kj2g6v2eedmt5w","sona":"8653"},{"trial_type":"turing-test","trial_index":81,"time_elapsed":177255,"internal_node_id":"0.0-8.0-2.18","subject":"8kj2g6v2eedmt5w","sona":"8653"},{"rt":553.7300000432879,"stimulus":"<p>Welche Sequenz haben Sie als natürlicher empfunden?</p>","key_press":74,"test_part":"response","test_stimulus":{"position":0,"left":"bvh/pass-bottle-hold-training4-lines.txt","right":"bvh/vr_prediction_models/model(vcgpdm)-dataset(pass-bottle-hold)-mode(ELBO)-parts(1)-dyn(20)-lvm(20)-hold(4)/final-lines.txt","att_check":false},"trial_type":"html-keyboard-response","trial_index":82,"time_elapsed":177818,"internal_node_id":"0.0-8.0-3.18","subject":"8kj2g6v2eedmt5w","sona":"8653"},{"rt":418.695000000298,"stimulus":"<p>Bereit?</p>","key_press":32,"trial_type":"html-keyboard-response","trial_index":83,"time_elapsed":178242,"internal_node_id":"0.0-8.0-0.19","subject":"8kj2g6v2eedmt5w","sona":"8653"},{"rt":null,"stimulus":"<div style=\"font-size:60px;\">+</div>","key_press":null,"trial_type":"html-keyboard-response","trial_index":84,"time_elapsed":180251,"internal_node_id":"0.0-8.0-1.19","subject":"8kj2g6v2eedmt5w","sona":"8653"},{"trial_type":"turing-test","trial_index":85,"time_elapsed":187050,"internal_node_id":"0.0-8.0-2.19","subject":"8kj2g6v2eedmt5w","sona":"8653"},{"rt":324.61499999044463,"stimulus":"<p>Welche Sequenz haben Sie als natürlicher empfunden?</p>","key_press":70,"test_part":"response","test_stimulus":{"position":0,"left":"bvh/return-bottle-training2-lines.txt","right":"bvh/vr_prediction_models/model(dmp)-dataset(return-bottle)-npsi(60)-hold(2)/final-lines.txt","att_check":false},"trial_type":"html-keyboard-response","trial_index":86,"time_elapsed":187384,"internal_node_id":"0.0-8.0-3.19","subject":"8kj2g6v2eedmt5w","sona":"8653"},{"rt":218.0999999982305,"stimulus":"<p>Bereit?</p>","key_press":32,"trial_type":"html-keyboard-response","trial_index":87,"time_elapsed":187615,"internal_node_id":"0.0-8.0-0.20","subject":"8kj2g6v2eedmt5w","sona":"8653"},{"rt":null,"stimulus":"<div style=\"font-size:60px;\">+</div>","key_press":null,"trial_type":"html-keyboard-response","trial_index":88,"time_elapsed":189638,"internal_node_id":"0.0-8.0-1.20","subject":"8kj2g6v2eedmt5w","sona":"8653"},{"trial_type":"turing-test","trial_index":89,"time_elapsed":193528,"internal_node_id":"0.0-8.0-2.20","subject":"8kj2g6v2eedmt5w","sona":"8653"},{"rt":455.0250000320375,"stimulus":"<p>Welche Sequenz haben Sie als natürlicher empfunden?</p>","key_press":74,"test_part":"response","test_stimulus":{"position":0,"left":"bvh/pass-bottle-hold-training3-lines.txt","right":"bvh/vr_prediction_models/model(vcgpdm)-dataset(pass-bottle-hold)-mode(ELBO)-parts(1)-dyn(30)-lvm(20)-hold(3)/final-lines.txt","att_check":false},"trial_type":"html-keyboard-response","trial_index":90,"time_elapsed":193992,"internal_node_id":"0.0-8.0-3.20","subject":"8kj2g6v2eedmt5w","sona":"8653"},{"rt":305.6450000149198,"stimulus":"<p>Bereit?</p>","key_press":32,"trial_type":"html-keyboard-response","trial_index":91,"time_elapsed":194302,"internal_node_id":"0.0-8.0-0.21","subject":"8kj2g6v2eedmt5w","sona":"8653"},{"rt":null,"stimulus":"<div style=\"font-size:60px;\">+</div>","key_press":null,"trial_type":"html-keyboard-response","trial_index":92,"time_elapsed":196326,"internal_node_id":"0.0-8.0-1.21","subject":"8kj2g6v2eedmt5w","sona":"8653"},{"trial_type":"turing-test","trial_index":93,"time_elapsed":202068,"internal_node_id":"0.0-8.0-2.21","subject":"8kj2g6v2eedmt5w","sona":"8653"},{"rt":538.5550000355579,"stimulus":"<p>Welche Sequenz haben Sie als natürlicher empfunden?</p>","key_press":70,"test_part":"response","test_stimulus":{"position":0,"left":"bvh/pass-bottle-training1-lines.txt","right":"bvh/vr_prediction_models/model(vcgpdm)-dataset(pass-bottle)-mode(ELBO)-parts(1)-dyn(10)-lvm(5)-hold(1)/final-lines.txt","att_check":false},"trial_type":"html-keyboard-response","trial_index":94,"time_elapsed":202614,"internal_node_id":"0.0-8.0-3.21","subject":"8kj2g6v2eedmt5w","sona":"8653"},{"rt":242.43000004207715,"stimulus":"<p>Bereit?</p>","key_press":32,"trial_type":"html-keyboard-response","trial_index":95,"time_elapsed":202861,"internal_node_id":"0.0-8.0-0.22","subject":"8kj2g6v2eedmt5w","sona":"8653"},{"rt":null,"stimulus":"<div style=\"font-size:60px;\">+</div>","key_press":null,"trial_type":"html-keyboard-response","trial_index":96,"time_elapsed":204874,"internal_node_id":"0.0-8.0-1.22","subject":"8kj2g6v2eedmt5w","sona":"8653"},{"trial_type":"turing-test","trial_index":97,"time_elapsed":211022,"internal_node_id":"0.0-8.0-2.22","subject":"8kj2g6v2eedmt5w","sona":"8653"},{"rt":324.19999997364357,"stimulus":"<p>Welche Sequenz haben Sie als natürlicher empfunden?</p>","key_press":70,"test_part":"response","test_stimulus":{"position":1,"left":"bvh/vr_prediction_models/model(vcgpdm)-dataset(pass-bottle)-mode(ELBO)-parts(1)-dyn(10)-lvm(5)-hold(3)/final-lines.txt","right":"bvh/pass-bottle-training3-lines.txt","att_check":false},"trial_type":"html-keyboard-response","trial_index":98,"time_elapsed":211362,"internal_node_id":"0.0-8.0-3.22","subject":"8kj2g6v2eedmt5w","sona":"8653"},{"rt":728.5249999840744,"stimulus":"<p>Bereit?</p>","key_press":32,"trial_type":"html-keyboard-response","trial_index":99,"time_elapsed":212098,"internal_node_id":"0.0-8.0-0.23","subject":"8kj2g6v2eedmt5w","sona":"8653"},{"rt":null,"stimulus":"<div style=\"font-size:60px;\">+</div>","key_press":null,"trial_type":"html-keyboard-response","trial_index":100,"time_elapsed":214119,"internal_node_id":"0.0-8.0-1.23","subject":"8kj2g6v2eedmt5w","sona":"8653"},{"trial_type":"turing-test","trial_index":101,"time_elapsed":217804,"internal_node_id":"0.0-8.0-2.23","subject":"8kj2g6v2eedmt5w","sona":"8653"},{"rt":415.8000000170432,"stimulus":"<p>Welche Sequenz haben Sie als natürlicher empfunden?</p>","key_press":70,"test_part":"response","test_stimulus":{"position":0,"left":"bvh/return-bottle-hold-training1-lines.txt","right":"bvh/vr_prediction_models/model(vcgpdm)-dataset(return-bottle-hold)-mode(ELBO)-parts(3)-dyn(30)-lvm(15)-hold(1)/final-lines.txt","att_check":false},"trial_type":"html-keyboard-response","trial_index":102,"time_elapsed":218231,"internal_node_id":"0.0-8.0-3.23","subject":"8kj2g6v2eedmt5w","sona":"8653"},{"rt":156.65000001899898,"stimulus":"<p>Bereit?</p>","key_press":32,"trial_type":"html-keyboard-response","trial_index":103,"time_elapsed":218396,"internal_node_id":"0.0-8.0-0.24","subject":"8kj2g6v2eedmt5w","sona":"8653"},{"rt":null,"stimulus":"<div style=\"font-size:60px;\">+</div>","key_press":null,"trial_type":"html-keyboard-response","trial_index":104,"time_elapsed":220409,"internal_node_id":"0.0-8.0-1.24","subject":"8kj2g6v2eedmt5w","sona":"8653"},{"trial_type":"turing-test","trial_index":105,"time_elapsed":225577,"internal_node_id":"0.0-8.0-2.24","subject":"8kj2g6v2eedmt5w","sona":"8653"},{"rt":360.6300000101328,"stimulus":"<p>Welche Sequenz haben Sie als natürlicher empfunden?</p>","key_press":70,"test_part":"response","test_stimulus":{"position":0,"left":"bvh/return-bottle-hold-training0-lines.txt","right":"bvh/vr_prediction_models/model(tmp)-dataset(return-bottle-hold)-numprim(3)-hold(0)/final-lines.txt","att_check":false},"trial_type":"html-keyboard-response","trial_index":106,"time_elapsed":225953,"internal_node_id":"0.0-8.0-3.24","subject":"8kj2g6v2eedmt5w","sona":"8653"},{"rt":263.95999995293096,"stimulus":"<p>Bereit?</p>","key_press":32,"trial_type":"html-keyboard-response","trial_index":107,"time_elapsed":226226,"internal_node_id":"0.0-8.0-0.25","subject":"8kj2g6v2eedmt5w","sona":"8653"},{"rt":null,"stimulus":"<div style=\"font-size:60px;\">+</div>","key_press":null,"trial_type":"html-keyboard-response","trial_index":108,"time_elapsed":228253,"internal_node_id":"0.0-8.0-1.25","subject":"8kj2g6v2eedmt5w","sona":"8653"},{"trial_type":"turing-test","trial_index":109,"time_elapsed":233674,"internal_node_id":"0.0-8.0-2.25","subject":"8kj2g6v2eedmt5w","sona":"8653"},{"rt":249.26499999128282,"stimulus":"<p>Welche Sequenz haben Sie als natürlicher empfunden?</p>","key_press":74,"test_part":"response","test_stimulus":{"position":1,"left":"bvh/vr_prediction_models/model(vcgpdm)-dataset(return-bottle-hold)-mode(ELBO)-parts(3)-dyn(20)-lvm(35)-hold(0)/final-lines.txt","right":"bvh/return-bottle-hold-training0-lines.txt","att_check":false},"trial_type":"html-keyboard-response","trial_index":110,"time_elapsed":233934,"internal_node_id":"0.0-8.0-3.25","subject":"8kj2g6v2eedmt5w","sona":"8653"},{"rt":363.3900000131689,"stimulus":"<p>Bereit?</p>","key_press":32,"trial_type":"html-keyboard-response","trial_index":111,"time_elapsed":234308,"internal_node_id":"0.0-8.0-0.26","subject":"8kj2g6v2eedmt5w","sona":"8653"},{"rt":null,"stimulus":"<div style=\"font-size:60px;\">+</div>","key_press":null,"trial_type":"html-keyboard-response","trial_index":112,"time_elapsed":236323,"internal_node_id":"0.0-8.0-1.26","subject":"8kj2g6v2eedmt5w","sona":"8653"},{"trial_type":"turing-test","trial_index":113,"time_elapsed":239769,"internal_node_id":"0.0-8.0-2.26","subject":"8kj2g6v2eedmt5w","sona":"8653"},{"rt":53.80500003229827,"stimulus":"<p>Welche Sequenz haben Sie als natürlicher empfunden?</p>","key_press":74,"test_part":"response","test_stimulus":{"position":1,"left":"bvh/vr_prediction_models/model(dmp)-dataset(pass-bottle-hold)-npsi(100)-hold(2)/final-lines.txt","right":"bvh/pass-bottle-hold-training2-lines.txt","att_check":false},"trial_type":"html-keyboard-response","trial_index":114,"time_elapsed":239835,"internal_node_id":"0.0-8.0-3.26","subject":"8kj2g6v2eedmt5w","sona":"8653"},{"rt":371.564999979455,"stimulus":"<p>Bereit?</p>","key_press":32,"trial_type":"html-keyboard-response","trial_index":115,"time_elapsed":240214,"internal_node_id":"0.0-8.0-0.27","subject":"8kj2g6v2eedmt5w","sona":"8653"},{"rt":null,"stimulus":"<div style=\"font-size:60px;\">+</div>","key_press":null,"trial_type":"html-keyboard-response","trial_index":116,"time_elapsed":242244,"internal_node_id":"0.0-8.0-1.27","subject":"8kj2g6v2eedmt5w","sona":"8653"},{"trial_type":"turing-test","trial_index":117,"time_elapsed":248351,"internal_node_id":"0.0-8.0-2.27","subject":"8kj2g6v2eedmt5w","sona":"8653"},{"rt":290.38000002037734,"stimulus":"<p>Welche Sequenz haben Sie als natürlicher empfunden?</p>","key_press":74,"test_part":"response","test_stimulus":{"position":1,"left":"bvh/vr_prediction_models/model(tmp)-dataset(return-bottle)-numprim(11)-hold(1)/final-lines.txt","right":"bvh/return-bottle-training1-lines.txt","att_check":false},"trial_type":"html-keyboard-response","trial_index":118,"time_elapsed":248653,"internal_node_id":"0.0-8.0-3.27","subject":"8kj2g6v2eedmt5w","sona":"8653"},{"rt":268.4449999942444,"stimulus":"<p>Bereit?</p>","key_press":32,"trial_type":"html-keyboard-response","trial_index":119,"time_elapsed":248928,"internal_node_id":"0.0-8.0-0.28","subject":"8kj2g6v2eedmt5w","sona":"8653"},{"rt":null,"stimulus":"<div style=\"font-size:60px;\">+</div>","key_press":null,"trial_type":"html-keyboard-response","trial_index":120,"time_elapsed":250952,"internal_node_id":"0.0-8.0-1.28","subject":"8kj2g6v2eedmt5w","sona":"8653"},{"trial_type":"turing-test","trial_index":121,"time_elapsed":257950,"internal_node_id":"0.0-8.0-2.28","subject":"8kj2g6v2eedmt5w","sona":"8653"},{"rt":1309.2450000112876,"stimulus":"<p>Welche Sequenz haben Sie als natürlicher empfunden?</p>","key_press":74,"test_part":"response","test_stimulus":{"position":1,"left":"bvh/vr_prediction_models/model(vcgpdm)-dataset(pass-bottle)-mode(ELBO)-parts(3)-dyn(20)-lvm(35)-hold(0)/final-lines.txt","right":"bvh/pass-bottle-training0-lines.txt","att_check":false},"trial_type":"html-keyboard-response","trial_index":122,"time_elapsed":259271,"internal_node_id":"0.0-8.0-3.28","subject":"8kj2g6v2eedmt5w","sona":"8653"},{"rt":1078.8599999505095,"stimulus":"<p>Bereit?</p>","key_press":32,"trial_type":"html-keyboard-response","trial_index":123,"time_elapsed":260355,"internal_node_id":"0.0-8.0-0.29","subject":"8kj2g6v2eedmt5w","sona":"8653"},{"rt":null,"stimulus":"<div style=\"font-size:60px;\">+</div>","key_press":null,"trial_type":"html-keyboard-response","trial_index":124,"time_elapsed":262371,"internal_node_id":"0.0-8.0-1.29","subject":"8kj2g6v2eedmt5w","sona":"8653"},{"trial_type":"turing-test","trial_index":125,"time_elapsed":266174,"internal_node_id":"0.0-8.0-2.29","subject":"8kj2g6v2eedmt5w","sona":"8653"},{"rt":502.68499995581806,"stimulus":"<p>Welche Sequenz haben Sie als natürlicher empfunden?</p>","key_press":74,"test_part":"response","test_stimulus":{"position":0,"left":"bvh/pass-bottle-hold-training4-lines.txt","right":"bvh/vr_prediction_models/model(tmp)-dataset(pass-bottle-hold)-numprim(13)-hold(4)/final-lines.txt","att_check":false},"trial_type":"html-keyboard-response","trial_index":126,"time_elapsed":266692,"internal_node_id":"0.0-8.0-3.29","subject":"8kj2g6v2eedmt5w","sona":"8653"},{"rt":559.4550000387244,"stimulus":"<p>Bereit?</p>","key_press":32,"trial_type":"html-keyboard-response","trial_index":127,"time_elapsed":267261,"internal_node_id":"0.0-8.0-0.30","subject":"8kj2g6v2eedmt5w","sona":"8653"},{"rt":null,"stimulus":"<div style=\"font-size:60px;\">+</div>","key_press":null,"trial_type":"html-keyboard-response","trial_index":128,"time_elapsed":269285,"internal_node_id":"0.0-8.0-1.30","subject":"8kj2g6v2eedmt5w","sona":"8653"},{"trial_type":"turing-test","trial_index":129,"time_elapsed":273087,"internal_node_id":"0.0-8.0-2.30","subject":"8kj2g6v2eedmt5w","sona":"8653"},{"rt":12075.230000016745,"stimulus":"<p>Welche Sequenz haben Sie als natürlicher empfunden?</p>","key_press":70,"test_part":"response","test_stimulus":{"position":1,"left":"bvh/vr_prediction_models/model(dmp)-dataset(pass-bottle-hold)-npsi(70)-hold(4)/final-lines.txt","right":"bvh/pass-bottle-hold-training4-lines.txt","att_check":false},"trial_type":"html-keyboard-response","trial_index":130,"time_elapsed":285172,"internal_node_id":"0.0-8.0-3.30","subject":"8kj2g6v2eedmt5w","sona":"8653"},{"rt":712.485000025481,"stimulus":"<p>Bereit?</p>","key_press":32,"trial_type":"html-keyboard-response","trial_index":131,"time_elapsed":285890,"internal_node_id":"0.0-8.0-0.31","subject":"8kj2g6v2eedmt5w","sona":"8653"},{"rt":null,"stimulus":"<div style=\"font-size:60px;\">+</div>","key_press":null,"trial_type":"html-keyboard-response","trial_index":132,"time_elapsed":287918,"internal_node_id":"0.0-8.0-1.31","subject":"8kj2g6v2eedmt5w","sona":"8653"},{"trial_type":"turing-test","trial_index":133,"time_elapsed":294774,"internal_node_id":"0.0-8.0-2.31","subject":"8kj2g6v2eedmt5w","sona":"8653"},{"rt":413.6949999956414,"stimulus":"<p>Welche Sequenz haben Sie als natürlicher empfunden?</p>","key_press":70,"test_part":"response","test_stimulus":{"position":0,"left":"bvh/pass-bottle-training0-lines.txt","right":"bvh/vr_prediction_models/model(dmp)-dataset(pass-bottle)-npsi(60)-hold(0)/final-lines.txt","att_check":false},"trial_type":"html-keyboard-response","trial_index":134,"time_elapsed":295203,"internal_node_id":"0.0-8.0-3.31","subject":"8kj2g6v2eedmt5w","sona":"8653"},{"rt":342.5799999968149,"stimulus":"<p>Bereit?</p>","key_press":32,"trial_type":"html-keyboard-response","trial_index":135,"time_elapsed":295561,"internal_node_id":"0.0-8.0-0.32","subject":"8kj2g6v2eedmt5w","sona":"8653"},{"rt":null,"stimulus":"<div style=\"font-size:60px;\">+</div>","key_press":null,"trial_type":"html-keyboard-response","trial_index":136,"time_elapsed":297582,"internal_node_id":"0.0-8.0-1.32","subject":"8kj2g6v2eedmt5w","sona":"8653"},{"trial_type":"turing-test","trial_index":137,"time_elapsed":300990,"internal_node_id":"0.0-8.0-2.32","subject":"8kj2g6v2eedmt5w","sona":"8653"},{"rt":1267.2350000357255,"stimulus":"<p>Welche Sequenz haben Sie als natürlicher empfunden?</p>","key_press":70,"test_part":"response","test_stimulus":{"position":0,"left":"bvh/return-bottle-hold-training1-lines.txt","right":"bvh/vr_prediction_models/model(tmp)-dataset(return-bottle-hold)-numprim(11)-hold(1)/final-lines.txt","att_check":false},"trial_type":"html-keyboard-response","trial_index":138,"time_elapsed":302268,"internal_node_id":"0.0-8.0-3.32","subject":"8kj2g6v2eedmt5w","sona":"8653"},{"rt":491.9050000025891,"stimulus":"<p>Bereit?</p>","key_press":32,"trial_type":"html-keyboard-response","trial_index":139,"time_elapsed":302765,"internal_node_id":"0.0-8.0-0.33","subject":"8kj2g6v2eedmt5w","sona":"8653"},{"rt":null,"stimulus":"<div style=\"font-size:60px;\">+</div>","key_press":null,"trial_type":"html-keyboard-response","trial_index":140,"time_elapsed":304789,"internal_node_id":"0.0-8.0-1.33","subject":"8kj2g6v2eedmt5w","sona":"8653"},{"trial_type":"turing-test","trial_index":141,"time_elapsed":308413,"internal_node_id":"0.0-8.0-2.33","subject":"8kj2g6v2eedmt5w","sona":"8653"},{"rt":735.0299999816343,"stimulus":"<p>Welche Sequenz haben Sie als natürlicher empfunden?</p>","key_press":74,"test_part":"response","test_stimulus":{"position":0,"left":"bvh/pass-bottle-hold-training3-lines.txt","right":"bvh/vr_prediction_models/model(dmp)-dataset(pass-bottle-hold)-npsi(60)-hold(3)/final-lines.txt","att_check":false},"trial_type":"html-keyboard-response","trial_index":142,"time_elapsed":309159,"internal_node_id":"0.0-8.0-3.33","subject":"8kj2g6v2eedmt5w","sona":"8653"},{"rt":689.1099999775179,"stimulus":"<p>Bereit?</p>","key_press":32,"trial_type":"html-keyboard-response","trial_index":143,"time_elapsed":309858,"internal_node_id":"0.0-8.0-0.34","subject":"8kj2g6v2eedmt5w","sona":"8653"},{"rt":null,"stimulus":"<div style=\"font-size:60px;\">+</div>","key_press":null,"trial_type":"html-keyboard-response","trial_index":144,"time_elapsed":311885,"internal_node_id":"0.0-8.0-1.34","subject":"8kj2g6v2eedmt5w","sona":"8653"},{"trial_type":"turing-test","trial_index":145,"time_elapsed":318060,"internal_node_id":"0.0-8.0-2.34","subject":"8kj2g6v2eedmt5w","sona":"8653"},{"rt":1582.0350000285544,"stimulus":"<p>Welche Sequenz haben Sie als natürlicher empfunden?</p>","key_press":74,"test_part":"response","test_stimulus":{"position":1,"left":"bvh/vr_prediction_models/model(dmp)-dataset(return-bottle)-npsi(10)-hold(1)/final-lines.txt","right":"bvh/return-bottle-training1-lines.txt","att_check":false},"trial_type":"html-keyboard-response","trial_index":146,"time_elapsed":319658,"internal_node_id":"0.0-8.0-3.34","subject":"8kj2g6v2eedmt5w","sona":"8653"},{"rt":1462.6700000371784,"stimulus":"<p>Bereit?</p>","key_press":32,"trial_type":"html-keyboard-response","trial_index":147,"time_elapsed":321127,"internal_node_id":"0.0-8.0-0.35","subject":"8kj2g6v2eedmt5w","sona":"8653"},{"rt":null,"stimulus":"<div style=\"font-size:60px;\">+</div>","key_press":null,"trial_type":"html-keyboard-response","trial_index":148,"time_elapsed":323135,"internal_node_id":"0.0-8.0-1.35","subject":"8kj2g6v2eedmt5w","sona":"8653"},{"trial_type":"turing-test","trial_index":149,"time_elapsed":330098,"internal_node_id":"0.0-8.0-2.35","subject":"8kj2g6v2eedmt5w","sona":"8653"},{"rt":575.2099999808706,"stimulus":"<p>Welche Sequenz haben Sie als natürlicher empfunden?</p>","key_press":70,"test_part":"response","test_stimulus":{"position":0,"left":"bvh/return-bottle-training2-lines.txt","right":"bvh/vr_prediction_models/model(vcgpdm)-dataset(return-bottle)-mode(ELBO)-parts(1)-dyn(35)-lvm(30)-hold(2)/final-lines.txt","att_check":false},"trial_type":"html-keyboard-response","trial_index":150,"time_elapsed":330685,"internal_node_id":"0.0-8.0-3.35","subject":"8kj2g6v2eedmt5w","sona":"8653"},{"rt":2375.594999990426,"stimulus":"<p>Bereit?</p>","key_press":32,"trial_type":"html-keyboard-response","trial_index":151,"time_elapsed":333067,"internal_node_id":"0.0-8.0-0.36","subject":"8kj2g6v2eedmt5w","sona":"8653"},{"rt":null,"stimulus":"<div style=\"font-size:60px;\">+</div>","key_press":null,"trial_type":"html-keyboard-response","trial_index":152,"time_elapsed":335081,"internal_node_id":"0.0-8.0-1.36","subject":"8kj2g6v2eedmt5w","sona":"8653"},{"trial_type":"turing-test","trial_index":153,"time_elapsed":338461,"internal_node_id":"0.0-8.0-2.36","subject":"8kj2g6v2eedmt5w","sona":"8653"},{"rt":871.3299999944866,"stimulus":"<p>Welche Sequenz haben Sie als natürlicher empfunden?</p>","key_press":74,"test_part":"response","test_stimulus":{"position":1,"left":"bvh/vr_prediction_models/model(dmp)-dataset(return-bottle-hold)-npsi(100)-hold(1)/final-lines.txt","right":"bvh/return-bottle-hold-training1-lines.txt","att_check":false},"trial_type":"html-keyboard-response","trial_index":154,"time_elapsed":339345,"internal_node_id":"0.0-8.0-3.36","subject":"8kj2g6v2eedmt5w","sona":"8653"},{"rt":6240.0500000221655,"stimulus":"<p>Bereit?</p>","key_press":32,"trial_type":"html-keyboard-response","trial_index":155,"time_elapsed":345593,"internal_node_id":"0.0-8.0-0.37","subject":"8kj2g6v2eedmt5w","sona":"8653"},{"rt":null,"stimulus":"<div style=\"font-size:60px;\">+</div>","key_press":null,"trial_type":"html-keyboard-response","trial_index":156,"time_elapsed":347600,"internal_node_id":"0.0-8.0-1.37","subject":"8kj2g6v2eedmt5w","sona":"8653"},{"trial_type":"turing-test","trial_index":157,"time_elapsed":352540,"internal_node_id":"0.0-8.0-2.37","subject":"8kj2g6v2eedmt5w","sona":"8653"},{"rt":388.34499998483807,"stimulus":"<p>Welche Sequenz haben Sie als natürlicher empfunden?</p>","key_press":74,"test_part":"response","test_stimulus":{"position":1,"left":"bvh/vr_prediction_models/model(dmp)-dataset(pass-bottle-hold)-npsi(40)-hold(4)/final-lines.txt","right":"bvh/pass-bottle-hold-training4-lines.txt","att_check":false},"trial_type":"html-keyboard-response","trial_index":158,"time_elapsed":352936,"internal_node_id":"0.0-8.0-3.37","subject":"8kj2g6v2eedmt5w","sona":"8653"},{"rt":317.4800000269897,"stimulus":"<p>Bereit?</p>","key_press":32,"trial_type":"html-keyboard-response","trial_index":159,"time_elapsed":353259,"internal_node_id":"0.0-8.0-0.38","subject":"8kj2g6v2eedmt5w","sona":"8653"},{"rt":null,"stimulus":"<div style=\"font-size:60px;\">+</div>","key_press":null,"trial_type":"html-keyboard-response","trial_index":160,"time_elapsed":355278,"internal_node_id":"0.0-8.0-1.38","subject":"8kj2g6v2eedmt5w","sona":"8653"},{"trial_type":"turing-test","trial_index":161,"time_elapsed":361467,"internal_node_id":"0.0-8.0-2.38","subject":"8kj2g6v2eedmt5w","sona":"8653"},{"rt":400.87499999208376,"stimulus":"<p>Welche Sequenz haben Sie als natürlicher empfunden?</p>","key_press":74,"test_part":"response","test_stimulus":{"position":0,"left":"bvh/pass-bottle-training3-lines.txt","right":"bvh/vr_prediction_models/model(vcgpdm)-dataset(pass-bottle)-mode(ELBO)-parts(1)-dyn(10)-lvm(25)-hold(3)/final-lines.txt","att_check":false},"trial_type":"html-keyboard-response","trial_index":162,"time_elapsed":361879,"internal_node_id":"0.0-8.0-3.38","subject":"8kj2g6v2eedmt5w","sona":"8653"},{"rt":425.2200000337325,"stimulus":"<p>Bereit?</p>","key_press":32,"trial_type":"html-keyboard-response","trial_index":163,"time_elapsed":362312,"internal_node_id":"0.0-8.0-0.39","subject":"8kj2g6v2eedmt5w","sona":"8653"},{"rt":null,"stimulus":"<div style=\"font-size:60px;\">+</div>","key_press":null,"trial_type":"html-keyboard-response","trial_index":164,"time_elapsed":364324,"internal_node_id":"0.0-8.0-1.39","subject":"8kj2g6v2eedmt5w","sona":"8653"},{"trial_type":"turing-test","trial_index":165,"time_elapsed":368069,"internal_node_id":"0.0-8.0-2.39","subject":"8kj2g6v2eedmt5w","sona":"8653"},{"rt":240.9899999620393,"stimulus":"<p>Welche Sequenz haben Sie als natürlicher empfunden?</p>","key_press":74,"test_part":"response","test_stimulus":{"position":1,"left":"bvh/vr_prediction_models/model(dmp)-dataset(return-bottle-hold)-npsi(100)-hold(3)/final-lines.txt","right":"bvh/return-bottle-hold-training3-lines.txt","att_check":false},"trial_type":"html-keyboard-response","trial_index":166,"time_elapsed":368324,"internal_node_id":"0.0-8.0-3.39","subject":"8kj2g6v2eedmt5w","sona":"8653"},{"rt":341.0450000083074,"stimulus":"<p>Bereit?</p>","key_press":32,"trial_type":"html-keyboard-response","trial_index":167,"time_elapsed":368679,"internal_node_id":"0.0-8.0-0.40","subject":"8kj2g6v2eedmt5w","sona":"8653"},{"rt":null,"stimulus":"<div style=\"font-size:60px;\">+</div>","key_press":null,"trial_type":"html-keyboard-response","trial_index":168,"time_elapsed":370701,"internal_node_id":"0.0-8.0-1.40","subject":"8kj2g6v2eedmt5w","sona":"8653"},{"trial_type":"turing-test","trial_index":169,"time_elapsed":374475,"internal_node_id":"0.0-8.0-2.40","subject":"8kj2g6v2eedmt5w","sona":"8653"},{"rt":402.3049999959767,"stimulus":"<p>Welche Sequenz haben Sie als natürlicher empfunden?</p>","key_press":70,"test_part":"response","test_stimulus":{"position":0,"left":"bvh/return-bottle-hold-training1-lines.txt","right":"bvh/vr_prediction_models/model(vcgpdm)-dataset(return-bottle-hold)-mode(ELBO)-parts(1)-dyn(20)-lvm(30)-hold(1)/final-lines.txt","att_check":false},"trial_type":"html-keyboard-response","trial_index":170,"time_elapsed":374889,"internal_node_id":"0.0-8.0-3.40","subject":"8kj2g6v2eedmt5w","sona":"8653"},{"rt":334.55500000854954,"stimulus":"<p>Bereit?</p>","key_press":32,"trial_type":"html-keyboard-response","trial_index":171,"time_elapsed":375230,"internal_node_id":"0.0-8.0-0.41","subject":"8kj2g6v2eedmt5w","sona":"8653"},{"rt":null,"stimulus":"<div style=\"font-size:60px;\">+</div>","key_press":null,"trial_type":"html-keyboard-response","trial_index":172,"time_elapsed":377242,"internal_node_id":"0.0-8.0-1.41","subject":"8kj2g6v2eedmt5w","sona":"8653"},{"trial_type":"turing-test","trial_index":173,"time_elapsed":382714,"internal_node_id":"0.0-8.0-2.41","subject":"8kj2g6v2eedmt5w","sona":"8653"},{"rt":1735.4749999940395,"stimulus":"<p>Welche Sequenz haben Sie als natürlicher empfunden?</p>","key_press":74,"test_part":"response","test_stimulus":{"position":0,"left":"bvh/return-bottle-hold-training0-lines.txt","right":"bvh/vr_prediction_models/model(vcgpdm)-dataset(return-bottle-hold)-mode(ELBO)-parts(3)-dyn(15)-lvm(30)-hold(0)/final-lines.txt","att_check":false},"trial_type":"html-keyboard-response","trial_index":174,"time_elapsed":384462,"internal_node_id":"0.0-8.0-3.41","subject":"8kj2g6v2eedmt5w","sona":"8653"},{"rt":8078.389999980573,"stimulus":"<p>Bereit?</p>","key_press":32,"trial_type":"html-keyboard-response","trial_index":175,"time_elapsed":392547,"internal_node_id":"0.0-8.0-0.42","subject":"8kj2g6v2eedmt5w","sona":"8653"},{"rt":null,"stimulus":"<div style=\"font-size:60px;\">+</div>","key_press":null,"trial_type":"html-keyboard-response","trial_index":176,"time_elapsed":394551,"internal_node_id":"0.0-8.0-1.42","subject":"8kj2g6v2eedmt5w","sona":"8653"},{"trial_type":"turing-test","trial_index":177,"time_elapsed":398783,"internal_node_id":"0.0-8.0-2.42","subject":"8kj2g6v2eedmt5w","sona":"8653"},{"rt":1967.2450000070967,"stimulus":"<p>Welche Sequenz haben Sie als natürlicher empfunden?</p>","key_press":74,"test_part":"response","test_stimulus":{"position":1,"left":"bvh/vr_prediction_models/model(vcgpdm)-dataset(return-bottle-hold)-mode(ELBO)-parts(1)-dyn(20)-lvm(20)-hold(3)/final-lines.txt","right":"bvh/return-bottle-hold-training3-lines.txt","att_check":false},"trial_type":"html-keyboard-response","trial_index":178,"time_elapsed":400759,"internal_node_id":"0.0-8.0-3.42","subject":"8kj2g6v2eedmt5w","sona":"8653"},{"rt":883.2200000179,"stimulus":"<p>Bereit?</p>","key_press":32,"trial_type":"html-keyboard-response","trial_index":179,"time_elapsed":401648,"internal_node_id":"0.0-8.0-0.43","subject":"8kj2g6v2eedmt5w","sona":"8653"},{"rt":null,"stimulus":"<div style=\"font-size:60px;\">+</div>","key_press":null,"trial_type":"html-keyboard-response","trial_index":180,"time_elapsed":403669,"internal_node_id":"0.0-8.0-1.43","subject":"8kj2g6v2eedmt5w","sona":"8653"},{"trial_type":"turing-test","trial_index":181,"time_elapsed":407289,"internal_node_id":"0.0-8.0-2.43","subject":"8kj2g6v2eedmt5w","sona":"8653"},{"rt":78.63499998347834,"stimulus":"<p>Welche Sequenz haben Sie als natürlicher empfunden?</p>","key_press":74,"test_part":"response","test_stimulus":{"position":0,"left":"bvh/pass-bottle-hold-training3-lines.txt","right":"bvh/vr_prediction_models/model(dmp)-dataset(pass-bottle-hold)-npsi(30)-hold(3)/final-lines.txt","att_check":true},"trial_type":"html-keyboard-response","trial_index":182,"time_elapsed":407377,"internal_node_id":"0.0-8.0-3.43","subject":"8kj2g6v2eedmt5w","sona":"8653"},{"rt":1219.455000013113,"stimulus":"<p>Bereit?</p>","key_press":32,"trial_type":"html-keyboard-response","trial_index":183,"time_elapsed":408609,"internal_node_id":"0.0-8.0-0.44","subject":"8kj2g6v2eedmt5w","sona":"8653"},{"rt":null,"stimulus":"<div style=\"font-size:60px;\">+</div>","key_press":null,"trial_type":"html-keyboard-response","trial_index":184,"time_elapsed":410629,"internal_node_id":"0.0-8.0-1.44","subject":"8kj2g6v2eedmt5w","sona":"8653"},{"trial_type":"turing-test","trial_index":185,"time_elapsed":415996,"internal_node_id":"0.0-8.0-2.44","subject":"8kj2g6v2eedmt5w","sona":"8653"},{"rt":526.590000023134,"stimulus":"<p>Welche Sequenz haben Sie als natürlicher empfunden?</p>","key_press":74,"test_part":"response","test_stimulus":{"position":1,"left":"bvh/vr_prediction_models/model(vcgpdm)-dataset(pass-bottle)-mode(ELBO)-parts(1)-dyn(10)-lvm(5)-hold(1)/final-lines.txt","right":"bvh/pass-bottle-training1-lines.txt","att_check":false},"trial_type":"html-keyboard-response","trial_index":186,"time_elapsed":416535,"internal_node_id":"0.0-8.0-3.44","subject":"8kj2g6v2eedmt5w","sona":"8653"},{"rt":418.03499998059124,"stimulus":"<p>Bereit?</p>","key_press":32,"trial_type":"html-keyboard-response","trial_index":187,"time_elapsed":416962,"internal_node_id":"0.0-8.0-0.45","subject":"8kj2g6v2eedmt5w","sona":"8653"},{"rt":null,"stimulus":"<div style=\"font-size:60px;\">+</div>","key_press":null,"trial_type":"html-keyboard-response","trial_index":188,"time_elapsed":418978,"internal_node_id":"0.0-8.0-1.45","subject":"8kj2g6v2eedmt5w","sona":"8653"},{"trial_type":"turing-test","trial_index":189,"time_elapsed":425502,"internal_node_id":"0.0-8.0-2.45","subject":"8kj2g6v2eedmt5w","sona":"8653"},{"rt":217.78000000631437,"stimulus":"<p>Welche Sequenz haben Sie als natürlicher empfunden?</p>","key_press":70,"test_part":"response","test_stimulus":{"position":0,"left":"bvh/pass-bottle-training2-lines.txt","right":"bvh/vr_prediction_models/model(vcgpdm)-dataset(pass-bottle)-mode(ELBO)-parts(1)-dyn(20)-lvm(20)-hold(2)/final-lines.txt","att_check":false},"trial_type":"html-keyboard-response","trial_index":190,"time_elapsed":425731,"internal_node_id":"0.0-8.0-3.45","subject":"8kj2g6v2eedmt5w","sona":"8653"},{"rt":414.18500000145286,"stimulus":"<p>Bereit?</p>","key_press":32,"trial_type":"html-keyboard-response","trial_index":191,"time_elapsed":426154,"internal_node_id":"0.0-8.0-0.46","subject":"8kj2g6v2eedmt5w","sona":"8653"},{"rt":null,"stimulus":"<div style=\"font-size:60px;\">+</div>","key_press":null,"trial_type":"html-keyboard-response","trial_index":192,"time_elapsed":428161,"internal_node_id":"0.0-8.0-1.46","subject":"8kj2g6v2eedmt5w","sona":"8653"},{"trial_type":"turing-test","trial_index":193,"time_elapsed":431812,"internal_node_id":"0.0-8.0-2.46","subject":"8kj2g6v2eedmt5w","sona":"8653"},{"rt":163.39499998139217,"stimulus":"<p>Welche Sequenz haben Sie als natürlicher empfunden?</p>","key_press":74,"test_part":"response","test_stimulus":{"position":0,"left":"bvh/pass-bottle-hold-training4-lines.txt","right":"bvh/vr_prediction_models/model(dmp)-dataset(pass-bottle-hold)-npsi(30)-hold(4)/final-lines.txt","att_check":true},"trial_type":"html-keyboard-response","trial_index":194,"time_elapsed":431988,"internal_node_id":"0.0-8.0-3.46","subject":"8kj2g6v2eedmt5w","sona":"8653"},{"rt":1642.8999999770895,"stimulus":"<p>Bereit?</p>","key_press":32,"trial_type":"html-keyboard-response","trial_index":195,"time_elapsed":433646,"internal_node_id":"0.0-8.0-0.47","subject":"8kj2g6v2eedmt5w","sona":"8653"},{"rt":null,"stimulus":"<div style=\"font-size:60px;\">+</div>","key_press":null,"trial_type":"html-keyboard-response","trial_index":196,"time_elapsed":435661,"internal_node_id":"0.0-8.0-1.47","subject":"8kj2g6v2eedmt5w","sona":"8653"},{"trial_type":"turing-test","trial_index":197,"time_elapsed":442144,"internal_node_id":"0.0-8.0-2.47","subject":"8kj2g6v2eedmt5w","sona":"8653"},{"rt":801.7500000423752,"stimulus":"<p>Welche Sequenz haben Sie als natürlicher empfunden?</p>","key_press":74,"test_part":"response","test_stimulus":{"position":1,"left":"bvh/vr_prediction_models/model(dmp)-dataset(return-bottle)-npsi(60)-hold(2)/final-lines.txt","right":"bvh/return-bottle-training2-lines.txt","att_check":false},"trial_type":"html-keyboard-response","trial_index":198,"time_elapsed":442959,"internal_node_id":"0.0-8.0-3.47","subject":"8kj2g6v2eedmt5w","sona":"8653"},{"rt":338.8600000180304,"stimulus":"<p>Bereit?</p>","key_press":32,"trial_type":"html-keyboard-response","trial_index":199,"time_elapsed":443306,"internal_node_id":"0.0-8.0-0.48","subject":"8kj2g6v2eedmt5w","sona":"8653"},{"rt":null,"stimulus":"<div style=\"font-size:60px;\">+</div>","key_press":null,"trial_type":"html-keyboard-response","trial_index":200,"time_elapsed":445321,"internal_node_id":"0.0-8.0-1.48","subject":"8kj2g6v2eedmt5w","sona":"8653"},{"trial_type":"turing-test","trial_index":201,"time_elapsed":451616,"internal_node_id":"0.0-8.0-2.48","subject":"8kj2g6v2eedmt5w","sona":"8653"},{"rt":285.9549999702722,"stimulus":"<p>Welche Sequenz haben Sie als natürlicher empfunden?</p>","key_press":74,"test_part":"response","test_stimulus":{"position":0,"left":"bvh/return-bottle-training4-lines.txt","right":"bvh/vr_prediction_models/model(vcgpdm)-dataset(return-bottle)-mode(ELBO)-parts(1)-dyn(10)-lvm(25)-hold(4)/final-lines.txt","att_check":false},"trial_type":"html-keyboard-response","trial_index":202,"time_elapsed":451927,"internal_node_id":"0.0-8.0-3.48","subject":"8kj2g6v2eedmt5w","sona":"8653"},{"rt":1331.1049999902025,"stimulus":"<p>Bereit?</p>","key_press":32,"trial_type":"html-keyboard-response","trial_index":203,"time_elapsed":453268,"internal_node_id":"0.0-8.0-0.49","subject":"8kj2g6v2eedmt5w","sona":"8653"},{"rt":null,"stimulus":"<div style=\"font-size:60px;\">+</div>","key_press":null,"trial_type":"html-keyboard-response","trial_index":204,"time_elapsed":455281,"internal_node_id":"0.0-8.0-1.49","subject":"8kj2g6v2eedmt5w","sona":"8653"},{"trial_type":"turing-test","trial_index":205,"time_elapsed":462420,"internal_node_id":"0.0-8.0-2.49","subject":"8kj2g6v2eedmt5w","sona":"8653"},{"rt":1582.475000002887,"stimulus":"<p>Welche Sequenz haben Sie als natürlicher empfunden?</p>","key_press":70,"test_part":"response","test_stimulus":{"position":0,"left":"bvh/pass-bottle-training0-lines.txt","right":"bvh/vr_prediction_models/model(vcgpdm)-dataset(pass-bottle)-mode(ELBO)-parts(3)-dyn(30)-lvm(15)-hold(0)/final-lines.txt","att_check":false},"trial_type":"html-keyboard-response","trial_index":206,"time_elapsed":464015,"internal_node_id":"0.0-8.0-3.49","subject":"8kj2g6v2eedmt5w","sona":"8653"},{"rt":529.465000028722,"stimulus":"<p>Bereit?</p>","key_press":32,"trial_type":"html-keyboard-response","trial_index":207,"time_elapsed":464552,"internal_node_id":"0.0-8.0-0.50","subject":"8kj2g6v2eedmt5w","sona":"8653"},{"rt":null,"stimulus":"<div style=\"font-size:60px;\">+</div>","key_press":null,"trial_type":"html-keyboard-response","trial_index":208,"time_elapsed":466570,"internal_node_id":"0.0-8.0-1.50","subject":"8kj2g6v2eedmt5w","sona":"8653"},{"trial_type":"turing-test","trial_index":209,"time_elapsed":470337,"internal_node_id":"0.0-8.0-2.50","subject":"8kj2g6v2eedmt5w","sona":"8653"},{"rt":55.76499999733642,"stimulus":"<p>Welche Sequenz haben Sie als natürlicher empfunden?</p>","key_press":74,"test_part":"response","test_stimulus":{"position":1,"left":"bvh/vr_prediction_models/model(vcgpdm)-dataset(pass-bottle-hold)-mode(ELBO)-parts(1)-dyn(25)-lvm(35)-hold(2)/final-lines.txt","right":"bvh/pass-bottle-hold-training2-lines.txt","att_check":false},"trial_type":"html-keyboard-response","trial_index":210,"time_elapsed":470401,"internal_node_id":"0.0-8.0-3.50","subject":"8kj2g6v2eedmt5w","sona":"8653"},{"rt":345.44499998446554,"stimulus":"<p>Bereit?</p>","key_press":32,"trial_type":"html-keyboard-response","trial_index":211,"time_elapsed":470754,"internal_node_id":"0.0-8.0-0.51","subject":"8kj2g6v2eedmt5w","sona":"8653"},{"rt":null,"stimulus":"<div style=\"font-size:60px;\">+</div>","key_press":null,"trial_type":"html-keyboard-response","trial_index":212,"time_elapsed":472771,"internal_node_id":"0.0-8.0-1.51","subject":"8kj2g6v2eedmt5w","sona":"8653"},{"trial_type":"turing-test","trial_index":213,"time_elapsed":476577,"internal_node_id":"0.0-8.0-2.51","subject":"8kj2g6v2eedmt5w","sona":"8653"},{"rt":409.70499999821186,"stimulus":"<p>Welche Sequenz haben Sie als natürlicher empfunden?</p>","key_press":74,"test_part":"response","test_stimulus":{"position":1,"left":"bvh/vr_prediction_models/model(vcgpdm)-dataset(return-bottle-hold)-mode(ELBO)-parts(1)-dyn(35)-lvm(10)-hold(1)/final-lines.txt","right":"bvh/return-bottle-hold-training1-lines.txt","att_check":false},"trial_type":"html-keyboard-response","trial_index":214,"time_elapsed":476999,"internal_node_id":"0.0-8.0-3.51","subject":"8kj2g6v2eedmt5w","sona":"8653"},{"rt":274.62500002002344,"stimulus":"<p>Bereit?</p>","key_press":32,"trial_type":"html-keyboard-response","trial_index":215,"time_elapsed":477281,"internal_node_id":"0.0-8.0-0.52","subject":"8kj2g6v2eedmt5w","sona":"8653"},{"rt":null,"stimulus":"<div style=\"font-size:60px;\">+</div>","key_press":null,"trial_type":"html-keyboard-response","trial_index":216,"time_elapsed":479291,"internal_node_id":"0.0-8.0-1.52","subject":"8kj2g6v2eedmt5w","sona":"8653"},{"trial_type":"turing-test","trial_index":217,"time_elapsed":485194,"internal_node_id":"0.0-8.0-2.52","subject":"8kj2g6v2eedmt5w","sona":"8653"},{"rt":224.83000002102926,"stimulus":"<p>Welche Sequenz haben Sie als natürlicher empfunden?</p>","key_press":74,"test_part":"response","test_stimulus":{"position":1,"left":"bvh/vr_prediction_models/model(vcgpdm)-dataset(return-bottle)-mode(ELBO)-parts(1)-dyn(35)-lvm(30)-hold(0)/final-lines.txt","right":"bvh/return-bottle-training0-lines.txt","att_check":false},"trial_type":"html-keyboard-response","trial_index":218,"time_elapsed":485432,"internal_node_id":"0.0-8.0-3.52","subject":"8kj2g6v2eedmt5w","sona":"8653"},{"rt":1208.985000033863,"stimulus":"<p>Bereit?</p>","key_press":32,"trial_type":"html-keyboard-response","trial_index":219,"time_elapsed":486653,"internal_node_id":"0.0-8.0-0.53","subject":"8kj2g6v2eedmt5w","sona":"8653"},{"rt":null,"stimulus":"<div style=\"font-size:60px;\">+</div>","key_press":null,"trial_type":"html-keyboard-response","trial_index":220,"time_elapsed":488675,"internal_node_id":"0.0-8.0-1.53","subject":"8kj2g6v2eedmt5w","sona":"8653"},{"trial_type":"turing-test","trial_index":221,"time_elapsed":492061,"internal_node_id":"0.0-8.0-2.53","subject":"8kj2g6v2eedmt5w","sona":"8653"},{"rt":574.2850000387989,"stimulus":"<p>Welche Sequenz haben Sie als natürlicher empfunden?</p>","key_press":74,"test_part":"response","test_stimulus":{"position":0,"left":"bvh/pass-bottle-hold-training0-lines.txt","right":"bvh/vr_prediction_models/model(tmp)-dataset(pass-bottle-hold)-numprim(12)-hold(0)/final-lines.txt","att_check":false},"trial_type":"html-keyboard-response","trial_index":222,"time_elapsed":492647,"internal_node_id":"0.0-8.0-3.53","subject":"8kj2g6v2eedmt5w","sona":"8653"},{"rt":448.3299999847077,"stimulus":"<p>Bereit?</p>","key_press":32,"trial_type":"html-keyboard-response","trial_index":223,"time_elapsed":493109,"internal_node_id":"0.0-8.0-0.54","subject":"8kj2g6v2eedmt5w","sona":"8653"},{"rt":null,"stimulus":"<div style=\"font-size:60px;\">+</div>","key_press":null,"trial_type":"html-keyboard-response","trial_index":224,"time_elapsed":495126,"internal_node_id":"0.0-8.0-1.54","subject":"8kj2g6v2eedmt5w","sona":"8653"},{"trial_type":"turing-test","trial_index":225,"time_elapsed":501307,"internal_node_id":"0.0-8.0-2.54","subject":"8kj2g6v2eedmt5w","sona":"8653"},{"rt":448.93999997293577,"stimulus":"<p>Welche Sequenz haben Sie als natürlicher empfunden?</p>","key_press":74,"test_part":"response","test_stimulus":{"position":1,"left":"bvh/vr_prediction_models/model(dmp)-dataset(pass-bottle)-npsi(70)-hold(2)/final-lines.txt","right":"bvh/pass-bottle-training2-lines.txt","att_check":false},"trial_type":"html-keyboard-response","trial_index":226,"time_elapsed":501774,"internal_node_id":"0.0-8.0-3.54","subject":"8kj2g6v2eedmt5w","sona":"8653"},{"rt":252.9699999722652,"stimulus":"<p>Bereit?</p>","key_press":32,"trial_type":"html-keyboard-response","trial_index":227,"time_elapsed":502037,"internal_node_id":"0.0-8.0-0.55","subject":"8kj2g6v2eedmt5w","sona":"8653"},{"rt":null,"stimulus":"<div style=\"font-size:60px;\">+</div>","key_press":null,"trial_type":"html-keyboard-response","trial_index":228,"time_elapsed":504069,"internal_node_id":"0.0-8.0-1.55","subject":"8kj2g6v2eedmt5w","sona":"8653"},{"trial_type":"turing-test","trial_index":229,"time_elapsed":509917,"internal_node_id":"0.0-8.0-2.55","subject":"8kj2g6v2eedmt5w","sona":"8653"},{"rt":372.13500001234934,"stimulus":"<p>Welche Sequenz haben Sie als natürlicher empfunden?</p>","key_press":70,"test_part":"response","test_stimulus":{"position":0,"left":"bvh/return-bottle-training0-lines.txt","right":"bvh/vr_prediction_models/model(vcgpdm)-dataset(return-bottle)-mode(ELBO)-parts(1)-dyn(20)-lvm(20)-hold(0)/final-lines.txt","att_check":false},"trial_type":"html-keyboard-response","trial_index":230,"time_elapsed":510301,"internal_node_id":"0.0-8.0-3.55","subject":"8kj2g6v2eedmt5w","sona":"8653"},{"rt":1212.984999991022,"stimulus":"<p>Bereit?</p>","key_press":32,"trial_type":"html-keyboard-response","trial_index":231,"time_elapsed":511522,"internal_node_id":"0.0-8.0-0.56","subject":"8kj2g6v2eedmt5w","sona":"8653"},{"rt":null,"stimulus":"<div style=\"font-size:60px;\">+</div>","key_press":null,"trial_type":"html-keyboard-response","trial_index":232,"time_elapsed":513537,"internal_node_id":"0.0-8.0-1.56","subject":"8kj2g6v2eedmt5w","sona":"8653"},{"trial_type":"turing-test","trial_index":233,"time_elapsed":517478,"internal_node_id":"0.0-8.0-2.56","subject":"8kj2g6v2eedmt5w","sona":"8653"},{"rt":343.92499999376014,"stimulus":"<p>Welche Sequenz haben Sie als natürlicher empfunden?</p>","key_press":74,"test_part":"response","test_stimulus":{"position":1,"left":"bvh/vr_prediction_models/model(vcgpdm)-dataset(return-bottle-hold)-mode(ELBO)-parts(3)-dyn(10)-lvm(10)-hold(3)/final-lines.txt","right":"bvh/return-bottle-hold-training3-lines.txt","att_check":false},"trial_type":"html-keyboard-response","trial_index":234,"time_elapsed":517835,"internal_node_id":"0.0-8.0-3.56","subject":"8kj2g6v2eedmt5w","sona":"8653"},{"rt":364.2400000244379,"stimulus":"<p>Bereit?</p>","key_press":32,"trial_type":"html-keyboard-response","trial_index":235,"time_elapsed":518210,"internal_node_id":"0.0-8.0-0.57","subject":"8kj2g6v2eedmt5w","sona":"8653"},{"rt":null,"stimulus":"<div style=\"font-size:60px;\">+</div>","key_press":null,"trial_type":"html-keyboard-response","trial_index":236,"time_elapsed":520234,"internal_node_id":"0.0-8.0-1.57","subject":"8kj2g6v2eedmt5w","sona":"8653"},{"trial_type":"turing-test","trial_index":237,"time_elapsed":523674,"internal_node_id":"0.0-8.0-2.57","subject":"8kj2g6v2eedmt5w","sona":"8653"},{"rt":881.3400000217371,"stimulus":"<p>Welche Sequenz haben Sie als natürlicher empfunden?</p>","key_press":74,"test_part":"response","test_stimulus":{"position":0,"left":"bvh/return-bottle-hold-training1-lines.txt","right":"bvh/vr_prediction_models/model(tmp)-dataset(return-bottle-hold)-numprim(5)-hold(1)/final-lines.txt","att_check":false},"trial_type":"html-keyboard-response","trial_index":238,"time_elapsed":524577,"internal_node_id":"0.0-8.0-3.57","subject":"8kj2g6v2eedmt5w","sona":"8653"},{"rt":255.56000001961365,"stimulus":"<p>Bereit?</p>","key_press":32,"trial_type":"html-keyboard-response","trial_index":239,"time_elapsed":524842,"internal_node_id":"0.0-8.0-0.58","subject":"8kj2g6v2eedmt5w","sona":"8653"},{"rt":null,"stimulus":"<div style=\"font-size:60px;\">+</div>","key_press":null,"trial_type":"html-keyboard-response","trial_index":240,"time_elapsed":526860,"internal_node_id":"0.0-8.0-1.58","subject":"8kj2g6v2eedmt5w","sona":"8653"},{"trial_type":"turing-test","trial_index":241,"time_elapsed":530649,"internal_node_id":"0.0-8.0-2.58","subject":"8kj2g6v2eedmt5w","sona":"8653"},{"rt":33691.17499998538,"stimulus":"<p>Welche Sequenz haben Sie als natürlicher empfunden?</p>","key_press":70,"test_part":"response","test_stimulus":{"position":0,"left":"bvh/return-bottle-hold-training4-lines.txt","right":"bvh/vr_prediction_models/model(dmp)-dataset(return-bottle-hold)-npsi(70)-hold(4)/final-lines.txt","att_check":false},"trial_type":"html-keyboard-response","trial_index":242,"time_elapsed":564351,"internal_node_id":"0.0-8.0-3.58","subject":"8kj2g6v2eedmt5w","sona":"8653"},{"rt":384.8850000067614,"stimulus":"<p>Bereit?</p>","key_press":32,"trial_type":"html-keyboard-response","trial_index":243,"time_elapsed":564743,"internal_node_id":"0.0-8.0-0.59","subject":"8kj2g6v2eedmt5w","sona":"8653"},{"rt":null,"stimulus":"<div style=\"font-size:60px;\">+</div>","key_press":null,"trial_type":"html-keyboard-response","trial_index":244,"time_elapsed":566767,"internal_node_id":"0.0-8.0-1.59","subject":"8kj2g6v2eedmt5w","sona":"8653"},{"trial_type":"turing-test","trial_index":245,"time_elapsed":572293,"internal_node_id":"0.0-8.0-2.59","subject":"8kj2g6v2eedmt5w","sona":"8653"},{"rt":274.9150000163354,"stimulus":"<p>Welche Sequenz haben Sie als natürlicher empfunden?</p>","key_press":74,"test_part":"response","test_stimulus":{"position":0,"left":"bvh/pass-bottle-training1-lines.txt","right":"bvh/vr_prediction_models/model(tmp)-dataset(pass-bottle)-numprim(11)-hold(1)/final-lines.txt","att_check":false},"trial_type":"html-keyboard-response","trial_index":246,"time_elapsed":572585,"internal_node_id":"0.0-8.0-3.59","subject":"8kj2g6v2eedmt5w","sona":"8653"},{"rt":321.45499996840954,"stimulus":"<p>Bereit?</p>","key_press":32,"trial_type":"html-keyboard-response","trial_index":247,"time_elapsed":572916,"internal_node_id":"0.0-8.0-0.60","subject":"8kj2g6v2eedmt5w","sona":"8653"},{"rt":null,"stimulus":"<div style=\"font-size:60px;\">+</div>","key_press":null,"trial_type":"html-keyboard-response","trial_index":248,"time_elapsed":574936,"internal_node_id":"0.0-8.0-1.60","subject":"8kj2g6v2eedmt5w","sona":"8653"},{"trial_type":"turing-test","trial_index":249,"time_elapsed":580886,"internal_node_id":"0.0-8.0-2.60","subject":"8kj2g6v2eedmt5w","sona":"8653"},{"rt":382.2950000176206,"stimulus":"<p>Welche Sequenz haben Sie als natürlicher empfunden?</p>","key_press":74,"test_part":"response","test_stimulus":{"position":1,"left":"bvh/vr_prediction_models/model(vcgpdm)-dataset(pass-bottle)-mode(ELBO)-parts(3)-dyn(25)-lvm(30)-hold(1)/final-lines.txt","right":"bvh/pass-bottle-training1-lines.txt","att_check":false},"trial_type":"html-keyboard-response","trial_index":250,"time_elapsed":581284,"internal_node_id":"0.0-8.0-3.60","subject":"8kj2g6v2eedmt5w","sona":"8653"},{"rt":623.2099999906495,"stimulus":"<p>Bereit?</p>","key_press":32,"trial_type":"html-keyboard-response","trial_index":251,"time_elapsed":581917,"internal_node_id":"0.0-8.0-0.61","subject":"8kj2g6v2eedmt5w","sona":"8653"},{"rt":null,"stimulus":"<div style=\"font-size:60px;\">+</div>","key_press":null,"trial_type":"html-keyboard-response","trial_index":252,"time_elapsed":583934,"internal_node_id":"0.0-8.0-1.61","subject":"8kj2g6v2eedmt5w","sona":"8653"},{"trial_type":"turing-test","trial_index":253,"time_elapsed":587631,"internal_node_id":"0.0-8.0-2.61","subject":"8kj2g6v2eedmt5w","sona":"8653"},{"rt":775.1749999588355,"stimulus":"<p>Welche Sequenz haben Sie als natürlicher empfunden?</p>","key_press":70,"test_part":"response","test_stimulus":{"position":0,"left":"bvh/pass-bottle-hold-training1-lines.txt","right":"bvh/vr_prediction_models/model(vcgpdm)-dataset(pass-bottle-hold)-mode(ELBO)-parts(3)-dyn(20)-lvm(20)-hold(1)/final-lines.txt","att_check":false},"trial_type":"html-keyboard-response","trial_index":254,"time_elapsed":588422,"internal_node_id":"0.0-8.0-3.61","subject":"8kj2g6v2eedmt5w","sona":"8653"},{"rt":6590.139999985695,"stimulus":"<p>Bereit?</p>","key_press":32,"trial_type":"html-keyboard-response","trial_index":255,"time_elapsed":595019,"internal_node_id":"0.0-8.0-0.62","subject":"8kj2g6v2eedmt5w","sona":"8653"},{"rt":null,"stimulus":"<div style=\"font-size:60px;\">+</div>","key_press":null,"trial_type":"html-keyboard-response","trial_index":256,"time_elapsed":597023,"internal_node_id":"0.0-8.0-1.62","subject":"8kj2g6v2eedmt5w","sona":"8653"},{"trial_type":"turing-test","trial_index":257,"time_elapsed":603154,"internal_node_id":"0.0-8.0-2.62","subject":"8kj2g6v2eedmt5w","sona":"8653"},{"rt":8.25999997323379,"stimulus":"<p>Welche Sequenz haben Sie als natürlicher empfunden?</p>","key_press":74,"test_part":"response","test_stimulus":{"position":1,"left":"bvh/vr_prediction_models/model(vcgpdm)-dataset(pass-bottle)-mode(ELBO)-parts(3)-dyn(15)-lvm(30)-hold(1)/final-lines.txt","right":"bvh/pass-bottle-training1-lines.txt","att_check":false},"trial_type":"html-keyboard-response","trial_index":258,"time_elapsed":603172,"internal_node_id":"0.0-8.0-3.62","subject":"8kj2g6v2eedmt5w","sona":"8653"},{"rt":583.0950000090525,"stimulus":"<p>Bereit?</p>","key_press":32,"trial_type":"html-keyboard-response","trial_index":259,"time_elapsed":603765,"internal_node_id":"0.0-8.0-0.63","subject":"8kj2g6v2eedmt5w","sona":"8653"},{"rt":null,"stimulus":"<div style=\"font-size:60px;\">+</div>","key_press":null,"trial_type":"html-keyboard-response","trial_index":260,"time_elapsed":605778,"internal_node_id":"0.0-8.0-1.63","subject":"8kj2g6v2eedmt5w","sona":"8653"},{"trial_type":"turing-test","trial_index":261,"time_elapsed":611974,"internal_node_id":"0.0-8.0-2.63","subject":"8kj2g6v2eedmt5w","sona":"8653"},{"rt":711.1800000420772,"stimulus":"<p>Welche Sequenz haben Sie als natürlicher empfunden?</p>","key_press":74,"test_part":"response","test_stimulus":{"position":0,"left":"bvh/pass-bottle-training2-lines.txt","right":"bvh/vr_prediction_models/model(dmp)-dataset(pass-bottle)-npsi(10)-hold(2)/final-lines.txt","att_check":false},"trial_type":"html-keyboard-response","trial_index":262,"time_elapsed":612704,"internal_node_id":"0.0-8.0-3.63","subject":"8kj2g6v2eedmt5w","sona":"8653"},{"rt":441.54999998863786,"stimulus":"<p>Bereit?</p>","key_press":32,"trial_type":"html-keyboard-response","trial_index":263,"time_elapsed":613154,"internal_node_id":"0.0-8.0-0.64","subject":"8kj2g6v2eedmt5w","sona":"8653"},{"rt":null,"stimulus":"<div style=\"font-size:60px;\">+</div>","key_press":null,"trial_type":"html-keyboard-response","trial_index":264,"time_elapsed":615173,"internal_node_id":"0.0-8.0-1.64","subject":"8kj2g6v2eedmt5w","sona":"8653"},{"trial_type":"turing-test","trial_index":265,"time_elapsed":619038,"internal_node_id":"0.0-8.0-2.64","subject":"8kj2g6v2eedmt5w","sona":"8653"},{"rt":117.21999995643273,"stimulus":"<p>Welche Sequenz haben Sie als natürlicher empfunden?</p>","key_press":70,"test_part":"response","test_stimulus":{"position":0,"left":"bvh/return-bottle-hold-training1-lines.txt","right":"bvh/vr_prediction_models/model(vcgpdm)-dataset(return-bottle-hold)-mode(ELBO)-parts(3)-dyn(25)-lvm(15)-hold(1)/final-lines.txt","att_check":false},"trial_type":"html-keyboard-response","trial_index":266,"time_elapsed":619168,"internal_node_id":"0.0-8.0-3.64","subject":"8kj2g6v2eedmt5w","sona":"8653"},{"rt":374.8699999996461,"stimulus":"<p>Bereit?</p>","key_press":32,"trial_type":"html-keyboard-response","trial_index":267,"time_elapsed":619551,"internal_node_id":"0.0-8.0-0.65","subject":"8kj2g6v2eedmt5w","sona":"8653"},{"rt":null,"stimulus":"<div style=\"font-size:60px;\">+</div>","key_press":null,"trial_type":"html-keyboard-response","trial_index":268,"time_elapsed":621578,"internal_node_id":"0.0-8.0-1.65","subject":"8kj2g6v2eedmt5w","sona":"8653"},{"trial_type":"turing-test","trial_index":269,"time_elapsed":627732,"internal_node_id":"0.0-8.0-2.65","subject":"8kj2g6v2eedmt5w","sona":"8653"},{"rt":193.0300000240095,"stimulus":"<p>Welche Sequenz haben Sie als natürlicher empfunden?</p>","key_press":70,"test_part":"response","test_stimulus":{"position":0,"left":"bvh/return-bottle-training0-lines.txt","right":"bvh/vr_prediction_models/model(vcgpdm)-dataset(return-bottle)-mode(ELBO)-parts(1)-dyn(15)-lvm(35)-hold(0)/final-lines.txt","att_check":false},"trial_type":"html-keyboard-response","trial_index":270,"time_elapsed":627936,"internal_node_id":"0.0-8.0-3.65","subject":"8kj2g6v2eedmt5w","sona":"8653"},{"rt":307.0000000298023,"stimulus":"<p>Bereit?</p>","key_press":32,"trial_type":"html-keyboard-response","trial_index":271,"time_elapsed":628251,"internal_node_id":"0.0-8.0-0.66","subject":"8kj2g6v2eedmt5w","sona":"8653"},{"rt":null,"stimulus":"<div style=\"font-size:60px;\">+</div>","key_press":null,"trial_type":"html-keyboard-response","trial_index":272,"time_elapsed":630273,"internal_node_id":"0.0-8.0-1.66","subject":"8kj2g6v2eedmt5w","sona":"8653"},{"trial_type":"turing-test","trial_index":273,"time_elapsed":633491,"internal_node_id":"0.0-8.0-2.66","subject":"8kj2g6v2eedmt5w","sona":"8653"},{"rt":810.3799999807961,"stimulus":"<p>Welche Sequenz haben Sie als natürlicher empfunden?</p>","key_press":70,"test_part":"response","test_stimulus":{"position":0,"left":"bvh/pass-bottle-hold-training1-lines.txt","right":"bvh/vr_prediction_models/model(dmp)-dataset(pass-bottle-hold)-npsi(20)-hold(1)/final-lines.txt","att_check":false},"trial_type":"html-keyboard-response","trial_index":274,"time_elapsed":634316,"internal_node_id":"0.0-8.0-3.66","subject":"8kj2g6v2eedmt5w","sona":"8653"},{"rt":1378.8449999992736,"stimulus":"<p>Bereit?</p>","key_press":32,"trial_type":"html-keyboard-response","trial_index":275,"time_elapsed":635705,"internal_node_id":"0.0-8.0-0.67","subject":"8kj2g6v2eedmt5w","sona":"8653"},{"rt":null,"stimulus":"<div style=\"font-size:60px;\">+</div>","key_press":null,"trial_type":"html-keyboard-response","trial_index":276,"time_elapsed":637725,"internal_node_id":"0.0-8.0-1.67","subject":"8kj2g6v2eedmt5w","sona":"8653"},{"trial_type":"turing-test","trial_index":277,"time_elapsed":643941,"internal_node_id":"0.0-8.0-2.67","subject":"8kj2g6v2eedmt5w","sona":"8653"},{"rt":298.81000000750646,"stimulus":"<p>Welche Sequenz haben Sie als natürlicher empfunden?</p>","key_press":74,"test_part":"response","test_stimulus":{"position":1,"left":"bvh/vr_prediction_models/model(vcgpdm)-dataset(pass-bottle)-mode(ELBO)-parts(1)-dyn(35)-lvm(30)-hold(4)/final-lines.txt","right":"bvh/pass-bottle-training4-lines.txt","att_check":false},"trial_type":"html-keyboard-response","trial_index":278,"time_elapsed":644255,"internal_node_id":"0.0-8.0-3.67","subject":"8kj2g6v2eedmt5w","sona":"8653"},{"rt":457.64999999664724,"stimulus":"<p>Bereit?</p>","key_press":32,"trial_type":"html-keyboard-response","trial_index":279,"time_elapsed":644723,"internal_node_id":"0.0-8.0-0.68","subject":"8kj2g6v2eedmt5w","sona":"8653"},{"rt":null,"stimulus":"<div style=\"font-size:60px;\">+</div>","key_press":null,"trial_type":"html-keyboard-response","trial_index":280,"time_elapsed":646751,"internal_node_id":"0.0-8.0-1.68","subject":"8kj2g6v2eedmt5w","sona":"8653"},{"trial_type":"turing-test","trial_index":281,"time_elapsed":652544,"internal_node_id":"0.0-8.0-2.68","subject":"8kj2g6v2eedmt5w","sona":"8653"},{"rt":850.0650000059977,"stimulus":"<p>Welche Sequenz haben Sie als natürlicher empfunden?</p>","key_press":74,"test_part":"response","test_stimulus":{"position":0,"left":"bvh/pass-bottle-training1-lines.txt","right":"bvh/vr_prediction_models/model(vcgpdm)-dataset(pass-bottle)-mode(ELBO)-parts(1)-dyn(25)-lvm(35)-hold(1)/final-lines.txt","att_check":false},"trial_type":"html-keyboard-response","trial_index":282,"time_elapsed":653409,"internal_node_id":"0.0-8.0-3.68","subject":"8kj2g6v2eedmt5w","sona":"8653"},{"rt":503.97499999962747,"stimulus":"<p>Bereit?</p>","key_press":32,"trial_type":"html-keyboard-response","trial_index":283,"time_elapsed":653917,"internal_node_id":"0.0-8.0-0.69","subject":"8kj2g6v2eedmt5w","sona":"8653"},{"rt":null,"stimulus":"<div style=\"font-size:60px;\">+</div>","key_press":null,"trial_type":"html-keyboard-response","trial_index":284,"time_elapsed":655928,"internal_node_id":"0.0-8.0-1.69","subject":"8kj2g6v2eedmt5w","sona":"8653"},{"trial_type":"turing-test","trial_index":285,"time_elapsed":662115,"internal_node_id":"0.0-8.0-2.69","subject":"8kj2g6v2eedmt5w","sona":"8653"},{"rt":537.2950000455603,"stimulus":"<p>Welche Sequenz haben Sie als natürlicher empfunden?</p>","key_press":74,"test_part":"response","test_stimulus":{"position":1,"left":"bvh/vr_prediction_models/model(vcgpdm)-dataset(pass-bottle)-mode(MAP)-parts(1)-hold(4)/final-lines.txt","right":"bvh/pass-bottle-training4-lines.txt","att_check":false},"trial_type":"html-keyboard-response","trial_index":286,"time_elapsed":662668,"internal_node_id":"0.0-8.0-3.69","subject":"8kj2g6v2eedmt5w","sona":"8653"},{"rt":359.97500002849847,"stimulus":"<p>Bereit?</p>","key_press":32,"trial_type":"html-keyboard-response","trial_index":287,"time_elapsed":663034,"internal_node_id":"0.0-8.0-0.70","subject":"8kj2g6v2eedmt5w","sona":"8653"},{"rt":null,"stimulus":"<div style=\"font-size:60px;\">+</div>","key_press":null,"trial_type":"html-keyboard-response","trial_index":288,"time_elapsed":665056,"internal_node_id":"0.0-8.0-1.70","subject":"8kj2g6v2eedmt5w","sona":"8653"},{"trial_type":"turing-test","trial_index":289,"time_elapsed":671178,"internal_node_id":"0.0-8.0-2.70","subject":"8kj2g6v2eedmt5w","sona":"8653"},{"rt":463.7650000513531,"stimulus":"<p>Welche Sequenz haben Sie als natürlicher empfunden?</p>","key_press":74,"test_part":"response","test_stimulus":{"position":1,"left":"bvh/vr_prediction_models/model(tmp)-dataset(return-bottle)-numprim(3)-hold(1)/final-lines.txt","right":"bvh/return-bottle-training1-lines.txt","att_check":false},"trial_type":"html-keyboard-response","trial_index":290,"time_elapsed":671661,"internal_node_id":"0.0-8.0-3.70","subject":"8kj2g6v2eedmt5w","sona":"8653"},{"rt":429.60500001208857,"stimulus":"<p>Bereit?</p>","key_press":32,"trial_type":"html-keyboard-response","trial_index":291,"time_elapsed":672102,"internal_node_id":"0.0-8.0-0.71","subject":"8kj2g6v2eedmt5w","sona":"8653"},{"rt":null,"stimulus":"<div style=\"font-size:60px;\">+</div>","key_press":null,"trial_type":"html-keyboard-response","trial_index":292,"time_elapsed":674112,"internal_node_id":"0.0-8.0-1.71","subject":"8kj2g6v2eedmt5w","sona":"8653"},{"trial_type":"turing-test","trial_index":293,"time_elapsed":679755,"internal_node_id":"0.0-8.0-2.71","subject":"8kj2g6v2eedmt5w","sona":"8653"},{"rt":1775.8450000546873,"stimulus":"<p>Welche Sequenz haben Sie als natürlicher empfunden?</p>","key_press":74,"test_part":"response","test_stimulus":{"position":1,"left":"bvh/vr_prediction_models/model(dmp)-dataset(pass-bottle)-npsi(40)-hold(4)/final-lines.txt","right":"bvh/pass-bottle-training4-lines.txt","att_check":false},"trial_type":"html-keyboard-response","trial_index":294,"time_elapsed":681551,"internal_node_id":"0.0-8.0-3.71","subject":"8kj2g6v2eedmt5w","sona":"8653"},{"rt":745.48500002129,"stimulus":"<p>Bereit?</p>","key_press":32,"trial_type":"html-keyboard-response","trial_index":295,"time_elapsed":682305,"internal_node_id":"0.0-8.0-0.72","subject":"8kj2g6v2eedmt5w","sona":"8653"},{"rt":null,"stimulus":"<div style=\"font-size:60px;\">+</div>","key_press":null,"trial_type":"html-keyboard-response","trial_index":296,"time_elapsed":684312,"internal_node_id":"0.0-8.0-1.72","subject":"8kj2g6v2eedmt5w","sona":"8653"},{"trial_type":"turing-test","trial_index":297,"time_elapsed":687733,"internal_node_id":"0.0-8.0-2.72","subject":"8kj2g6v2eedmt5w","sona":"8653"},{"rt":532.8250000020489,"stimulus":"<p>Welche Sequenz haben Sie als natürlicher empfunden?</p>","key_press":70,"test_part":"response","test_stimulus":{"position":0,"left":"bvh/pass-bottle-hold-training0-lines.txt","right":"bvh/vr_prediction_models/model(tmp)-dataset(pass-bottle-hold)-numprim(10)-hold(0)/final-lines.txt","att_check":false},"trial_type":"html-keyboard-response","trial_index":298,"time_elapsed":688284,"internal_node_id":"0.0-8.0-3.72","subject":"8kj2g6v2eedmt5w","sona":"8653"},{"rt":324.3800000054762,"stimulus":"<p>Bereit?</p>","key_press":32,"trial_type":"html-keyboard-response","trial_index":299,"time_elapsed":688618,"internal_node_id":"0.0-8.0-0.73","subject":"8kj2g6v2eedmt5w","sona":"8653"},{"rt":null,"stimulus":"<div style=\"font-size:60px;\">+</div>","key_press":null,"trial_type":"html-keyboard-response","trial_index":300,"time_elapsed":690627,"internal_node_id":"0.0-8.0-1.73","subject":"8kj2g6v2eedmt5w","sona":"8653"},{"trial_type":"turing-test","trial_index":301,"time_elapsed":696987,"internal_node_id":"0.0-8.0-2.73","subject":"8kj2g6v2eedmt5w","sona":"8653"},{"rt":398.38999998755753,"stimulus":"<p>Welche Sequenz haben Sie als natürlicher empfunden?</p>","key_press":74,"test_part":"response","test_stimulus":{"position":1,"left":"bvh/vr_prediction_models/model(vcgpdm)-dataset(return-bottle)-mode(ELBO)-parts(3)-dyn(25)-lvm(15)-hold(4)/final-lines.txt","right":"bvh/return-bottle-training4-lines.txt","att_check":false},"trial_type":"html-keyboard-response","trial_index":302,"time_elapsed":697396,"internal_node_id":"0.0-8.0-3.73","subject":"8kj2g6v2eedmt5w","sona":"8653"},{"rt":932.2350000147708,"stimulus":"<p>Bereit?</p>","key_press":32,"trial_type":"html-keyboard-response","trial_index":303,"time_elapsed":698337,"internal_node_id":"0.0-8.0-0.74","subject":"8kj2g6v2eedmt5w","sona":"8653"},{"rt":null,"stimulus":"<div style=\"font-size:60px;\">+</div>","key_press":null,"trial_type":"html-keyboard-response","trial_index":304,"time_elapsed":700352,"internal_node_id":"0.0-8.0-1.74","subject":"8kj2g6v2eedmt5w","sona":"8653"},{"trial_type":"turing-test","trial_index":305,"time_elapsed":704811,"internal_node_id":"0.0-8.0-2.74","subject":"8kj2g6v2eedmt5w","sona":"8653"},{"rt":442.72500002989545,"stimulus":"<p>Welche Sequenz haben Sie als natürlicher empfunden?</p>","key_press":74,"test_part":"response","test_stimulus":{"position":1,"left":"bvh/vr_prediction_models/model(vcgpdm)-dataset(pass-bottle-hold)-mode(ELBO)-parts(3)-dyn(15)-lvm(30)-hold(3)/final-lines.txt","right":"bvh/pass-bottle-hold-training3-lines.txt","att_check":false},"trial_type":"html-keyboard-response","trial_index":306,"time_elapsed":705265,"internal_node_id":"0.0-8.0-3.74","subject":"8kj2g6v2eedmt5w","sona":"8653"},{"rt":646.4699999778531,"stimulus":"<p>Bereit?</p>","key_press":32,"trial_type":"html-keyboard-response","trial_index":307,"time_elapsed":705919,"internal_node_id":"0.0-8.0-0.75","subject":"8kj2g6v2eedmt5w","sona":"8653"},{"rt":null,"stimulus":"<div style=\"font-size:60px;\">+</div>","key_press":null,"trial_type":"html-keyboard-response","trial_index":308,"time_elapsed":707941,"internal_node_id":"0.0-8.0-1.75","subject":"8kj2g6v2eedmt5w","sona":"8653"},{"trial_type":"turing-test","trial_index":309,"time_elapsed":714152,"internal_node_id":"0.0-8.0-2.75","subject":"8kj2g6v2eedmt5w","sona":"8653"},{"rt":385.39000001037493,"stimulus":"<p>Welche Sequenz haben Sie als natürlicher empfunden?</p>","key_press":74,"test_part":"response","test_stimulus":{"position":0,"left":"bvh/return-bottle-training1-lines.txt","right":"bvh/vr_prediction_models/model(tmp)-dataset(return-bottle)-numprim(4)-hold(1)/final-lines.txt","att_check":false},"trial_type":"html-keyboard-response","trial_index":310,"time_elapsed":714556,"internal_node_id":"0.0-8.0-3.75","subject":"8kj2g6v2eedmt5w","sona":"8653"},{"rt":327.56000000517815,"stimulus":"<p>Bereit?</p>","key_press":32,"trial_type":"html-keyboard-response","trial_index":311,"time_elapsed":714900,"internal_node_id":"0.0-8.0-0.76","subject":"8kj2g6v2eedmt5w","sona":"8653"},{"rt":null,"stimulus":"<div style=\"font-size:60px;\">+</div>","key_press":null,"trial_type":"html-keyboard-response","trial_index":312,"time_elapsed":716919,"internal_node_id":"0.0-8.0-1.76","subject":"8kj2g6v2eedmt5w","sona":"8653"},{"trial_type":"turing-test","trial_index":313,"time_elapsed":721033,"internal_node_id":"0.0-8.0-2.76","subject":"8kj2g6v2eedmt5w","sona":"8653"},{"rt":554.3199999956414,"stimulus":"<p>Welche Sequenz haben Sie als natürlicher empfunden?</p>","key_press":70,"test_part":"response","test_stimulus":{"position":0,"left":"bvh/return-bottle-hold-training3-lines.txt","right":"bvh/vr_prediction_models/model(vcgpdm)-dataset(return-bottle-hold)-mode(ELBO)-parts(1)-dyn(30)-lvm(20)-hold(3)/final-lines.txt","att_check":false},"trial_type":"html-keyboard-response","trial_index":314,"time_elapsed":721605,"internal_node_id":"0.0-8.0-3.76","subject":"8kj2g6v2eedmt5w","sona":"8653"},{"rt":472.61499997694045,"stimulus":"<p>Bereit?</p>","key_press":32,"trial_type":"html-keyboard-response","trial_index":315,"time_elapsed":722089,"internal_node_id":"0.0-8.0-0.77","subject":"8kj2g6v2eedmt5w","sona":"8653"},{"rt":null,"stimulus":"<div style=\"font-size:60px;\">+</div>","key_press":null,"trial_type":"html-keyboard-response","trial_index":316,"time_elapsed":724105,"internal_node_id":"0.0-8.0-1.77","subject":"8kj2g6v2eedmt5w","sona":"8653"},{"trial_type":"turing-test","trial_index":317,"time_elapsed":727933,"internal_node_id":"0.0-8.0-2.77","subject":"8kj2g6v2eedmt5w","sona":"8653"},{"rt":479.5499999891035,"stimulus":"<p>Welche Sequenz haben Sie als natürlicher empfunden?</p>","key_press":74,"test_part":"response","test_stimulus":{"position":0,"left":"bvh/pass-bottle-hold-training0-lines.txt","right":"bvh/vr_prediction_models/model(vcgpdm)-dataset(pass-bottle-hold)-mode(ELBO)-parts(3)-dyn(25)-lvm(30)-hold(0)/final-lines.txt","att_check":false},"trial_type":"html-keyboard-response","trial_index":318,"time_elapsed":728421,"internal_node_id":"0.0-8.0-3.77","subject":"8kj2g6v2eedmt5w","sona":"8653"},{"rt":616.524999961257,"stimulus":"<p>Bereit?</p>","key_press":32,"trial_type":"html-keyboard-response","trial_index":319,"time_elapsed":729046,"internal_node_id":"0.0-8.0-0.78","subject":"8kj2g6v2eedmt5w","sona":"8653"},{"rt":null,"stimulus":"<div style=\"font-size:60px;\">+</div>","key_press":null,"trial_type":"html-keyboard-response","trial_index":320,"time_elapsed":731067,"internal_node_id":"0.0-8.0-1.78","subject":"8kj2g6v2eedmt5w","sona":"8653"},{"trial_type":"turing-test","trial_index":321,"time_elapsed":734631,"internal_node_id":"0.0-8.0-2.78","subject":"8kj2g6v2eedmt5w","sona":"8653"},{"rt":374.3549999780953,"stimulus":"<p>Welche Sequenz haben Sie als natürlicher empfunden?</p>","key_press":74,"test_part":"response","test_stimulus":{"position":0,"left":"bvh/return-bottle-hold-training3-lines.txt","right":"bvh/vr_prediction_models/model(vcgpdm)-dataset(return-bottle-hold)-mode(ELBO)-parts(3)-dyn(10)-lvm(10)-hold(3)/final-lines.txt","att_check":false},"trial_type":"html-keyboard-response","trial_index":322,"time_elapsed":735019,"internal_node_id":"0.0-8.0-3.78","subject":"8kj2g6v2eedmt5w","sona":"8653"},{"rt":289.0849999967031,"stimulus":"<p>Bereit?</p>","key_press":32,"trial_type":"html-keyboard-response","trial_index":323,"time_elapsed":735320,"internal_node_id":"0.0-8.0-0.79","subject":"8kj2g6v2eedmt5w","sona":"8653"},{"rt":null,"stimulus":"<div style=\"font-size:60px;\">+</div>","key_press":null,"trial_type":"html-keyboard-response","trial_index":324,"time_elapsed":737334,"internal_node_id":"0.0-8.0-1.79","subject":"8kj2g6v2eedmt5w","sona":"8653"},{"trial_type":"turing-test","trial_index":325,"time_elapsed":742969,"internal_node_id":"0.0-8.0-2.79","subject":"8kj2g6v2eedmt5w","sona":"8653"},{"rt":118.27500001527369,"stimulus":"<p>Welche Sequenz haben Sie als natürlicher empfunden?</p>","key_press":74,"test_part":"response","test_stimulus":{"position":1,"left":"bvh/vr_prediction_models/model(vcgpdm)-dataset(return-bottle)-mode(ELBO)-parts(3)-dyn(10)-lvm(30)-hold(0)/final-lines.txt","right":"bvh/return-bottle-training0-lines.txt","att_check":false},"trial_type":"html-keyboard-response","trial_index":326,"time_elapsed":743105,"internal_node_id":"0.0-8.0-3.79","subject":"8kj2g6v2eedmt5w","sona":"8653"},{"rt":8680.855000042357,"responses":"{\"age\":\"24\",\"gender\":\"weiblich\"}","trial_type":"survey-text","trial_index":327,"time_elapsed":751810,"internal_node_id":"0.0-10.0-0.0","subject":"8kj2g6v2eedmt5w","sona":"8653"},{"rt":65392.35999999801,"responses":"{\"area\":\"auf den Oberkörper\",\"Q1\":\"ungewöhnliche Bewegungen, stockende Ausführungen\",\"Q2\":\"fließende Bewegungsausführungen\"}","trial_type":"survey-text","trial_index":328,"time_elapsed":817229,"internal_node_id":"0.0-10.0-1.0","subject":"8kj2g6v2eedmt5w","sona":"8653"}]