[{"rt":14285,"stimulus":"<p>Welcome!<br> Please choose your language to start the experiment in the chosen language.</p><p>Willkommen!<br> Bitte wählen Sie eine Sprache, um das Experiment in der ausgewählten Sprache zu starten</p>","button_pressed":"1","trial_type":"html-button-response","trial_index":0,"time_elapsed":14289,"internal_node_id":"0.0-0.0","subject":"rfqmdbg7k3wbzxc","sona":"7480"},{"view_history":"[{\"page_index\":0,\"viewing_time\":1461},{\"page_index\":1,\"viewing_time\":1827},{\"page_index\":2,\"viewing_time\":2521},{\"page_index\":3,\"viewing_time\":2385},{\"page_index\":4,\"viewing_time\":1675}]","rt":9870,"trial_type":"instructions","trial_index":1,"time_elapsed":24162,"internal_node_id":"0.0-1.0-0.0","subject":"rfqmdbg7k3wbzxc","sona":"7480"},{"rt":1330,"stimulus":"<p>Bereit?</p>","key_press":32,"trial_type":"html-keyboard-response","trial_index":2,"time_elapsed":25495,"internal_node_id":"0.0-3.0","subject":"rfqmdbg7k3wbzxc","sona":"7480"},{"rt":null,"stimulus":"<div style=\"font-size:60px;\">+</div>","key_press":null,"trial_type":"html-keyboard-response","trial_index":3,"time_elapsed":27502,"internal_node_id":"0.0-4.0","subject":"rfqmdbg7k3wbzxc","sona":"7480"},{"trial_type":"training","trial_index":4,"time_elapsed":31424,"internal_node_id":"0.0-5.0","subject":"rfqmdbg7k3wbzxc","sona":"7480"},{"rt":383,"stimulus":"<p>Welche Sequenz haben Sie als natürlicher empfunden?</p>","key_press":70,"trial_type":"html-keyboard-response","trial_index":5,"time_elapsed":31809,"internal_node_id":"0.0-6.0","subject":"rfqmdbg7k3wbzxc","sona":"7480"},{"rt":4997,"stimulus":"<p>Das Experiment startet nun.</p><p><small>Bitte drücken Sie den Knopf, wenn Sie bereit sind.</small></p>","button_pressed":"0","trial_type":"html-button-response","trial_index":6,"time_elapsed":36808,"internal_node_id":"0.0-7.0","subject":"rfqmdbg7k3wbzxc","sona":"7480"},{"rt":1589,"stimulus":"<p>Bereit?</p>","key_press":32,"trial_type":"html-keyboard-response","trial_index":7,"time_elapsed":38401,"internal_node_id":"0.0-8.0-0.0","subject":"rfqmdbg7k3wbzxc","sona":"7480"},{"rt":null,"stimulus":"<div style=\"font-size:60px;\">+</div>","key_press":null,"trial_type":"html-keyboard-response","trial_index":8,"time_elapsed":40425,"internal_node_id":"0.0-8.0-1.0","subject":"rfqmdbg7k3wbzxc","sona":"7480"},{"trial_type":"turing-test","trial_index":9,"time_elapsed":47404,"internal_node_id":"0.0-8.0-2.0","subject":"rfqmdbg7k3wbzxc","sona":"7480"},{"rt":448,"stimulus":"<p>Welche Sequenz haben Sie als natürlicher empfunden?</p>","key_press":74,"test_part":"response","test_stimulus":{"position":1,"left":"bvh/vr_prediction_models/model(dmp)-dataset(pass-bottle)-npsi(40)-hold(2)/final-lines.txt","right":"bvh/pass-bottle-training2-lines.txt","att_check":false},"trial_type":"html-keyboard-response","trial_index":10,"time_elapsed":47857,"internal_node_id":"0.0-8.0-3.0","subject":"rfqmdbg7k3wbzxc","sona":"7480"},{"rt":1067,"stimulus":"<p>Bereit?</p>","key_press":32,"trial_type":"html-keyboard-response","trial_index":11,"time_elapsed":48926,"internal_node_id":"0.0-8.0-0.1","subject":"rfqmdbg7k3wbzxc","sona":"7480"},{"rt":null,"stimulus":"<div style=\"font-size:60px;\">+</div>","key_press":null,"trial_type":"html-keyboard-response","trial_index":12,"time_elapsed":50949,"internal_node_id":"0.0-8.0-1.1","subject":"rfqmdbg7k3wbzxc","sona":"7480"},{"trial_type":"turing-test","trial_index":13,"time_elapsed":56228,"internal_node_id":"0.0-8.0-2.1","subject":"rfqmdbg7k3wbzxc","sona":"7480"},{"rt":2212,"stimulus":"<p>Welche Sequenz haben Sie als natürlicher empfunden?</p>","key_press":74,"test_part":"response","test_stimulus":{"position":1,"left":"bvh/vr_prediction_models/model(vcgpdm)-dataset(return-bottle-hold)-mode(ELBO)-parts(3)-dyn(20)-lvm(35)-hold(1)/final-lines.txt","right":"bvh/return-bottle-hold-training1-lines.txt","att_check":false},"trial_type":"html-keyboard-response","trial_index":14,"time_elapsed":58443,"internal_node_id":"0.0-8.0-3.1","subject":"rfqmdbg7k3wbzxc","sona":"7480"},{"rt":900,"stimulus":"<p>Bereit?</p>","key_press":32,"trial_type":"html-keyboard-response","trial_index":15,"time_elapsed":59346,"internal_node_id":"0.0-8.0-0.2","subject":"rfqmdbg7k3wbzxc","sona":"7480"},{"rt":null,"stimulus":"<div style=\"font-size:60px;\">+</div>","key_press":null,"trial_type":"html-keyboard-response","trial_index":16,"time_elapsed":61355,"internal_node_id":"0.0-8.0-1.2","subject":"rfqmdbg7k3wbzxc","sona":"7480"},{"trial_type":"turing-test","trial_index":17,"time_elapsed":66997,"internal_node_id":"0.0-8.0-2.2","subject":"rfqmdbg7k3wbzxc","sona":"7480"},{"rt":1480,"stimulus":"<p>Welche Sequenz haben Sie als natürlicher empfunden?</p>","key_press":74,"test_part":"response","test_stimulus":{"position":1,"left":"bvh/vr_prediction_models/model(dmp)-dataset(return-bottle-hold)-npsi(70)-hold(0)/final-lines.txt","right":"bvh/return-bottle-hold-training0-lines.txt","att_check":false},"trial_type":"html-keyboard-response","trial_index":18,"time_elapsed":68480,"internal_node_id":"0.0-8.0-3.2","subject":"rfqmdbg7k3wbzxc","sona":"7480"},{"rt":281,"stimulus":"<p>Bereit?</p>","key_press":32,"trial_type":"html-keyboard-response","trial_index":19,"time_elapsed":68763,"internal_node_id":"0.0-8.0-0.3","subject":"rfqmdbg7k3wbzxc","sona":"7480"},{"rt":null,"stimulus":"<div style=\"font-size:60px;\">+</div>","key_press":null,"trial_type":"html-keyboard-response","trial_index":20,"time_elapsed":70778,"internal_node_id":"0.0-8.0-1.3","subject":"rfqmdbg7k3wbzxc","sona":"7480"},{"trial_type":"turing-test","trial_index":21,"time_elapsed":77167,"internal_node_id":"0.0-8.0-2.3","subject":"rfqmdbg7k3wbzxc","sona":"7480"},{"rt":1609,"stimulus":"<p>Welche Sequenz haben Sie als natürlicher empfunden?</p>","key_press":70,"test_part":"response","test_stimulus":{"position":0,"left":"bvh/pass-bottle-training3-lines.txt","right":"bvh/vr_prediction_models/model(tmp)-dataset(pass-bottle)-numprim(7)-hold(3)/final-lines.txt","att_check":false},"trial_type":"html-keyboard-response","trial_index":22,"time_elapsed":78779,"internal_node_id":"0.0-8.0-3.3","subject":"rfqmdbg7k3wbzxc","sona":"7480"},{"rt":449,"stimulus":"<p>Bereit?</p>","key_press":32,"trial_type":"html-keyboard-response","trial_index":23,"time_elapsed":79231,"internal_node_id":"0.0-8.0-0.4","subject":"rfqmdbg7k3wbzxc","sona":"7480"},{"rt":null,"stimulus":"<div style=\"font-size:60px;\">+</div>","key_press":null,"trial_type":"html-keyboard-response","trial_index":24,"time_elapsed":81259,"internal_node_id":"0.0-8.0-1.4","subject":"rfqmdbg7k3wbzxc","sona":"7480"},{"trial_type":"turing-test","trial_index":25,"time_elapsed":84747,"internal_node_id":"0.0-8.0-2.4","subject":"rfqmdbg7k3wbzxc","sona":"7480"},{"rt":1796,"stimulus":"<p>Welche Sequenz haben Sie als natürlicher empfunden?</p>","key_press":70,"test_part":"response","test_stimulus":{"position":1,"left":"bvh/vr_prediction_models/model(dmp)-dataset(pass-bottle-hold)-npsi(100)-hold(0)/final-lines.txt","right":"bvh/pass-bottle-hold-training0-lines.txt","att_check":false},"trial_type":"html-keyboard-response","trial_index":26,"time_elapsed":86545,"internal_node_id":"0.0-8.0-3.4","subject":"rfqmdbg7k3wbzxc","sona":"7480"},{"rt":435,"stimulus":"<p>Bereit?</p>","key_press":32,"trial_type":"html-keyboard-response","trial_index":27,"time_elapsed":86981,"internal_node_id":"0.0-8.0-0.5","subject":"rfqmdbg7k3wbzxc","sona":"7480"},{"rt":null,"stimulus":"<div style=\"font-size:60px;\">+</div>","key_press":null,"trial_type":"html-keyboard-response","trial_index":28,"time_elapsed":88996,"internal_node_id":"0.0-8.0-1.5","subject":"rfqmdbg7k3wbzxc","sona":"7480"},{"trial_type":"turing-test","trial_index":29,"time_elapsed":94050,"internal_node_id":"0.0-8.0-2.5","subject":"rfqmdbg7k3wbzxc","sona":"7480"},{"rt":1600,"stimulus":"<p>Welche Sequenz haben Sie als natürlicher empfunden?</p>","key_press":74,"test_part":"response","test_stimulus":{"position":0,"left":"bvh/pass-bottle-hold-training0-lines.txt","right":"bvh/vr_prediction_models/model(vcgpdm)-dataset(pass-bottle-hold)-mode(ELBO)-parts(3)-dyn(15)-lvm(30)-hold(0)/final-lines.txt","att_check":false},"trial_type":"html-keyboard-response","trial_index":30,"time_elapsed":95652,"internal_node_id":"0.0-8.0-3.5","subject":"rfqmdbg7k3wbzxc","sona":"7480"},{"rt":354,"stimulus":"<p>Bereit?</p>","key_press":32,"trial_type":"html-keyboard-response","trial_index":31,"time_elapsed":96006,"internal_node_id":"0.0-8.0-0.6","subject":"rfqmdbg7k3wbzxc","sona":"7480"},{"rt":null,"stimulus":"<div style=\"font-size:60px;\">+</div>","key_press":null,"trial_type":"html-keyboard-response","trial_index":32,"time_elapsed":98013,"internal_node_id":"0.0-8.0-1.6","subject":"rfqmdbg7k3wbzxc","sona":"7480"},{"trial_type":"turing-test","trial_index":33,"time_elapsed":103465,"internal_node_id":"0.0-8.0-2.6","subject":"rfqmdbg7k3wbzxc","sona":"7480"},{"rt":1789,"stimulus":"<p>Welche Sequenz haben Sie als natürlicher empfunden?</p>","key_press":70,"test_part":"response","test_stimulus":{"position":1,"left":"bvh/vr_prediction_models/model(vcgpdm)-dataset(return-bottle-hold)-mode(ELBO)-parts(3)-dyn(35)-lvm(20)-hold(2)/final-lines.txt","right":"bvh/return-bottle-hold-training2-lines.txt","att_check":false},"trial_type":"html-keyboard-response","trial_index":34,"time_elapsed":105258,"internal_node_id":"0.0-8.0-3.6","subject":"rfqmdbg7k3wbzxc","sona":"7480"},{"rt":355,"stimulus":"<p>Bereit?</p>","key_press":32,"trial_type":"html-keyboard-response","trial_index":35,"time_elapsed":105614,"internal_node_id":"0.0-8.0-0.7","subject":"rfqmdbg7k3wbzxc","sona":"7480"},{"rt":null,"stimulus":"<div style=\"font-size:60px;\">+</div>","key_press":null,"trial_type":"html-keyboard-response","trial_index":36,"time_elapsed":107636,"internal_node_id":"0.0-8.0-1.7","subject":"rfqmdbg7k3wbzxc","sona":"7480"},{"trial_type":"turing-test","trial_index":37,"time_elapsed":115716,"internal_node_id":"0.0-8.0-2.7","subject":"rfqmdbg7k3wbzxc","sona":"7480"},{"rt":12962,"stimulus":"<p>Welche Sequenz haben Sie als natürlicher empfunden?</p>","key_press":70,"test_part":"response","test_stimulus":{"position":0,"left":"bvh/return-bottle-training1-lines.txt","right":"bvh/vr_prediction_models/model(vcgpdm)-dataset(return-bottle)-mode(ELBO)-parts(1)-dyn(20)-lvm(30)-hold(1)/final-lines.txt","att_check":false},"trial_type":"html-keyboard-response","trial_index":38,"time_elapsed":128680,"internal_node_id":"0.0-8.0-3.7","subject":"rfqmdbg7k3wbzxc","sona":"7480"},{"rt":750,"stimulus":"<p>Bereit?</p>","key_press":32,"trial_type":"html-keyboard-response","trial_index":39,"time_elapsed":129432,"internal_node_id":"0.0-8.0-0.8","subject":"rfqmdbg7k3wbzxc","sona":"7480"},{"rt":null,"stimulus":"<div style=\"font-size:60px;\">+</div>","key_press":null,"trial_type":"html-keyboard-response","trial_index":40,"time_elapsed":131460,"internal_node_id":"0.0-8.0-1.8","subject":"rfqmdbg7k3wbzxc","sona":"7480"},{"trial_type":"turing-test","trial_index":41,"time_elapsed":137000,"internal_node_id":"0.0-8.0-2.8","subject":"rfqmdbg7k3wbzxc","sona":"7480"},{"rt":1102,"stimulus":"<p>Welche Sequenz haben Sie als natürlicher empfunden?</p>","key_press":74,"test_part":"response","test_stimulus":{"position":1,"left":"bvh/vr_prediction_models/model(vcgpdm)-dataset(pass-bottle-hold)-mode(ELBO)-parts(3)-dyn(20)-lvm(15)-hold(3)/final-lines.txt","right":"bvh/pass-bottle-hold-training3-lines.txt","att_check":false},"trial_type":"html-keyboard-response","trial_index":42,"time_elapsed":138103,"internal_node_id":"0.0-8.0-3.8","subject":"rfqmdbg7k3wbzxc","sona":"7480"},{"rt":640,"stimulus":"<p>Bereit?</p>","key_press":32,"trial_type":"html-keyboard-response","trial_index":43,"time_elapsed":138744,"internal_node_id":"0.0-8.0-0.9","subject":"rfqmdbg7k3wbzxc","sona":"7480"},{"rt":null,"stimulus":"<div style=\"font-size:60px;\">+</div>","key_press":null,"trial_type":"html-keyboard-response","trial_index":44,"time_elapsed":140757,"internal_node_id":"0.0-8.0-1.9","subject":"rfqmdbg7k3wbzxc","sona":"7480"},{"trial_type":"turing-test","trial_index":45,"time_elapsed":145868,"internal_node_id":"0.0-8.0-2.9","subject":"rfqmdbg7k3wbzxc","sona":"7480"},{"rt":1133,"stimulus":"<p>Welche Sequenz haben Sie als natürlicher empfunden?</p>","key_press":70,"test_part":"response","test_stimulus":{"position":0,"left":"bvh/return-bottle-hold-training2-lines.txt","right":"bvh/vr_prediction_models/model(vcgpdm)-dataset(return-bottle-hold)-mode(ELBO)-parts(3)-dyn(25)-lvm(25)-hold(2)/final-lines.txt","att_check":false},"trial_type":"html-keyboard-response","trial_index":46,"time_elapsed":147004,"internal_node_id":"0.0-8.0-3.9","subject":"rfqmdbg7k3wbzxc","sona":"7480"},{"rt":372,"stimulus":"<p>Bereit?</p>","key_press":32,"trial_type":"html-keyboard-response","trial_index":47,"time_elapsed":147376,"internal_node_id":"0.0-8.0-0.10","subject":"rfqmdbg7k3wbzxc","sona":"7480"},{"rt":null,"stimulus":"<div style=\"font-size:60px;\">+</div>","key_press":null,"trial_type":"html-keyboard-response","trial_index":48,"time_elapsed":149393,"internal_node_id":"0.0-8.0-1.10","subject":"rfqmdbg7k3wbzxc","sona":"7480"},{"trial_type":"turing-test","trial_index":49,"time_elapsed":156704,"internal_node_id":"0.0-8.0-2.10","subject":"rfqmdbg7k3wbzxc","sona":"7480"},{"rt":1628,"stimulus":"<p>Welche Sequenz haben Sie als natürlicher empfunden?</p>","key_press":74,"test_part":"response","test_stimulus":{"position":0,"left":"bvh/return-bottle-training2-lines.txt","right":"bvh/vr_prediction_models/model(tmp)-dataset(return-bottle)-numprim(13)-hold(2)/final-lines.txt","att_check":false},"trial_type":"html-keyboard-response","trial_index":50,"time_elapsed":158333,"internal_node_id":"0.0-8.0-3.10","subject":"rfqmdbg7k3wbzxc","sona":"7480"},{"rt":271,"stimulus":"<p>Bereit?</p>","key_press":32,"trial_type":"html-keyboard-response","trial_index":51,"time_elapsed":158605,"internal_node_id":"0.0-8.0-0.11","subject":"rfqmdbg7k3wbzxc","sona":"7480"},{"rt":null,"stimulus":"<div style=\"font-size:60px;\">+</div>","key_press":null,"trial_type":"html-keyboard-response","trial_index":52,"time_elapsed":160622,"internal_node_id":"0.0-8.0-1.11","subject":"rfqmdbg7k3wbzxc","sona":"7480"},{"trial_type":"turing-test","trial_index":53,"time_elapsed":165645,"internal_node_id":"0.0-8.0-2.11","subject":"rfqmdbg7k3wbzxc","sona":"7480"}]