[{"rt":3560,"stimulus":"<p>Welcome!<br> Please choose your language to start the experiment in the chosen language.</p><p>Willkommen!<br> Bitte wählen Sie eine Sprache um das Experiment in der ausgewählten Sprache zu starten</p>","button_pressed":"0","trial_type":"html-button-response","trial_index":0,"time_elapsed":3567,"internal_node_id":"0.0-0.0","subject":"dzldq3v3no0348r"},{"view_history":"[{\"page_index\":0,\"viewing_time\":2456},{\"page_index\":1,\"viewing_time\":1447},{\"page_index\":2,\"viewing_time\":3124},{\"page_index\":3,\"viewing_time\":1327}]","rt":8357,"trial_type":"instructions","trial_index":1,"time_elapsed":11926,"internal_node_id":"0.0-2.0-0.0","subject":"dzldq3v3no0348r"},{"rt":938,"stimulus":"<p>Ready?</p>","button_pressed":"0","trial_type":"html-button-response","trial_index":2,"time_elapsed":12871,"internal_node_id":"0.0-3.0","subject":"dzldq3v3no0348r"},{"rt":null,"stimulus":"<div style=\"font-size:60px;\">+</div>","key_press":null,"trial_type":"html-keyboard-response","trial_index":3,"time_elapsed":14877,"internal_node_id":"0.0-4.0","subject":"dzldq3v3no0348r"},{"trial_type":"training","trial_index":4,"time_elapsed":19402,"internal_node_id":"0.0-5.0","subject":"dzldq3v3no0348r"},{"rt":2758,"stimulus":"<p>Which sequence did you perceive as more natural?</p>","button_pressed":"0","trial_type":"html-button-response","trial_index":5,"time_elapsed":22164,"internal_node_id":"0.0-6.0","subject":"dzldq3v3no0348r"},{"rt":1119,"stimulus":"<p>The experiment starts now.</p><p>Please click the button if you are ready.</p>","button_pressed":"0","trial_type":"html-button-response","trial_index":6,"time_elapsed":23287,"internal_node_id":"0.0-7.0","subject":"dzldq3v3no0348r"},{"rt":845,"stimulus":"<p>Ready?</p>","button_pressed":"0","trial_type":"html-button-response","trial_index":7,"time_elapsed":24136,"internal_node_id":"0.0-8.0-0.0","subject":"dzldq3v3no0348r"},{"rt":null,"stimulus":"<div style=\"font-size:60px;\">+</div>","key_press":null,"trial_type":"html-keyboard-response","trial_index":8,"time_elapsed":26142,"internal_node_id":"0.0-8.0-1.0","subject":"dzldq3v3no0348r"},{"trial_type":"turing-test","trial_index":9,"time_elapsed":30500,"internal_node_id":"0.0-8.0-2.0","subject":"dzldq3v3no0348r"},{"rt":1974,"stimulus":"<p>Which sequence did you perceive as more natural?</p>","button_pressed":"0","test_part":"response","test_stimulus":{"position":1,"left":"bvh/vr_prediction_models/model(dmp)-dataset(pass-bottle-hold)-npsi(60)-hold(2)/final-lines.txt","right":"bvh/pass-bottle-hold-training2-lines.txt","att_check":true},"trial_type":"html-button-response","trial_index":10,"time_elapsed":32478,"internal_node_id":"0.0-8.0-3.0","subject":"dzldq3v3no0348r"},{"rt":869,"stimulus":"<p>Ready?</p>","button_pressed":"0","trial_type":"html-button-response","trial_index":11,"time_elapsed":33352,"internal_node_id":"0.0-8.0-0.1","subject":"dzldq3v3no0348r"},{"rt":null,"stimulus":"<div style=\"font-size:60px;\">+</div>","key_press":null,"trial_type":"html-keyboard-response","trial_index":12,"time_elapsed":35356,"internal_node_id":"0.0-8.0-1.1","subject":"dzldq3v3no0348r"},{"trial_type":"turing-test","trial_index":13,"time_elapsed":39772,"internal_node_id":"0.0-8.0-2.1","subject":"dzldq3v3no0348r"},{"rt":2129,"stimulus":"<p>Which sequence did you perceive as more natural?</p>","button_pressed":"1","test_part":"response","test_stimulus":{"position":1,"left":"bvh/vr_prediction_models/model(dmp)-dataset(return-bottle)-npsi(90)-hold(3)/final-lines.txt","right":"bvh/return-bottle-training3-lines.txt","att_check":true},"trial_type":"html-button-response","trial_index":14,"time_elapsed":41903,"internal_node_id":"0.0-8.0-3.1","subject":"dzldq3v3no0348r"},{"rt":1157,"stimulus":"<p>Ready?</p>","button_pressed":"0","trial_type":"html-button-response","trial_index":15,"time_elapsed":43063,"internal_node_id":"0.0-8.0-0.2","subject":"dzldq3v3no0348r"},{"rt":null,"stimulus":"<div style=\"font-size:60px;\">+</div>","key_press":null,"trial_type":"html-keyboard-response","trial_index":16,"time_elapsed":45064,"internal_node_id":"0.0-8.0-1.2","subject":"dzldq3v3no0348r"},{"trial_type":"turing-test","trial_index":17,"time_elapsed":51379,"internal_node_id":"0.0-8.0-2.2","subject":"dzldq3v3no0348r"},{"rt":1470,"stimulus":"<p>Which sequence did you perceive as more natural?</p>","button_pressed":"1","test_part":"response","test_stimulus":{"position":1,"left":"bvh/vr_prediction_models/model(vcgpdm)-dataset(return-bottle)-mode(ELBO)-parts(1)-dyn(35)-lvm(30)-hold(3)/final-lines.txt","right":"bvh/return-bottle-training3-lines.txt","att_check":false},"trial_type":"html-button-response","trial_index":18,"time_elapsed":52852,"internal_node_id":"0.0-8.0-3.2","subject":"dzldq3v3no0348r"},{"rt":826,"stimulus":"<p>Ready?</p>","button_pressed":"0","trial_type":"html-button-response","trial_index":19,"time_elapsed":53682,"internal_node_id":"0.0-8.0-0.3","subject":"dzldq3v3no0348r"},{"rt":null,"stimulus":"<div style=\"font-size:60px;\">+</div>","key_press":null,"trial_type":"html-keyboard-response","trial_index":20,"time_elapsed":55686,"internal_node_id":"0.0-8.0-1.3","subject":"dzldq3v3no0348r"},{"trial_type":"turing-test","trial_index":21,"time_elapsed":62258,"internal_node_id":"0.0-8.0-2.3","subject":"dzldq3v3no0348r"},{"rt":9721,"stimulus":"<p>Which sequence did you perceive as more natural?</p>","button_pressed":"1","test_part":"response","test_stimulus":{"position":1,"left":"bvh/vr_prediction_models/model(vcgpdm)-dataset(pass-bottle-hold)-mode(ELBO)-parts(3)-dyn(20)-lvm(20)-hold(4)/final-lines.txt","right":"bvh/pass-bottle-hold-training4-lines.txt","att_check":false},"trial_type":"html-button-response","trial_index":22,"time_elapsed":71982,"internal_node_id":"0.0-8.0-3.3","subject":"dzldq3v3no0348r"},{"rt":684,"stimulus":"<p>Ready?</p>","button_pressed":"0","trial_type":"html-button-response","trial_index":23,"time_elapsed":72671,"internal_node_id":"0.0-8.0-0.4","subject":"dzldq3v3no0348r"},{"rt":null,"stimulus":"<div style=\"font-size:60px;\">+</div>","key_press":null,"trial_type":"html-keyboard-response","trial_index":24,"time_elapsed":74674,"internal_node_id":"0.0-8.0-1.4","subject":"dzldq3v3no0348r"},{"trial_type":"turing-test","trial_index":25,"time_elapsed":81180,"internal_node_id":"0.0-8.0-2.4","subject":"dzldq3v3no0348r"},{"rt":2329,"stimulus":"<p>Which sequence did you perceive as more natural?</p>","button_pressed":"0","test_part":"response","test_stimulus":{"position":1,"left":"bvh/vr_prediction_models/model(vcgpdm)-dataset(return-bottle-hold)-mode(ELBO)-parts(3)-dyn(30)-lvm(15)-hold(4)/final-lines.txt","right":"bvh/return-bottle-hold-training4-lines.txt","att_check":false},"trial_type":"html-button-response","trial_index":26,"time_elapsed":83510,"internal_node_id":"0.0-8.0-3.4","subject":"dzldq3v3no0348r"},{"rt":1280,"stimulus":"<p>Ready?</p>","button_pressed":"0","trial_type":"html-button-response","trial_index":27,"time_elapsed":84793,"internal_node_id":"0.0-8.0-0.5","subject":"dzldq3v3no0348r"},{"rt":null,"stimulus":"<div style=\"font-size:60px;\">+</div>","key_press":null,"trial_type":"html-keyboard-response","trial_index":28,"time_elapsed":86796,"internal_node_id":"0.0-8.0-1.5","subject":"dzldq3v3no0348r"},{"trial_type":"turing-test","trial_index":29,"time_elapsed":91499,"internal_node_id":"0.0-8.0-2.5","subject":"dzldq3v3no0348r"},{"rt":1404,"stimulus":"<p>Which sequence did you perceive as more natural?</p>","button_pressed":"1","test_part":"response","test_stimulus":{"position":1,"left":"bvh/vr_prediction_models/model(dmp)-dataset(return-bottle)-npsi(40)-hold(2)/final-lines.txt","right":"bvh/return-bottle-training2-lines.txt","att_check":false},"trial_type":"html-button-response","trial_index":30,"time_elapsed":92904,"internal_node_id":"0.0-8.0-3.5","subject":"dzldq3v3no0348r"},{"rt":925,"stimulus":"<p>Ready?</p>","button_pressed":"0","trial_type":"html-button-response","trial_index":31,"time_elapsed":93835,"internal_node_id":"0.0-8.0-0.6","subject":"dzldq3v3no0348r"},{"rt":null,"stimulus":"<div style=\"font-size:60px;\">+</div>","key_press":null,"trial_type":"html-keyboard-response","trial_index":32,"time_elapsed":95838,"internal_node_id":"0.0-8.0-1.6","subject":"dzldq3v3no0348r"},{"trial_type":"turing-test","trial_index":33,"time_elapsed":102208,"internal_node_id":"0.0-8.0-2.6","subject":"dzldq3v3no0348r"},{"rt":2188,"stimulus":"<p>Which sequence did you perceive as more natural?</p>","button_pressed":"0","test_part":"response","test_stimulus":{"position":0,"left":"bvh/return-bottle-training0-lines.txt","right":"bvh/vr_prediction_models/model(vcgpdm)-dataset(return-bottle)-mode(ELBO)-parts(3)-dyn(15)-lvm(30)-hold(0)/final-lines.txt","att_check":false},"trial_type":"html-button-response","trial_index":34,"time_elapsed":104396,"internal_node_id":"0.0-8.0-3.6","subject":"dzldq3v3no0348r"},{"rt":728,"stimulus":"<p>Ready?</p>","button_pressed":"0","trial_type":"html-button-response","trial_index":35,"time_elapsed":105127,"internal_node_id":"0.0-8.0-0.7","subject":"dzldq3v3no0348r"},{"rt":null,"stimulus":"<div style=\"font-size:60px;\">+</div>","key_press":null,"trial_type":"html-keyboard-response","trial_index":36,"time_elapsed":107129,"internal_node_id":"0.0-8.0-1.7","subject":"dzldq3v3no0348r"},{"trial_type":"turing-test","trial_index":37,"time_elapsed":113073,"internal_node_id":"0.0-8.0-2.7","subject":"dzldq3v3no0348r"},{"rt":1103,"stimulus":"<p>Which sequence did you perceive as more natural?</p>","button_pressed":"0","test_part":"response","test_stimulus":{"position":0,"left":"bvh/pass-bottle-hold-training4-lines.txt","right":"bvh/vr_prediction_models/model(vcgpdm)-dataset(pass-bottle-hold)-mode(ELBO)-parts(3)-dyn(30)-lvm(15)-hold(4)/final-lines.txt","att_check":false},"trial_type":"html-button-response","trial_index":38,"time_elapsed":114179,"internal_node_id":"0.0-8.0-3.7","subject":"dzldq3v3no0348r"},{"rt":951,"stimulus":"<p>Ready?</p>","button_pressed":"0","trial_type":"html-button-response","trial_index":39,"time_elapsed":115131,"internal_node_id":"0.0-8.0-0.8","subject":"dzldq3v3no0348r"},{"rt":null,"stimulus":"<div style=\"font-size:60px;\">+</div>","key_press":null,"trial_type":"html-keyboard-response","trial_index":40,"time_elapsed":117135,"internal_node_id":"0.0-8.0-1.8","subject":"dzldq3v3no0348r"},{"trial_type":"turing-test","trial_index":41,"time_elapsed":125471,"internal_node_id":"0.0-8.0-2.8","subject":"dzldq3v3no0348r"},{"rt":3250,"stimulus":"<p>Which sequence did you perceive as more natural?</p>","button_pressed":"0","test_part":"response","test_stimulus":{"position":1,"left":"bvh/vr_prediction_models/model(vcgpdm)-dataset(pass-bottle-hold)-mode(ELBO)-parts(3)-dyn(25)-lvm(30)-hold(0)/final-lines.txt","right":"bvh/pass-bottle-hold-training0-lines.txt","att_check":false},"trial_type":"html-button-response","trial_index":42,"time_elapsed":128723,"internal_node_id":"0.0-8.0-3.8","subject":"dzldq3v3no0348r"},{"rt":672,"stimulus":"<p>Ready?</p>","button_pressed":"0","trial_type":"html-button-response","trial_index":43,"time_elapsed":129398,"internal_node_id":"0.0-8.0-0.9","subject":"dzldq3v3no0348r"},{"rt":null,"stimulus":"<div style=\"font-size:60px;\">+</div>","key_press":null,"trial_type":"html-keyboard-response","trial_index":44,"time_elapsed":131402,"internal_node_id":"0.0-8.0-1.9","subject":"dzldq3v3no0348r"},{"trial_type":"turing-test","trial_index":45,"time_elapsed":136290,"internal_node_id":"0.0-8.0-2.9","subject":"dzldq3v3no0348r"},{"rt":1084,"stimulus":"<p>Which sequence did you perceive as more natural?</p>","button_pressed":"1","test_part":"response","test_stimulus":{"position":0,"left":"bvh/pass-bottle-hold-training4-lines.txt","right":"bvh/vr_prediction_models/model(tmp)-dataset(pass-bottle-hold)-numprim(14)-hold(4)/final-lines.txt","att_check":false},"trial_type":"html-button-response","trial_index":46,"time_elapsed":137376,"internal_node_id":"0.0-8.0-3.9","subject":"dzldq3v3no0348r"},{"rt":719,"stimulus":"<p>Ready?</p>","button_pressed":"0","trial_type":"html-button-response","trial_index":47,"time_elapsed":138097,"internal_node_id":"0.0-8.0-0.10","subject":"dzldq3v3no0348r"},{"rt":null,"stimulus":"<div style=\"font-size:60px;\">+</div>","key_press":null,"trial_type":"html-keyboard-response","trial_index":48,"time_elapsed":140100,"internal_node_id":"0.0-8.0-1.10","subject":"dzldq3v3no0348r"},{"trial_type":"turing-test","trial_index":49,"time_elapsed":144549,"internal_node_id":"0.0-8.0-2.10","subject":"dzldq3v3no0348r"},{"rt":849,"stimulus":"<p>Which sequence did you perceive as more natural?</p>","button_pressed":"0","test_part":"response","test_stimulus":{"position":0,"left":"bvh/pass-bottle-hold-training4-lines.txt","right":"bvh/vr_prediction_models/model(dmp)-dataset(pass-bottle-hold)-npsi(100)-hold(4)/final-lines.txt","att_check":false},"trial_type":"html-button-response","trial_index":50,"time_elapsed":145399,"internal_node_id":"0.0-8.0-3.10","subject":"dzldq3v3no0348r"},{"rt":810,"stimulus":"<p>Ready?</p>","button_pressed":"0","trial_type":"html-button-response","trial_index":51,"time_elapsed":146213,"internal_node_id":"0.0-8.0-0.11","subject":"dzldq3v3no0348r"},{"rt":null,"stimulus":"<div style=\"font-size:60px;\">+</div>","key_press":null,"trial_type":"html-keyboard-response","trial_index":52,"time_elapsed":148215,"internal_node_id":"0.0-8.0-1.11","subject":"dzldq3v3no0348r"},{"trial_type":"turing-test","trial_index":53,"time_elapsed":155092,"internal_node_id":"0.0-8.0-2.11","subject":"dzldq3v3no0348r"},{"rt":4181,"stimulus":"<p>Which sequence did you perceive as more natural?</p>","button_pressed":"1","test_part":"response","test_stimulus":{"position":1,"left":"bvh/vr_prediction_models/model(vcgpdm)-dataset(pass-bottle-hold)-mode(ELBO)-parts(1)-dyn(35)-lvm(30)-hold(4)/final-lines.txt","right":"bvh/pass-bottle-hold-training4-lines.txt","att_check":false},"trial_type":"html-button-response","trial_index":54,"time_elapsed":159277,"internal_node_id":"0.0-8.0-3.11","subject":"dzldq3v3no0348r"},{"rt":796,"stimulus":"<p>Ready?</p>","button_pressed":"0","trial_type":"html-button-response","trial_index":55,"time_elapsed":160079,"internal_node_id":"0.0-8.0-0.12","subject":"dzldq3v3no0348r"},{"rt":null,"stimulus":"<div style=\"font-size:60px;\">+</div>","key_press":null,"trial_type":"html-keyboard-response","trial_index":56,"time_elapsed":162081,"internal_node_id":"0.0-8.0-1.12","subject":"dzldq3v3no0348r"},{"trial_type":"turing-test","trial_index":57,"time_elapsed":167053,"internal_node_id":"0.0-8.0-2.12","subject":"dzldq3v3no0348r"},{"rt":1204,"stimulus":"<p>Which sequence did you perceive as more natural?</p>","button_pressed":"0","test_part":"response","test_stimulus":{"position":0,"left":"bvh/return-bottle-hold-training0-lines.txt","right":"bvh/vr_prediction_models/model(dmp)-dataset(return-bottle-hold)-npsi(100)-hold(0)/final-lines.txt","att_check":false},"trial_type":"html-button-response","trial_index":58,"time_elapsed":168259,"internal_node_id":"0.0-8.0-3.12","subject":"dzldq3v3no0348r"},{"rt":787,"stimulus":"<p>Ready?</p>","button_pressed":"0","trial_type":"html-button-response","trial_index":59,"time_elapsed":169049,"internal_node_id":"0.0-8.0-0.13","subject":"dzldq3v3no0348r"},{"rt":null,"stimulus":"<div style=\"font-size:60px;\">+</div>","key_press":null,"trial_type":"html-keyboard-response","trial_index":60,"time_elapsed":171051,"internal_node_id":"0.0-8.0-1.13","subject":"dzldq3v3no0348r"},{"trial_type":"turing-test","trial_index":61,"time_elapsed":175718,"internal_node_id":"0.0-8.0-2.13","subject":"dzldq3v3no0348r"},{"rt":1999,"stimulus":"<p>Which sequence did you perceive as more natural?</p>","button_pressed":"0","test_part":"response","test_stimulus":{"position":1,"left":"bvh/vr_prediction_models/model(dmp)-dataset(return-bottle-hold)-npsi(100)-hold(3)/final-lines.txt","right":"bvh/return-bottle-hold-training3-lines.txt","att_check":false},"trial_type":"html-button-response","trial_index":62,"time_elapsed":177722,"internal_node_id":"0.0-8.0-3.13","subject":"dzldq3v3no0348r"},{"rt":798,"stimulus":"<p>Ready?</p>","button_pressed":"0","trial_type":"html-button-response","trial_index":63,"time_elapsed":178523,"internal_node_id":"0.0-8.0-0.14","subject":"dzldq3v3no0348r"},{"rt":null,"stimulus":"<div style=\"font-size:60px;\">+</div>","key_press":null,"trial_type":"html-keyboard-response","trial_index":64,"time_elapsed":180526,"internal_node_id":"0.0-8.0-1.14","subject":"dzldq3v3no0348r"},{"trial_type":"turing-test","trial_index":65,"time_elapsed":185051,"internal_node_id":"0.0-8.0-2.14","subject":"dzldq3v3no0348r"},{"rt":1358,"stimulus":"<p>Which sequence did you perceive as more natural?</p>","button_pressed":"0","test_part":"response","test_stimulus":{"position":0,"left":"bvh/pass-bottle-training3-lines.txt","right":"bvh/vr_prediction_models/model(dmp)-dataset(pass-bottle)-npsi(10)-hold(3)/final-lines.txt","att_check":false},"trial_type":"html-button-response","trial_index":66,"time_elapsed":186412,"internal_node_id":"0.0-8.0-3.14","subject":"dzldq3v3no0348r"},{"rt":700,"stimulus":"<p>Ready?</p>","button_pressed":"0","trial_type":"html-button-response","trial_index":67,"time_elapsed":187116,"internal_node_id":"0.0-8.0-0.15","subject":"dzldq3v3no0348r"},{"rt":null,"stimulus":"<div style=\"font-size:60px;\">+</div>","key_press":null,"trial_type":"html-keyboard-response","trial_index":68,"time_elapsed":189118,"internal_node_id":"0.0-8.0-1.15","subject":"dzldq3v3no0348r"},{"trial_type":"turing-test","trial_index":69,"time_elapsed":193393,"internal_node_id":"0.0-8.0-2.15","subject":"dzldq3v3no0348r"},{"rt":2730,"stimulus":"<p>Which sequence did you perceive as more natural?</p>","button_pressed":"0","test_part":"response","test_stimulus":{"position":0,"left":"bvh/pass-bottle-training3-lines.txt","right":"bvh/vr_prediction_models/model(tmp)-dataset(pass-bottle)-numprim(9)-hold(3)/final-lines.txt","att_check":false},"trial_type":"html-button-response","trial_index":70,"time_elapsed":196124,"internal_node_id":"0.0-8.0-3.15","subject":"dzldq3v3no0348r"},{"rt":910,"stimulus":"<p>Ready?</p>","button_pressed":"0","trial_type":"html-button-response","trial_index":71,"time_elapsed":197038,"internal_node_id":"0.0-8.0-0.16","subject":"dzldq3v3no0348r"},{"rt":null,"stimulus":"<div style=\"font-size:60px;\">+</div>","key_press":null,"trial_type":"html-keyboard-response","trial_index":72,"time_elapsed":199041,"internal_node_id":"0.0-8.0-1.16","subject":"dzldq3v3no0348r"},{"trial_type":"turing-test","trial_index":73,"time_elapsed":205420,"internal_node_id":"0.0-8.0-2.16","subject":"dzldq3v3no0348r"},{"rt":1386,"stimulus":"<p>Which sequence did you perceive as more natural?</p>","button_pressed":"0","test_part":"response","test_stimulus":{"position":1,"left":"bvh/vr_prediction_models/model(vcgpdm)-dataset(pass-bottle)-mode(ELBO)-parts(1)-dyn(20)-lvm(5)-hold(0)/final-lines.txt","right":"bvh/pass-bottle-training0-lines.txt","att_check":false},"trial_type":"html-button-response","trial_index":74,"time_elapsed":206807,"internal_node_id":"0.0-8.0-3.16","subject":"dzldq3v3no0348r"},{"rt":766,"stimulus":"<p>Ready?</p>","button_pressed":"0","trial_type":"html-button-response","trial_index":75,"time_elapsed":207578,"internal_node_id":"0.0-8.0-0.17","subject":"dzldq3v3no0348r"},{"rt":null,"stimulus":"<div style=\"font-size:60px;\">+</div>","key_press":null,"trial_type":"html-keyboard-response","trial_index":76,"time_elapsed":209580,"internal_node_id":"0.0-8.0-1.17","subject":"dzldq3v3no0348r"},{"trial_type":"turing-test","trial_index":77,"time_elapsed":214057,"internal_node_id":"0.0-8.0-2.17","subject":"dzldq3v3no0348r"},{"rt":1671,"stimulus":"<p>Which sequence did you perceive as more natural?</p>","button_pressed":"1","test_part":"response","test_stimulus":{"position":1,"left":"bvh/vr_prediction_models/model(tmp)-dataset(return-bottle-hold)-numprim(14)-hold(4)/final-lines.txt","right":"bvh/return-bottle-hold-training4-lines.txt","att_check":false},"trial_type":"html-button-response","trial_index":78,"time_elapsed":215732,"internal_node_id":"0.0-8.0-3.17","subject":"dzldq3v3no0348r"},{"rt":687,"stimulus":"<p>Ready?</p>","button_pressed":"0","trial_type":"html-button-response","trial_index":79,"time_elapsed":216424,"internal_node_id":"0.0-8.0-0.18","subject":"dzldq3v3no0348r"},{"rt":null,"stimulus":"<div style=\"font-size:60px;\">+</div>","key_press":null,"trial_type":"html-keyboard-response","trial_index":80,"time_elapsed":218426,"internal_node_id":"0.0-8.0-1.18","subject":"dzldq3v3no0348r"},{"trial_type":"turing-test","trial_index":81,"time_elapsed":222917,"internal_node_id":"0.0-8.0-2.18","subject":"dzldq3v3no0348r"},{"rt":1338,"stimulus":"<p>Which sequence did you perceive as more natural?</p>","button_pressed":"0","test_part":"response","test_stimulus":{"position":0,"left":"bvh/pass-bottle-training2-lines.txt","right":"bvh/vr_prediction_models/model(tmp)-dataset(pass-bottle)-numprim(6)-hold(2)/final-lines.txt","att_check":false},"trial_type":"html-button-response","trial_index":82,"time_elapsed":224257,"internal_node_id":"0.0-8.0-3.18","subject":"dzldq3v3no0348r"},{"rt":757,"stimulus":"<p>Ready?</p>","button_pressed":"0","trial_type":"html-button-response","trial_index":83,"time_elapsed":225019,"internal_node_id":"0.0-8.0-0.19","subject":"dzldq3v3no0348r"},{"rt":null,"stimulus":"<div style=\"font-size:60px;\">+</div>","key_press":null,"trial_type":"html-keyboard-response","trial_index":84,"time_elapsed":227023,"internal_node_id":"0.0-8.0-1.19","subject":"dzldq3v3no0348r"},{"trial_type":"turing-test","trial_index":85,"time_elapsed":233667,"internal_node_id":"0.0-8.0-2.19","subject":"dzldq3v3no0348r"},{"rt":3580,"stimulus":"<p>Which sequence did you perceive as more natural?</p>","button_pressed":"0","test_part":"response","test_stimulus":{"position":0,"left":"bvh/return-bottle-hold-training3-lines.txt","right":"bvh/vr_prediction_models/model(vcgpdm)-dataset(return-bottle-hold)-mode(ELBO)-parts(3)-dyn(20)-lvm(15)-hold(3)/final-lines.txt","att_check":false},"trial_type":"html-button-response","trial_index":86,"time_elapsed":237250,"internal_node_id":"0.0-8.0-3.19","subject":"dzldq3v3no0348r"},{"rt":915,"stimulus":"<p>Ready?</p>","button_pressed":"0","trial_type":"html-button-response","trial_index":87,"time_elapsed":238168,"internal_node_id":"0.0-8.0-0.20","subject":"dzldq3v3no0348r"},{"rt":null,"stimulus":"<div style=\"font-size:60px;\">+</div>","key_press":null,"trial_type":"html-keyboard-response","trial_index":88,"time_elapsed":240170,"internal_node_id":"0.0-8.0-1.20","subject":"dzldq3v3no0348r"},{"trial_type":"turing-test","trial_index":89,"time_elapsed":244655,"internal_node_id":"0.0-8.0-2.20","subject":"dzldq3v3no0348r"},{"rt":3015,"stimulus":"<p>Which sequence did you perceive as more natural?</p>","button_pressed":"0","test_part":"response","test_stimulus":{"position":0,"left":"bvh/pass-bottle-training1-lines.txt","right":"bvh/vr_prediction_models/model(dmp)-dataset(pass-bottle)-npsi(90)-hold(1)/final-lines.txt","att_check":false},"trial_type":"html-button-response","trial_index":90,"time_elapsed":247673,"internal_node_id":"0.0-8.0-3.20","subject":"dzldq3v3no0348r"},{"rt":732,"stimulus":"<p>Ready?</p>","button_pressed":"0","trial_type":"html-button-response","trial_index":91,"time_elapsed":248409,"internal_node_id":"0.0-8.0-0.21","subject":"dzldq3v3no0348r"},{"rt":null,"stimulus":"<div style=\"font-size:60px;\">+</div>","key_press":null,"trial_type":"html-keyboard-response","trial_index":92,"time_elapsed":250411,"internal_node_id":"0.0-8.0-1.21","subject":"dzldq3v3no0348r"},{"trial_type":"turing-test","trial_index":93,"time_elapsed":257113,"internal_node_id":"0.0-8.0-2.21","subject":"dzldq3v3no0348r"},{"rt":1337,"stimulus":"<p>Which sequence did you perceive as more natural?</p>","button_pressed":"1","test_part":"response","test_stimulus":{"position":1,"left":"bvh/vr_prediction_models/model(vcgpdm)-dataset(return-bottle-hold)-mode(ELBO)-parts(1)-dyn(10)-lvm(25)-hold(1)/final-lines.txt","right":"bvh/return-bottle-hold-training1-lines.txt","att_check":false},"trial_type":"html-button-response","trial_index":94,"time_elapsed":258452,"internal_node_id":"0.0-8.0-3.21","subject":"dzldq3v3no0348r"},{"rt":750,"stimulus":"<p>Ready?</p>","button_pressed":"0","trial_type":"html-button-response","trial_index":95,"time_elapsed":259205,"internal_node_id":"0.0-8.0-0.22","subject":"dzldq3v3no0348r"},{"rt":null,"stimulus":"<div style=\"font-size:60px;\">+</div>","key_press":null,"trial_type":"html-keyboard-response","trial_index":96,"time_elapsed":261208,"internal_node_id":"0.0-8.0-1.22","subject":"dzldq3v3no0348r"},{"trial_type":"turing-test","trial_index":97,"time_elapsed":265629,"internal_node_id":"0.0-8.0-2.22","subject":"dzldq3v3no0348r"},{"rt":799,"stimulus":"<p>Which sequence did you perceive as more natural?</p>","button_pressed":"0","test_part":"response","test_stimulus":{"position":0,"left":"bvh/return-bottle-hold-training0-lines.txt","right":"bvh/vr_prediction_models/model(dmp)-dataset(return-bottle-hold)-npsi(70)-hold(0)/final-lines.txt","att_check":true},"trial_type":"html-button-response","trial_index":98,"time_elapsed":266430,"internal_node_id":"0.0-8.0-3.22","subject":"dzldq3v3no0348r"},{"rt":828,"stimulus":"<p>Ready?</p>","button_pressed":"0","trial_type":"html-button-response","trial_index":99,"time_elapsed":267264,"internal_node_id":"0.0-8.0-0.23","subject":"dzldq3v3no0348r"},{"rt":null,"stimulus":"<div style=\"font-size:60px;\">+</div>","key_press":null,"trial_type":"html-keyboard-response","trial_index":100,"time_elapsed":269267,"internal_node_id":"0.0-8.0-1.23","subject":"dzldq3v3no0348r"},{"trial_type":"turing-test","trial_index":101,"time_elapsed":276106,"internal_node_id":"0.0-8.0-2.23","subject":"dzldq3v3no0348r"},{"rt":2605,"stimulus":"<p>Which sequence did you perceive as more natural?</p>","button_pressed":"0","test_part":"response","test_stimulus":{"position":0,"left":"bvh/return-bottle-hold-training4-lines.txt","right":"bvh/vr_prediction_models/model(vcgpdm)-dataset(return-bottle-hold)-mode(ELBO)-parts(3)-dyn(10)-lvm(30)-hold(4)/final-lines.txt","att_check":false},"trial_type":"html-button-response","trial_index":102,"time_elapsed":278713,"internal_node_id":"0.0-8.0-3.23","subject":"dzldq3v3no0348r"},{"rt":642,"stimulus":"<p>Ready?</p>","button_pressed":"0","trial_type":"html-button-response","trial_index":103,"time_elapsed":279361,"internal_node_id":"0.0-8.0-0.24","subject":"dzldq3v3no0348r"},{"rt":null,"stimulus":"<div style=\"font-size:60px;\">+</div>","key_press":null,"trial_type":"html-keyboard-response","trial_index":104,"time_elapsed":281363,"internal_node_id":"0.0-8.0-1.24","subject":"dzldq3v3no0348r"},{"trial_type":"turing-test","trial_index":105,"time_elapsed":287923,"internal_node_id":"0.0-8.0-2.24","subject":"dzldq3v3no0348r"},{"rt":1366,"stimulus":"<p>Which sequence did you perceive as more natural?</p>","button_pressed":"1","test_part":"response","test_stimulus":{"position":1,"left":"bvh/vr_prediction_models/model(vcgpdm)-dataset(pass-bottle-hold)-mode(ELBO)-parts(3)-dyn(25)-lvm(30)-hold(2)/final-lines.txt","right":"bvh/pass-bottle-hold-training2-lines.txt","att_check":false},"trial_type":"html-button-response","trial_index":106,"time_elapsed":289292,"internal_node_id":"0.0-8.0-3.24","subject":"dzldq3v3no0348r"},{"rt":676,"stimulus":"<p>Ready?</p>","button_pressed":"0","trial_type":"html-button-response","trial_index":107,"time_elapsed":289972,"internal_node_id":"0.0-8.0-0.25","subject":"dzldq3v3no0348r"},{"rt":null,"stimulus":"<div style=\"font-size:60px;\">+</div>","key_press":null,"trial_type":"html-keyboard-response","trial_index":108,"time_elapsed":291974,"internal_node_id":"0.0-8.0-1.25","subject":"dzldq3v3no0348r"},{"trial_type":"turing-test","trial_index":109,"time_elapsed":297731,"internal_node_id":"0.0-8.0-2.25","subject":"dzldq3v3no0348r"},{"rt":1130,"stimulus":"<p>Which sequence did you perceive as more natural?</p>","button_pressed":"0","test_part":"response","test_stimulus":{"position":0,"left":"bvh/pass-bottle-hold-training4-lines.txt","right":"bvh/vr_prediction_models/model(vcgpdm)-dataset(pass-bottle-hold)-mode(MAP)-parts(3)-hold(4)/final-lines.txt","att_check":false},"trial_type":"html-button-response","trial_index":110,"time_elapsed":298864,"internal_node_id":"0.0-8.0-3.25","subject":"dzldq3v3no0348r"},{"rt":862,"stimulus":"<p>Ready?</p>","button_pressed":"0","trial_type":"html-button-response","trial_index":111,"time_elapsed":299732,"internal_node_id":"0.0-8.0-0.26","subject":"dzldq3v3no0348r"},{"rt":null,"stimulus":"<div style=\"font-size:60px;\">+</div>","key_press":null,"trial_type":"html-keyboard-response","trial_index":112,"time_elapsed":301734,"internal_node_id":"0.0-8.0-1.26","subject":"dzldq3v3no0348r"},{"trial_type":"turing-test","trial_index":113,"time_elapsed":306305,"internal_node_id":"0.0-8.0-2.26","subject":"dzldq3v3no0348r"},{"rt":1112,"stimulus":"<p>Which sequence did you perceive as more natural?</p>","button_pressed":"1","test_part":"response","test_stimulus":{"position":1,"left":"bvh/vr_prediction_models/model(dmp)-dataset(return-bottle)-npsi(70)-hold(2)/final-lines.txt","right":"bvh/return-bottle-training2-lines.txt","att_check":false},"trial_type":"html-button-response","trial_index":114,"time_elapsed":307420,"internal_node_id":"0.0-8.0-3.26","subject":"dzldq3v3no0348r"},{"rt":698,"stimulus":"<p>Ready?</p>","button_pressed":"0","trial_type":"html-button-response","trial_index":115,"time_elapsed":308122,"internal_node_id":"0.0-8.0-0.27","subject":"dzldq3v3no0348r"},{"rt":null,"stimulus":"<div style=\"font-size:60px;\">+</div>","key_press":null,"trial_type":"html-keyboard-response","trial_index":116,"time_elapsed":310124,"internal_node_id":"0.0-8.0-1.27","subject":"dzldq3v3no0348r"},{"trial_type":"turing-test","trial_index":117,"time_elapsed":314617,"internal_node_id":"0.0-8.0-2.27","subject":"dzldq3v3no0348r"},{"rt":1980,"stimulus":"<p>Which sequence did you perceive as more natural?</p>","button_pressed":"1","test_part":"response","test_stimulus":{"position":1,"left":"bvh/vr_prediction_models/model(tmp)-dataset(pass-bottle)-numprim(6)-hold(4)/final-lines.txt","right":"bvh/pass-bottle-training4-lines.txt","att_check":false},"trial_type":"html-button-response","trial_index":118,"time_elapsed":316599,"internal_node_id":"0.0-8.0-3.27","subject":"dzldq3v3no0348r"},{"rt":750,"stimulus":"<p>Ready?</p>","button_pressed":"0","trial_type":"html-button-response","trial_index":119,"time_elapsed":317354,"internal_node_id":"0.0-8.0-0.28","subject":"dzldq3v3no0348r"},{"rt":null,"stimulus":"<div style=\"font-size:60px;\">+</div>","key_press":null,"trial_type":"html-keyboard-response","trial_index":120,"time_elapsed":319358,"internal_node_id":"0.0-8.0-1.28","subject":"dzldq3v3no0348r"},{"trial_type":"turing-test","trial_index":121,"time_elapsed":323564,"internal_node_id":"0.0-8.0-2.28","subject":"dzldq3v3no0348r"},{"rt":10263,"stimulus":"<p>Which sequence did you perceive as more natural?</p>","button_pressed":"1","test_part":"response","test_stimulus":{"position":0,"left":"bvh/pass-bottle-training3-lines.txt","right":"bvh/vr_prediction_models/model(tmp)-dataset(pass-bottle)-numprim(13)-hold(3)/final-lines.txt","att_check":false},"trial_type":"html-button-response","trial_index":122,"time_elapsed":333831,"internal_node_id":"0.0-8.0-3.28","subject":"dzldq3v3no0348r"},{"rt":1509,"stimulus":"<p>Ready?</p>","button_pressed":"0","trial_type":"html-button-response","trial_index":123,"time_elapsed":335342,"internal_node_id":"0.0-8.0-0.29","subject":"dzldq3v3no0348r"},{"rt":null,"stimulus":"<div style=\"font-size:60px;\">+</div>","key_press":null,"trial_type":"html-keyboard-response","trial_index":124,"time_elapsed":337346,"internal_node_id":"0.0-8.0-1.29","subject":"dzldq3v3no0348r"},{"trial_type":"turing-test","trial_index":125,"time_elapsed":344281,"internal_node_id":"0.0-8.0-2.29","subject":"dzldq3v3no0348r"}]