[{"rt":17511,"stimulus":"<p>Welcome!<br> Please choose your language to start the experiment in the chosen language.</p><p>Willkommen!<br> Bitte wählen Sie eine Sprache, um das Experiment in der ausgewählten Sprache zu starten</p>","button_pressed":"1","trial_type":"html-button-response","trial_index":0,"time_elapsed":17594,"internal_node_id":"0.0-0.0","subject":"6kcznqdhloo7jpb","sona":"5560"},{"view_history":"[{\"page_index\":0,\"viewing_time\":1227},{\"page_index\":1,\"viewing_time\":3431},{\"page_index\":2,\"viewing_time\":3000},{\"page_index\":3,\"viewing_time\":2784},{\"page_index\":4,\"viewing_time\":1128}]","rt":11572,"trial_type":"instructions","trial_index":1,"time_elapsed":29176,"internal_node_id":"0.0-1.0-0.0","subject":"6kcznqdhloo7jpb","sona":"5560"},{"rt":1787,"stimulus":"<p>Bereit?</p>","key_press":32,"trial_type":"html-keyboard-response","trial_index":2,"time_elapsed":30977,"internal_node_id":"0.0-3.0","subject":"6kcznqdhloo7jpb","sona":"5560"},{"rt":null,"stimulus":"<div style=\"font-size:60px;\">+</div>","key_press":null,"trial_type":"html-keyboard-response","trial_index":3,"time_elapsed":33010,"internal_node_id":"0.0-4.0","subject":"6kcznqdhloo7jpb","sona":"5560"},{"trial_type":"training","trial_index":4,"time_elapsed":36932,"internal_node_id":"0.0-5.0","subject":"6kcznqdhloo7jpb","sona":"5560"},{"rt":526,"stimulus":"<p>Welche Sequenz haben Sie als natürlicher empfunden?</p>","key_press":70,"trial_type":"html-keyboard-response","trial_index":5,"time_elapsed":37463,"internal_node_id":"0.0-6.0","subject":"6kcznqdhloo7jpb","sona":"5560"},{"rt":3122,"stimulus":"<p>Das Experiment startet nun.</p><p><small>Bitte drücken Sie den Knopf, wenn Sie bereit sind.</small></p>","button_pressed":"0","trial_type":"html-button-response","trial_index":6,"time_elapsed":40590,"internal_node_id":"0.0-7.0","subject":"6kcznqdhloo7jpb","sona":"5560"},{"rt":1136,"stimulus":"<p>Bereit?</p>","key_press":32,"trial_type":"html-keyboard-response","trial_index":7,"time_elapsed":41733,"internal_node_id":"0.0-8.0-0.0","subject":"6kcznqdhloo7jpb","sona":"5560"},{"rt":null,"stimulus":"<div style=\"font-size:60px;\">+</div>","key_press":null,"trial_type":"html-keyboard-response","trial_index":8,"time_elapsed":43768,"internal_node_id":"0.0-8.0-1.0","subject":"6kcznqdhloo7jpb","sona":"5560"},{"trial_type":"turing-test","trial_index":9,"time_elapsed":49230,"internal_node_id":"0.0-8.0-2.0","subject":"6kcznqdhloo7jpb","sona":"5560"},{"rt":3000,"stimulus":"<p>Welche Sequenz haben Sie als natürlicher empfunden?</p>","key_press":70,"test_part":"response","test_stimulus":{"position":1,"left":"bvh/vr_prediction_models/model(vcgpdm)-dataset(pass-bottle-hold)-mode(ELBO)-parts(1)-dyn(10)-lvm(5)-hold(0)/final-lines.txt","right":"bvh/pass-bottle-hold-training0-lines.txt","att_check":false},"trial_type":"html-keyboard-response","trial_index":10,"time_elapsed":52235,"internal_node_id":"0.0-8.0-3.0","subject":"6kcznqdhloo7jpb","sona":"5560"},{"rt":721,"stimulus":"<p>Bereit?</p>","key_press":32,"trial_type":"html-keyboard-response","trial_index":11,"time_elapsed":52960,"internal_node_id":"0.0-8.0-0.1","subject":"6kcznqdhloo7jpb","sona":"5560"},{"rt":null,"stimulus":"<div style=\"font-size:60px;\">+</div>","key_press":null,"trial_type":"html-keyboard-response","trial_index":12,"time_elapsed":54984,"internal_node_id":"0.0-8.0-1.1","subject":"6kcznqdhloo7jpb","sona":"5560"},{"trial_type":"turing-test","trial_index":13,"time_elapsed":62042,"internal_node_id":"0.0-8.0-2.1","subject":"6kcznqdhloo7jpb","sona":"5560"},{"rt":465,"stimulus":"<p>Welche Sequenz haben Sie als natürlicher empfunden?</p>","key_press":74,"test_part":"response","test_stimulus":{"position":1,"left":"bvh/vr_prediction_models/model(vcgpdm)-dataset(pass-bottle)-mode(ELBO)-parts(1)-dyn(10)-lvm(25)-hold(4)/final-lines.txt","right":"bvh/pass-bottle-training4-lines.txt","att_check":false},"trial_type":"html-keyboard-response","trial_index":14,"time_elapsed":62514,"internal_node_id":"0.0-8.0-3.1","subject":"6kcznqdhloo7jpb","sona":"5560"},{"rt":357,"stimulus":"<p>Bereit?</p>","key_press":32,"trial_type":"html-keyboard-response","trial_index":15,"time_elapsed":62878,"internal_node_id":"0.0-8.0-0.2","subject":"6kcznqdhloo7jpb","sona":"5560"},{"rt":null,"stimulus":"<div style=\"font-size:60px;\">+</div>","key_press":null,"trial_type":"html-keyboard-response","trial_index":16,"time_elapsed":64912,"internal_node_id":"0.0-8.0-1.2","subject":"6kcznqdhloo7jpb","sona":"5560"},{"trial_type":"turing-test","trial_index":17,"time_elapsed":69268,"internal_node_id":"0.0-8.0-2.2","subject":"6kcznqdhloo7jpb","sona":"5560"},{"rt":1704,"stimulus":"<p>Welche Sequenz haben Sie als natürlicher empfunden?</p>","key_press":74,"test_part":"response","test_stimulus":{"position":1,"left":"bvh/vr_prediction_models/model(vcgpdm)-dataset(pass-bottle-hold)-mode(ELBO)-parts(1)-dyn(25)-lvm(35)-hold(3)/final-lines.txt","right":"bvh/pass-bottle-hold-training3-lines.txt","att_check":false},"trial_type":"html-keyboard-response","trial_index":18,"time_elapsed":70980,"internal_node_id":"0.0-8.0-3.2","subject":"6kcznqdhloo7jpb","sona":"5560"},{"rt":723,"stimulus":"<p>Bereit?</p>","key_press":32,"trial_type":"html-keyboard-response","trial_index":19,"time_elapsed":71708,"internal_node_id":"0.0-8.0-0.3","subject":"6kcznqdhloo7jpb","sona":"5560"},{"rt":null,"stimulus":"<div style=\"font-size:60px;\">+</div>","key_press":null,"trial_type":"html-keyboard-response","trial_index":20,"time_elapsed":73744,"internal_node_id":"0.0-8.0-1.3","subject":"6kcznqdhloo7jpb","sona":"5560"},{"trial_type":"turing-test","trial_index":21,"time_elapsed":78176,"internal_node_id":"0.0-8.0-2.3","subject":"6kcznqdhloo7jpb","sona":"5560"},{"rt":935,"stimulus":"<p>Welche Sequenz haben Sie als natürlicher empfunden?</p>","key_press":70,"test_part":"response","test_stimulus":{"position":0,"left":"bvh/return-bottle-hold-training4-lines.txt","right":"bvh/vr_prediction_models/model(vcgpdm)-dataset(return-bottle-hold)-mode(ELBO)-parts(1)-dyn(30)-lvm(20)-hold(4)/final-lines.txt","att_check":false},"trial_type":"html-keyboard-response","trial_index":22,"time_elapsed":79155,"internal_node_id":"0.0-8.0-3.3","subject":"6kcznqdhloo7jpb","sona":"5560"},{"rt":374,"stimulus":"<p>Bereit?</p>","key_press":32,"trial_type":"html-keyboard-response","trial_index":23,"time_elapsed":79533,"internal_node_id":"0.0-8.0-0.4","subject":"6kcznqdhloo7jpb","sona":"5560"},{"rt":null,"stimulus":"<div style=\"font-size:60px;\">+</div>","key_press":null,"trial_type":"html-keyboard-response","trial_index":24,"time_elapsed":81567,"internal_node_id":"0.0-8.0-1.4","subject":"6kcznqdhloo7jpb","sona":"5560"},{"trial_type":"turing-test","trial_index":25,"time_elapsed":87709,"internal_node_id":"0.0-8.0-2.4","subject":"6kcznqdhloo7jpb","sona":"5560"},{"rt":789,"stimulus":"<p>Welche Sequenz haben Sie als natürlicher empfunden?</p>","key_press":70,"test_part":"response","test_stimulus":{"position":0,"left":"bvh/return-bottle-hold-training0-lines.txt","right":"bvh/vr_prediction_models/model(vcgpdm)-dataset(return-bottle-hold)-mode(ELBO)-parts(3)-dyn(10)-lvm(30)-hold(0)/final-lines.txt","att_check":false},"trial_type":"html-keyboard-response","trial_index":26,"time_elapsed":88504,"internal_node_id":"0.0-8.0-3.4","subject":"6kcznqdhloo7jpb","sona":"5560"},{"rt":400,"stimulus":"<p>Bereit?</p>","key_press":32,"trial_type":"html-keyboard-response","trial_index":27,"time_elapsed":88909,"internal_node_id":"0.0-8.0-0.5","subject":"6kcznqdhloo7jpb","sona":"5560"},{"rt":null,"stimulus":"<div style=\"font-size:60px;\">+</div>","key_press":null,"trial_type":"html-keyboard-response","trial_index":28,"time_elapsed":90930,"internal_node_id":"0.0-8.0-1.5","subject":"6kcznqdhloo7jpb","sona":"5560"},{"trial_type":"turing-test","trial_index":29,"time_elapsed":97348,"internal_node_id":"0.0-8.0-2.5","subject":"6kcznqdhloo7jpb","sona":"5560"},{"rt":633,"stimulus":"<p>Welche Sequenz haben Sie als natürlicher empfunden?</p>","key_press":70,"test_part":"response","test_stimulus":{"position":0,"left":"bvh/pass-bottle-training4-lines.txt","right":"bvh/vr_prediction_models/model(tmp)-dataset(pass-bottle)-numprim(7)-hold(4)/final-lines.txt","att_check":false},"trial_type":"html-keyboard-response","trial_index":30,"time_elapsed":97988,"internal_node_id":"0.0-8.0-3.5","subject":"6kcznqdhloo7jpb","sona":"5560"},{"rt":256,"stimulus":"<p>Bereit?</p>","key_press":32,"trial_type":"html-keyboard-response","trial_index":31,"time_elapsed":98251,"internal_node_id":"0.0-8.0-0.6","subject":"6kcznqdhloo7jpb","sona":"5560"},{"rt":null,"stimulus":"<div style=\"font-size:60px;\">+</div>","key_press":null,"trial_type":"html-keyboard-response","trial_index":32,"time_elapsed":100306,"internal_node_id":"0.0-8.0-1.6","subject":"6kcznqdhloo7jpb","sona":"5560"},{"trial_type":"turing-test","trial_index":33,"time_elapsed":107959,"internal_node_id":"0.0-8.0-2.6","subject":"6kcznqdhloo7jpb","sona":"5560"},{"rt":495,"stimulus":"<p>Welche Sequenz haben Sie als natürlicher empfunden?</p>","key_press":70,"test_part":"response","test_stimulus":{"position":0,"left":"bvh/pass-bottle-training0-lines.txt","right":"bvh/vr_prediction_models/model(dmp)-dataset(pass-bottle)-npsi(50)-hold(0)/final-lines.txt","att_check":false},"trial_type":"html-keyboard-response","trial_index":34,"time_elapsed":108460,"internal_node_id":"0.0-8.0-3.6","subject":"6kcznqdhloo7jpb","sona":"5560"},{"rt":292,"stimulus":"<p>Bereit?</p>","key_press":32,"trial_type":"html-keyboard-response","trial_index":35,"time_elapsed":108758,"internal_node_id":"0.0-8.0-0.7","subject":"6kcznqdhloo7jpb","sona":"5560"},{"rt":null,"stimulus":"<div style=\"font-size:60px;\">+</div>","key_press":null,"trial_type":"html-keyboard-response","trial_index":36,"time_elapsed":110775,"internal_node_id":"0.0-8.0-1.7","subject":"6kcznqdhloo7jpb","sona":"5560"},{"trial_type":"turing-test","trial_index":37,"time_elapsed":117428,"internal_node_id":"0.0-8.0-2.7","subject":"6kcznqdhloo7jpb","sona":"5560"},{"rt":496,"stimulus":"<p>Welche Sequenz haben Sie als natürlicher empfunden?</p>","key_press":74,"test_part":"response","test_stimulus":{"position":0,"left":"bvh/pass-bottle-training3-lines.txt","right":"bvh/vr_prediction_models/model(tmp)-dataset(pass-bottle)-numprim(7)-hold(3)/final-lines.txt","att_check":false},"trial_type":"html-keyboard-response","trial_index":38,"time_elapsed":117929,"internal_node_id":"0.0-8.0-3.7","subject":"6kcznqdhloo7jpb","sona":"5560"},{"rt":306,"stimulus":"<p>Bereit?</p>","key_press":32,"trial_type":"html-keyboard-response","trial_index":39,"time_elapsed":118240,"internal_node_id":"0.0-8.0-0.8","subject":"6kcznqdhloo7jpb","sona":"5560"},{"rt":null,"stimulus":"<div style=\"font-size:60px;\">+</div>","key_press":null,"trial_type":"html-keyboard-response","trial_index":40,"time_elapsed":120261,"internal_node_id":"0.0-8.0-1.8","subject":"6kcznqdhloo7jpb","sona":"5560"},{"trial_type":"turing-test","trial_index":41,"time_elapsed":125518,"internal_node_id":"0.0-8.0-2.8","subject":"6kcznqdhloo7jpb","sona":"5560"},{"rt":355,"stimulus":"<p>Welche Sequenz haben Sie als natürlicher empfunden?</p>","key_press":74,"test_part":"response","test_stimulus":{"position":1,"left":"bvh/vr_prediction_models/model(vcgpdm)-dataset(pass-bottle-hold)-mode(ELBO)-parts(1)-dyn(10)-lvm(30)-hold(0)/final-lines.txt","right":"bvh/pass-bottle-hold-training0-lines.txt","att_check":false},"trial_type":"html-keyboard-response","trial_index":42,"time_elapsed":125882,"internal_node_id":"0.0-8.0-3.8","subject":"6kcznqdhloo7jpb","sona":"5560"},{"rt":224,"stimulus":"<p>Bereit?</p>","key_press":32,"trial_type":"html-keyboard-response","trial_index":43,"time_elapsed":126111,"internal_node_id":"0.0-8.0-0.9","subject":"6kcznqdhloo7jpb","sona":"5560"},{"rt":null,"stimulus":"<div style=\"font-size:60px;\">+</div>","key_press":null,"trial_type":"html-keyboard-response","trial_index":44,"time_elapsed":128128,"internal_node_id":"0.0-8.0-1.9","subject":"6kcznqdhloo7jpb","sona":"5560"},{"trial_type":"turing-test","trial_index":45,"time_elapsed":134469,"internal_node_id":"0.0-8.0-2.9","subject":"6kcznqdhloo7jpb","sona":"5560"},{"rt":337,"stimulus":"<p>Welche Sequenz haben Sie als natürlicher empfunden?</p>","key_press":74,"test_part":"response","test_stimulus":{"position":1,"left":"bvh/vr_prediction_models/model(dmp)-dataset(pass-bottle)-npsi(30)-hold(3)/final-lines.txt","right":"bvh/pass-bottle-training3-lines.txt","att_check":false},"trial_type":"html-keyboard-response","trial_index":46,"time_elapsed":134819,"internal_node_id":"0.0-8.0-3.9","subject":"6kcznqdhloo7jpb","sona":"5560"},{"rt":124,"stimulus":"<p>Bereit?</p>","key_press":32,"trial_type":"html-keyboard-response","trial_index":47,"time_elapsed":134949,"internal_node_id":"0.0-8.0-0.10","subject":"6kcznqdhloo7jpb","sona":"5560"},{"rt":null,"stimulus":"<div style=\"font-size:60px;\">+</div>","key_press":null,"trial_type":"html-keyboard-response","trial_index":48,"time_elapsed":136977,"internal_node_id":"0.0-8.0-1.10","subject":"6kcznqdhloo7jpb","sona":"5560"},{"trial_type":"turing-test","trial_index":49,"time_elapsed":141051,"internal_node_id":"0.0-8.0-2.10","subject":"6kcznqdhloo7jpb","sona":"5560"},{"rt":4466,"stimulus":"<p>Welche Sequenz haben Sie als natürlicher empfunden?</p>","key_press":74,"test_part":"response","test_stimulus":{"position":0,"left":"bvh/pass-bottle-hold-training1-lines.txt","right":"bvh/vr_prediction_models/model(dmp)-dataset(pass-bottle-hold)-npsi(100)-hold(1)/final-lines.txt","att_check":false},"trial_type":"html-keyboard-response","trial_index":50,"time_elapsed":145526,"internal_node_id":"0.0-8.0-3.10","subject":"6kcznqdhloo7jpb","sona":"5560"},{"rt":206,"stimulus":"<p>Bereit?</p>","key_press":32,"trial_type":"html-keyboard-response","trial_index":51,"time_elapsed":145736,"internal_node_id":"0.0-8.0-0.11","subject":"6kcznqdhloo7jpb","sona":"5560"},{"rt":null,"stimulus":"<div style=\"font-size:60px;\">+</div>","key_press":null,"trial_type":"html-keyboard-response","trial_index":52,"time_elapsed":147767,"internal_node_id":"0.0-8.0-1.11","subject":"6kcznqdhloo7jpb","sona":"5560"},{"trial_type":"turing-test","trial_index":53,"time_elapsed":156311,"internal_node_id":"0.0-8.0-2.11","subject":"6kcznqdhloo7jpb","sona":"5560"}]