[{"rt":1962.2950004413724,"stimulus":"<p>Welcome!<br> Please choose your language to start the experiment in the chosen language.</p><p>Willkommen!<br> Bitte wählen Sie eine Sprache, um das Experiment in der ausgewählten Sprache zu starten</p>","button_pressed":"1","trial_type":"html-button-response","trial_index":0,"time_elapsed":2005,"internal_node_id":"0.0-0.0","subject":"mx0hrx4megadoop","sona":"7723"},{"view_history":"[{\"page_index\":0,\"viewing_time\":6909.345000050962},{\"page_index\":1,\"viewing_time\":2523.680000565946},{\"page_index\":2,\"viewing_time\":5687.88499943912},{\"page_index\":3,\"viewing_time\":5212.430000305176},{\"page_index\":4,\"viewing_time\":2855.5650003254414}]","rt":23189.78000059724,"trial_type":"instructions","trial_index":1,"time_elapsed":25196,"internal_node_id":"0.0-1.0-0.0","subject":"mx0hrx4megadoop","sona":"7723"},{"rt":2184.690000489354,"stimulus":"<p>Bereit?</p>","key_press":32,"trial_type":"html-keyboard-response","trial_index":2,"time_elapsed":27382,"internal_node_id":"0.0-3.0","subject":"mx0hrx4megadoop","sona":"7723"},{"rt":null,"stimulus":"<div style=\"font-size:60px;\">+</div>","key_press":null,"trial_type":"html-keyboard-response","trial_index":3,"time_elapsed":29413,"internal_node_id":"0.0-4.0","subject":"mx0hrx4megadoop","sona":"7723"},{"trial_type":"training","trial_index":4,"time_elapsed":32813,"internal_node_id":"0.0-5.0","subject":"mx0hrx4megadoop","sona":"7723"},{"rt":1588.539999909699,"stimulus":"<p>Welche Sequenz haben Sie als natürlicher empfunden?</p>","key_press":70,"trial_type":"html-keyboard-response","trial_index":5,"time_elapsed":34403,"internal_node_id":"0.0-6.0","subject":"mx0hrx4megadoop","sona":"7723"},{"rt":3627.3799994960427,"stimulus":"<p>Das Experiment startet nun.</p><p><small>Bitte drücken Sie den Knopf, wenn Sie bereit sind.</small></p>","button_pressed":"0","trial_type":"html-button-response","trial_index":6,"time_elapsed":38031,"internal_node_id":"0.0-7.0","subject":"mx0hrx4megadoop","sona":"7723"},{"rt":1473.0249997228384,"stimulus":"<p>Bereit?</p>","key_press":32,"trial_type":"html-keyboard-response","trial_index":7,"time_elapsed":39505,"internal_node_id":"0.0-8.0-0.0","subject":"mx0hrx4megadoop","sona":"7723"},{"rt":null,"stimulus":"<div style=\"font-size:60px;\">+</div>","key_press":null,"trial_type":"html-keyboard-response","trial_index":8,"time_elapsed":41517,"internal_node_id":"0.0-8.0-1.0","subject":"mx0hrx4megadoop","sona":"7723"},{"trial_type":"turing-test","trial_index":9,"time_elapsed":47250,"internal_node_id":"0.0-8.0-2.0","subject":"mx0hrx4megadoop","sona":"7723"},{"rt":446.93499989807606,"stimulus":"<p>Welche Sequenz haben Sie als natürlicher empfunden?</p>","key_press":70,"test_part":"response","test_stimulus":{"position":0,"left":"bvh/pass-bottle-training4-lines.txt","right":"bvh/vr_prediction_models/model(dmp)-dataset(pass-bottle)-npsi(40)-hold(4)/final-lines.txt","att_check":true},"trial_type":"html-keyboard-response","trial_index":10,"time_elapsed":47700,"internal_node_id":"0.0-8.0-3.0","subject":"mx0hrx4megadoop","sona":"7723"},{"rt":777.8300000354648,"stimulus":"<p>Bereit?</p>","key_press":32,"trial_type":"html-keyboard-response","trial_index":11,"time_elapsed":48480,"internal_node_id":"0.0-8.0-0.1","subject":"mx0hrx4megadoop","sona":"7723"},{"rt":null,"stimulus":"<div style=\"font-size:60px;\">+</div>","key_press":null,"trial_type":"html-keyboard-response","trial_index":12,"time_elapsed":50491,"internal_node_id":"0.0-8.0-1.1","subject":"mx0hrx4megadoop","sona":"7723"},{"trial_type":"turing-test","trial_index":13,"time_elapsed":56217,"internal_node_id":"0.0-8.0-2.1","subject":"mx0hrx4megadoop","sona":"7723"},{"rt":575.2750001847744,"stimulus":"<p>Welche Sequenz haben Sie als natürlicher empfunden?</p>","key_press":70,"test_part":"response","test_stimulus":{"position":0,"left":"bvh/pass-bottle-training1-lines.txt","right":"bvh/vr_prediction_models/model(vcgpdm)-dataset(pass-bottle)-mode(ELBO)-parts(1)-dyn(15)-lvm(35)-hold(1)/final-lines.txt","att_check":false},"trial_type":"html-keyboard-response","trial_index":14,"time_elapsed":56794,"internal_node_id":"0.0-8.0-3.1","subject":"mx0hrx4megadoop","sona":"7723"},{"rt":816.9099995866418,"stimulus":"<p>Bereit?</p>","key_press":32,"trial_type":"html-keyboard-response","trial_index":15,"time_elapsed":57613,"internal_node_id":"0.0-8.0-0.2","subject":"mx0hrx4megadoop","sona":"7723"},{"rt":null,"stimulus":"<div style=\"font-size:60px;\">+</div>","key_press":null,"trial_type":"html-keyboard-response","trial_index":16,"time_elapsed":59630,"internal_node_id":"0.0-8.0-1.2","subject":"mx0hrx4megadoop","sona":"7723"},{"trial_type":"turing-test","trial_index":17,"time_elapsed":63194,"internal_node_id":"0.0-8.0-2.2","subject":"mx0hrx4megadoop","sona":"7723"},{"rt":941.2299999967217,"stimulus":"<p>Welche Sequenz haben Sie als natürlicher empfunden?</p>","key_press":74,"test_part":"response","test_stimulus":{"position":0,"left":"bvh/pass-bottle-hold-training2-lines.txt","right":"bvh/vr_prediction_models/model(vcgpdm)-dataset(pass-bottle-hold)-mode(ELBO)-parts(1)-dyn(20)-lvm(5)-hold(2)/final-lines.txt","att_check":false},"trial_type":"html-keyboard-response","trial_index":18,"time_elapsed":64137,"internal_node_id":"0.0-8.0-3.2","subject":"mx0hrx4megadoop","sona":"7723"},{"rt":610.6850001960993,"stimulus":"<p>Bereit?</p>","key_press":32,"trial_type":"html-keyboard-response","trial_index":19,"time_elapsed":64750,"internal_node_id":"0.0-8.0-0.3","subject":"mx0hrx4megadoop","sona":"7723"},{"rt":null,"stimulus":"<div style=\"font-size:60px;\">+</div>","key_press":null,"trial_type":"html-keyboard-response","trial_index":20,"time_elapsed":66760,"internal_node_id":"0.0-8.0-1.3","subject":"mx0hrx4megadoop","sona":"7723"},{"trial_type":"turing-test","trial_index":21,"time_elapsed":70227,"internal_node_id":"0.0-8.0-2.3","subject":"mx0hrx4megadoop","sona":"7723"},{"rt":590.9899994730949,"stimulus":"<p>Welche Sequenz haben Sie als natürlicher empfunden?</p>","key_press":74,"test_part":"response","test_stimulus":{"position":1,"left":"bvh/vr_prediction_models/model(vcgpdm)-dataset(pass-bottle-hold)-mode(ELBO)-parts(1)-dyn(20)-lvm(5)-hold(1)/final-lines.txt","right":"bvh/pass-bottle-hold-training1-lines.txt","att_check":false},"trial_type":"html-keyboard-response","trial_index":22,"time_elapsed":70821,"internal_node_id":"0.0-8.0-3.3","subject":"mx0hrx4megadoop","sona":"7723"},{"rt":644.2449996247888,"stimulus":"<p>Bereit?</p>","key_press":32,"trial_type":"html-keyboard-response","trial_index":23,"time_elapsed":71467,"internal_node_id":"0.0-8.0-0.4","subject":"mx0hrx4megadoop","sona":"7723"},{"rt":null,"stimulus":"<div style=\"font-size:60px;\">+</div>","key_press":null,"trial_type":"html-keyboard-response","trial_index":24,"time_elapsed":73474,"internal_node_id":"0.0-8.0-1.4","subject":"mx0hrx4megadoop","sona":"7723"},{"trial_type":"turing-test","trial_index":25,"time_elapsed":79297,"internal_node_id":"0.0-8.0-2.4","subject":"mx0hrx4megadoop","sona":"7723"},{"rt":472.87499997764826,"stimulus":"<p>Welche Sequenz haben Sie als natürlicher empfunden?</p>","key_press":70,"test_part":"response","test_stimulus":{"position":0,"left":"bvh/return-bottle-training4-lines.txt","right":"bvh/vr_prediction_models/model(tmp)-dataset(return-bottle)-numprim(4)-hold(4)/final-lines.txt","att_check":false},"trial_type":"html-keyboard-response","trial_index":26,"time_elapsed":79772,"internal_node_id":"0.0-8.0-3.4","subject":"mx0hrx4megadoop","sona":"7723"},{"rt":653.6799995228648,"stimulus":"<p>Bereit?</p>","key_press":32,"trial_type":"html-keyboard-response","trial_index":27,"time_elapsed":80427,"internal_node_id":"0.0-8.0-0.5","subject":"mx0hrx4megadoop","sona":"7723"},{"rt":null,"stimulus":"<div style=\"font-size:60px;\">+</div>","key_press":null,"trial_type":"html-keyboard-response","trial_index":28,"time_elapsed":82433,"internal_node_id":"0.0-8.0-1.5","subject":"mx0hrx4megadoop","sona":"7723"},{"trial_type":"turing-test","trial_index":29,"time_elapsed":86052,"internal_node_id":"0.0-8.0-2.5","subject":"mx0hrx4megadoop","sona":"7723"},{"rt":191.03499967604876,"stimulus":"<p>Welche Sequenz haben Sie als natürlicher empfunden?</p>","key_press":74,"test_part":"response","test_stimulus":{"position":1,"left":"bvh/vr_prediction_models/model(tmp)-dataset(pass-bottle-hold)-numprim(8)-hold(3)/final-lines.txt","right":"bvh/pass-bottle-hold-training3-lines.txt","att_check":false},"trial_type":"html-keyboard-response","trial_index":30,"time_elapsed":86245,"internal_node_id":"0.0-8.0-3.5","subject":"mx0hrx4megadoop","sona":"7723"},{"rt":487.64999955892563,"stimulus":"<p>Bereit?</p>","key_press":32,"trial_type":"html-keyboard-response","trial_index":31,"time_elapsed":86734,"internal_node_id":"0.0-8.0-0.6","subject":"mx0hrx4megadoop","sona":"7723"},{"rt":null,"stimulus":"<div style=\"font-size:60px;\">+</div>","key_press":null,"trial_type":"html-keyboard-response","trial_index":32,"time_elapsed":88748,"internal_node_id":"0.0-8.0-1.6","subject":"mx0hrx4megadoop","sona":"7723"},{"trial_type":"turing-test","trial_index":33,"time_elapsed":92307,"internal_node_id":"0.0-8.0-2.6","subject":"mx0hrx4megadoop","sona":"7723"},{"rt":279.14000023156404,"stimulus":"<p>Welche Sequenz haben Sie als natürlicher empfunden?</p>","key_press":74,"test_part":"response","test_stimulus":{"position":0,"left":"bvh/pass-bottle-hold-training3-lines.txt","right":"bvh/vr_prediction_models/model(dmp)-dataset(pass-bottle-hold)-npsi(30)-hold(3)/final-lines.txt","att_check":false},"trial_type":"html-keyboard-response","trial_index":34,"time_elapsed":92588,"internal_node_id":"0.0-8.0-3.6","subject":"mx0hrx4megadoop","sona":"7723"},{"rt":298.64999931305647,"stimulus":"<p>Bereit?</p>","key_press":32,"trial_type":"html-keyboard-response","trial_index":35,"time_elapsed":92889,"internal_node_id":"0.0-8.0-0.7","subject":"mx0hrx4megadoop","sona":"7723"},{"rt":null,"stimulus":"<div style=\"font-size:60px;\">+</div>","key_press":null,"trial_type":"html-keyboard-response","trial_index":36,"time_elapsed":94902,"internal_node_id":"0.0-8.0-1.7","subject":"mx0hrx4megadoop","sona":"7723"},{"trial_type":"turing-test","trial_index":37,"time_elapsed":98391,"internal_node_id":"0.0-8.0-2.7","subject":"mx0hrx4megadoop","sona":"7723"},{"rt":416.60499945282936,"stimulus":"<p>Welche Sequenz haben Sie als natürlicher empfunden?</p>","key_press":70,"test_part":"response","test_stimulus":{"position":0,"left":"bvh/pass-bottle-hold-training2-lines.txt","right":"bvh/vr_prediction_models/model(vcgpdm)-dataset(pass-bottle-hold)-mode(ELBO)-parts(1)-dyn(25)-lvm(35)-hold(2)/final-lines.txt","att_check":false},"trial_type":"html-keyboard-response","trial_index":38,"time_elapsed":98811,"internal_node_id":"0.0-8.0-3.7","subject":"mx0hrx4megadoop","sona":"7723"},{"rt":304.4999996200204,"stimulus":"<p>Bereit?</p>","key_press":32,"trial_type":"html-keyboard-response","trial_index":39,"time_elapsed":99117,"internal_node_id":"0.0-8.0-0.8","subject":"mx0hrx4megadoop","sona":"7723"},{"rt":null,"stimulus":"<div style=\"font-size:60px;\">+</div>","key_press":null,"trial_type":"html-keyboard-response","trial_index":40,"time_elapsed":101126,"internal_node_id":"0.0-8.0-1.8","subject":"mx0hrx4megadoop","sona":"7723"},{"trial_type":"turing-test","trial_index":41,"time_elapsed":106268,"internal_node_id":"0.0-8.0-2.8","subject":"mx0hrx4megadoop","sona":"7723"},{"rt":526.9250003620982,"stimulus":"<p>Welche Sequenz haben Sie als natürlicher empfunden?</p>","key_press":70,"test_part":"response","test_stimulus":{"position":0,"left":"bvh/return-bottle-hold-training0-lines.txt","right":"bvh/vr_prediction_models/model(dmp)-dataset(return-bottle-hold)-npsi(30)-hold(0)/final-lines.txt","att_check":false},"trial_type":"html-keyboard-response","trial_index":42,"time_elapsed":106799,"internal_node_id":"0.0-8.0-3.8","subject":"mx0hrx4megadoop","sona":"7723"},{"rt":380.0499998033047,"stimulus":"<p>Bereit?</p>","key_press":32,"trial_type":"html-keyboard-response","trial_index":43,"time_elapsed":107181,"internal_node_id":"0.0-8.0-0.9","subject":"mx0hrx4megadoop","sona":"7723"},{"rt":null,"stimulus":"<div style=\"font-size:60px;\">+</div>","key_press":null,"trial_type":"html-keyboard-response","trial_index":44,"time_elapsed":109191,"internal_node_id":"0.0-8.0-1.9","subject":"mx0hrx4megadoop","sona":"7723"},{"trial_type":"turing-test","trial_index":45,"time_elapsed":112573,"internal_node_id":"0.0-8.0-2.9","subject":"mx0hrx4megadoop","sona":"7723"},{"rt":376.99500005692244,"stimulus":"<p>Welche Sequenz haben Sie als natürlicher empfunden?</p>","key_press":70,"test_part":"response","test_stimulus":{"position":0,"left":"bvh/return-bottle-hold-training1-lines.txt","right":"bvh/vr_prediction_models/model(dmp)-dataset(return-bottle-hold)-npsi(40)-hold(1)/final-lines.txt","att_check":false},"trial_type":"html-keyboard-response","trial_index":46,"time_elapsed":112953,"internal_node_id":"0.0-8.0-3.9","subject":"mx0hrx4megadoop","sona":"7723"},{"rt":991.8800005689263,"stimulus":"<p>Bereit?</p>","key_press":32,"trial_type":"html-keyboard-response","trial_index":47,"time_elapsed":113946,"internal_node_id":"0.0-8.0-0.10","subject":"mx0hrx4megadoop","sona":"7723"},{"rt":null,"stimulus":"<div style=\"font-size:60px;\">+</div>","key_press":null,"trial_type":"html-keyboard-response","trial_index":48,"time_elapsed":115958,"internal_node_id":"0.0-8.0-1.10","subject":"mx0hrx4megadoop","sona":"7723"},{"trial_type":"turing-test","trial_index":49,"time_elapsed":119766,"internal_node_id":"0.0-8.0-2.10","subject":"mx0hrx4megadoop","sona":"7723"},{"rt":256.07999972999096,"stimulus":"<p>Welche Sequenz haben Sie als natürlicher empfunden?</p>","key_press":74,"test_part":"response","test_stimulus":{"position":0,"left":"bvh/return-bottle-hold-training2-lines.txt","right":"bvh/vr_prediction_models/model(vcgpdm)-dataset(return-bottle-hold)-mode(ELBO)-parts(1)-dyn(30)-lvm(30)-hold(2)/final-lines.txt","att_check":false},"trial_type":"html-keyboard-response","trial_index":50,"time_elapsed":120025,"internal_node_id":"0.0-8.0-3.10","subject":"mx0hrx4megadoop","sona":"7723"},{"rt":379.9750003963709,"stimulus":"<p>Bereit?</p>","key_press":32,"trial_type":"html-keyboard-response","trial_index":51,"time_elapsed":120407,"internal_node_id":"0.0-8.0-0.11","subject":"mx0hrx4megadoop","sona":"7723"},{"rt":null,"stimulus":"<div style=\"font-size:60px;\">+</div>","key_press":null,"trial_type":"html-keyboard-response","trial_index":52,"time_elapsed":122418,"internal_node_id":"0.0-8.0-1.11","subject":"mx0hrx4megadoop","sona":"7723"}]