[{"rt":2740,"stimulus":"<p>Welcome!<br> Please choose your language to start the experiment in the chosen language.</p><p>Willkommen!<br> Bitte wählen Sie eine Sprache, um das Experiment in der ausgewählten Sprache zu starten</p>","button_pressed":"1","trial_type":"html-button-response","trial_index":0,"time_elapsed":2750,"internal_node_id":"0.0-0.0","subject":"2l3ecq61s7qchk6","sona":"9160"},{"view_history":"[{\"page_index\":0,\"viewing_time\":41786},{\"page_index\":1,\"viewing_time\":3065},{\"page_index\":2,\"viewing_time\":2943},{\"page_index\":3,\"viewing_time\":4341},{\"page_index\":4,\"viewing_time\":1705}]","rt":53841,"trial_type":"instructions","trial_index":1,"time_elapsed":56594,"internal_node_id":"0.0-1.0-0.0","subject":"2l3ecq61s7qchk6","sona":"9160"},{"rt":2500,"stimulus":"<p>Bereit?</p>","key_press":32,"trial_type":"html-keyboard-response","trial_index":2,"time_elapsed":59096,"internal_node_id":"0.0-3.0","subject":"2l3ecq61s7qchk6","sona":"9160"},{"rt":null,"stimulus":"<div style=\"font-size:60px;\">+</div>","key_press":null,"trial_type":"html-keyboard-response","trial_index":3,"time_elapsed":61120,"internal_node_id":"0.0-4.0","subject":"2l3ecq61s7qchk6","sona":"9160"},{"trial_type":"training","trial_index":4,"time_elapsed":64430,"internal_node_id":"0.0-5.0","subject":"2l3ecq61s7qchk6","sona":"9160"},{"rt":2712,"stimulus":"<p>Welche Sequenz haben Sie als natürlicher empfunden?</p>","key_press":70,"trial_type":"html-keyboard-response","trial_index":5,"time_elapsed":67146,"internal_node_id":"0.0-6.0","subject":"2l3ecq61s7qchk6","sona":"9160"},{"rt":2451,"stimulus":"<p>Das Experiment startet nun.</p><p><small>Bitte drücken Sie den Knopf, wenn Sie bereit sind.</small></p>","button_pressed":"0","trial_type":"html-button-response","trial_index":6,"time_elapsed":69601,"internal_node_id":"0.0-7.0","subject":"2l3ecq61s7qchk6","sona":"9160"},{"rt":1000,"stimulus":"<p>Bereit?</p>","key_press":32,"trial_type":"html-keyboard-response","trial_index":7,"time_elapsed":70604,"internal_node_id":"0.0-8.0-0.0","subject":"2l3ecq61s7qchk6","sona":"9160"},{"rt":null,"stimulus":"<div style=\"font-size:60px;\">+</div>","key_press":null,"trial_type":"html-keyboard-response","trial_index":8,"time_elapsed":72632,"internal_node_id":"0.0-8.0-1.0","subject":"2l3ecq61s7qchk6","sona":"9160"},{"trial_type":"turing-test","trial_index":9,"time_elapsed":78697,"internal_node_id":"0.0-8.0-2.0","subject":"2l3ecq61s7qchk6","sona":"9160"},{"rt":599,"stimulus":"<p>Welche Sequenz haben Sie als natürlicher empfunden?</p>","key_press":74,"test_part":"response","test_stimulus":{"position":1,"left":"bvh/vr_prediction_models/model(vcgpdm)-dataset(pass-bottle)-mode(ELBO)-parts(1)-dyn(35)-lvm(10)-hold(3)/final-lines.txt","right":"bvh/pass-bottle-training3-lines.txt","att_check":false},"trial_type":"html-keyboard-response","trial_index":10,"time_elapsed":79308,"internal_node_id":"0.0-8.0-3.0","subject":"2l3ecq61s7qchk6","sona":"9160"},{"rt":213,"stimulus":"<p>Bereit?</p>","key_press":32,"trial_type":"html-keyboard-response","trial_index":11,"time_elapsed":79526,"internal_node_id":"0.0-8.0-0.1","subject":"2l3ecq61s7qchk6","sona":"9160"},{"rt":null,"stimulus":"<div style=\"font-size:60px;\">+</div>","key_press":null,"trial_type":"html-keyboard-response","trial_index":12,"time_elapsed":81556,"internal_node_id":"0.0-8.0-1.1","subject":"2l3ecq61s7qchk6","sona":"9160"},{"trial_type":"turing-test","trial_index":13,"time_elapsed":85170,"internal_node_id":"0.0-8.0-2.1","subject":"2l3ecq61s7qchk6","sona":"9160"},{"rt":6418,"stimulus":"<p>Welche Sequenz haben Sie als natürlicher empfunden?</p>","key_press":74,"test_part":"response","test_stimulus":{"position":1,"left":"bvh/vr_prediction_models/model(vcgpdm)-dataset(pass-bottle-hold)-mode(ELBO)-parts(1)-dyn(30)-lvm(30)-hold(1)/final-lines.txt","right":"bvh/pass-bottle-hold-training1-lines.txt","att_check":false},"trial_type":"html-keyboard-response","trial_index":14,"time_elapsed":91595,"internal_node_id":"0.0-8.0-3.1","subject":"2l3ecq61s7qchk6","sona":"9160"},{"rt":196,"stimulus":"<p>Bereit?</p>","key_press":32,"trial_type":"html-keyboard-response","trial_index":15,"time_elapsed":91796,"internal_node_id":"0.0-8.0-0.2","subject":"2l3ecq61s7qchk6","sona":"9160"},{"rt":null,"stimulus":"<div style=\"font-size:60px;\">+</div>","key_press":null,"trial_type":"html-keyboard-response","trial_index":16,"time_elapsed":93820,"internal_node_id":"0.0-8.0-1.2","subject":"2l3ecq61s7qchk6","sona":"9160"},{"trial_type":"turing-test","trial_index":17,"time_elapsed":100950,"internal_node_id":"0.0-8.0-2.2","subject":"2l3ecq61s7qchk6","sona":"9160"},{"rt":1620,"stimulus":"<p>Welche Sequenz haben Sie als natürlicher empfunden?</p>","key_press":70,"test_part":"response","test_stimulus":{"position":1,"left":"bvh/vr_prediction_models/model(vcgpdm)-dataset(pass-bottle)-mode(ELBO)-parts(3)-dyn(25)-lvm(30)-hold(0)/final-lines.txt","right":"bvh/pass-bottle-training0-lines.txt","att_check":false},"trial_type":"html-keyboard-response","trial_index":18,"time_elapsed":102576,"internal_node_id":"0.0-8.0-3.2","subject":"2l3ecq61s7qchk6","sona":"9160"},{"rt":295,"stimulus":"<p>Bereit?</p>","key_press":32,"trial_type":"html-keyboard-response","trial_index":19,"time_elapsed":102873,"internal_node_id":"0.0-8.0-0.3","subject":"2l3ecq61s7qchk6","sona":"9160"},{"rt":null,"stimulus":"<div style=\"font-size:60px;\">+</div>","key_press":null,"trial_type":"html-keyboard-response","trial_index":20,"time_elapsed":104901,"internal_node_id":"0.0-8.0-1.3","subject":"2l3ecq61s7qchk6","sona":"9160"},{"trial_type":"turing-test","trial_index":21,"time_elapsed":110690,"internal_node_id":"0.0-8.0-2.3","subject":"2l3ecq61s7qchk6","sona":"9160"},{"rt":719,"stimulus":"<p>Welche Sequenz haben Sie als natürlicher empfunden?</p>","key_press":74,"test_part":"response","test_stimulus":{"position":0,"left":"bvh/return-bottle-training3-lines.txt","right":"bvh/vr_prediction_models/model(tmp)-dataset(return-bottle)-numprim(11)-hold(3)/final-lines.txt","att_check":false},"trial_type":"html-keyboard-response","trial_index":22,"time_elapsed":111413,"internal_node_id":"0.0-8.0-3.3","subject":"2l3ecq61s7qchk6","sona":"9160"},{"rt":172,"stimulus":"<p>Bereit?</p>","key_press":32,"trial_type":"html-keyboard-response","trial_index":23,"time_elapsed":111589,"internal_node_id":"0.0-8.0-0.4","subject":"2l3ecq61s7qchk6","sona":"9160"},{"rt":null,"stimulus":"<div style=\"font-size:60px;\">+</div>","key_press":null,"trial_type":"html-keyboard-response","trial_index":24,"time_elapsed":113630,"internal_node_id":"0.0-8.0-1.4","subject":"2l3ecq61s7qchk6","sona":"9160"},{"trial_type":"turing-test","trial_index":25,"time_elapsed":119583,"internal_node_id":"0.0-8.0-2.4","subject":"2l3ecq61s7qchk6","sona":"9160"},{"rt":577,"stimulus":"<p>Welche Sequenz haben Sie als natürlicher empfunden?</p>","key_press":70,"test_part":"response","test_stimulus":{"position":0,"left":"bvh/pass-bottle-training3-lines.txt","right":"bvh/vr_prediction_models/model(dmp)-dataset(pass-bottle)-npsi(50)-hold(3)/final-lines.txt","att_check":false},"trial_type":"html-keyboard-response","trial_index":26,"time_elapsed":120164,"internal_node_id":"0.0-8.0-3.4","subject":"2l3ecq61s7qchk6","sona":"9160"},{"rt":221,"stimulus":"<p>Bereit?</p>","key_press":32,"trial_type":"html-keyboard-response","trial_index":27,"time_elapsed":120387,"internal_node_id":"0.0-8.0-0.5","subject":"2l3ecq61s7qchk6","sona":"9160"},{"rt":null,"stimulus":"<div style=\"font-size:60px;\">+</div>","key_press":null,"trial_type":"html-keyboard-response","trial_index":28,"time_elapsed":122412,"internal_node_id":"0.0-8.0-1.5","subject":"2l3ecq61s7qchk6","sona":"9160"},{"trial_type":"turing-test","trial_index":29,"time_elapsed":126425,"internal_node_id":"0.0-8.0-2.5","subject":"2l3ecq61s7qchk6","sona":"9160"},{"rt":1302,"stimulus":"<p>Welche Sequenz haben Sie als natürlicher empfunden?</p>","key_press":74,"test_part":"response","test_stimulus":{"position":1,"left":"bvh/vr_prediction_models/model(vcgpdm)-dataset(return-bottle-hold)-mode(ELBO)-parts(1)-dyn(30)-lvm(20)-hold(4)/final-lines.txt","right":"bvh/return-bottle-hold-training4-lines.txt","att_check":false},"trial_type":"html-keyboard-response","trial_index":30,"time_elapsed":127732,"internal_node_id":"0.0-8.0-3.5","subject":"2l3ecq61s7qchk6","sona":"9160"},{"rt":131,"stimulus":"<p>Bereit?</p>","key_press":32,"trial_type":"html-keyboard-response","trial_index":31,"time_elapsed":127870,"internal_node_id":"0.0-8.0-0.6","subject":"2l3ecq61s7qchk6","sona":"9160"},{"rt":null,"stimulus":"<div style=\"font-size:60px;\">+</div>","key_press":null,"trial_type":"html-keyboard-response","trial_index":32,"time_elapsed":129895,"internal_node_id":"0.0-8.0-1.6","subject":"2l3ecq61s7qchk6","sona":"9160"},{"trial_type":"turing-test","trial_index":33,"time_elapsed":135544,"internal_node_id":"0.0-8.0-2.6","subject":"2l3ecq61s7qchk6","sona":"9160"},{"rt":1037,"stimulus":"<p>Welche Sequenz haben Sie als natürlicher empfunden?</p>","key_press":74,"test_part":"response","test_stimulus":{"position":1,"left":"bvh/vr_prediction_models/model(dmp)-dataset(pass-bottle)-npsi(40)-hold(4)/final-lines.txt","right":"bvh/pass-bottle-training4-lines.txt","att_check":false},"trial_type":"html-keyboard-response","trial_index":34,"time_elapsed":136585,"internal_node_id":"0.0-8.0-3.6","subject":"2l3ecq61s7qchk6","sona":"9160"},{"rt":172,"stimulus":"<p>Bereit?</p>","key_press":32,"trial_type":"html-keyboard-response","trial_index":35,"time_elapsed":136761,"internal_node_id":"0.0-8.0-0.7","subject":"2l3ecq61s7qchk6","sona":"9160"},{"rt":null,"stimulus":"<div style=\"font-size:60px;\">+</div>","key_press":null,"trial_type":"html-keyboard-response","trial_index":36,"time_elapsed":138779,"internal_node_id":"0.0-8.0-1.7","subject":"2l3ecq61s7qchk6","sona":"9160"},{"trial_type":"turing-test","trial_index":37,"time_elapsed":144714,"internal_node_id":"0.0-8.0-2.7","subject":"2l3ecq61s7qchk6","sona":"9160"},{"rt":1288,"stimulus":"<p>Welche Sequenz haben Sie als natürlicher empfunden?</p>","key_press":74,"test_part":"response","test_stimulus":{"position":1,"left":"bvh/vr_prediction_models/model(vcgpdm)-dataset(return-bottle)-mode(ELBO)-parts(3)-dyn(15)-lvm(30)-hold(3)/final-lines.txt","right":"bvh/return-bottle-training3-lines.txt","att_check":false},"trial_type":"html-keyboard-response","trial_index":38,"time_elapsed":146010,"internal_node_id":"0.0-8.0-3.7","subject":"2l3ecq61s7qchk6","sona":"9160"},{"rt":206,"stimulus":"<p>Bereit?</p>","key_press":32,"trial_type":"html-keyboard-response","trial_index":39,"time_elapsed":146224,"internal_node_id":"0.0-8.0-0.8","subject":"2l3ecq61s7qchk6","sona":"9160"},{"rt":null,"stimulus":"<div style=\"font-size:60px;\">+</div>","key_press":null,"trial_type":"html-keyboard-response","trial_index":40,"time_elapsed":148265,"internal_node_id":"0.0-8.0-1.8","subject":"2l3ecq61s7qchk6","sona":"9160"},{"trial_type":"turing-test","trial_index":41,"time_elapsed":151942,"internal_node_id":"0.0-8.0-2.8","subject":"2l3ecq61s7qchk6","sona":"9160"},{"rt":516,"stimulus":"<p>Welche Sequenz haben Sie als natürlicher empfunden?</p>","key_press":70,"test_part":"response","test_stimulus":{"position":0,"left":"bvh/pass-bottle-hold-training3-lines.txt","right":"bvh/vr_prediction_models/model(tmp)-dataset(pass-bottle-hold)-numprim(12)-hold(3)/final-lines.txt","att_check":false},"trial_type":"html-keyboard-response","trial_index":42,"time_elapsed":152465,"internal_node_id":"0.0-8.0-3.8","subject":"2l3ecq61s7qchk6","sona":"9160"},{"rt":244,"stimulus":"<p>Bereit?</p>","key_press":32,"trial_type":"html-keyboard-response","trial_index":43,"time_elapsed":152714,"internal_node_id":"0.0-8.0-0.9","subject":"2l3ecq61s7qchk6","sona":"9160"},{"rt":null,"stimulus":"<div style=\"font-size:60px;\">+</div>","key_press":null,"trial_type":"html-keyboard-response","trial_index":44,"time_elapsed":154741,"internal_node_id":"0.0-8.0-1.9","subject":"2l3ecq61s7qchk6","sona":"9160"},{"trial_type":"turing-test","trial_index":45,"time_elapsed":160465,"internal_node_id":"0.0-8.0-2.9","subject":"2l3ecq61s7qchk6","sona":"9160"},{"rt":419,"stimulus":"<p>Welche Sequenz haben Sie als natürlicher empfunden?</p>","key_press":74,"test_part":"response","test_stimulus":{"position":1,"left":"bvh/vr_prediction_models/model(vcgpdm)-dataset(return-bottle)-mode(ELBO)-parts(1)-dyn(20)-lvm(5)-hold(0)/final-lines.txt","right":"bvh/return-bottle-training0-lines.txt","att_check":false},"trial_type":"html-keyboard-response","trial_index":46,"time_elapsed":160888,"internal_node_id":"0.0-8.0-3.9","subject":"2l3ecq61s7qchk6","sona":"9160"},{"rt":180,"stimulus":"<p>Bereit?</p>","key_press":32,"trial_type":"html-keyboard-response","trial_index":47,"time_elapsed":161071,"internal_node_id":"0.0-8.0-0.10","subject":"2l3ecq61s7qchk6","sona":"9160"},{"rt":null,"stimulus":"<div style=\"font-size:60px;\">+</div>","key_press":null,"trial_type":"html-keyboard-response","trial_index":48,"time_elapsed":163086,"internal_node_id":"0.0-8.0-1.10","subject":"2l3ecq61s7qchk6","sona":"9160"},{"trial_type":"turing-test","trial_index":49,"time_elapsed":170120,"internal_node_id":"0.0-8.0-2.10","subject":"2l3ecq61s7qchk6","sona":"9160"},{"rt":691,"stimulus":"<p>Welche Sequenz haben Sie als natürlicher empfunden?</p>","key_press":70,"test_part":"response","test_stimulus":{"position":0,"left":"bvh/pass-bottle-training0-lines.txt","right":"bvh/vr_prediction_models/model(vcgpdm)-dataset(pass-bottle)-mode(MAP)-parts(1)-hold(0)/final-lines.txt","att_check":false},"trial_type":"html-keyboard-response","trial_index":50,"time_elapsed":170813,"internal_node_id":"0.0-8.0-3.10","subject":"2l3ecq61s7qchk6","sona":"9160"},{"rt":227,"stimulus":"<p>Bereit?</p>","key_press":32,"trial_type":"html-keyboard-response","trial_index":51,"time_elapsed":171044,"internal_node_id":"0.0-8.0-0.11","subject":"2l3ecq61s7qchk6","sona":"9160"},{"rt":null,"stimulus":"<div style=\"font-size:60px;\">+</div>","key_press":null,"trial_type":"html-keyboard-response","trial_index":52,"time_elapsed":173071,"internal_node_id":"0.0-8.0-1.11","subject":"2l3ecq61s7qchk6","sona":"9160"},{"trial_type":"turing-test","trial_index":53,"time_elapsed":178714,"internal_node_id":"0.0-8.0-2.11","subject":"2l3ecq61s7qchk6","sona":"9160"},{"rt":471,"stimulus":"<p>Welche Sequenz haben Sie als natürlicher empfunden?</p>","key_press":74,"test_part":"response","test_stimulus":{"position":1,"left":"bvh/vr_prediction_models/model(tmp)-dataset(return-bottle)-numprim(4)-hold(3)/final-lines.txt","right":"bvh/return-bottle-training3-lines.txt","att_check":false},"trial_type":"html-keyboard-response","trial_index":54,"time_elapsed":179192,"internal_node_id":"0.0-8.0-3.11","subject":"2l3ecq61s7qchk6","sona":"9160"},{"rt":209,"stimulus":"<p>Bereit?</p>","key_press":32,"trial_type":"html-keyboard-response","trial_index":55,"time_elapsed":179408,"internal_node_id":"0.0-8.0-0.12","subject":"2l3ecq61s7qchk6","sona":"9160"},{"rt":null,"stimulus":"<div style=\"font-size:60px;\">+</div>","key_press":null,"trial_type":"html-keyboard-response","trial_index":56,"time_elapsed":181444,"internal_node_id":"0.0-8.0-1.12","subject":"2l3ecq61s7qchk6","sona":"9160"},{"trial_type":"turing-test","trial_index":57,"time_elapsed":185139,"internal_node_id":"0.0-8.0-2.12","subject":"2l3ecq61s7qchk6","sona":"9160"},{"rt":330,"stimulus":"<p>Welche Sequenz haben Sie als natürlicher empfunden?</p>","key_press":74,"test_part":"response","test_stimulus":{"position":1,"left":"bvh/vr_prediction_models/model(tmp)-dataset(pass-bottle-hold)-numprim(15)-hold(3)/final-lines.txt","right":"bvh/pass-bottle-hold-training3-lines.txt","att_check":false},"trial_type":"html-keyboard-response","trial_index":58,"time_elapsed":185476,"internal_node_id":"0.0-8.0-3.12","subject":"2l3ecq61s7qchk6","sona":"9160"},{"rt":197,"stimulus":"<p>Bereit?</p>","key_press":32,"trial_type":"html-keyboard-response","trial_index":59,"time_elapsed":185679,"internal_node_id":"0.0-8.0-0.13","subject":"2l3ecq61s7qchk6","sona":"9160"},{"rt":null,"stimulus":"<div style=\"font-size:60px;\">+</div>","key_press":null,"trial_type":"html-keyboard-response","trial_index":60,"time_elapsed":187698,"internal_node_id":"0.0-8.0-1.13","subject":"2l3ecq61s7qchk6","sona":"9160"},{"trial_type":"turing-test","trial_index":61,"time_elapsed":194559,"internal_node_id":"0.0-8.0-2.13","subject":"2l3ecq61s7qchk6","sona":"9160"},{"rt":1489,"stimulus":"<p>Welche Sequenz haben Sie als natürlicher empfunden?</p>","key_press":70,"test_part":"response","test_stimulus":{"position":0,"left":"bvh/return-bottle-training2-lines.txt","right":"bvh/vr_prediction_models/model(vcgpdm)-dataset(return-bottle)-mode(ELBO)-parts(3)-dyn(25)-lvm(25)-hold(2)/final-lines.txt","att_check":false},"trial_type":"html-keyboard-response","trial_index":62,"time_elapsed":196055,"internal_node_id":"0.0-8.0-3.13","subject":"2l3ecq61s7qchk6","sona":"9160"},{"rt":215,"stimulus":"<p>Bereit?</p>","key_press":32,"trial_type":"html-keyboard-response","trial_index":63,"time_elapsed":196275,"internal_node_id":"0.0-8.0-0.14","subject":"2l3ecq61s7qchk6","sona":"9160"},{"rt":null,"stimulus":"<div style=\"font-size:60px;\">+</div>","key_press":null,"trial_type":"html-keyboard-response","trial_index":64,"time_elapsed":198309,"internal_node_id":"0.0-8.0-1.14","subject":"2l3ecq61s7qchk6","sona":"9160"},{"trial_type":"turing-test","trial_index":65,"time_elapsed":205386,"internal_node_id":"0.0-8.0-2.14","subject":"2l3ecq61s7qchk6","sona":"9160"},{"rt":270,"stimulus":"<p>Welche Sequenz haben Sie als natürlicher empfunden?</p>","key_press":74,"test_part":"response","test_stimulus":{"position":1,"left":"bvh/vr_prediction_models/model(vcgpdm)-dataset(pass-bottle)-mode(ELBO)-parts(3)-dyn(25)-lvm(25)-hold(0)/final-lines.txt","right":"bvh/pass-bottle-training0-lines.txt","att_check":false},"trial_type":"html-keyboard-response","trial_index":66,"time_elapsed":205663,"internal_node_id":"0.0-8.0-3.14","subject":"2l3ecq61s7qchk6","sona":"9160"},{"rt":171,"stimulus":"<p>Bereit?</p>","key_press":32,"trial_type":"html-keyboard-response","trial_index":67,"time_elapsed":205842,"internal_node_id":"0.0-8.0-0.15","subject":"2l3ecq61s7qchk6","sona":"9160"},{"rt":null,"stimulus":"<div style=\"font-size:60px;\">+</div>","key_press":null,"trial_type":"html-keyboard-response","trial_index":68,"time_elapsed":207866,"internal_node_id":"0.0-8.0-1.15","subject":"2l3ecq61s7qchk6","sona":"9160"},{"trial_type":"turing-test","trial_index":69,"time_elapsed":211667,"internal_node_id":"0.0-8.0-2.15","subject":"2l3ecq61s7qchk6","sona":"9160"},{"rt":460,"stimulus":"<p>Welche Sequenz haben Sie als natürlicher empfunden?</p>","key_press":70,"test_part":"response","test_stimulus":{"position":1,"left":"bvh/vr_prediction_models/model(vcgpdm)-dataset(pass-bottle-hold)-mode(ELBO)-parts(3)-dyn(20)-lvm(20)-hold(2)/final-lines.txt","right":"bvh/pass-bottle-hold-training2-lines.txt","att_check":false},"trial_type":"html-keyboard-response","trial_index":70,"time_elapsed":212134,"internal_node_id":"0.0-8.0-3.15","subject":"2l3ecq61s7qchk6","sona":"9160"},{"rt":180,"stimulus":"<p>Bereit?</p>","key_press":32,"trial_type":"html-keyboard-response","trial_index":71,"time_elapsed":212324,"internal_node_id":"0.0-8.0-0.16","subject":"2l3ecq61s7qchk6","sona":"9160"},{"rt":null,"stimulus":"<div style=\"font-size:60px;\">+</div>","key_press":null,"trial_type":"html-keyboard-response","trial_index":72,"time_elapsed":214348,"internal_node_id":"0.0-8.0-1.16","subject":"2l3ecq61s7qchk6","sona":"9160"},{"trial_type":"turing-test","trial_index":73,"time_elapsed":219989,"internal_node_id":"0.0-8.0-2.16","subject":"2l3ecq61s7qchk6","sona":"9160"},{"rt":407,"stimulus":"<p>Welche Sequenz haben Sie als natürlicher empfunden?</p>","key_press":70,"test_part":"response","test_stimulus":{"position":0,"left":"bvh/pass-bottle-training1-lines.txt","right":"bvh/vr_prediction_models/model(vcgpdm)-dataset(pass-bottle)-mode(ELBO)-parts(3)-dyn(20)-lvm(20)-hold(1)/final-lines.txt","att_check":false},"trial_type":"html-keyboard-response","trial_index":74,"time_elapsed":220403,"internal_node_id":"0.0-8.0-3.16","subject":"2l3ecq61s7qchk6","sona":"9160"},{"rt":210,"stimulus":"<p>Bereit?</p>","key_press":32,"trial_type":"html-keyboard-response","trial_index":75,"time_elapsed":220620,"internal_node_id":"0.0-8.0-0.17","subject":"2l3ecq61s7qchk6","sona":"9160"},{"rt":null,"stimulus":"<div style=\"font-size:60px;\">+</div>","key_press":null,"trial_type":"html-keyboard-response","trial_index":76,"time_elapsed":222658,"internal_node_id":"0.0-8.0-1.17","subject":"2l3ecq61s7qchk6","sona":"9160"},{"trial_type":"turing-test","trial_index":77,"time_elapsed":228619,"internal_node_id":"0.0-8.0-2.17","subject":"2l3ecq61s7qchk6","sona":"9160"},{"rt":59,"stimulus":"<p>Welche Sequenz haben Sie als natürlicher empfunden?</p>","key_press":70,"test_part":"response","test_stimulus":{"position":0,"left":"bvh/return-bottle-training4-lines.txt","right":"bvh/vr_prediction_models/model(vcgpdm)-dataset(return-bottle)-mode(ELBO)-parts(1)-dyn(20)-lvm(5)-hold(4)/final-lines.txt","att_check":false},"trial_type":"html-keyboard-response","trial_index":78,"time_elapsed":228685,"internal_node_id":"0.0-8.0-3.17","subject":"2l3ecq61s7qchk6","sona":"9160"},{"rt":833,"stimulus":"<p>Bereit?</p>","key_press":32,"trial_type":"html-keyboard-response","trial_index":79,"time_elapsed":229523,"internal_node_id":"0.0-8.0-0.18","subject":"2l3ecq61s7qchk6","sona":"9160"},{"rt":null,"stimulus":"<div style=\"font-size:60px;\">+</div>","key_press":null,"trial_type":"html-keyboard-response","trial_index":80,"time_elapsed":231540,"internal_node_id":"0.0-8.0-1.18","subject":"2l3ecq61s7qchk6","sona":"9160"},{"trial_type":"turing-test","trial_index":81,"time_elapsed":237766,"internal_node_id":"0.0-8.0-2.18","subject":"2l3ecq61s7qchk6","sona":"9160"},{"rt":433,"stimulus":"<p>Welche Sequenz haben Sie als natürlicher empfunden?</p>","key_press":74,"test_part":"response","test_stimulus":{"position":1,"left":"bvh/vr_prediction_models/model(vcgpdm)-dataset(return-bottle)-mode(ELBO)-parts(1)-dyn(35)-lvm(30)-hold(1)/final-lines.txt","right":"bvh/return-bottle-training1-lines.txt","att_check":false},"trial_type":"html-keyboard-response","trial_index":82,"time_elapsed":238207,"internal_node_id":"0.0-8.0-3.18","subject":"2l3ecq61s7qchk6","sona":"9160"},{"rt":166,"stimulus":"<p>Bereit?</p>","key_press":32,"trial_type":"html-keyboard-response","trial_index":83,"time_elapsed":238381,"internal_node_id":"0.0-8.0-0.19","subject":"2l3ecq61s7qchk6","sona":"9160"},{"rt":null,"stimulus":"<div style=\"font-size:60px;\">+</div>","key_press":null,"trial_type":"html-keyboard-response","trial_index":84,"time_elapsed":240415,"internal_node_id":"0.0-8.0-1.19","subject":"2l3ecq61s7qchk6","sona":"9160"},{"trial_type":"turing-test","trial_index":85,"time_elapsed":244205,"internal_node_id":"0.0-8.0-2.19","subject":"2l3ecq61s7qchk6","sona":"9160"},{"rt":1869,"stimulus":"<p>Welche Sequenz haben Sie als natürlicher empfunden?</p>","key_press":74,"test_part":"response","test_stimulus":{"position":1,"left":"bvh/vr_prediction_models/model(vcgpdm)-dataset(pass-bottle-hold)-mode(ELBO)-parts(1)-dyn(15)-lvm(35)-hold(3)/final-lines.txt","right":"bvh/pass-bottle-hold-training3-lines.txt","att_check":false},"trial_type":"html-keyboard-response","trial_index":86,"time_elapsed":246076,"internal_node_id":"0.0-8.0-3.19","subject":"2l3ecq61s7qchk6","sona":"9160"},{"rt":179,"stimulus":"<p>Bereit?</p>","key_press":32,"trial_type":"html-keyboard-response","trial_index":87,"time_elapsed":246258,"internal_node_id":"0.0-8.0-0.20","subject":"2l3ecq61s7qchk6","sona":"9160"},{"rt":null,"stimulus":"<div style=\"font-size:60px;\">+</div>","key_press":null,"trial_type":"html-keyboard-response","trial_index":88,"time_elapsed":248285,"internal_node_id":"0.0-8.0-1.20","subject":"2l3ecq61s7qchk6","sona":"9160"},{"trial_type":"turing-test","trial_index":89,"time_elapsed":252170,"internal_node_id":"0.0-8.0-2.20","subject":"2l3ecq61s7qchk6","sona":"9160"},{"rt":1711,"stimulus":"<p>Welche Sequenz haben Sie als natürlicher empfunden?</p>","key_press":74,"test_part":"response","test_stimulus":{"position":1,"left":"bvh/vr_prediction_models/model(vcgpdm)-dataset(pass-bottle-hold)-mode(ELBO)-parts(3)-dyn(10)-lvm(25)-hold(4)/final-lines.txt","right":"bvh/pass-bottle-hold-training4-lines.txt","att_check":false},"trial_type":"html-keyboard-response","trial_index":90,"time_elapsed":253891,"internal_node_id":"0.0-8.0-3.20","subject":"2l3ecq61s7qchk6","sona":"9160"},{"rt":200,"stimulus":"<p>Bereit?</p>","key_press":32,"trial_type":"html-keyboard-response","trial_index":91,"time_elapsed":254098,"internal_node_id":"0.0-8.0-0.21","subject":"2l3ecq61s7qchk6","sona":"9160"},{"rt":null,"stimulus":"<div style=\"font-size:60px;\">+</div>","key_press":null,"trial_type":"html-keyboard-response","trial_index":92,"time_elapsed":256099,"internal_node_id":"0.0-8.0-1.21","subject":"2l3ecq61s7qchk6","sona":"9160"},{"trial_type":"turing-test","trial_index":93,"time_elapsed":259537,"internal_node_id":"0.0-8.0-2.21","subject":"2l3ecq61s7qchk6","sona":"9160"},{"rt":419,"stimulus":"<p>Welche Sequenz haben Sie als natürlicher empfunden?</p>","key_press":74,"test_part":"response","test_stimulus":{"position":1,"left":"bvh/vr_prediction_models/model(dmp)-dataset(return-bottle-hold)-npsi(30)-hold(1)/final-lines.txt","right":"bvh/return-bottle-hold-training1-lines.txt","att_check":false},"trial_type":"html-keyboard-response","trial_index":94,"time_elapsed":259963,"internal_node_id":"0.0-8.0-3.21","subject":"2l3ecq61s7qchk6","sona":"9160"},{"rt":150,"stimulus":"<p>Bereit?</p>","key_press":32,"trial_type":"html-keyboard-response","trial_index":95,"time_elapsed":260121,"internal_node_id":"0.0-8.0-0.22","subject":"2l3ecq61s7qchk6","sona":"9160"},{"rt":null,"stimulus":"<div style=\"font-size:60px;\">+</div>","key_press":null,"trial_type":"html-keyboard-response","trial_index":96,"time_elapsed":262157,"internal_node_id":"0.0-8.0-1.22","subject":"2l3ecq61s7qchk6","sona":"9160"},{"trial_type":"turing-test","trial_index":97,"time_elapsed":265798,"internal_node_id":"0.0-8.0-2.22","subject":"2l3ecq61s7qchk6","sona":"9160"},{"rt":786,"stimulus":"<p>Welche Sequenz haben Sie als natürlicher empfunden?</p>","key_press":74,"test_part":"response","test_stimulus":{"position":1,"left":"bvh/vr_prediction_models/model(vcgpdm)-dataset(return-bottle-hold)-mode(ELBO)-parts(3)-dyn(15)-lvm(30)-hold(4)/final-lines.txt","right":"bvh/return-bottle-hold-training4-lines.txt","att_check":false},"trial_type":"html-keyboard-response","trial_index":98,"time_elapsed":266593,"internal_node_id":"0.0-8.0-3.22","subject":"2l3ecq61s7qchk6","sona":"9160"},{"rt":158,"stimulus":"<p>Bereit?</p>","key_press":32,"trial_type":"html-keyboard-response","trial_index":99,"time_elapsed":266760,"internal_node_id":"0.0-8.0-0.23","subject":"2l3ecq61s7qchk6","sona":"9160"},{"rt":null,"stimulus":"<div style=\"font-size:60px;\">+</div>","key_press":null,"trial_type":"html-keyboard-response","trial_index":100,"time_elapsed":268788,"internal_node_id":"0.0-8.0-1.23","subject":"2l3ecq61s7qchk6","sona":"9160"},{"trial_type":"turing-test","trial_index":101,"time_elapsed":272557,"internal_node_id":"0.0-8.0-2.23","subject":"2l3ecq61s7qchk6","sona":"9160"},{"rt":570,"stimulus":"<p>Welche Sequenz haben Sie als natürlicher empfunden?</p>","key_press":74,"test_part":"response","test_stimulus":{"position":1,"left":"bvh/vr_prediction_models/model(vcgpdm)-dataset(return-bottle-hold)-mode(ELBO)-parts(1)-dyn(30)-lvm(20)-hold(2)/final-lines.txt","right":"bvh/return-bottle-hold-training2-lines.txt","att_check":false},"trial_type":"html-keyboard-response","trial_index":102,"time_elapsed":273136,"internal_node_id":"0.0-8.0-3.23","subject":"2l3ecq61s7qchk6","sona":"9160"},{"rt":188,"stimulus":"<p>Bereit?</p>","key_press":32,"trial_type":"html-keyboard-response","trial_index":103,"time_elapsed":273326,"internal_node_id":"0.0-8.0-0.24","subject":"2l3ecq61s7qchk6","sona":"9160"},{"rt":null,"stimulus":"<div style=\"font-size:60px;\">+</div>","key_press":null,"trial_type":"html-keyboard-response","trial_index":104,"time_elapsed":275368,"internal_node_id":"0.0-8.0-1.24","subject":"2l3ecq61s7qchk6","sona":"9160"},{"trial_type":"turing-test","trial_index":105,"time_elapsed":279354,"internal_node_id":"0.0-8.0-2.24","subject":"2l3ecq61s7qchk6","sona":"9160"},{"rt":1416,"stimulus":"<p>Welche Sequenz haben Sie als natürlicher empfunden?</p>","key_press":70,"test_part":"response","test_stimulus":{"position":0,"left":"bvh/return-bottle-hold-training4-lines.txt","right":"bvh/vr_prediction_models/model(vcgpdm)-dataset(return-bottle-hold)-mode(ELBO)-parts(3)-dyn(20)-lvm(20)-hold(4)/final-lines.txt","att_check":false},"trial_type":"html-keyboard-response","trial_index":106,"time_elapsed":280778,"internal_node_id":"0.0-8.0-3.24","subject":"2l3ecq61s7qchk6","sona":"9160"},{"rt":241,"stimulus":"<p>Bereit?</p>","key_press":32,"trial_type":"html-keyboard-response","trial_index":107,"time_elapsed":281029,"internal_node_id":"0.0-8.0-0.25","subject":"2l3ecq61s7qchk6","sona":"9160"},{"rt":null,"stimulus":"<div style=\"font-size:60px;\">+</div>","key_press":null,"trial_type":"html-keyboard-response","trial_index":108,"time_elapsed":283054,"internal_node_id":"0.0-8.0-1.25","subject":"2l3ecq61s7qchk6","sona":"9160"},{"trial_type":"turing-test","trial_index":109,"time_elapsed":286329,"internal_node_id":"0.0-8.0-2.25","subject":"2l3ecq61s7qchk6","sona":"9160"},{"rt":596,"stimulus":"<p>Welche Sequenz haben Sie als natürlicher empfunden?</p>","key_press":70,"test_part":"response","test_stimulus":{"position":0,"left":"bvh/return-bottle-hold-training1-lines.txt","right":"bvh/vr_prediction_models/model(dmp)-dataset(return-bottle-hold)-npsi(10)-hold(1)/final-lines.txt","att_check":false},"trial_type":"html-keyboard-response","trial_index":110,"time_elapsed":286934,"internal_node_id":"0.0-8.0-3.25","subject":"2l3ecq61s7qchk6","sona":"9160"},{"rt":211,"stimulus":"<p>Bereit?</p>","key_press":32,"trial_type":"html-keyboard-response","trial_index":111,"time_elapsed":287153,"internal_node_id":"0.0-8.0-0.26","subject":"2l3ecq61s7qchk6","sona":"9160"},{"rt":null,"stimulus":"<div style=\"font-size:60px;\">+</div>","key_press":null,"trial_type":"html-keyboard-response","trial_index":112,"time_elapsed":289159,"internal_node_id":"0.0-8.0-1.26","subject":"2l3ecq61s7qchk6","sona":"9160"},{"trial_type":"turing-test","trial_index":113,"time_elapsed":292944,"internal_node_id":"0.0-8.0-2.26","subject":"2l3ecq61s7qchk6","sona":"9160"},{"rt":570,"stimulus":"<p>Welche Sequenz haben Sie als natürlicher empfunden?</p>","key_press":70,"test_part":"response","test_stimulus":{"position":0,"left":"bvh/return-bottle-hold-training4-lines.txt","right":"bvh/vr_prediction_models/model(tmp)-dataset(return-bottle-hold)-numprim(11)-hold(4)/final-lines.txt","att_check":false},"trial_type":"html-keyboard-response","trial_index":114,"time_elapsed":293519,"internal_node_id":"0.0-8.0-3.26","subject":"2l3ecq61s7qchk6","sona":"9160"},{"rt":138,"stimulus":"<p>Bereit?</p>","key_press":32,"trial_type":"html-keyboard-response","trial_index":115,"time_elapsed":293663,"internal_node_id":"0.0-8.0-0.27","subject":"2l3ecq61s7qchk6","sona":"9160"},{"rt":null,"stimulus":"<div style=\"font-size:60px;\">+</div>","key_press":null,"trial_type":"html-keyboard-response","trial_index":116,"time_elapsed":295694,"internal_node_id":"0.0-8.0-1.27","subject":"2l3ecq61s7qchk6","sona":"9160"},{"trial_type":"turing-test","trial_index":117,"time_elapsed":302585,"internal_node_id":"0.0-8.0-2.27","subject":"2l3ecq61s7qchk6","sona":"9160"},{"rt":2178,"stimulus":"<p>Welche Sequenz haben Sie als natürlicher empfunden?</p>","key_press":70,"test_part":"response","test_stimulus":{"position":1,"left":"bvh/vr_prediction_models/model(vcgpdm)-dataset(return-bottle)-mode(ELBO)-parts(3)-dyn(25)-lvm(30)-hold(2)/final-lines.txt","right":"bvh/return-bottle-training2-lines.txt","att_check":false},"trial_type":"html-keyboard-response","trial_index":118,"time_elapsed":304771,"internal_node_id":"0.0-8.0-3.27","subject":"2l3ecq61s7qchk6","sona":"9160"},{"rt":159,"stimulus":"<p>Bereit?</p>","key_press":32,"trial_type":"html-keyboard-response","trial_index":119,"time_elapsed":304937,"internal_node_id":"0.0-8.0-0.28","subject":"2l3ecq61s7qchk6","sona":"9160"},{"rt":null,"stimulus":"<div style=\"font-size:60px;\">+</div>","key_press":null,"trial_type":"html-keyboard-response","trial_index":120,"time_elapsed":306974,"internal_node_id":"0.0-8.0-1.28","subject":"2l3ecq61s7qchk6","sona":"9160"},{"trial_type":"turing-test","trial_index":121,"time_elapsed":310729,"internal_node_id":"0.0-8.0-2.28","subject":"2l3ecq61s7qchk6","sona":"9160"},{"rt":389,"stimulus":"<p>Welche Sequenz haben Sie als natürlicher empfunden?</p>","key_press":74,"test_part":"response","test_stimulus":{"position":1,"left":"bvh/vr_prediction_models/model(dmp)-dataset(return-bottle-hold)-npsi(60)-hold(3)/final-lines.txt","right":"bvh/return-bottle-hold-training3-lines.txt","att_check":true},"trial_type":"html-keyboard-response","trial_index":122,"time_elapsed":311125,"internal_node_id":"0.0-8.0-3.28","subject":"2l3ecq61s7qchk6","sona":"9160"},{"rt":162,"stimulus":"<p>Bereit?</p>","key_press":32,"trial_type":"html-keyboard-response","trial_index":123,"time_elapsed":311295,"internal_node_id":"0.0-8.0-0.29","subject":"2l3ecq61s7qchk6","sona":"9160"},{"rt":null,"stimulus":"<div style=\"font-size:60px;\">+</div>","key_press":null,"trial_type":"html-keyboard-response","trial_index":124,"time_elapsed":313316,"internal_node_id":"0.0-8.0-1.29","subject":"2l3ecq61s7qchk6","sona":"9160"},{"trial_type":"turing-test","trial_index":125,"time_elapsed":317075,"internal_node_id":"0.0-8.0-2.29","subject":"2l3ecq61s7qchk6","sona":"9160"},{"rt":444,"stimulus":"<p>Welche Sequenz haben Sie als natürlicher empfunden?</p>","key_press":70,"test_part":"response","test_stimulus":{"position":0,"left":"bvh/return-bottle-hold-training2-lines.txt","right":"bvh/vr_prediction_models/model(dmp)-dataset(return-bottle-hold)-npsi(30)-hold(2)/final-lines.txt","att_check":false},"trial_type":"html-keyboard-response","trial_index":126,"time_elapsed":317529,"internal_node_id":"0.0-8.0-3.29","subject":"2l3ecq61s7qchk6","sona":"9160"},{"rt":200,"stimulus":"<p>Bereit?</p>","key_press":32,"trial_type":"html-keyboard-response","trial_index":127,"time_elapsed":317739,"internal_node_id":"0.0-8.0-0.30","subject":"2l3ecq61s7qchk6","sona":"9160"},{"rt":null,"stimulus":"<div style=\"font-size:60px;\">+</div>","key_press":null,"trial_type":"html-keyboard-response","trial_index":128,"time_elapsed":319764,"internal_node_id":"0.0-8.0-1.30","subject":"2l3ecq61s7qchk6","sona":"9160"},{"trial_type":"turing-test","trial_index":129,"time_elapsed":325309,"internal_node_id":"0.0-8.0-2.30","subject":"2l3ecq61s7qchk6","sona":"9160"},{"rt":611,"stimulus":"<p>Welche Sequenz haben Sie als natürlicher empfunden?</p>","key_press":74,"test_part":"response","test_stimulus":{"position":1,"left":"bvh/vr_prediction_models/model(dmp)-dataset(pass-bottle)-npsi(80)-hold(1)/final-lines.txt","right":"bvh/pass-bottle-training1-lines.txt","att_check":false},"trial_type":"html-keyboard-response","trial_index":130,"time_elapsed":325923,"internal_node_id":"0.0-8.0-3.30","subject":"2l3ecq61s7qchk6","sona":"9160"},{"rt":166,"stimulus":"<p>Bereit?</p>","key_press":32,"trial_type":"html-keyboard-response","trial_index":131,"time_elapsed":326091,"internal_node_id":"0.0-8.0-0.31","subject":"2l3ecq61s7qchk6","sona":"9160"},{"rt":null,"stimulus":"<div style=\"font-size:60px;\">+</div>","key_press":null,"trial_type":"html-keyboard-response","trial_index":132,"time_elapsed":328099,"internal_node_id":"0.0-8.0-1.31","subject":"2l3ecq61s7qchk6","sona":"9160"},{"trial_type":"turing-test","trial_index":133,"time_elapsed":333507,"internal_node_id":"0.0-8.0-2.31","subject":"2l3ecq61s7qchk6","sona":"9160"},{"rt":282,"stimulus":"<p>Welche Sequenz haben Sie als natürlicher empfunden?</p>","key_press":74,"test_part":"response","test_stimulus":{"position":1,"left":"bvh/vr_prediction_models/model(vcgpdm)-dataset(return-bottle-hold)-mode(ELBO)-parts(1)-dyn(20)-lvm(5)-hold(0)/final-lines.txt","right":"bvh/return-bottle-hold-training0-lines.txt","att_check":false},"trial_type":"html-keyboard-response","trial_index":134,"time_elapsed":333790,"internal_node_id":"0.0-8.0-3.31","subject":"2l3ecq61s7qchk6","sona":"9160"},{"rt":210,"stimulus":"<p>Bereit?</p>","key_press":32,"trial_type":"html-keyboard-response","trial_index":135,"time_elapsed":334005,"internal_node_id":"0.0-8.0-0.32","subject":"2l3ecq61s7qchk6","sona":"9160"},{"rt":null,"stimulus":"<div style=\"font-size:60px;\">+</div>","key_press":null,"trial_type":"html-keyboard-response","trial_index":136,"time_elapsed":336026,"internal_node_id":"0.0-8.0-1.32","subject":"2l3ecq61s7qchk6","sona":"9160"},{"trial_type":"turing-test","trial_index":137,"time_elapsed":339975,"internal_node_id":"0.0-8.0-2.32","subject":"2l3ecq61s7qchk6","sona":"9160"},{"rt":409,"stimulus":"<p>Welche Sequenz haben Sie als natürlicher empfunden?</p>","key_press":74,"test_part":"response","test_stimulus":{"position":0,"left":"bvh/return-bottle-hold-training4-lines.txt","right":"bvh/vr_prediction_models/model(vcgpdm)-dataset(return-bottle-hold)-mode(MAP)-parts(3)-hold(4)/final-lines.txt","att_check":false},"trial_type":"html-keyboard-response","trial_index":138,"time_elapsed":340393,"internal_node_id":"0.0-8.0-3.32","subject":"2l3ecq61s7qchk6","sona":"9160"},{"rt":169,"stimulus":"<p>Bereit?</p>","key_press":32,"trial_type":"html-keyboard-response","trial_index":139,"time_elapsed":340565,"internal_node_id":"0.0-8.0-0.33","subject":"2l3ecq61s7qchk6","sona":"9160"},{"rt":null,"stimulus":"<div style=\"font-size:60px;\">+</div>","key_press":null,"trial_type":"html-keyboard-response","trial_index":140,"time_elapsed":342605,"internal_node_id":"0.0-8.0-1.33","subject":"2l3ecq61s7qchk6","sona":"9160"},{"trial_type":"turing-test","trial_index":141,"time_elapsed":346608,"internal_node_id":"0.0-8.0-2.33","subject":"2l3ecq61s7qchk6","sona":"9160"},{"rt":1417,"stimulus":"<p>Welche Sequenz haben Sie als natürlicher empfunden?</p>","key_press":74,"test_part":"response","test_stimulus":{"position":1,"left":"bvh/vr_prediction_models/model(vcgpdm)-dataset(return-bottle-hold)-mode(ELBO)-parts(1)-dyn(35)-lvm(10)-hold(4)/final-lines.txt","right":"bvh/return-bottle-hold-training4-lines.txt","att_check":false},"trial_type":"html-keyboard-response","trial_index":142,"time_elapsed":348034,"internal_node_id":"0.0-8.0-3.33","subject":"2l3ecq61s7qchk6","sona":"9160"},{"rt":157,"stimulus":"<p>Bereit?</p>","key_press":32,"trial_type":"html-keyboard-response","trial_index":143,"time_elapsed":348199,"internal_node_id":"0.0-8.0-0.34","subject":"2l3ecq61s7qchk6","sona":"9160"},{"rt":null,"stimulus":"<div style=\"font-size:60px;\">+</div>","key_press":null,"trial_type":"html-keyboard-response","trial_index":144,"time_elapsed":350238,"internal_node_id":"0.0-8.0-1.34","subject":"2l3ecq61s7qchk6","sona":"9160"},{"trial_type":"turing-test","trial_index":145,"time_elapsed":355634,"internal_node_id":"0.0-8.0-2.34","subject":"2l3ecq61s7qchk6","sona":"9160"},{"rt":1273,"stimulus":"<p>Welche Sequenz haben Sie als natürlicher empfunden?</p>","key_press":70,"test_part":"response","test_stimulus":{"position":0,"left":"bvh/return-bottle-hold-training0-lines.txt","right":"bvh/vr_prediction_models/model(vcgpdm)-dataset(return-bottle-hold)-mode(ELBO)-parts(1)-dyn(35)-lvm(10)-hold(0)/final-lines.txt","att_check":false},"trial_type":"html-keyboard-response","trial_index":146,"time_elapsed":356916,"internal_node_id":"0.0-8.0-3.34","subject":"2l3ecq61s7qchk6","sona":"9160"},{"rt":204,"stimulus":"<p>Bereit?</p>","key_press":32,"trial_type":"html-keyboard-response","trial_index":147,"time_elapsed":357127,"internal_node_id":"0.0-8.0-0.35","subject":"2l3ecq61s7qchk6","sona":"9160"},{"rt":null,"stimulus":"<div style=\"font-size:60px;\">+</div>","key_press":null,"trial_type":"html-keyboard-response","trial_index":148,"time_elapsed":359164,"internal_node_id":"0.0-8.0-1.35","subject":"2l3ecq61s7qchk6","sona":"9160"},{"trial_type":"turing-test","trial_index":149,"time_elapsed":365357,"internal_node_id":"0.0-8.0-2.35","subject":"2l3ecq61s7qchk6","sona":"9160"},{"rt":435,"stimulus":"<p>Welche Sequenz haben Sie als natürlicher empfunden?</p>","key_press":70,"test_part":"response","test_stimulus":{"position":0,"left":"bvh/return-bottle-training1-lines.txt","right":"bvh/vr_prediction_models/model(tmp)-dataset(return-bottle)-numprim(12)-hold(1)/final-lines.txt","att_check":false},"trial_type":"html-keyboard-response","trial_index":150,"time_elapsed":365801,"internal_node_id":"0.0-8.0-3.35","subject":"2l3ecq61s7qchk6","sona":"9160"},{"rt":214,"stimulus":"<p>Bereit?</p>","key_press":32,"trial_type":"html-keyboard-response","trial_index":151,"time_elapsed":366024,"internal_node_id":"0.0-8.0-0.36","subject":"2l3ecq61s7qchk6","sona":"9160"},{"rt":null,"stimulus":"<div style=\"font-size:60px;\">+</div>","key_press":null,"trial_type":"html-keyboard-response","trial_index":152,"time_elapsed":368056,"internal_node_id":"0.0-8.0-1.36","subject":"2l3ecq61s7qchk6","sona":"9160"},{"trial_type":"turing-test","trial_index":153,"time_elapsed":371419,"internal_node_id":"0.0-8.0-2.36","subject":"2l3ecq61s7qchk6","sona":"9160"},{"rt":539,"stimulus":"<p>Welche Sequenz haben Sie als natürlicher empfunden?</p>","key_press":70,"test_part":"response","test_stimulus":{"position":0,"left":"bvh/return-bottle-hold-training1-lines.txt","right":"bvh/vr_prediction_models/model(tmp)-dataset(return-bottle-hold)-numprim(4)-hold(1)/final-lines.txt","att_check":false},"trial_type":"html-keyboard-response","trial_index":154,"time_elapsed":371969,"internal_node_id":"0.0-8.0-3.36","subject":"2l3ecq61s7qchk6","sona":"9160"},{"rt":164,"stimulus":"<p>Bereit?</p>","key_press":32,"trial_type":"html-keyboard-response","trial_index":155,"time_elapsed":372142,"internal_node_id":"0.0-8.0-0.37","subject":"2l3ecq61s7qchk6","sona":"9160"},{"rt":null,"stimulus":"<div style=\"font-size:60px;\">+</div>","key_press":null,"trial_type":"html-keyboard-response","trial_index":156,"time_elapsed":374169,"internal_node_id":"0.0-8.0-1.37","subject":"2l3ecq61s7qchk6","sona":"9160"},{"trial_type":"turing-test","trial_index":157,"time_elapsed":380219,"internal_node_id":"0.0-8.0-2.37","subject":"2l3ecq61s7qchk6","sona":"9160"},{"rt":339,"stimulus":"<p>Welche Sequenz haben Sie als natürlicher empfunden?</p>","key_press":70,"test_part":"response","test_stimulus":{"position":1,"left":"bvh/vr_prediction_models/model(vcgpdm)-dataset(pass-bottle)-mode(ELBO)-parts(3)-dyn(20)-lvm(20)-hold(4)/final-lines.txt","right":"bvh/pass-bottle-training4-lines.txt","att_check":false},"trial_type":"html-keyboard-response","trial_index":158,"time_elapsed":380570,"internal_node_id":"0.0-8.0-3.37","subject":"2l3ecq61s7qchk6","sona":"9160"},{"rt":156,"stimulus":"<p>Bereit?</p>","key_press":32,"trial_type":"html-keyboard-response","trial_index":159,"time_elapsed":380734,"internal_node_id":"0.0-8.0-0.38","subject":"2l3ecq61s7qchk6","sona":"9160"},{"rt":null,"stimulus":"<div style=\"font-size:60px;\">+</div>","key_press":null,"trial_type":"html-keyboard-response","trial_index":160,"time_elapsed":382759,"internal_node_id":"0.0-8.0-1.38","subject":"2l3ecq61s7qchk6","sona":"9160"},{"trial_type":"turing-test","trial_index":161,"time_elapsed":388818,"internal_node_id":"0.0-8.0-2.38","subject":"2l3ecq61s7qchk6","sona":"9160"},{"rt":323,"stimulus":"<p>Welche Sequenz haben Sie als natürlicher empfunden?</p>","key_press":70,"test_part":"response","test_stimulus":{"position":1,"left":"bvh/vr_prediction_models/model(vcgpdm)-dataset(pass-bottle)-mode(ELBO)-parts(3)-dyn(25)-lvm(15)-hold(3)/final-lines.txt","right":"bvh/pass-bottle-training3-lines.txt","att_check":false},"trial_type":"html-keyboard-response","trial_index":162,"time_elapsed":389151,"internal_node_id":"0.0-8.0-3.38","subject":"2l3ecq61s7qchk6","sona":"9160"},{"rt":216,"stimulus":"<p>Bereit?</p>","key_press":32,"trial_type":"html-keyboard-response","trial_index":163,"time_elapsed":389375,"internal_node_id":"0.0-8.0-0.39","subject":"2l3ecq61s7qchk6","sona":"9160"},{"rt":null,"stimulus":"<div style=\"font-size:60px;\">+</div>","key_press":null,"trial_type":"html-keyboard-response","trial_index":164,"time_elapsed":391407,"internal_node_id":"0.0-8.0-1.39","subject":"2l3ecq61s7qchk6","sona":"9160"},{"trial_type":"turing-test","trial_index":165,"time_elapsed":395249,"internal_node_id":"0.0-8.0-2.39","subject":"2l3ecq61s7qchk6","sona":"9160"},{"rt":2008,"stimulus":"<p>Welche Sequenz haben Sie als natürlicher empfunden?</p>","key_press":74,"test_part":"response","test_stimulus":{"position":1,"left":"bvh/vr_prediction_models/model(vcgpdm)-dataset(pass-bottle-hold)-mode(ELBO)-parts(1)-dyn(10)-lvm(5)-hold(3)/final-lines.txt","right":"bvh/pass-bottle-hold-training3-lines.txt","att_check":false},"trial_type":"html-keyboard-response","trial_index":166,"time_elapsed":397264,"internal_node_id":"0.0-8.0-3.39","subject":"2l3ecq61s7qchk6","sona":"9160"},{"rt":155,"stimulus":"<p>Bereit?</p>","key_press":32,"trial_type":"html-keyboard-response","trial_index":167,"time_elapsed":397421,"internal_node_id":"0.0-8.0-0.40","subject":"2l3ecq61s7qchk6","sona":"9160"},{"rt":null,"stimulus":"<div style=\"font-size:60px;\">+</div>","key_press":null,"trial_type":"html-keyboard-response","trial_index":168,"time_elapsed":399439,"internal_node_id":"0.0-8.0-1.40","subject":"2l3ecq61s7qchk6","sona":"9160"},{"trial_type":"turing-test","trial_index":169,"time_elapsed":403123,"internal_node_id":"0.0-8.0-2.40","subject":"2l3ecq61s7qchk6","sona":"9160"},{"rt":456,"stimulus":"<p>Welche Sequenz haben Sie als natürlicher empfunden?</p>","key_press":74,"test_part":"response","test_stimulus":{"position":1,"left":"bvh/vr_prediction_models/model(vcgpdm)-dataset(pass-bottle-hold)-mode(ELBO)-parts(3)-dyn(10)-lvm(25)-hold(0)/final-lines.txt","right":"bvh/pass-bottle-hold-training0-lines.txt","att_check":false},"trial_type":"html-keyboard-response","trial_index":170,"time_elapsed":403586,"internal_node_id":"0.0-8.0-3.40","subject":"2l3ecq61s7qchk6","sona":"9160"},{"rt":148,"stimulus":"<p>Bereit?</p>","key_press":32,"trial_type":"html-keyboard-response","trial_index":171,"time_elapsed":403742,"internal_node_id":"0.0-8.0-0.41","subject":"2l3ecq61s7qchk6","sona":"9160"},{"rt":null,"stimulus":"<div style=\"font-size:60px;\">+</div>","key_press":null,"trial_type":"html-keyboard-response","trial_index":172,"time_elapsed":405753,"internal_node_id":"0.0-8.0-1.41","subject":"2l3ecq61s7qchk6","sona":"9160"},{"trial_type":"turing-test","trial_index":173,"time_elapsed":412391,"internal_node_id":"0.0-8.0-2.41","subject":"2l3ecq61s7qchk6","sona":"9160"},{"rt":333,"stimulus":"<p>Welche Sequenz haben Sie als natürlicher empfunden?</p>","key_press":70,"test_part":"response","test_stimulus":{"position":0,"left":"bvh/pass-bottle-training2-lines.txt","right":"bvh/vr_prediction_models/model(dmp)-dataset(pass-bottle)-npsi(100)-hold(2)/final-lines.txt","att_check":false},"trial_type":"html-keyboard-response","trial_index":174,"time_elapsed":412732,"internal_node_id":"0.0-8.0-3.41","subject":"2l3ecq61s7qchk6","sona":"9160"},{"rt":222,"stimulus":"<p>Bereit?</p>","key_press":32,"trial_type":"html-keyboard-response","trial_index":175,"time_elapsed":412962,"internal_node_id":"0.0-8.0-0.42","subject":"2l3ecq61s7qchk6","sona":"9160"},{"rt":null,"stimulus":"<div style=\"font-size:60px;\">+</div>","key_press":null,"trial_type":"html-keyboard-response","trial_index":176,"time_elapsed":414980,"internal_node_id":"0.0-8.0-1.42","subject":"2l3ecq61s7qchk6","sona":"9160"},{"trial_type":"turing-test","trial_index":177,"time_elapsed":418635,"internal_node_id":"0.0-8.0-2.42","subject":"2l3ecq61s7qchk6","sona":"9160"},{"rt":751,"stimulus":"<p>Welche Sequenz haben Sie als natürlicher empfunden?</p>","key_press":70,"test_part":"response","test_stimulus":{"position":1,"left":"bvh/vr_prediction_models/model(dmp)-dataset(pass-bottle-hold)-npsi(50)-hold(3)/final-lines.txt","right":"bvh/pass-bottle-hold-training3-lines.txt","att_check":true},"trial_type":"html-keyboard-response","trial_index":178,"time_elapsed":419394,"internal_node_id":"0.0-8.0-3.42","subject":"2l3ecq61s7qchk6","sona":"9160"},{"rt":205,"stimulus":"<p>Bereit?</p>","key_press":32,"trial_type":"html-keyboard-response","trial_index":179,"time_elapsed":419606,"internal_node_id":"0.0-8.0-0.43","subject":"2l3ecq61s7qchk6","sona":"9160"},{"rt":null,"stimulus":"<div style=\"font-size:60px;\">+</div>","key_press":null,"trial_type":"html-keyboard-response","trial_index":180,"time_elapsed":421634,"internal_node_id":"0.0-8.0-1.43","subject":"2l3ecq61s7qchk6","sona":"9160"},{"trial_type":"turing-test","trial_index":181,"time_elapsed":426961,"internal_node_id":"0.0-8.0-2.43","subject":"2l3ecq61s7qchk6","sona":"9160"},{"rt":906,"stimulus":"<p>Welche Sequenz haben Sie als natürlicher empfunden?</p>","key_press":70,"test_part":"response","test_stimulus":{"position":0,"left":"bvh/return-bottle-hold-training0-lines.txt","right":"bvh/vr_prediction_models/model(vcgpdm)-dataset(return-bottle-hold)-mode(ELBO)-parts(1)-dyn(15)-lvm(35)-hold(0)/final-lines.txt","att_check":false},"trial_type":"html-keyboard-response","trial_index":182,"time_elapsed":427875,"internal_node_id":"0.0-8.0-3.43","subject":"2l3ecq61s7qchk6","sona":"9160"},{"rt":171,"stimulus":"<p>Bereit?</p>","key_press":32,"trial_type":"html-keyboard-response","trial_index":183,"time_elapsed":428055,"internal_node_id":"0.0-8.0-0.44","subject":"2l3ecq61s7qchk6","sona":"9160"},{"rt":null,"stimulus":"<div style=\"font-size:60px;\">+</div>","key_press":null,"trial_type":"html-keyboard-response","trial_index":184,"time_elapsed":430071,"internal_node_id":"0.0-8.0-1.44","subject":"2l3ecq61s7qchk6","sona":"9160"},{"trial_type":"turing-test","trial_index":185,"time_elapsed":434119,"internal_node_id":"0.0-8.0-2.44","subject":"2l3ecq61s7qchk6","sona":"9160"},{"rt":1327,"stimulus":"<p>Welche Sequenz haben Sie als natürlicher empfunden?</p>","key_press":74,"test_part":"response","test_stimulus":{"position":1,"left":"bvh/vr_prediction_models/model(vcgpdm)-dataset(return-bottle-hold)-mode(ELBO)-parts(3)-dyn(25)-lvm(30)-hold(4)/final-lines.txt","right":"bvh/return-bottle-hold-training4-lines.txt","att_check":false},"trial_type":"html-keyboard-response","trial_index":186,"time_elapsed":435453,"internal_node_id":"0.0-8.0-3.44","subject":"2l3ecq61s7qchk6","sona":"9160"},{"rt":140,"stimulus":"<p>Bereit?</p>","key_press":32,"trial_type":"html-keyboard-response","trial_index":187,"time_elapsed":435596,"internal_node_id":"0.0-8.0-0.45","subject":"2l3ecq61s7qchk6","sona":"9160"},{"rt":null,"stimulus":"<div style=\"font-size:60px;\">+</div>","key_press":null,"trial_type":"html-keyboard-response","trial_index":188,"time_elapsed":437618,"internal_node_id":"0.0-8.0-1.45","subject":"2l3ecq61s7qchk6","sona":"9160"},{"trial_type":"turing-test","trial_index":189,"time_elapsed":443842,"internal_node_id":"0.0-8.0-2.45","subject":"2l3ecq61s7qchk6","sona":"9160"},{"rt":630,"stimulus":"<p>Welche Sequenz haben Sie als natürlicher empfunden?</p>","key_press":70,"test_part":"response","test_stimulus":{"position":0,"left":"bvh/return-bottle-training1-lines.txt","right":"bvh/vr_prediction_models/model(dmp)-dataset(return-bottle)-npsi(60)-hold(1)/final-lines.txt","att_check":false},"trial_type":"html-keyboard-response","trial_index":190,"time_elapsed":444481,"internal_node_id":"0.0-8.0-3.45","subject":"2l3ecq61s7qchk6","sona":"9160"},{"rt":179,"stimulus":"<p>Bereit?</p>","key_press":32,"trial_type":"html-keyboard-response","trial_index":191,"time_elapsed":444669,"internal_node_id":"0.0-8.0-0.46","subject":"2l3ecq61s7qchk6","sona":"9160"},{"rt":null,"stimulus":"<div style=\"font-size:60px;\">+</div>","key_press":null,"trial_type":"html-keyboard-response","trial_index":192,"time_elapsed":446693,"internal_node_id":"0.0-8.0-1.46","subject":"2l3ecq61s7qchk6","sona":"9160"},{"trial_type":"turing-test","trial_index":193,"time_elapsed":452592,"internal_node_id":"0.0-8.0-2.46","subject":"2l3ecq61s7qchk6","sona":"9160"},{"rt":797,"stimulus":"<p>Welche Sequenz haben Sie als natürlicher empfunden?</p>","key_press":74,"test_part":"response","test_stimulus":{"position":0,"left":"bvh/pass-bottle-training4-lines.txt","right":"bvh/vr_prediction_models/model(vcgpdm)-dataset(pass-bottle)-mode(ELBO)-parts(1)-dyn(10)-lvm(30)-hold(4)/final-lines.txt","att_check":false},"trial_type":"html-keyboard-response","trial_index":194,"time_elapsed":453401,"internal_node_id":"0.0-8.0-3.46","subject":"2l3ecq61s7qchk6","sona":"9160"},{"rt":161,"stimulus":"<p>Bereit?</p>","key_press":32,"trial_type":"html-keyboard-response","trial_index":195,"time_elapsed":453570,"internal_node_id":"0.0-8.0-0.47","subject":"2l3ecq61s7qchk6","sona":"9160"},{"rt":null,"stimulus":"<div style=\"font-size:60px;\">+</div>","key_press":null,"trial_type":"html-keyboard-response","trial_index":196,"time_elapsed":455597,"internal_node_id":"0.0-8.0-1.47","subject":"2l3ecq61s7qchk6","sona":"9160"},{"trial_type":"turing-test","trial_index":197,"time_elapsed":459502,"internal_node_id":"0.0-8.0-2.47","subject":"2l3ecq61s7qchk6","sona":"9160"},{"rt":554,"stimulus":"<p>Welche Sequenz haben Sie als natürlicher empfunden?</p>","key_press":70,"test_part":"response","test_stimulus":{"position":1,"left":"bvh/vr_prediction_models/model(vcgpdm)-dataset(pass-bottle-hold)-mode(ELBO)-parts(1)-dyn(5)-lvm(5)-hold(1)/final-lines.txt","right":"bvh/pass-bottle-hold-training1-lines.txt","att_check":false},"trial_type":"html-keyboard-response","trial_index":198,"time_elapsed":460064,"internal_node_id":"0.0-8.0-3.47","subject":"2l3ecq61s7qchk6","sona":"9160"},{"rt":213,"stimulus":"<p>Bereit?</p>","key_press":32,"trial_type":"html-keyboard-response","trial_index":199,"time_elapsed":460280,"internal_node_id":"0.0-8.0-0.48","subject":"2l3ecq61s7qchk6","sona":"9160"},{"rt":null,"stimulus":"<div style=\"font-size:60px;\">+</div>","key_press":null,"trial_type":"html-keyboard-response","trial_index":200,"time_elapsed":462288,"internal_node_id":"0.0-8.0-1.48","subject":"2l3ecq61s7qchk6","sona":"9160"},{"trial_type":"turing-test","trial_index":201,"time_elapsed":465645,"internal_node_id":"0.0-8.0-2.48","subject":"2l3ecq61s7qchk6","sona":"9160"},{"rt":1230,"stimulus":"<p>Welche Sequenz haben Sie als natürlicher empfunden?</p>","key_press":70,"test_part":"response","test_stimulus":{"position":0,"left":"bvh/pass-bottle-hold-training2-lines.txt","right":"bvh/vr_prediction_models/model(tmp)-dataset(pass-bottle-hold)-numprim(4)-hold(2)/final-lines.txt","att_check":false},"trial_type":"html-keyboard-response","trial_index":202,"time_elapsed":466891,"internal_node_id":"0.0-8.0-3.48","subject":"2l3ecq61s7qchk6","sona":"9160"},{"rt":178,"stimulus":"<p>Bereit?</p>","key_press":32,"trial_type":"html-keyboard-response","trial_index":203,"time_elapsed":467076,"internal_node_id":"0.0-8.0-0.49","subject":"2l3ecq61s7qchk6","sona":"9160"},{"rt":null,"stimulus":"<div style=\"font-size:60px;\">+</div>","key_press":null,"trial_type":"html-keyboard-response","trial_index":204,"time_elapsed":469106,"internal_node_id":"0.0-8.0-1.49","subject":"2l3ecq61s7qchk6","sona":"9160"},{"trial_type":"turing-test","trial_index":205,"time_elapsed":473175,"internal_node_id":"0.0-8.0-2.49","subject":"2l3ecq61s7qchk6","sona":"9160"},{"rt":368,"stimulus":"<p>Welche Sequenz haben Sie als natürlicher empfunden?</p>","key_press":70,"test_part":"response","test_stimulus":{"position":0,"left":"bvh/return-bottle-hold-training4-lines.txt","right":"bvh/vr_prediction_models/model(vcgpdm)-dataset(return-bottle-hold)-mode(ELBO)-parts(3)-dyn(35)-lvm(20)-hold(4)/final-lines.txt","att_check":false},"trial_type":"html-keyboard-response","trial_index":206,"time_elapsed":473549,"internal_node_id":"0.0-8.0-3.49","subject":"2l3ecq61s7qchk6","sona":"9160"},{"rt":190,"stimulus":"<p>Bereit?</p>","key_press":32,"trial_type":"html-keyboard-response","trial_index":207,"time_elapsed":473746,"internal_node_id":"0.0-8.0-0.50","subject":"2l3ecq61s7qchk6","sona":"9160"},{"rt":null,"stimulus":"<div style=\"font-size:60px;\">+</div>","key_press":null,"trial_type":"html-keyboard-response","trial_index":208,"time_elapsed":475784,"internal_node_id":"0.0-8.0-1.50","subject":"2l3ecq61s7qchk6","sona":"9160"},{"trial_type":"turing-test","trial_index":209,"time_elapsed":481126,"internal_node_id":"0.0-8.0-2.50","subject":"2l3ecq61s7qchk6","sona":"9160"},{"rt":317,"stimulus":"<p>Welche Sequenz haben Sie als natürlicher empfunden?</p>","key_press":74,"test_part":"response","test_stimulus":{"position":1,"left":"bvh/vr_prediction_models/model(vcgpdm)-dataset(return-bottle-hold)-mode(ELBO)-parts(3)-dyn(25)-lvm(25)-hold(0)/final-lines.txt","right":"bvh/return-bottle-hold-training0-lines.txt","att_check":false},"trial_type":"html-keyboard-response","trial_index":210,"time_elapsed":481453,"internal_node_id":"0.0-8.0-3.50","subject":"2l3ecq61s7qchk6","sona":"9160"},{"rt":110,"stimulus":"<p>Bereit?</p>","key_press":32,"trial_type":"html-keyboard-response","trial_index":211,"time_elapsed":481571,"internal_node_id":"0.0-8.0-0.51","subject":"2l3ecq61s7qchk6","sona":"9160"},{"rt":null,"stimulus":"<div style=\"font-size:60px;\">+</div>","key_press":null,"trial_type":"html-keyboard-response","trial_index":212,"time_elapsed":483597,"internal_node_id":"0.0-8.0-1.51","subject":"2l3ecq61s7qchk6","sona":"9160"},{"trial_type":"turing-test","trial_index":213,"time_elapsed":489971,"internal_node_id":"0.0-8.0-2.51","subject":"2l3ecq61s7qchk6","sona":"9160"},{"rt":426,"stimulus":"<p>Welche Sequenz haben Sie als natürlicher empfunden?</p>","key_press":70,"test_part":"response","test_stimulus":{"position":0,"left":"bvh/pass-bottle-training1-lines.txt","right":"bvh/vr_prediction_models/model(vcgpdm)-dataset(pass-bottle)-mode(ELBO)-parts(3)-dyn(10)-lvm(10)-hold(1)/final-lines.txt","att_check":false},"trial_type":"html-keyboard-response","trial_index":214,"time_elapsed":490406,"internal_node_id":"0.0-8.0-3.51","subject":"2l3ecq61s7qchk6","sona":"9160"},{"rt":181,"stimulus":"<p>Bereit?</p>","key_press":32,"trial_type":"html-keyboard-response","trial_index":215,"time_elapsed":490595,"internal_node_id":"0.0-8.0-0.52","subject":"2l3ecq61s7qchk6","sona":"9160"},{"rt":null,"stimulus":"<div style=\"font-size:60px;\">+</div>","key_press":null,"trial_type":"html-keyboard-response","trial_index":216,"time_elapsed":492621,"internal_node_id":"0.0-8.0-1.52","subject":"2l3ecq61s7qchk6","sona":"9160"},{"trial_type":"turing-test","trial_index":217,"time_elapsed":498823,"internal_node_id":"0.0-8.0-2.52","subject":"2l3ecq61s7qchk6","sona":"9160"},{"rt":477,"stimulus":"<p>Welche Sequenz haben Sie als natürlicher empfunden?</p>","key_press":74,"test_part":"response","test_stimulus":{"position":0,"left":"bvh/pass-bottle-training2-lines.txt","right":"bvh/vr_prediction_models/model(tmp)-dataset(pass-bottle)-numprim(6)-hold(2)/final-lines.txt","att_check":false},"trial_type":"html-keyboard-response","trial_index":218,"time_elapsed":499309,"internal_node_id":"0.0-8.0-3.52","subject":"2l3ecq61s7qchk6","sona":"9160"},{"rt":128,"stimulus":"<p>Bereit?</p>","key_press":32,"trial_type":"html-keyboard-response","trial_index":219,"time_elapsed":499446,"internal_node_id":"0.0-8.0-0.53","subject":"2l3ecq61s7qchk6","sona":"9160"},{"rt":null,"stimulus":"<div style=\"font-size:60px;\">+</div>","key_press":null,"trial_type":"html-keyboard-response","trial_index":220,"time_elapsed":501473,"internal_node_id":"0.0-8.0-1.53","subject":"2l3ecq61s7qchk6","sona":"9160"},{"trial_type":"turing-test","trial_index":221,"time_elapsed":507165,"internal_node_id":"0.0-8.0-2.53","subject":"2l3ecq61s7qchk6","sona":"9160"},{"rt":566,"stimulus":"<p>Welche Sequenz haben Sie als natürlicher empfunden?</p>","key_press":70,"test_part":"response","test_stimulus":{"position":0,"left":"bvh/return-bottle-training4-lines.txt","right":"bvh/vr_prediction_models/model(vcgpdm)-dataset(return-bottle)-mode(ELBO)-parts(3)-dyn(10)-lvm(25)-hold(4)/final-lines.txt","att_check":false},"trial_type":"html-keyboard-response","trial_index":222,"time_elapsed":507741,"internal_node_id":"0.0-8.0-3.53","subject":"2l3ecq61s7qchk6","sona":"9160"},{"rt":162,"stimulus":"<p>Bereit?</p>","key_press":32,"trial_type":"html-keyboard-response","trial_index":223,"time_elapsed":507911,"internal_node_id":"0.0-8.0-0.54","subject":"2l3ecq61s7qchk6","sona":"9160"},{"rt":null,"stimulus":"<div style=\"font-size:60px;\">+</div>","key_press":null,"trial_type":"html-keyboard-response","trial_index":224,"time_elapsed":509936,"internal_node_id":"0.0-8.0-1.54","subject":"2l3ecq61s7qchk6","sona":"9160"},{"trial_type":"turing-test","trial_index":225,"time_elapsed":513214,"internal_node_id":"0.0-8.0-2.54","subject":"2l3ecq61s7qchk6","sona":"9160"},{"rt":308,"stimulus":"<p>Welche Sequenz haben Sie als natürlicher empfunden?</p>","key_press":70,"test_part":"response","test_stimulus":{"position":0,"left":"bvh/return-bottle-hold-training1-lines.txt","right":"bvh/vr_prediction_models/model(tmp)-dataset(return-bottle-hold)-numprim(4)-hold(1)/final-lines.txt","att_check":false},"trial_type":"html-keyboard-response","trial_index":226,"time_elapsed":513532,"internal_node_id":"0.0-8.0-3.54","subject":"2l3ecq61s7qchk6","sona":"9160"},{"rt":169,"stimulus":"<p>Bereit?</p>","key_press":32,"trial_type":"html-keyboard-response","trial_index":227,"time_elapsed":513712,"internal_node_id":"0.0-8.0-0.55","subject":"2l3ecq61s7qchk6","sona":"9160"},{"rt":null,"stimulus":"<div style=\"font-size:60px;\">+</div>","key_press":null,"trial_type":"html-keyboard-response","trial_index":228,"time_elapsed":515714,"internal_node_id":"0.0-8.0-1.55","subject":"2l3ecq61s7qchk6","sona":"9160"},{"trial_type":"turing-test","trial_index":229,"time_elapsed":519113,"internal_node_id":"0.0-8.0-2.55","subject":"2l3ecq61s7qchk6","sona":"9160"},{"rt":334,"stimulus":"<p>Welche Sequenz haben Sie als natürlicher empfunden?</p>","key_press":74,"test_part":"response","test_stimulus":{"position":1,"left":"bvh/vr_prediction_models/model(dmp)-dataset(return-bottle-hold)-npsi(70)-hold(1)/final-lines.txt","right":"bvh/return-bottle-hold-training1-lines.txt","att_check":false},"trial_type":"html-keyboard-response","trial_index":230,"time_elapsed":519457,"internal_node_id":"0.0-8.0-3.55","subject":"2l3ecq61s7qchk6","sona":"9160"},{"rt":124,"stimulus":"<p>Bereit?</p>","key_press":32,"trial_type":"html-keyboard-response","trial_index":231,"time_elapsed":519590,"internal_node_id":"0.0-8.0-0.56","subject":"2l3ecq61s7qchk6","sona":"9160"},{"rt":null,"stimulus":"<div style=\"font-size:60px;\">+</div>","key_press":null,"trial_type":"html-keyboard-response","trial_index":232,"time_elapsed":521622,"internal_node_id":"0.0-8.0-1.56","subject":"2l3ecq61s7qchk6","sona":"9160"},{"trial_type":"turing-test","trial_index":233,"time_elapsed":525202,"internal_node_id":"0.0-8.0-2.56","subject":"2l3ecq61s7qchk6","sona":"9160"},{"rt":3698,"stimulus":"<p>Welche Sequenz haben Sie als natürlicher empfunden?</p>","key_press":70,"test_part":"response","test_stimulus":{"position":0,"left":"bvh/pass-bottle-hold-training0-lines.txt","right":"bvh/vr_prediction_models/model(vcgpdm)-dataset(pass-bottle-hold)-mode(ELBO)-parts(1)-dyn(35)-lvm(10)-hold(0)/final-lines.txt","att_check":false},"trial_type":"html-keyboard-response","trial_index":234,"time_elapsed":528909,"internal_node_id":"0.0-8.0-3.56","subject":"2l3ecq61s7qchk6","sona":"9160"},{"rt":159,"stimulus":"<p>Bereit?</p>","key_press":32,"trial_type":"html-keyboard-response","trial_index":235,"time_elapsed":529077,"internal_node_id":"0.0-8.0-0.57","subject":"2l3ecq61s7qchk6","sona":"9160"},{"rt":null,"stimulus":"<div style=\"font-size:60px;\">+</div>","key_press":null,"trial_type":"html-keyboard-response","trial_index":236,"time_elapsed":531102,"internal_node_id":"0.0-8.0-1.57","subject":"2l3ecq61s7qchk6","sona":"9160"},{"trial_type":"turing-test","trial_index":237,"time_elapsed":536984,"internal_node_id":"0.0-8.0-2.57","subject":"2l3ecq61s7qchk6","sona":"9160"},{"rt":318,"stimulus":"<p>Welche Sequenz haben Sie als natürlicher empfunden?</p>","key_press":70,"test_part":"response","test_stimulus":{"position":1,"left":"bvh/vr_prediction_models/model(tmp)-dataset(return-bottle)-numprim(7)-hold(3)/final-lines.txt","right":"bvh/return-bottle-training3-lines.txt","att_check":false},"trial_type":"html-keyboard-response","trial_index":238,"time_elapsed":537307,"internal_node_id":"0.0-8.0-3.57","subject":"2l3ecq61s7qchk6","sona":"9160"},{"rt":203,"stimulus":"<p>Bereit?</p>","key_press":32,"trial_type":"html-keyboard-response","trial_index":239,"time_elapsed":537515,"internal_node_id":"0.0-8.0-0.58","subject":"2l3ecq61s7qchk6","sona":"9160"},{"rt":null,"stimulus":"<div style=\"font-size:60px;\">+</div>","key_press":null,"trial_type":"html-keyboard-response","trial_index":240,"time_elapsed":539554,"internal_node_id":"0.0-8.0-1.58","subject":"2l3ecq61s7qchk6","sona":"9160"},{"trial_type":"turing-test","trial_index":241,"time_elapsed":546367,"internal_node_id":"0.0-8.0-2.58","subject":"2l3ecq61s7qchk6","sona":"9160"},{"rt":386,"stimulus":"<p>Welche Sequenz haben Sie als natürlicher empfunden?</p>","key_press":70,"test_part":"response","test_stimulus":{"position":0,"left":"bvh/pass-bottle-training0-lines.txt","right":"bvh/vr_prediction_models/model(dmp)-dataset(pass-bottle)-npsi(50)-hold(0)/final-lines.txt","att_check":false},"trial_type":"html-keyboard-response","trial_index":242,"time_elapsed":546764,"internal_node_id":"0.0-8.0-3.58","subject":"2l3ecq61s7qchk6","sona":"9160"},{"rt":181,"stimulus":"<p>Bereit?</p>","key_press":32,"trial_type":"html-keyboard-response","trial_index":243,"time_elapsed":546955,"internal_node_id":"0.0-8.0-0.59","subject":"2l3ecq61s7qchk6","sona":"9160"},{"rt":null,"stimulus":"<div style=\"font-size:60px;\">+</div>","key_press":null,"trial_type":"html-keyboard-response","trial_index":244,"time_elapsed":548988,"internal_node_id":"0.0-8.0-1.59","subject":"2l3ecq61s7qchk6","sona":"9160"},{"trial_type":"turing-test","trial_index":245,"time_elapsed":555856,"internal_node_id":"0.0-8.0-2.59","subject":"2l3ecq61s7qchk6","sona":"9160"},{"rt":429,"stimulus":"<p>Welche Sequenz haben Sie als natürlicher empfunden?</p>","key_press":70,"test_part":"response","test_stimulus":{"position":0,"left":"bvh/return-bottle-training2-lines.txt","right":"bvh/vr_prediction_models/model(vcgpdm)-dataset(return-bottle)-mode(MAP)-parts(3)-hold(2)/final-lines.txt","att_check":false},"trial_type":"html-keyboard-response","trial_index":246,"time_elapsed":556291,"internal_node_id":"0.0-8.0-3.59","subject":"2l3ecq61s7qchk6","sona":"9160"},{"rt":182,"stimulus":"<p>Bereit?</p>","key_press":32,"trial_type":"html-keyboard-response","trial_index":247,"time_elapsed":556483,"internal_node_id":"0.0-8.0-0.60","subject":"2l3ecq61s7qchk6","sona":"9160"},{"rt":null,"stimulus":"<div style=\"font-size:60px;\">+</div>","key_press":null,"trial_type":"html-keyboard-response","trial_index":248,"time_elapsed":558506,"internal_node_id":"0.0-8.0-1.60","subject":"2l3ecq61s7qchk6","sona":"9160"},{"trial_type":"turing-test","trial_index":249,"time_elapsed":565138,"internal_node_id":"0.0-8.0-2.60","subject":"2l3ecq61s7qchk6","sona":"9160"},{"rt":340,"stimulus":"<p>Welche Sequenz haben Sie als natürlicher empfunden?</p>","key_press":70,"test_part":"response","test_stimulus":{"position":0,"left":"bvh/return-bottle-training2-lines.txt","right":"bvh/vr_prediction_models/model(dmp)-dataset(return-bottle)-npsi(20)-hold(2)/final-lines.txt","att_check":true},"trial_type":"html-keyboard-response","trial_index":250,"time_elapsed":565492,"internal_node_id":"0.0-8.0-3.60","subject":"2l3ecq61s7qchk6","sona":"9160"},{"rt":238,"stimulus":"<p>Bereit?</p>","key_press":32,"trial_type":"html-keyboard-response","trial_index":251,"time_elapsed":565740,"internal_node_id":"0.0-8.0-0.61","subject":"2l3ecq61s7qchk6","sona":"9160"},{"rt":null,"stimulus":"<div style=\"font-size:60px;\">+</div>","key_press":null,"trial_type":"html-keyboard-response","trial_index":252,"time_elapsed":567768,"internal_node_id":"0.0-8.0-1.61","subject":"2l3ecq61s7qchk6","sona":"9160"},{"trial_type":"turing-test","trial_index":253,"time_elapsed":573089,"internal_node_id":"0.0-8.0-2.61","subject":"2l3ecq61s7qchk6","sona":"9160"},{"rt":497,"stimulus":"<p>Welche Sequenz haben Sie als natürlicher empfunden?</p>","key_press":74,"test_part":"response","test_stimulus":{"position":1,"left":"bvh/vr_prediction_models/model(dmp)-dataset(return-bottle)-npsi(90)-hold(0)/final-lines.txt","right":"bvh/return-bottle-training0-lines.txt","att_check":false},"trial_type":"html-keyboard-response","trial_index":254,"time_elapsed":573595,"internal_node_id":"0.0-8.0-3.61","subject":"2l3ecq61s7qchk6","sona":"9160"},{"rt":132,"stimulus":"<p>Bereit?</p>","key_press":32,"trial_type":"html-keyboard-response","trial_index":255,"time_elapsed":573737,"internal_node_id":"0.0-8.0-0.62","subject":"2l3ecq61s7qchk6","sona":"9160"},{"rt":null,"stimulus":"<div style=\"font-size:60px;\">+</div>","key_press":null,"trial_type":"html-keyboard-response","trial_index":256,"time_elapsed":575760,"internal_node_id":"0.0-8.0-1.62","subject":"2l3ecq61s7qchk6","sona":"9160"},{"trial_type":"turing-test","trial_index":257,"time_elapsed":579390,"internal_node_id":"0.0-8.0-2.62","subject":"2l3ecq61s7qchk6","sona":"9160"},{"rt":642,"stimulus":"<p>Welche Sequenz haben Sie als natürlicher empfunden?</p>","key_press":74,"test_part":"response","test_stimulus":{"position":1,"left":"bvh/vr_prediction_models/model(vcgpdm)-dataset(return-bottle-hold)-mode(ELBO)-parts(3)-dyn(35)-lvm(20)-hold(4)/final-lines.txt","right":"bvh/return-bottle-hold-training4-lines.txt","att_check":false},"trial_type":"html-keyboard-response","trial_index":258,"time_elapsed":580045,"internal_node_id":"0.0-8.0-3.62","subject":"2l3ecq61s7qchk6","sona":"9160"},{"rt":977,"stimulus":"<p>Bereit?</p>","key_press":32,"trial_type":"html-keyboard-response","trial_index":259,"time_elapsed":581031,"internal_node_id":"0.0-8.0-0.63","subject":"2l3ecq61s7qchk6","sona":"9160"},{"rt":null,"stimulus":"<div style=\"font-size:60px;\">+</div>","key_press":null,"trial_type":"html-keyboard-response","trial_index":260,"time_elapsed":583050,"internal_node_id":"0.0-8.0-1.63","subject":"2l3ecq61s7qchk6","sona":"9160"},{"trial_type":"turing-test","trial_index":261,"time_elapsed":586390,"internal_node_id":"0.0-8.0-2.63","subject":"2l3ecq61s7qchk6","sona":"9160"},{"rt":1707,"stimulus":"<p>Welche Sequenz haben Sie als natürlicher empfunden?</p>","key_press":74,"test_part":"response","test_stimulus":{"position":0,"left":"bvh/pass-bottle-hold-training2-lines.txt","right":"bvh/vr_prediction_models/model(tmp)-dataset(pass-bottle-hold)-numprim(9)-hold(2)/final-lines.txt","att_check":false},"trial_type":"html-keyboard-response","trial_index":262,"time_elapsed":588109,"internal_node_id":"0.0-8.0-3.63","subject":"2l3ecq61s7qchk6","sona":"9160"},{"rt":137,"stimulus":"<p>Bereit?</p>","key_press":32,"trial_type":"html-keyboard-response","trial_index":263,"time_elapsed":588256,"internal_node_id":"0.0-8.0-0.64","subject":"2l3ecq61s7qchk6","sona":"9160"},{"rt":null,"stimulus":"<div style=\"font-size:60px;\">+</div>","key_press":null,"trial_type":"html-keyboard-response","trial_index":264,"time_elapsed":590290,"internal_node_id":"0.0-8.0-1.64","subject":"2l3ecq61s7qchk6","sona":"9160"},{"trial_type":"turing-test","trial_index":265,"time_elapsed":596388,"internal_node_id":"0.0-8.0-2.64","subject":"2l3ecq61s7qchk6","sona":"9160"},{"rt":513,"stimulus":"<p>Welche Sequenz haben Sie als natürlicher empfunden?</p>","key_press":70,"test_part":"response","test_stimulus":{"position":1,"left":"bvh/vr_prediction_models/model(vcgpdm)-dataset(return-bottle)-mode(MAP)-parts(1)-hold(3)/final-lines.txt","right":"bvh/return-bottle-training3-lines.txt","att_check":false},"trial_type":"html-keyboard-response","trial_index":266,"time_elapsed":596912,"internal_node_id":"0.0-8.0-3.64","subject":"2l3ecq61s7qchk6","sona":"9160"},{"rt":177,"stimulus":"<p>Bereit?</p>","key_press":32,"trial_type":"html-keyboard-response","trial_index":267,"time_elapsed":597094,"internal_node_id":"0.0-8.0-0.65","subject":"2l3ecq61s7qchk6","sona":"9160"},{"rt":null,"stimulus":"<div style=\"font-size:60px;\">+</div>","key_press":null,"trial_type":"html-keyboard-response","trial_index":268,"time_elapsed":599113,"internal_node_id":"0.0-8.0-1.65","subject":"2l3ecq61s7qchk6","sona":"9160"},{"trial_type":"turing-test","trial_index":269,"time_elapsed":602901,"internal_node_id":"0.0-8.0-2.65","subject":"2l3ecq61s7qchk6","sona":"9160"},{"rt":350,"stimulus":"<p>Welche Sequenz haben Sie als natürlicher empfunden?</p>","key_press":74,"test_part":"response","test_stimulus":{"position":1,"left":"bvh/vr_prediction_models/model(vcgpdm)-dataset(pass-bottle-hold)-mode(ELBO)-parts(3)-dyn(20)-lvm(15)-hold(4)/final-lines.txt","right":"bvh/pass-bottle-hold-training4-lines.txt","att_check":false},"trial_type":"html-keyboard-response","trial_index":270,"time_elapsed":603263,"internal_node_id":"0.0-8.0-3.65","subject":"2l3ecq61s7qchk6","sona":"9160"},{"rt":141,"stimulus":"<p>Bereit?</p>","key_press":32,"trial_type":"html-keyboard-response","trial_index":271,"time_elapsed":603413,"internal_node_id":"0.0-8.0-0.66","subject":"2l3ecq61s7qchk6","sona":"9160"},{"rt":null,"stimulus":"<div style=\"font-size:60px;\">+</div>","key_press":null,"trial_type":"html-keyboard-response","trial_index":272,"time_elapsed":605431,"internal_node_id":"0.0-8.0-1.66","subject":"2l3ecq61s7qchk6","sona":"9160"},{"trial_type":"turing-test","trial_index":273,"time_elapsed":611416,"internal_node_id":"0.0-8.0-2.66","subject":"2l3ecq61s7qchk6","sona":"9160"},{"rt":340,"stimulus":"<p>Welche Sequenz haben Sie als natürlicher empfunden?</p>","key_press":74,"test_part":"response","test_stimulus":{"position":1,"left":"bvh/vr_prediction_models/model(vcgpdm)-dataset(return-bottle)-mode(ELBO)-parts(1)-dyn(15)-lvm(35)-hold(4)/final-lines.txt","right":"bvh/return-bottle-training4-lines.txt","att_check":false},"trial_type":"html-keyboard-response","trial_index":274,"time_elapsed":611766,"internal_node_id":"0.0-8.0-3.66","subject":"2l3ecq61s7qchk6","sona":"9160"},{"rt":135,"stimulus":"<p>Bereit?</p>","key_press":32,"trial_type":"html-keyboard-response","trial_index":275,"time_elapsed":611911,"internal_node_id":"0.0-8.0-0.67","subject":"2l3ecq61s7qchk6","sona":"9160"},{"rt":null,"stimulus":"<div style=\"font-size:60px;\">+</div>","key_press":null,"trial_type":"html-keyboard-response","trial_index":276,"time_elapsed":613947,"internal_node_id":"0.0-8.0-1.67","subject":"2l3ecq61s7qchk6","sona":"9160"},{"trial_type":"turing-test","trial_index":277,"time_elapsed":619646,"internal_node_id":"0.0-8.0-2.67","subject":"2l3ecq61s7qchk6","sona":"9160"},{"rt":616,"stimulus":"<p>Welche Sequenz haben Sie als natürlicher empfunden?</p>","key_press":70,"test_part":"response","test_stimulus":{"position":0,"left":"bvh/return-bottle-training4-lines.txt","right":"bvh/vr_prediction_models/model(vcgpdm)-dataset(return-bottle)-mode(ELBO)-parts(1)-dyn(35)-lvm(10)-hold(4)/final-lines.txt","att_check":false},"trial_type":"html-keyboard-response","trial_index":278,"time_elapsed":620273,"internal_node_id":"0.0-8.0-3.67","subject":"2l3ecq61s7qchk6","sona":"9160"},{"rt":224,"stimulus":"<p>Bereit?</p>","key_press":32,"trial_type":"html-keyboard-response","trial_index":279,"time_elapsed":620508,"internal_node_id":"0.0-8.0-0.68","subject":"2l3ecq61s7qchk6","sona":"9160"},{"rt":null,"stimulus":"<div style=\"font-size:60px;\">+</div>","key_press":null,"trial_type":"html-keyboard-response","trial_index":280,"time_elapsed":622527,"internal_node_id":"0.0-8.0-1.68","subject":"2l3ecq61s7qchk6","sona":"9160"},{"trial_type":"turing-test","trial_index":281,"time_elapsed":626184,"internal_node_id":"0.0-8.0-2.68","subject":"2l3ecq61s7qchk6","sona":"9160"},{"rt":398,"stimulus":"<p>Welche Sequenz haben Sie als natürlicher empfunden?</p>","key_press":74,"test_part":"response","test_stimulus":{"position":1,"left":"bvh/vr_prediction_models/model(dmp)-dataset(return-bottle-hold)-npsi(40)-hold(3)/final-lines.txt","right":"bvh/return-bottle-hold-training3-lines.txt","att_check":false},"trial_type":"html-keyboard-response","trial_index":282,"time_elapsed":626592,"internal_node_id":"0.0-8.0-3.68","subject":"2l3ecq61s7qchk6","sona":"9160"},{"rt":125,"stimulus":"<p>Bereit?</p>","key_press":32,"trial_type":"html-keyboard-response","trial_index":283,"time_elapsed":626727,"internal_node_id":"0.0-8.0-0.69","subject":"2l3ecq61s7qchk6","sona":"9160"},{"rt":null,"stimulus":"<div style=\"font-size:60px;\">+</div>","key_press":null,"trial_type":"html-keyboard-response","trial_index":284,"time_elapsed":628764,"internal_node_id":"0.0-8.0-1.69","subject":"2l3ecq61s7qchk6","sona":"9160"},{"trial_type":"turing-test","trial_index":285,"time_elapsed":634708,"internal_node_id":"0.0-8.0-2.69","subject":"2l3ecq61s7qchk6","sona":"9160"},{"rt":2141,"stimulus":"<p>Welche Sequenz haben Sie als natürlicher empfunden?</p>","key_press":74,"test_part":"response","test_stimulus":{"position":0,"left":"bvh/pass-bottle-training4-lines.txt","right":"bvh/vr_prediction_models/model(vcgpdm)-dataset(pass-bottle)-mode(ELBO)-parts(1)-dyn(20)-lvm(5)-hold(4)/final-lines.txt","att_check":false},"trial_type":"html-keyboard-response","trial_index":286,"time_elapsed":636863,"internal_node_id":"0.0-8.0-3.69","subject":"2l3ecq61s7qchk6","sona":"9160"},{"rt":166,"stimulus":"<p>Bereit?</p>","key_press":32,"trial_type":"html-keyboard-response","trial_index":287,"time_elapsed":637039,"internal_node_id":"0.0-8.0-0.70","subject":"2l3ecq61s7qchk6","sona":"9160"},{"rt":null,"stimulus":"<div style=\"font-size:60px;\">+</div>","key_press":null,"trial_type":"html-keyboard-response","trial_index":288,"time_elapsed":639068,"internal_node_id":"0.0-8.0-1.70","subject":"2l3ecq61s7qchk6","sona":"9160"},{"trial_type":"turing-test","trial_index":289,"time_elapsed":644312,"internal_node_id":"0.0-8.0-2.70","subject":"2l3ecq61s7qchk6","sona":"9160"},{"rt":225,"stimulus":"<p>Welche Sequenz haben Sie als natürlicher empfunden?</p>","key_press":74,"test_part":"response","test_stimulus":{"position":1,"left":"bvh/vr_prediction_models/model(tmp)-dataset(return-bottle-hold)-numprim(11)-hold(0)/final-lines.txt","right":"bvh/return-bottle-hold-training0-lines.txt","att_check":false},"trial_type":"html-keyboard-response","trial_index":290,"time_elapsed":644547,"internal_node_id":"0.0-8.0-3.70","subject":"2l3ecq61s7qchk6","sona":"9160"},{"rt":143,"stimulus":"<p>Bereit?</p>","key_press":32,"trial_type":"html-keyboard-response","trial_index":291,"time_elapsed":644700,"internal_node_id":"0.0-8.0-0.71","subject":"2l3ecq61s7qchk6","sona":"9160"},{"rt":null,"stimulus":"<div style=\"font-size:60px;\">+</div>","key_press":null,"trial_type":"html-keyboard-response","trial_index":292,"time_elapsed":646703,"internal_node_id":"0.0-8.0-1.71","subject":"2l3ecq61s7qchk6","sona":"9160"},{"trial_type":"turing-test","trial_index":293,"time_elapsed":653777,"internal_node_id":"0.0-8.0-2.71","subject":"2l3ecq61s7qchk6","sona":"9160"},{"rt":372,"stimulus":"<p>Welche Sequenz haben Sie als natürlicher empfunden?</p>","key_press":70,"test_part":"response","test_stimulus":{"position":0,"left":"bvh/pass-bottle-training0-lines.txt","right":"bvh/vr_prediction_models/model(vcgpdm)-dataset(pass-bottle)-mode(ELBO)-parts(1)-dyn(35)-lvm(10)-hold(0)/final-lines.txt","att_check":false},"trial_type":"html-keyboard-response","trial_index":294,"time_elapsed":654161,"internal_node_id":"0.0-8.0-3.71","subject":"2l3ecq61s7qchk6","sona":"9160"},{"rt":404,"stimulus":"<p>Bereit?</p>","key_press":32,"trial_type":"html-keyboard-response","trial_index":295,"time_elapsed":654576,"internal_node_id":"0.0-8.0-0.72","subject":"2l3ecq61s7qchk6","sona":"9160"},{"rt":null,"stimulus":"<div style=\"font-size:60px;\">+</div>","key_press":null,"trial_type":"html-keyboard-response","trial_index":296,"time_elapsed":656607,"internal_node_id":"0.0-8.0-1.72","subject":"2l3ecq61s7qchk6","sona":"9160"},{"trial_type":"turing-test","trial_index":297,"time_elapsed":660309,"internal_node_id":"0.0-8.0-2.72","subject":"2l3ecq61s7qchk6","sona":"9160"},{"rt":480,"stimulus":"<p>Welche Sequenz haben Sie als natürlicher empfunden?</p>","key_press":74,"test_part":"response","test_stimulus":{"position":1,"left":"bvh/vr_prediction_models/model(tmp)-dataset(return-bottle-hold)-numprim(10)-hold(3)/final-lines.txt","right":"bvh/return-bottle-hold-training3-lines.txt","att_check":false},"trial_type":"html-keyboard-response","trial_index":298,"time_elapsed":660803,"internal_node_id":"0.0-8.0-3.72","subject":"2l3ecq61s7qchk6","sona":"9160"},{"rt":151,"stimulus":"<p>Bereit?</p>","key_press":32,"trial_type":"html-keyboard-response","trial_index":299,"time_elapsed":660965,"internal_node_id":"0.0-8.0-0.73","subject":"2l3ecq61s7qchk6","sona":"9160"},{"rt":null,"stimulus":"<div style=\"font-size:60px;\">+</div>","key_press":null,"trial_type":"html-keyboard-response","trial_index":300,"time_elapsed":662969,"internal_node_id":"0.0-8.0-1.73","subject":"2l3ecq61s7qchk6","sona":"9160"},{"trial_type":"turing-test","trial_index":301,"time_elapsed":669777,"internal_node_id":"0.0-8.0-2.73","subject":"2l3ecq61s7qchk6","sona":"9160"},{"rt":364,"stimulus":"<p>Welche Sequenz haben Sie als natürlicher empfunden?</p>","key_press":70,"test_part":"response","test_stimulus":{"position":0,"left":"bvh/pass-bottle-training0-lines.txt","right":"bvh/vr_prediction_models/model(dmp)-dataset(pass-bottle)-npsi(100)-hold(0)/final-lines.txt","att_check":false},"trial_type":"html-keyboard-response","trial_index":302,"time_elapsed":670152,"internal_node_id":"0.0-8.0-3.73","subject":"2l3ecq61s7qchk6","sona":"9160"},{"rt":216,"stimulus":"<p>Bereit?</p>","key_press":32,"trial_type":"html-keyboard-response","trial_index":303,"time_elapsed":670378,"internal_node_id":"0.0-8.0-0.74","subject":"2l3ecq61s7qchk6","sona":"9160"},{"rt":null,"stimulus":"<div style=\"font-size:60px;\">+</div>","key_press":null,"trial_type":"html-keyboard-response","trial_index":304,"time_elapsed":672407,"internal_node_id":"0.0-8.0-1.74","subject":"2l3ecq61s7qchk6","sona":"9160"},{"trial_type":"turing-test","trial_index":305,"time_elapsed":675921,"internal_node_id":"0.0-8.0-2.74","subject":"2l3ecq61s7qchk6","sona":"9160"},{"rt":2710,"stimulus":"<p>Welche Sequenz haben Sie als natürlicher empfunden?</p>","key_press":74,"test_part":"response","test_stimulus":{"position":1,"left":"bvh/vr_prediction_models/model(vcgpdm)-dataset(pass-bottle-hold)-mode(ELBO)-parts(3)-dyn(35)-lvm(20)-hold(1)/final-lines.txt","right":"bvh/pass-bottle-hold-training1-lines.txt","att_check":false},"trial_type":"html-keyboard-response","trial_index":306,"time_elapsed":678644,"internal_node_id":"0.0-8.0-3.74","subject":"2l3ecq61s7qchk6","sona":"9160"},{"rt":152,"stimulus":"<p>Bereit?</p>","key_press":32,"trial_type":"html-keyboard-response","trial_index":307,"time_elapsed":678805,"internal_node_id":"0.0-8.0-0.75","subject":"2l3ecq61s7qchk6","sona":"9160"},{"rt":null,"stimulus":"<div style=\"font-size:60px;\">+</div>","key_press":null,"trial_type":"html-keyboard-response","trial_index":308,"time_elapsed":680841,"internal_node_id":"0.0-8.0-1.75","subject":"2l3ecq61s7qchk6","sona":"9160"},{"trial_type":"turing-test","trial_index":309,"time_elapsed":686461,"internal_node_id":"0.0-8.0-2.75","subject":"2l3ecq61s7qchk6","sona":"9160"},{"rt":536,"stimulus":"<p>Welche Sequenz haben Sie als natürlicher empfunden?</p>","key_press":70,"test_part":"response","test_stimulus":{"position":0,"left":"bvh/return-bottle-training3-lines.txt","right":"bvh/vr_prediction_models/model(tmp)-dataset(return-bottle)-numprim(11)-hold(3)/final-lines.txt","att_check":false},"trial_type":"html-keyboard-response","trial_index":310,"time_elapsed":687009,"internal_node_id":"0.0-8.0-3.75","subject":"2l3ecq61s7qchk6","sona":"9160"},{"rt":223,"stimulus":"<p>Bereit?</p>","key_press":32,"trial_type":"html-keyboard-response","trial_index":311,"time_elapsed":687243,"internal_node_id":"0.0-8.0-0.76","subject":"2l3ecq61s7qchk6","sona":"9160"},{"rt":null,"stimulus":"<div style=\"font-size:60px;\">+</div>","key_press":null,"trial_type":"html-keyboard-response","trial_index":312,"time_elapsed":689272,"internal_node_id":"0.0-8.0-1.76","subject":"2l3ecq61s7qchk6","sona":"9160"},{"trial_type":"turing-test","trial_index":313,"time_elapsed":694734,"internal_node_id":"0.0-8.0-2.76","subject":"2l3ecq61s7qchk6","sona":"9160"},{"rt":255,"stimulus":"<p>Welche Sequenz haben Sie als natürlicher empfunden?</p>","key_press":70,"test_part":"response","test_stimulus":{"position":0,"left":"bvh/return-bottle-training0-lines.txt","right":"bvh/vr_prediction_models/model(dmp)-dataset(return-bottle)-npsi(10)-hold(0)/final-lines.txt","att_check":false},"trial_type":"html-keyboard-response","trial_index":314,"time_elapsed":695000,"internal_node_id":"0.0-8.0-3.76","subject":"2l3ecq61s7qchk6","sona":"9160"},{"rt":250,"stimulus":"<p>Bereit?</p>","key_press":32,"trial_type":"html-keyboard-response","trial_index":315,"time_elapsed":695261,"internal_node_id":"0.0-8.0-0.77","subject":"2l3ecq61s7qchk6","sona":"9160"},{"rt":null,"stimulus":"<div style=\"font-size:60px;\">+</div>","key_press":null,"trial_type":"html-keyboard-response","trial_index":316,"time_elapsed":697284,"internal_node_id":"0.0-8.0-1.77","subject":"2l3ecq61s7qchk6","sona":"9160"},{"trial_type":"turing-test","trial_index":317,"time_elapsed":703082,"internal_node_id":"0.0-8.0-2.77","subject":"2l3ecq61s7qchk6","sona":"9160"},{"rt":331,"stimulus":"<p>Welche Sequenz haben Sie als natürlicher empfunden?</p>","key_press":70,"test_part":"response","test_stimulus":{"position":0,"left":"bvh/pass-bottle-training4-lines.txt","right":"bvh/vr_prediction_models/model(dmp)-dataset(pass-bottle)-npsi(30)-hold(4)/final-lines.txt","att_check":false},"trial_type":"html-keyboard-response","trial_index":318,"time_elapsed":703427,"internal_node_id":"0.0-8.0-3.77","subject":"2l3ecq61s7qchk6","sona":"9160"},{"rt":149,"stimulus":"<p>Bereit?</p>","key_press":32,"trial_type":"html-keyboard-response","trial_index":319,"time_elapsed":703591,"internal_node_id":"0.0-8.0-0.78","subject":"2l3ecq61s7qchk6","sona":"9160"},{"rt":null,"stimulus":"<div style=\"font-size:60px;\">+</div>","key_press":null,"trial_type":"html-keyboard-response","trial_index":320,"time_elapsed":705621,"internal_node_id":"0.0-8.0-1.78","subject":"2l3ecq61s7qchk6","sona":"9160"},{"trial_type":"turing-test","trial_index":321,"time_elapsed":711176,"internal_node_id":"0.0-8.0-2.78","subject":"2l3ecq61s7qchk6","sona":"9160"},{"rt":278,"stimulus":"<p>Welche Sequenz haben Sie als natürlicher empfunden?</p>","key_press":70,"test_part":"response","test_stimulus":{"position":0,"left":"bvh/pass-bottle-training1-lines.txt","right":"bvh/vr_prediction_models/model(tmp)-dataset(pass-bottle)-numprim(8)-hold(1)/final-lines.txt","att_check":false},"trial_type":"html-keyboard-response","trial_index":322,"time_elapsed":711464,"internal_node_id":"0.0-8.0-3.78","subject":"2l3ecq61s7qchk6","sona":"9160"},{"rt":191,"stimulus":"<p>Bereit?</p>","key_press":32,"trial_type":"html-keyboard-response","trial_index":323,"time_elapsed":711661,"internal_node_id":"0.0-8.0-0.79","subject":"2l3ecq61s7qchk6","sona":"9160"},{"rt":null,"stimulus":"<div style=\"font-size:60px;\">+</div>","key_press":null,"trial_type":"html-keyboard-response","trial_index":324,"time_elapsed":713686,"internal_node_id":"0.0-8.0-1.79","subject":"2l3ecq61s7qchk6","sona":"9160"},{"trial_type":"turing-test","trial_index":325,"time_elapsed":719962,"internal_node_id":"0.0-8.0-2.79","subject":"2l3ecq61s7qchk6","sona":"9160"},{"rt":373,"stimulus":"<p>Welche Sequenz haben Sie als natürlicher empfunden?</p>","key_press":70,"test_part":"response","test_stimulus":{"position":0,"left":"bvh/return-bottle-training1-lines.txt","right":"bvh/vr_prediction_models/model(vcgpdm)-dataset(return-bottle)-mode(ELBO)-parts(1)-dyn(20)-lvm(30)-hold(1)/final-lines.txt","att_check":false},"trial_type":"html-keyboard-response","trial_index":326,"time_elapsed":720346,"internal_node_id":"0.0-8.0-3.79","subject":"2l3ecq61s7qchk6","sona":"9160"},{"rt":9352,"responses":"{\"age\":\"21\",\"gender\":\"weiblich\"}","trial_type":"survey-text","trial_index":327,"time_elapsed":729738,"internal_node_id":"0.0-10.0-0.0","subject":"2l3ecq61s7qchk6","sona":"9160"},{"rt":180114,"responses":"{\"area\":\"am Anfang vermehrt auf die Würbelsäule, dann versucht auf das gesamte Strichmännchen zu schauen: wie Arme, Beine und Wirbelsäule zusammenspielen\",\"Q1\":\"zu statisch oder zu steif: Arm-, Bein- und Wirbelsäulenbewegung passten nicht zusammen;\\nbei Drehungen oder schnelles nach unten Wandern des Strichmännchens\",\"Q2\":\"Drehungen des Strichmännchen; Positionsveränderung des Strichmännchen auf dem Bildschirm\"}","trial_type":"survey-text","trial_index":328,"time_elapsed":909863,"internal_node_id":"0.0-10.0-1.0","subject":"2l3ecq61s7qchk6","sona":"9160"}]