[{"rt":2226,"stimulus":"<p>Welcome!<br> Please choose your language to start the experiment in the chosen language.</p><p>Willkommen!<br> Bitte wählen Sie eine Sprache, um das Experiment in der ausgewählten Sprache zu starten</p>","button_pressed":"1","trial_type":"html-button-response","trial_index":0,"time_elapsed":2236,"internal_node_id":"0.0-0.0","subject":"47x2roe1ggjx28u","sona":"9634"},{"view_history":"[{\"page_index\":0,\"viewing_time\":5429},{\"page_index\":1,\"viewing_time\":2353},{\"page_index\":2,\"viewing_time\":4239.000000000002},{\"page_index\":3,\"viewing_time\":5211.999999999998},{\"page_index\":4,\"viewing_time\":2591}]","rt":19825,"trial_type":"instructions","trial_index":1,"time_elapsed":22063,"internal_node_id":"0.0-1.0-0.0","subject":"47x2roe1ggjx28u","sona":"9634"},{"rt":2190,"stimulus":"<p>Bereit?</p>","key_press":32,"trial_type":"html-keyboard-response","trial_index":2,"time_elapsed":24256,"internal_node_id":"0.0-3.0","subject":"47x2roe1ggjx28u","sona":"9634"},{"rt":null,"stimulus":"<div style=\"font-size:60px;\">+</div>","key_press":null,"trial_type":"html-keyboard-response","trial_index":3,"time_elapsed":26259,"internal_node_id":"0.0-4.0","subject":"47x2roe1ggjx28u","sona":"9634"},{"trial_type":"training","trial_index":4,"time_elapsed":29639,"internal_node_id":"0.0-5.0","subject":"47x2roe1ggjx28u","sona":"9634"},{"rt":1298,"stimulus":"<p>Welche Sequenz haben Sie als natürlicher empfunden?</p>","key_press":70,"trial_type":"html-keyboard-response","trial_index":5,"time_elapsed":30938,"internal_node_id":"0.0-6.0","subject":"47x2roe1ggjx28u","sona":"9634"},{"rt":1876.0000000000073,"stimulus":"<p>Das Experiment startet nun.</p><p><small>Bitte drücken Sie den Knopf, wenn Sie bereit sind.</small></p>","button_pressed":"0","trial_type":"html-button-response","trial_index":6,"time_elapsed":32815,"internal_node_id":"0.0-7.0","subject":"47x2roe1ggjx28u","sona":"9634"},{"rt":945,"stimulus":"<p>Bereit?</p>","key_press":32,"trial_type":"html-keyboard-response","trial_index":7,"time_elapsed":33762,"internal_node_id":"0.0-8.0-0.0","subject":"47x2roe1ggjx28u","sona":"9634"},{"rt":null,"stimulus":"<div style=\"font-size:60px;\">+</div>","key_press":null,"trial_type":"html-keyboard-response","trial_index":8,"time_elapsed":35765,"internal_node_id":"0.0-8.0-1.0","subject":"47x2roe1ggjx28u","sona":"9634"},{"trial_type":"turing-test","trial_index":9,"time_elapsed":42377,"internal_node_id":"0.0-8.0-2.0","subject":"47x2roe1ggjx28u","sona":"9634"},{"rt":716,"stimulus":"<p>Welche Sequenz haben Sie als natürlicher empfunden?</p>","key_press":70,"test_part":"response","test_stimulus":{"position":1,"left":"bvh/vr_prediction_models/model(tmp)-dataset(return-bottle)-numprim(14)-hold(2)/final-lines.txt","right":"bvh/return-bottle-training2-lines.txt","att_check":false},"trial_type":"html-keyboard-response","trial_index":10,"time_elapsed":43094,"internal_node_id":"0.0-8.0-3.0","subject":"47x2roe1ggjx28u","sona":"9634"},{"rt":843,"stimulus":"<p>Bereit?</p>","key_press":32,"trial_type":"html-keyboard-response","trial_index":11,"time_elapsed":43939,"internal_node_id":"0.0-8.0-0.1","subject":"47x2roe1ggjx28u","sona":"9634"},{"rt":null,"stimulus":"<div style=\"font-size:60px;\">+</div>","key_press":null,"trial_type":"html-keyboard-response","trial_index":12,"time_elapsed":45943,"internal_node_id":"0.0-8.0-1.1","subject":"47x2roe1ggjx28u","sona":"9634"},{"trial_type":"turing-test","trial_index":13,"time_elapsed":52720,"internal_node_id":"0.0-8.0-2.1","subject":"47x2roe1ggjx28u","sona":"9634"},{"rt":964,"stimulus":"<p>Welche Sequenz haben Sie als natürlicher empfunden?</p>","key_press":70,"test_part":"response","test_stimulus":{"position":0,"left":"bvh/return-bottle-training2-lines.txt","right":"bvh/vr_prediction_models/model(vcgpdm)-dataset(return-bottle)-mode(ELBO)-parts(1)-dyn(10)-lvm(25)-hold(2)/final-lines.txt","att_check":false},"trial_type":"html-keyboard-response","trial_index":14,"time_elapsed":53686,"internal_node_id":"0.0-8.0-3.1","subject":"47x2roe1ggjx28u","sona":"9634"},{"rt":1835.9999999999927,"stimulus":"<p>Bereit?</p>","key_press":32,"trial_type":"html-keyboard-response","trial_index":15,"time_elapsed":55524,"internal_node_id":"0.0-8.0-0.2","subject":"47x2roe1ggjx28u","sona":"9634"},{"rt":null,"stimulus":"<div style=\"font-size:60px;\">+</div>","key_press":null,"trial_type":"html-keyboard-response","trial_index":16,"time_elapsed":57527,"internal_node_id":"0.0-8.0-1.2","subject":"47x2roe1ggjx28u","sona":"9634"},{"trial_type":"turing-test","trial_index":17,"time_elapsed":63647,"internal_node_id":"0.0-8.0-2.2","subject":"47x2roe1ggjx28u","sona":"9634"},{"rt":16286.999999999993,"stimulus":"<p>Welche Sequenz haben Sie als natürlicher empfunden?</p>","key_press":70,"test_part":"response","test_stimulus":{"position":0,"left":"bvh/pass-bottle-training2-lines.txt","right":"bvh/vr_prediction_models/model(tmp)-dataset(pass-bottle)-numprim(5)-hold(2)/final-lines.txt","att_check":false},"trial_type":"html-keyboard-response","trial_index":18,"time_elapsed":79936,"internal_node_id":"0.0-8.0-3.2","subject":"47x2roe1ggjx28u","sona":"9634"},{"rt":1064,"stimulus":"<p>Bereit?</p>","key_press":32,"trial_type":"html-keyboard-response","trial_index":19,"time_elapsed":81003,"internal_node_id":"0.0-8.0-0.3","subject":"47x2roe1ggjx28u","sona":"9634"},{"rt":null,"stimulus":"<div style=\"font-size:60px;\">+</div>","key_press":null,"trial_type":"html-keyboard-response","trial_index":20,"time_elapsed":83006,"internal_node_id":"0.0-8.0-1.3","subject":"47x2roe1ggjx28u","sona":"9634"},{"trial_type":"turing-test","trial_index":21,"time_elapsed":88444,"internal_node_id":"0.0-8.0-2.3","subject":"47x2roe1ggjx28u","sona":"9634"},{"rt":506,"stimulus":"<p>Welche Sequenz haben Sie als natürlicher empfunden?</p>","key_press":74,"test_part":"response","test_stimulus":{"position":1,"left":"bvh/vr_prediction_models/model(dmp)-dataset(return-bottle)-npsi(90)-hold(0)/final-lines.txt","right":"bvh/return-bottle-training0-lines.txt","att_check":false},"trial_type":"html-keyboard-response","trial_index":22,"time_elapsed":88951,"internal_node_id":"0.0-8.0-3.3","subject":"47x2roe1ggjx28u","sona":"9634"},{"rt":481,"stimulus":"<p>Bereit?</p>","key_press":32,"trial_type":"html-keyboard-response","trial_index":23,"time_elapsed":89433,"internal_node_id":"0.0-8.0-0.4","subject":"47x2roe1ggjx28u","sona":"9634"},{"rt":null,"stimulus":"<div style=\"font-size:60px;\">+</div>","key_press":null,"trial_type":"html-keyboard-response","trial_index":24,"time_elapsed":91436,"internal_node_id":"0.0-8.0-1.4","subject":"47x2roe1ggjx28u","sona":"9634"},{"trial_type":"turing-test","trial_index":25,"time_elapsed":95047,"internal_node_id":"0.0-8.0-2.4","subject":"47x2roe1ggjx28u","sona":"9634"},{"rt":766,"stimulus":"<p>Welche Sequenz haben Sie als natürlicher empfunden?</p>","key_press":74,"test_part":"response","test_stimulus":{"position":1,"left":"bvh/vr_prediction_models/model(dmp)-dataset(pass-bottle-hold)-npsi(80)-hold(4)/final-lines.txt","right":"bvh/pass-bottle-hold-training4-lines.txt","att_check":true},"trial_type":"html-keyboard-response","trial_index":26,"time_elapsed":95815,"internal_node_id":"0.0-8.0-3.4","subject":"47x2roe1ggjx28u","sona":"9634"},{"rt":402,"stimulus":"<p>Bereit?</p>","key_press":32,"trial_type":"html-keyboard-response","trial_index":27,"time_elapsed":96218,"internal_node_id":"0.0-8.0-0.5","subject":"47x2roe1ggjx28u","sona":"9634"},{"rt":null,"stimulus":"<div style=\"font-size:60px;\">+</div>","key_press":null,"trial_type":"html-keyboard-response","trial_index":28,"time_elapsed":98222,"internal_node_id":"0.0-8.0-1.5","subject":"47x2roe1ggjx28u","sona":"9634"},{"trial_type":"turing-test","trial_index":29,"time_elapsed":101722,"internal_node_id":"0.0-8.0-2.5","subject":"47x2roe1ggjx28u","sona":"9634"},{"rt":933,"stimulus":"<p>Welche Sequenz haben Sie als natürlicher empfunden?</p>","key_press":70,"test_part":"response","test_stimulus":{"position":0,"left":"bvh/return-bottle-hold-training1-lines.txt","right":"bvh/vr_prediction_models/model(vcgpdm)-dataset(return-bottle-hold)-mode(ELBO)-parts(1)-dyn(10)-lvm(30)-hold(1)/final-lines.txt","att_check":false},"trial_type":"html-keyboard-response","trial_index":30,"time_elapsed":102656,"internal_node_id":"0.0-8.0-3.5","subject":"47x2roe1ggjx28u","sona":"9634"},{"rt":268,"stimulus":"<p>Bereit?</p>","key_press":32,"trial_type":"html-keyboard-response","trial_index":31,"time_elapsed":102927,"internal_node_id":"0.0-8.0-0.6","subject":"47x2roe1ggjx28u","sona":"9634"},{"rt":null,"stimulus":"<div style=\"font-size:60px;\">+</div>","key_press":null,"trial_type":"html-keyboard-response","trial_index":32,"time_elapsed":104929,"internal_node_id":"0.0-8.0-1.6","subject":"47x2roe1ggjx28u","sona":"9634"},{"trial_type":"turing-test","trial_index":33,"time_elapsed":108262,"internal_node_id":"0.0-8.0-2.6","subject":"47x2roe1ggjx28u","sona":"9634"},{"rt":470.99999999998545,"stimulus":"<p>Welche Sequenz haben Sie als natürlicher empfunden?</p>","key_press":74,"test_part":"response","test_stimulus":{"position":0,"left":"bvh/pass-bottle-hold-training2-lines.txt","right":"bvh/vr_prediction_models/model(tmp)-dataset(pass-bottle-hold)-numprim(5)-hold(2)/final-lines.txt","att_check":false},"trial_type":"html-keyboard-response","trial_index":34,"time_elapsed":108735,"internal_node_id":"0.0-8.0-3.6","subject":"47x2roe1ggjx28u","sona":"9634"},{"rt":333.99999999998545,"stimulus":"<p>Bereit?</p>","key_press":32,"trial_type":"html-keyboard-response","trial_index":35,"time_elapsed":109071,"internal_node_id":"0.0-8.0-0.7","subject":"47x2roe1ggjx28u","sona":"9634"},{"rt":null,"stimulus":"<div style=\"font-size:60px;\">+</div>","key_press":null,"trial_type":"html-keyboard-response","trial_index":36,"time_elapsed":111074,"internal_node_id":"0.0-8.0-1.7","subject":"47x2roe1ggjx28u","sona":"9634"},{"trial_type":"turing-test","trial_index":37,"time_elapsed":119803,"internal_node_id":"0.0-8.0-2.7","subject":"47x2roe1ggjx28u","sona":"9634"},{"rt":457,"stimulus":"<p>Welche Sequenz haben Sie als natürlicher empfunden?</p>","key_press":74,"test_part":"response","test_stimulus":{"position":1,"left":"bvh/vr_prediction_models/model(dmp)-dataset(return-bottle)-npsi(20)-hold(0)/final-lines.txt","right":"bvh/return-bottle-training0-lines.txt","att_check":false},"trial_type":"html-keyboard-response","trial_index":38,"time_elapsed":120262,"internal_node_id":"0.0-8.0-3.7","subject":"47x2roe1ggjx28u","sona":"9634"},{"rt":4348.999999999985,"stimulus":"<p>Bereit?</p>","key_press":32,"trial_type":"html-keyboard-response","trial_index":39,"time_elapsed":124613,"internal_node_id":"0.0-8.0-0.8","subject":"47x2roe1ggjx28u","sona":"9634"},{"rt":null,"stimulus":"<div style=\"font-size:60px;\">+</div>","key_press":null,"trial_type":"html-keyboard-response","trial_index":40,"time_elapsed":126616,"internal_node_id":"0.0-8.0-1.8","subject":"47x2roe1ggjx28u","sona":"9634"},{"trial_type":"turing-test","trial_index":41,"time_elapsed":130030,"internal_node_id":"0.0-8.0-2.8","subject":"47x2roe1ggjx28u","sona":"9634"},{"rt":714,"stimulus":"<p>Welche Sequenz haben Sie als natürlicher empfunden?</p>","key_press":74,"test_part":"response","test_stimulus":{"position":1,"left":"bvh/vr_prediction_models/model(vcgpdm)-dataset(pass-bottle-hold)-mode(ELBO)-parts(1)-dyn(5)-lvm(5)-hold(0)/final-lines.txt","right":"bvh/pass-bottle-hold-training0-lines.txt","att_check":false},"trial_type":"html-keyboard-response","trial_index":42,"time_elapsed":130746,"internal_node_id":"0.0-8.0-3.8","subject":"47x2roe1ggjx28u","sona":"9634"},{"rt":381,"stimulus":"<p>Bereit?</p>","key_press":32,"trial_type":"html-keyboard-response","trial_index":43,"time_elapsed":131131,"internal_node_id":"0.0-8.0-0.9","subject":"47x2roe1ggjx28u","sona":"9634"},{"rt":null,"stimulus":"<div style=\"font-size:60px;\">+</div>","key_press":null,"trial_type":"html-keyboard-response","trial_index":44,"time_elapsed":133135,"internal_node_id":"0.0-8.0-1.9","subject":"47x2roe1ggjx28u","sona":"9634"},{"trial_type":"turing-test","trial_index":45,"time_elapsed":136915,"internal_node_id":"0.0-8.0-2.9","subject":"47x2roe1ggjx28u","sona":"9634"},{"rt":403,"stimulus":"<p>Welche Sequenz haben Sie als natürlicher empfunden?</p>","key_press":70,"test_part":"response","test_stimulus":{"position":1,"left":"bvh/vr_prediction_models/model(vcgpdm)-dataset(return-bottle-hold)-mode(ELBO)-parts(3)-dyn(10)-lvm(30)-hold(3)/final-lines.txt","right":"bvh/return-bottle-hold-training3-lines.txt","att_check":false},"trial_type":"html-keyboard-response","trial_index":46,"time_elapsed":137319,"internal_node_id":"0.0-8.0-3.9","subject":"47x2roe1ggjx28u","sona":"9634"},{"rt":359,"stimulus":"<p>Bereit?</p>","key_press":32,"trial_type":"html-keyboard-response","trial_index":47,"time_elapsed":137680,"internal_node_id":"0.0-8.0-0.10","subject":"47x2roe1ggjx28u","sona":"9634"},{"rt":null,"stimulus":"<div style=\"font-size:60px;\">+</div>","key_press":null,"trial_type":"html-keyboard-response","trial_index":48,"time_elapsed":139684,"internal_node_id":"0.0-8.0-1.10","subject":"47x2roe1ggjx28u","sona":"9634"},{"trial_type":"turing-test","trial_index":49,"time_elapsed":145183,"internal_node_id":"0.0-8.0-2.10","subject":"47x2roe1ggjx28u","sona":"9634"},{"rt":456,"stimulus":"<p>Welche Sequenz haben Sie als natürlicher empfunden?</p>","key_press":70,"test_part":"response","test_stimulus":{"position":1,"left":"bvh/vr_prediction_models/model(tmp)-dataset(pass-bottle)-numprim(14)-hold(1)/final-lines.txt","right":"bvh/pass-bottle-training1-lines.txt","att_check":false},"trial_type":"html-keyboard-response","trial_index":50,"time_elapsed":145641,"internal_node_id":"0.0-8.0-3.10","subject":"47x2roe1ggjx28u","sona":"9634"},{"rt":310,"stimulus":"<p>Bereit?</p>","key_press":32,"trial_type":"html-keyboard-response","trial_index":51,"time_elapsed":145953,"internal_node_id":"0.0-8.0-0.11","subject":"47x2roe1ggjx28u","sona":"9634"},{"rt":null,"stimulus":"<div style=\"font-size:60px;\">+</div>","key_press":null,"trial_type":"html-keyboard-response","trial_index":52,"time_elapsed":147956,"internal_node_id":"0.0-8.0-1.11","subject":"47x2roe1ggjx28u","sona":"9634"},{"trial_type":"turing-test","trial_index":53,"time_elapsed":153893,"internal_node_id":"0.0-8.0-2.11","subject":"47x2roe1ggjx28u","sona":"9634"}]