[{"rt":4670,"stimulus":"<p>Welcome!<br> Please choose your language to start the experiment in the chosen language.</p><p>Willkommen!<br> Bitte wählen Sie eine Sprache, um das Experiment in der ausgewählten Sprache zu starten</p>","button_pressed":"1","trial_type":"html-button-response","trial_index":0,"time_elapsed":4677,"internal_node_id":"0.0-0.0","subject":"q2q15rfnf0w89ub","sona":"7594"},{"view_history":"[{\"page_index\":0,\"viewing_time\":6851},{\"page_index\":1,\"viewing_time\":3686},{\"page_index\":2,\"viewing_time\":10359},{\"page_index\":3,\"viewing_time\":4870},{\"page_index\":4,\"viewing_time\":3357}]","rt":29123,"trial_type":"instructions","trial_index":1,"time_elapsed":33802,"internal_node_id":"0.0-1.0-0.0","subject":"q2q15rfnf0w89ub","sona":"7594"},{"rt":2970,"stimulus":"<p>Bereit?</p>","key_press":32,"trial_type":"html-keyboard-response","trial_index":2,"time_elapsed":36773,"internal_node_id":"0.0-3.0","subject":"q2q15rfnf0w89ub","sona":"7594"},{"rt":null,"stimulus":"<div style=\"font-size:60px;\">+</div>","key_press":null,"trial_type":"html-keyboard-response","trial_index":3,"time_elapsed":38775,"internal_node_id":"0.0-4.0","subject":"q2q15rfnf0w89ub","sona":"7594"},{"trial_type":"training","trial_index":4,"time_elapsed":42301,"internal_node_id":"0.0-5.0","subject":"q2q15rfnf0w89ub","sona":"7594"},{"rt":3211,"stimulus":"<p>Welche Sequenz haben Sie als natürlicher empfunden?</p>","key_press":70,"trial_type":"html-keyboard-response","trial_index":5,"time_elapsed":45513,"internal_node_id":"0.0-6.0","subject":"q2q15rfnf0w89ub","sona":"7594"},{"rt":4157,"stimulus":"<p>Das Experiment startet nun.</p><p><small>Bitte drücken Sie den Knopf, wenn Sie bereit sind.</small></p>","button_pressed":"0","trial_type":"html-button-response","trial_index":6,"time_elapsed":49671,"internal_node_id":"0.0-7.0","subject":"q2q15rfnf0w89ub","sona":"7594"},{"rt":1842,"stimulus":"<p>Bereit?</p>","key_press":32,"trial_type":"html-keyboard-response","trial_index":7,"time_elapsed":51514,"internal_node_id":"0.0-8.0-0.0","subject":"q2q15rfnf0w89ub","sona":"7594"},{"rt":null,"stimulus":"<div style=\"font-size:60px;\">+</div>","key_press":null,"trial_type":"html-keyboard-response","trial_index":8,"time_elapsed":53518,"internal_node_id":"0.0-8.0-1.0","subject":"q2q15rfnf0w89ub","sona":"7594"},{"trial_type":"turing-test","trial_index":9,"time_elapsed":60438,"internal_node_id":"0.0-8.0-2.0","subject":"q2q15rfnf0w89ub","sona":"7594"},{"rt":1323,"stimulus":"<p>Welche Sequenz haben Sie als natürlicher empfunden?</p>","key_press":74,"test_part":"response","test_stimulus":{"position":1,"left":"bvh/vr_prediction_models/model(vcgpdm)-dataset(pass-bottle)-mode(MAP)-parts(1)-hold(0)/final-lines.txt","right":"bvh/pass-bottle-training0-lines.txt","att_check":false},"trial_type":"html-keyboard-response","trial_index":10,"time_elapsed":61762,"internal_node_id":"0.0-8.0-3.0","subject":"q2q15rfnf0w89ub","sona":"7594"},{"rt":1366,"stimulus":"<p>Bereit?</p>","key_press":32,"trial_type":"html-keyboard-response","trial_index":11,"time_elapsed":63129,"internal_node_id":"0.0-8.0-0.1","subject":"q2q15rfnf0w89ub","sona":"7594"},{"rt":null,"stimulus":"<div style=\"font-size:60px;\">+</div>","key_press":null,"trial_type":"html-keyboard-response","trial_index":12,"time_elapsed":65134,"internal_node_id":"0.0-8.0-1.1","subject":"q2q15rfnf0w89ub","sona":"7594"},{"trial_type":"turing-test","trial_index":13,"time_elapsed":68580,"internal_node_id":"0.0-8.0-2.1","subject":"q2q15rfnf0w89ub","sona":"7594"},{"rt":1218,"stimulus":"<p>Welche Sequenz haben Sie als natürlicher empfunden?</p>","key_press":70,"test_part":"response","test_stimulus":{"position":0,"left":"bvh/pass-bottle-hold-training0-lines.txt","right":"bvh/vr_prediction_models/model(tmp)-dataset(pass-bottle-hold)-numprim(5)-hold(0)/final-lines.txt","att_check":false},"trial_type":"html-keyboard-response","trial_index":14,"time_elapsed":69798,"internal_node_id":"0.0-8.0-3.1","subject":"q2q15rfnf0w89ub","sona":"7594"},{"rt":853,"stimulus":"<p>Bereit?</p>","key_press":32,"trial_type":"html-keyboard-response","trial_index":15,"time_elapsed":70652,"internal_node_id":"0.0-8.0-0.2","subject":"q2q15rfnf0w89ub","sona":"7594"},{"rt":null,"stimulus":"<div style=\"font-size:60px;\">+</div>","key_press":null,"trial_type":"html-keyboard-response","trial_index":16,"time_elapsed":72657,"internal_node_id":"0.0-8.0-1.2","subject":"q2q15rfnf0w89ub","sona":"7594"},{"trial_type":"turing-test","trial_index":17,"time_elapsed":76527,"internal_node_id":"0.0-8.0-2.2","subject":"q2q15rfnf0w89ub","sona":"7594"},{"rt":1151,"stimulus":"<p>Welche Sequenz haben Sie als natürlicher empfunden?</p>","key_press":74,"test_part":"response","test_stimulus":{"position":0,"left":"bvh/return-bottle-hold-training4-lines.txt","right":"bvh/vr_prediction_models/model(tmp)-dataset(return-bottle-hold)-numprim(13)-hold(4)/final-lines.txt","att_check":false},"trial_type":"html-keyboard-response","trial_index":18,"time_elapsed":77680,"internal_node_id":"0.0-8.0-3.2","subject":"q2q15rfnf0w89ub","sona":"7594"},{"rt":526,"stimulus":"<p>Bereit?</p>","key_press":32,"trial_type":"html-keyboard-response","trial_index":19,"time_elapsed":78206,"internal_node_id":"0.0-8.0-0.3","subject":"q2q15rfnf0w89ub","sona":"7594"},{"rt":null,"stimulus":"<div style=\"font-size:60px;\">+</div>","key_press":null,"trial_type":"html-keyboard-response","trial_index":20,"time_elapsed":80210,"internal_node_id":"0.0-8.0-1.3","subject":"q2q15rfnf0w89ub","sona":"7594"},{"trial_type":"turing-test","trial_index":21,"time_elapsed":85559,"internal_node_id":"0.0-8.0-2.3","subject":"q2q15rfnf0w89ub","sona":"7594"},{"rt":458,"stimulus":"<p>Welche Sequenz haben Sie als natürlicher empfunden?</p>","key_press":70,"test_part":"response","test_stimulus":{"position":1,"left":"bvh/vr_prediction_models/model(vcgpdm)-dataset(return-bottle-hold)-mode(ELBO)-parts(1)-dyn(10)-lvm(25)-hold(0)/final-lines.txt","right":"bvh/return-bottle-hold-training0-lines.txt","att_check":false},"trial_type":"html-keyboard-response","trial_index":22,"time_elapsed":86018,"internal_node_id":"0.0-8.0-3.3","subject":"q2q15rfnf0w89ub","sona":"7594"},{"rt":688,"stimulus":"<p>Bereit?</p>","key_press":32,"trial_type":"html-keyboard-response","trial_index":23,"time_elapsed":86706,"internal_node_id":"0.0-8.0-0.4","subject":"q2q15rfnf0w89ub","sona":"7594"},{"rt":null,"stimulus":"<div style=\"font-size:60px;\">+</div>","key_press":null,"trial_type":"html-keyboard-response","trial_index":24,"time_elapsed":88709,"internal_node_id":"0.0-8.0-1.4","subject":"q2q15rfnf0w89ub","sona":"7594"},{"trial_type":"turing-test","trial_index":25,"time_elapsed":95558,"internal_node_id":"0.0-8.0-2.4","subject":"q2q15rfnf0w89ub","sona":"7594"},{"rt":761,"stimulus":"<p>Welche Sequenz haben Sie als natürlicher empfunden?</p>","key_press":70,"test_part":"response","test_stimulus":{"position":1,"left":"bvh/vr_prediction_models/model(vcgpdm)-dataset(return-bottle)-mode(ELBO)-parts(3)-dyn(10)-lvm(10)-hold(2)/final-lines.txt","right":"bvh/return-bottle-training2-lines.txt","att_check":false},"trial_type":"html-keyboard-response","trial_index":26,"time_elapsed":96321,"internal_node_id":"0.0-8.0-3.4","subject":"q2q15rfnf0w89ub","sona":"7594"},{"rt":442,"stimulus":"<p>Bereit?</p>","key_press":32,"trial_type":"html-keyboard-response","trial_index":27,"time_elapsed":96763,"internal_node_id":"0.0-8.0-0.5","subject":"q2q15rfnf0w89ub","sona":"7594"},{"rt":null,"stimulus":"<div style=\"font-size:60px;\">+</div>","key_press":null,"trial_type":"html-keyboard-response","trial_index":28,"time_elapsed":98767,"internal_node_id":"0.0-8.0-1.5","subject":"q2q15rfnf0w89ub","sona":"7594"},{"trial_type":"turing-test","trial_index":29,"time_elapsed":104350,"internal_node_id":"0.0-8.0-2.5","subject":"q2q15rfnf0w89ub","sona":"7594"},{"rt":747,"stimulus":"<p>Welche Sequenz haben Sie als natürlicher empfunden?</p>","key_press":74,"test_part":"response","test_stimulus":{"position":0,"left":"bvh/return-bottle-training0-lines.txt","right":"bvh/vr_prediction_models/model(vcgpdm)-dataset(return-bottle)-mode(ELBO)-parts(1)-dyn(20)-lvm(20)-hold(0)/final-lines.txt","att_check":false},"trial_type":"html-keyboard-response","trial_index":30,"time_elapsed":105097,"internal_node_id":"0.0-8.0-3.5","subject":"q2q15rfnf0w89ub","sona":"7594"},{"rt":606,"stimulus":"<p>Bereit?</p>","key_press":32,"trial_type":"html-keyboard-response","trial_index":31,"time_elapsed":105704,"internal_node_id":"0.0-8.0-0.6","subject":"q2q15rfnf0w89ub","sona":"7594"},{"rt":null,"stimulus":"<div style=\"font-size:60px;\">+</div>","key_press":null,"trial_type":"html-keyboard-response","trial_index":32,"time_elapsed":107709,"internal_node_id":"0.0-8.0-1.6","subject":"q2q15rfnf0w89ub","sona":"7594"},{"trial_type":"turing-test","trial_index":33,"time_elapsed":113134,"internal_node_id":"0.0-8.0-2.6","subject":"q2q15rfnf0w89ub","sona":"7594"},{"rt":332,"stimulus":"<p>Welche Sequenz haben Sie als natürlicher empfunden?</p>","key_press":74,"test_part":"response","test_stimulus":{"position":0,"left":"bvh/return-bottle-training0-lines.txt","right":"bvh/vr_prediction_models/model(tmp)-dataset(return-bottle)-numprim(4)-hold(0)/final-lines.txt","att_check":false},"trial_type":"html-keyboard-response","trial_index":34,"time_elapsed":113467,"internal_node_id":"0.0-8.0-3.6","subject":"q2q15rfnf0w89ub","sona":"7594"},{"rt":511,"stimulus":"<p>Bereit?</p>","key_press":32,"trial_type":"html-keyboard-response","trial_index":35,"time_elapsed":113979,"internal_node_id":"0.0-8.0-0.7","subject":"q2q15rfnf0w89ub","sona":"7594"},{"rt":null,"stimulus":"<div style=\"font-size:60px;\">+</div>","key_press":null,"trial_type":"html-keyboard-response","trial_index":36,"time_elapsed":115980,"internal_node_id":"0.0-8.0-1.7","subject":"q2q15rfnf0w89ub","sona":"7594"},{"trial_type":"turing-test","trial_index":37,"time_elapsed":121958,"internal_node_id":"0.0-8.0-2.7","subject":"q2q15rfnf0w89ub","sona":"7594"},{"rt":581,"stimulus":"<p>Welche Sequenz haben Sie als natürlicher empfunden?</p>","key_press":70,"test_part":"response","test_stimulus":{"position":1,"left":"bvh/vr_prediction_models/model(vcgpdm)-dataset(return-bottle)-mode(ELBO)-parts(1)-dyn(10)-lvm(5)-hold(4)/final-lines.txt","right":"bvh/return-bottle-training4-lines.txt","att_check":false},"trial_type":"html-keyboard-response","trial_index":38,"time_elapsed":122541,"internal_node_id":"0.0-8.0-3.7","subject":"q2q15rfnf0w89ub","sona":"7594"},{"rt":414,"stimulus":"<p>Bereit?</p>","key_press":32,"trial_type":"html-keyboard-response","trial_index":39,"time_elapsed":122955,"internal_node_id":"0.0-8.0-0.8","subject":"q2q15rfnf0w89ub","sona":"7594"},{"rt":null,"stimulus":"<div style=\"font-size:60px;\">+</div>","key_press":null,"trial_type":"html-keyboard-response","trial_index":40,"time_elapsed":124961,"internal_node_id":"0.0-8.0-1.8","subject":"q2q15rfnf0w89ub","sona":"7594"},{"trial_type":"turing-test","trial_index":41,"time_elapsed":128451,"internal_node_id":"0.0-8.0-2.8","subject":"q2q15rfnf0w89ub","sona":"7594"},{"rt":1792,"stimulus":"<p>Welche Sequenz haben Sie als natürlicher empfunden?</p>","key_press":70,"test_part":"response","test_stimulus":{"position":0,"left":"bvh/pass-bottle-hold-training2-lines.txt","right":"bvh/vr_prediction_models/model(dmp)-dataset(pass-bottle-hold)-npsi(40)-hold(2)/final-lines.txt","att_check":false},"trial_type":"html-keyboard-response","trial_index":42,"time_elapsed":130243,"internal_node_id":"0.0-8.0-3.8","subject":"q2q15rfnf0w89ub","sona":"7594"},{"rt":499,"stimulus":"<p>Bereit?</p>","key_press":32,"trial_type":"html-keyboard-response","trial_index":43,"time_elapsed":130742,"internal_node_id":"0.0-8.0-0.9","subject":"q2q15rfnf0w89ub","sona":"7594"},{"rt":null,"stimulus":"<div style=\"font-size:60px;\">+</div>","key_press":null,"trial_type":"html-keyboard-response","trial_index":44,"time_elapsed":132743,"internal_node_id":"0.0-8.0-1.9","subject":"q2q15rfnf0w89ub","sona":"7594"},{"trial_type":"turing-test","trial_index":45,"time_elapsed":138675,"internal_node_id":"0.0-8.0-2.9","subject":"q2q15rfnf0w89ub","sona":"7594"},{"rt":1559,"stimulus":"<p>Welche Sequenz haben Sie als natürlicher empfunden?</p>","key_press":74,"test_part":"response","test_stimulus":{"position":1,"left":"bvh/vr_prediction_models/model(vcgpdm)-dataset(return-bottle)-mode(ELBO)-parts(3)-dyn(15)-lvm(30)-hold(3)/final-lines.txt","right":"bvh/return-bottle-training3-lines.txt","att_check":false},"trial_type":"html-keyboard-response","trial_index":46,"time_elapsed":140235,"internal_node_id":"0.0-8.0-3.9","subject":"q2q15rfnf0w89ub","sona":"7594"},{"rt":439,"stimulus":"<p>Bereit?</p>","key_press":32,"trial_type":"html-keyboard-response","trial_index":47,"time_elapsed":140675,"internal_node_id":"0.0-8.0-0.10","subject":"q2q15rfnf0w89ub","sona":"7594"},{"rt":null,"stimulus":"<div style=\"font-size:60px;\">+</div>","key_press":null,"trial_type":"html-keyboard-response","trial_index":48,"time_elapsed":142680,"internal_node_id":"0.0-8.0-1.10","subject":"q2q15rfnf0w89ub","sona":"7594"},{"trial_type":"turing-test","trial_index":49,"time_elapsed":148608,"internal_node_id":"0.0-8.0-2.10","subject":"q2q15rfnf0w89ub","sona":"7594"},{"rt":570,"stimulus":"<p>Welche Sequenz haben Sie als natürlicher empfunden?</p>","key_press":74,"test_part":"response","test_stimulus":{"position":1,"left":"bvh/vr_prediction_models/model(dmp)-dataset(pass-bottle)-npsi(20)-hold(4)/final-lines.txt","right":"bvh/pass-bottle-training4-lines.txt","att_check":true},"trial_type":"html-keyboard-response","trial_index":50,"time_elapsed":149180,"internal_node_id":"0.0-8.0-3.10","subject":"q2q15rfnf0w89ub","sona":"7594"},{"rt":516,"stimulus":"<p>Bereit?</p>","key_press":32,"trial_type":"html-keyboard-response","trial_index":51,"time_elapsed":149696,"internal_node_id":"0.0-8.0-0.11","subject":"q2q15rfnf0w89ub","sona":"7594"},{"rt":null,"stimulus":"<div style=\"font-size:60px;\">+</div>","key_press":null,"trial_type":"html-keyboard-response","trial_index":52,"time_elapsed":151699,"internal_node_id":"0.0-8.0-1.11","subject":"q2q15rfnf0w89ub","sona":"7594"},{"trial_type":"turing-test","trial_index":53,"time_elapsed":157132,"internal_node_id":"0.0-8.0-2.11","subject":"q2q15rfnf0w89ub","sona":"7594"},{"rt":741,"stimulus":"<p>Welche Sequenz haben Sie als natürlicher empfunden?</p>","key_press":74,"test_part":"response","test_stimulus":{"position":1,"left":"bvh/vr_prediction_models/model(tmp)-dataset(return-bottle)-numprim(3)-hold(0)/final-lines.txt","right":"bvh/return-bottle-training0-lines.txt","att_check":false},"trial_type":"html-keyboard-response","trial_index":54,"time_elapsed":157873,"internal_node_id":"0.0-8.0-3.11","subject":"q2q15rfnf0w89ub","sona":"7594"},{"rt":629,"stimulus":"<p>Bereit?</p>","key_press":32,"trial_type":"html-keyboard-response","trial_index":55,"time_elapsed":158503,"internal_node_id":"0.0-8.0-0.12","subject":"q2q15rfnf0w89ub","sona":"7594"},{"rt":null,"stimulus":"<div style=\"font-size:60px;\">+</div>","key_press":null,"trial_type":"html-keyboard-response","trial_index":56,"time_elapsed":160508,"internal_node_id":"0.0-8.0-1.12","subject":"q2q15rfnf0w89ub","sona":"7594"},{"trial_type":"turing-test","trial_index":57,"time_elapsed":166264,"internal_node_id":"0.0-8.0-2.12","subject":"q2q15rfnf0w89ub","sona":"7594"},{"rt":527,"stimulus":"<p>Welche Sequenz haben Sie als natürlicher empfunden?</p>","key_press":74,"test_part":"response","test_stimulus":{"position":0,"left":"bvh/return-bottle-training3-lines.txt","right":"bvh/vr_prediction_models/model(tmp)-dataset(return-bottle)-numprim(9)-hold(3)/final-lines.txt","att_check":false},"trial_type":"html-keyboard-response","trial_index":58,"time_elapsed":166792,"internal_node_id":"0.0-8.0-3.12","subject":"q2q15rfnf0w89ub","sona":"7594"},{"rt":540,"stimulus":"<p>Bereit?</p>","key_press":32,"trial_type":"html-keyboard-response","trial_index":59,"time_elapsed":167332,"internal_node_id":"0.0-8.0-0.13","subject":"q2q15rfnf0w89ub","sona":"7594"},{"rt":null,"stimulus":"<div style=\"font-size:60px;\">+</div>","key_press":null,"trial_type":"html-keyboard-response","trial_index":60,"time_elapsed":169337,"internal_node_id":"0.0-8.0-1.13","subject":"q2q15rfnf0w89ub","sona":"7594"},{"trial_type":"turing-test","trial_index":61,"time_elapsed":175091,"internal_node_id":"0.0-8.0-2.13","subject":"q2q15rfnf0w89ub","sona":"7594"},{"rt":366,"stimulus":"<p>Welche Sequenz haben Sie als natürlicher empfunden?</p>","key_press":74,"test_part":"response","test_stimulus":{"position":0,"left":"bvh/return-bottle-training3-lines.txt","right":"bvh/vr_prediction_models/model(dmp)-dataset(return-bottle)-npsi(20)-hold(3)/final-lines.txt","att_check":false},"trial_type":"html-keyboard-response","trial_index":62,"time_elapsed":175458,"internal_node_id":"0.0-8.0-3.13","subject":"q2q15rfnf0w89ub","sona":"7594"},{"rt":530,"stimulus":"<p>Bereit?</p>","key_press":32,"trial_type":"html-keyboard-response","trial_index":63,"time_elapsed":175989,"internal_node_id":"0.0-8.0-0.14","subject":"q2q15rfnf0w89ub","sona":"7594"},{"rt":null,"stimulus":"<div style=\"font-size:60px;\">+</div>","key_press":null,"trial_type":"html-keyboard-response","trial_index":64,"time_elapsed":177992,"internal_node_id":"0.0-8.0-1.14","subject":"q2q15rfnf0w89ub","sona":"7594"},{"trial_type":"turing-test","trial_index":65,"time_elapsed":183412,"internal_node_id":"0.0-8.0-2.14","subject":"q2q15rfnf0w89ub","sona":"7594"},{"rt":583,"stimulus":"<p>Welche Sequenz haben Sie als natürlicher empfunden?</p>","key_press":74,"test_part":"response","test_stimulus":{"position":0,"left":"bvh/return-bottle-training0-lines.txt","right":"bvh/vr_prediction_models/model(dmp)-dataset(return-bottle)-npsi(40)-hold(0)/final-lines.txt","att_check":false},"trial_type":"html-keyboard-response","trial_index":66,"time_elapsed":183995,"internal_node_id":"0.0-8.0-3.14","subject":"q2q15rfnf0w89ub","sona":"7594"},{"rt":486,"stimulus":"<p>Bereit?</p>","key_press":32,"trial_type":"html-keyboard-response","trial_index":67,"time_elapsed":184482,"internal_node_id":"0.0-8.0-0.15","subject":"q2q15rfnf0w89ub","sona":"7594"},{"rt":null,"stimulus":"<div style=\"font-size:60px;\">+</div>","key_press":null,"trial_type":"html-keyboard-response","trial_index":68,"time_elapsed":186486,"internal_node_id":"0.0-8.0-1.15","subject":"q2q15rfnf0w89ub","sona":"7594"},{"trial_type":"turing-test","trial_index":69,"time_elapsed":192626,"internal_node_id":"0.0-8.0-2.15","subject":"q2q15rfnf0w89ub","sona":"7594"},{"rt":468,"stimulus":"<p>Welche Sequenz haben Sie als natürlicher empfunden?</p>","key_press":74,"test_part":"response","test_stimulus":{"position":1,"left":"bvh/vr_prediction_models/model(tmp)-dataset(return-bottle)-numprim(6)-hold(1)/final-lines.txt","right":"bvh/return-bottle-training1-lines.txt","att_check":false},"trial_type":"html-keyboard-response","trial_index":70,"time_elapsed":193095,"internal_node_id":"0.0-8.0-3.15","subject":"q2q15rfnf0w89ub","sona":"7594"},{"rt":497,"stimulus":"<p>Bereit?</p>","key_press":32,"trial_type":"html-keyboard-response","trial_index":71,"time_elapsed":193592,"internal_node_id":"0.0-8.0-0.16","subject":"q2q15rfnf0w89ub","sona":"7594"},{"rt":null,"stimulus":"<div style=\"font-size:60px;\">+</div>","key_press":null,"trial_type":"html-keyboard-response","trial_index":72,"time_elapsed":195596,"internal_node_id":"0.0-8.0-1.16","subject":"q2q15rfnf0w89ub","sona":"7594"},{"trial_type":"turing-test","trial_index":73,"time_elapsed":201470,"internal_node_id":"0.0-8.0-2.16","subject":"q2q15rfnf0w89ub","sona":"7594"},{"rt":373,"stimulus":"<p>Welche Sequenz haben Sie als natürlicher empfunden?</p>","key_press":70,"test_part":"response","test_stimulus":{"position":1,"left":"bvh/vr_prediction_models/model(vcgpdm)-dataset(return-bottle)-mode(ELBO)-parts(1)-dyn(20)-lvm(5)-hold(4)/final-lines.txt","right":"bvh/return-bottle-training4-lines.txt","att_check":false},"trial_type":"html-keyboard-response","trial_index":74,"time_elapsed":201844,"internal_node_id":"0.0-8.0-3.16","subject":"q2q15rfnf0w89ub","sona":"7594"},{"rt":462,"stimulus":"<p>Bereit?</p>","key_press":32,"trial_type":"html-keyboard-response","trial_index":75,"time_elapsed":202307,"internal_node_id":"0.0-8.0-0.17","subject":"q2q15rfnf0w89ub","sona":"7594"},{"rt":null,"stimulus":"<div style=\"font-size:60px;\">+</div>","key_press":null,"trial_type":"html-keyboard-response","trial_index":76,"time_elapsed":204310,"internal_node_id":"0.0-8.0-1.17","subject":"q2q15rfnf0w89ub","sona":"7594"},{"trial_type":"turing-test","trial_index":77,"time_elapsed":210115,"internal_node_id":"0.0-8.0-2.17","subject":"q2q15rfnf0w89ub","sona":"7594"},{"rt":1311,"stimulus":"<p>Welche Sequenz haben Sie als natürlicher empfunden?</p>","key_press":70,"test_part":"response","test_stimulus":{"position":1,"left":"bvh/vr_prediction_models/model(tmp)-dataset(return-bottle)-numprim(11)-hold(4)/final-lines.txt","right":"bvh/return-bottle-training4-lines.txt","att_check":false},"trial_type":"html-keyboard-response","trial_index":78,"time_elapsed":211428,"internal_node_id":"0.0-8.0-3.17","subject":"q2q15rfnf0w89ub","sona":"7594"},{"rt":718,"stimulus":"<p>Bereit?</p>","key_press":32,"trial_type":"html-keyboard-response","trial_index":79,"time_elapsed":212147,"internal_node_id":"0.0-8.0-0.18","subject":"q2q15rfnf0w89ub","sona":"7594"},{"rt":null,"stimulus":"<div style=\"font-size:60px;\">+</div>","key_press":null,"trial_type":"html-keyboard-response","trial_index":80,"time_elapsed":214149,"internal_node_id":"0.0-8.0-1.18","subject":"q2q15rfnf0w89ub","sona":"7594"},{"trial_type":"turing-test","trial_index":81,"time_elapsed":219904,"internal_node_id":"0.0-8.0-2.18","subject":"q2q15rfnf0w89ub","sona":"7594"},{"rt":475,"stimulus":"<p>Welche Sequenz haben Sie als natürlicher empfunden?</p>","key_press":74,"test_part":"response","test_stimulus":{"position":0,"left":"bvh/pass-bottle-training4-lines.txt","right":"bvh/vr_prediction_models/model(tmp)-dataset(pass-bottle)-numprim(8)-hold(4)/final-lines.txt","att_check":false},"trial_type":"html-keyboard-response","trial_index":82,"time_elapsed":220378,"internal_node_id":"0.0-8.0-3.18","subject":"q2q15rfnf0w89ub","sona":"7594"},{"rt":500,"stimulus":"<p>Bereit?</p>","key_press":32,"trial_type":"html-keyboard-response","trial_index":83,"time_elapsed":220881,"internal_node_id":"0.0-8.0-0.19","subject":"q2q15rfnf0w89ub","sona":"7594"},{"rt":null,"stimulus":"<div style=\"font-size:60px;\">+</div>","key_press":null,"trial_type":"html-keyboard-response","trial_index":84,"time_elapsed":222885,"internal_node_id":"0.0-8.0-1.19","subject":"q2q15rfnf0w89ub","sona":"7594"},{"trial_type":"turing-test","trial_index":85,"time_elapsed":229146,"internal_node_id":"0.0-8.0-2.19","subject":"q2q15rfnf0w89ub","sona":"7594"},{"rt":350,"stimulus":"<p>Welche Sequenz haben Sie als natürlicher empfunden?</p>","key_press":70,"test_part":"response","test_stimulus":{"position":0,"left":"bvh/pass-bottle-training2-lines.txt","right":"bvh/vr_prediction_models/model(dmp)-dataset(pass-bottle)-npsi(90)-hold(2)/final-lines.txt","att_check":false},"trial_type":"html-keyboard-response","trial_index":86,"time_elapsed":229497,"internal_node_id":"0.0-8.0-3.19","subject":"q2q15rfnf0w89ub","sona":"7594"},{"rt":618,"stimulus":"<p>Bereit?</p>","key_press":32,"trial_type":"html-keyboard-response","trial_index":87,"time_elapsed":230116,"internal_node_id":"0.0-8.0-0.20","subject":"q2q15rfnf0w89ub","sona":"7594"},{"rt":null,"stimulus":"<div style=\"font-size:60px;\">+</div>","key_press":null,"trial_type":"html-keyboard-response","trial_index":88,"time_elapsed":232120,"internal_node_id":"0.0-8.0-1.20","subject":"q2q15rfnf0w89ub","sona":"7594"},{"trial_type":"turing-test","trial_index":89,"time_elapsed":235778,"internal_node_id":"0.0-8.0-2.20","subject":"q2q15rfnf0w89ub","sona":"7594"},{"rt":709,"stimulus":"<p>Welche Sequenz haben Sie als natürlicher empfunden?</p>","key_press":70,"test_part":"response","test_stimulus":{"position":0,"left":"bvh/return-bottle-hold-training2-lines.txt","right":"bvh/vr_prediction_models/model(dmp)-dataset(return-bottle-hold)-npsi(50)-hold(2)/final-lines.txt","att_check":false},"trial_type":"html-keyboard-response","trial_index":90,"time_elapsed":236488,"internal_node_id":"0.0-8.0-3.20","subject":"q2q15rfnf0w89ub","sona":"7594"},{"rt":37005,"stimulus":"<p>Bereit?</p>","key_press":32,"trial_type":"html-keyboard-response","trial_index":91,"time_elapsed":273493,"internal_node_id":"0.0-8.0-0.21","subject":"q2q15rfnf0w89ub","sona":"7594"},{"rt":null,"stimulus":"<div style=\"font-size:60px;\">+</div>","key_press":null,"trial_type":"html-keyboard-response","trial_index":92,"time_elapsed":275493,"internal_node_id":"0.0-8.0-1.21","subject":"q2q15rfnf0w89ub","sona":"7594"},{"trial_type":"turing-test","trial_index":93,"time_elapsed":280617,"internal_node_id":"0.0-8.0-2.21","subject":"q2q15rfnf0w89ub","sona":"7594"},{"rt":181,"stimulus":"<p>Welche Sequenz haben Sie als natürlicher empfunden?</p>","key_press":74,"test_part":"response","test_stimulus":{"position":1,"left":"bvh/vr_prediction_models/model(dmp)-dataset(return-bottle-hold)-npsi(60)-hold(0)/final-lines.txt","right":"bvh/return-bottle-hold-training0-lines.txt","att_check":false},"trial_type":"html-keyboard-response","trial_index":94,"time_elapsed":280800,"internal_node_id":"0.0-8.0-3.21","subject":"q2q15rfnf0w89ub","sona":"7594"},{"rt":602,"stimulus":"<p>Bereit?</p>","key_press":32,"trial_type":"html-keyboard-response","trial_index":95,"time_elapsed":281404,"internal_node_id":"0.0-8.0-0.22","subject":"q2q15rfnf0w89ub","sona":"7594"},{"rt":null,"stimulus":"<div style=\"font-size:60px;\">+</div>","key_press":null,"trial_type":"html-keyboard-response","trial_index":96,"time_elapsed":283406,"internal_node_id":"0.0-8.0-1.22","subject":"q2q15rfnf0w89ub","sona":"7594"},{"trial_type":"turing-test","trial_index":97,"time_elapsed":289210,"internal_node_id":"0.0-8.0-2.22","subject":"q2q15rfnf0w89ub","sona":"7594"},{"rt":471,"stimulus":"<p>Welche Sequenz haben Sie als natürlicher empfunden?</p>","key_press":70,"test_part":"response","test_stimulus":{"position":1,"left":"bvh/vr_prediction_models/model(tmp)-dataset(return-bottle)-numprim(4)-hold(4)/final-lines.txt","right":"bvh/return-bottle-training4-lines.txt","att_check":false},"trial_type":"html-keyboard-response","trial_index":98,"time_elapsed":289683,"internal_node_id":"0.0-8.0-3.22","subject":"q2q15rfnf0w89ub","sona":"7594"},{"rt":12061,"stimulus":"<p>Bereit?</p>","key_press":32,"trial_type":"html-keyboard-response","trial_index":99,"time_elapsed":301745,"internal_node_id":"0.0-8.0-0.23","subject":"q2q15rfnf0w89ub","sona":"7594"},{"rt":null,"stimulus":"<div style=\"font-size:60px;\">+</div>","key_press":null,"trial_type":"html-keyboard-response","trial_index":100,"time_elapsed":303747,"internal_node_id":"0.0-8.0-1.23","subject":"q2q15rfnf0w89ub","sona":"7594"},{"trial_type":"turing-test","trial_index":101,"time_elapsed":307259,"internal_node_id":"0.0-8.0-2.23","subject":"q2q15rfnf0w89ub","sona":"7594"},{"rt":1091,"stimulus":"<p>Welche Sequenz haben Sie als natürlicher empfunden?</p>","key_press":74,"test_part":"response","test_stimulus":{"position":0,"left":"bvh/pass-bottle-hold-training1-lines.txt","right":"bvh/vr_prediction_models/model(vcgpdm)-dataset(pass-bottle-hold)-mode(ELBO)-parts(1)-dyn(10)-lvm(25)-hold(1)/final-lines.txt","att_check":false},"trial_type":"html-keyboard-response","trial_index":102,"time_elapsed":308352,"internal_node_id":"0.0-8.0-3.23","subject":"q2q15rfnf0w89ub","sona":"7594"},{"rt":561,"stimulus":"<p>Bereit?</p>","key_press":32,"trial_type":"html-keyboard-response","trial_index":103,"time_elapsed":308913,"internal_node_id":"0.0-8.0-0.24","subject":"q2q15rfnf0w89ub","sona":"7594"},{"rt":null,"stimulus":"<div style=\"font-size:60px;\">+</div>","key_press":null,"trial_type":"html-keyboard-response","trial_index":104,"time_elapsed":310917,"internal_node_id":"0.0-8.0-1.24","subject":"q2q15rfnf0w89ub","sona":"7594"},{"trial_type":"turing-test","trial_index":105,"time_elapsed":314355,"internal_node_id":"0.0-8.0-2.24","subject":"q2q15rfnf0w89ub","sona":"7594"},{"rt":333,"stimulus":"<p>Welche Sequenz haben Sie als natürlicher empfunden?</p>","key_press":74,"test_part":"response","test_stimulus":{"position":1,"left":"bvh/vr_prediction_models/model(tmp)-dataset(return-bottle-hold)-numprim(14)-hold(1)/final-lines.txt","right":"bvh/return-bottle-hold-training1-lines.txt","att_check":false},"trial_type":"html-keyboard-response","trial_index":106,"time_elapsed":314688,"internal_node_id":"0.0-8.0-3.24","subject":"q2q15rfnf0w89ub","sona":"7594"},{"rt":297,"stimulus":"<p>Bereit?</p>","key_press":32,"trial_type":"html-keyboard-response","trial_index":107,"time_elapsed":314986,"internal_node_id":"0.0-8.0-0.25","subject":"q2q15rfnf0w89ub","sona":"7594"},{"rt":null,"stimulus":"<div style=\"font-size:60px;\">+</div>","key_press":null,"trial_type":"html-keyboard-response","trial_index":108,"time_elapsed":316990,"internal_node_id":"0.0-8.0-1.25","subject":"q2q15rfnf0w89ub","sona":"7594"},{"trial_type":"turing-test","trial_index":109,"time_elapsed":320718,"internal_node_id":"0.0-8.0-2.25","subject":"q2q15rfnf0w89ub","sona":"7594"},{"rt":287,"stimulus":"<p>Welche Sequenz haben Sie als natürlicher empfunden?</p>","key_press":74,"test_part":"response","test_stimulus":{"position":1,"left":"bvh/vr_prediction_models/model(tmp)-dataset(pass-bottle-hold)-numprim(5)-hold(4)/final-lines.txt","right":"bvh/pass-bottle-hold-training4-lines.txt","att_check":false},"trial_type":"html-keyboard-response","trial_index":110,"time_elapsed":321006,"internal_node_id":"0.0-8.0-3.25","subject":"q2q15rfnf0w89ub","sona":"7594"},{"rt":377,"stimulus":"<p>Bereit?</p>","key_press":32,"trial_type":"html-keyboard-response","trial_index":111,"time_elapsed":321384,"internal_node_id":"0.0-8.0-0.26","subject":"q2q15rfnf0w89ub","sona":"7594"},{"rt":null,"stimulus":"<div style=\"font-size:60px;\">+</div>","key_press":null,"trial_type":"html-keyboard-response","trial_index":112,"time_elapsed":323388,"internal_node_id":"0.0-8.0-1.26","subject":"q2q15rfnf0w89ub","sona":"7594"},{"trial_type":"turing-test","trial_index":113,"time_elapsed":328968,"internal_node_id":"0.0-8.0-2.26","subject":"q2q15rfnf0w89ub","sona":"7594"},{"rt":720,"stimulus":"<p>Welche Sequenz haben Sie als natürlicher empfunden?</p>","key_press":70,"test_part":"response","test_stimulus":{"position":0,"left":"bvh/return-bottle-training0-lines.txt","right":"bvh/vr_prediction_models/model(vcgpdm)-dataset(return-bottle)-mode(ELBO)-parts(1)-dyn(30)-lvm(35)-hold(0)/final-lines.txt","att_check":false},"trial_type":"html-keyboard-response","trial_index":114,"time_elapsed":329688,"internal_node_id":"0.0-8.0-3.26","subject":"q2q15rfnf0w89ub","sona":"7594"},{"rt":430,"stimulus":"<p>Bereit?</p>","key_press":32,"trial_type":"html-keyboard-response","trial_index":115,"time_elapsed":330119,"internal_node_id":"0.0-8.0-0.27","subject":"q2q15rfnf0w89ub","sona":"7594"},{"rt":null,"stimulus":"<div style=\"font-size:60px;\">+</div>","key_press":null,"trial_type":"html-keyboard-response","trial_index":116,"time_elapsed":332122,"internal_node_id":"0.0-8.0-1.27","subject":"q2q15rfnf0w89ub","sona":"7594"},{"trial_type":"turing-test","trial_index":117,"time_elapsed":338133,"internal_node_id":"0.0-8.0-2.27","subject":"q2q15rfnf0w89ub","sona":"7594"},{"rt":490,"stimulus":"<p>Welche Sequenz haben Sie als natürlicher empfunden?</p>","key_press":70,"test_part":"response","test_stimulus":{"position":1,"left":"bvh/vr_prediction_models/model(vcgpdm)-dataset(pass-bottle)-mode(ELBO)-parts(1)-dyn(35)-lvm(10)-hold(3)/final-lines.txt","right":"bvh/pass-bottle-training3-lines.txt","att_check":false},"trial_type":"html-keyboard-response","trial_index":118,"time_elapsed":338623,"internal_node_id":"0.0-8.0-3.27","subject":"q2q15rfnf0w89ub","sona":"7594"},{"rt":366,"stimulus":"<p>Bereit?</p>","key_press":32,"trial_type":"html-keyboard-response","trial_index":119,"time_elapsed":338989,"internal_node_id":"0.0-8.0-0.28","subject":"q2q15rfnf0w89ub","sona":"7594"},{"rt":null,"stimulus":"<div style=\"font-size:60px;\">+</div>","key_press":null,"trial_type":"html-keyboard-response","trial_index":120,"time_elapsed":340994,"internal_node_id":"0.0-8.0-1.28","subject":"q2q15rfnf0w89ub","sona":"7594"},{"trial_type":"turing-test","trial_index":121,"time_elapsed":344496,"internal_node_id":"0.0-8.0-2.28","subject":"q2q15rfnf0w89ub","sona":"7594"},{"rt":507,"stimulus":"<p>Welche Sequenz haben Sie als natürlicher empfunden?</p>","key_press":74,"test_part":"response","test_stimulus":{"position":1,"left":"bvh/vr_prediction_models/model(vcgpdm)-dataset(return-bottle-hold)-mode(ELBO)-parts(1)-dyn(10)-lvm(25)-hold(1)/final-lines.txt","right":"bvh/return-bottle-hold-training1-lines.txt","att_check":false},"trial_type":"html-keyboard-response","trial_index":122,"time_elapsed":345005,"internal_node_id":"0.0-8.0-3.28","subject":"q2q15rfnf0w89ub","sona":"7594"},{"rt":417,"stimulus":"<p>Bereit?</p>","key_press":32,"trial_type":"html-keyboard-response","trial_index":123,"time_elapsed":345424,"internal_node_id":"0.0-8.0-0.29","subject":"q2q15rfnf0w89ub","sona":"7594"},{"rt":null,"stimulus":"<div style=\"font-size:60px;\">+</div>","key_press":null,"trial_type":"html-keyboard-response","trial_index":124,"time_elapsed":347428,"internal_node_id":"0.0-8.0-1.29","subject":"q2q15rfnf0w89ub","sona":"7594"},{"trial_type":"turing-test","trial_index":125,"time_elapsed":353190,"internal_node_id":"0.0-8.0-2.29","subject":"q2q15rfnf0w89ub","sona":"7594"},{"rt":338,"stimulus":"<p>Welche Sequenz haben Sie als natürlicher empfunden?</p>","key_press":70,"test_part":"response","test_stimulus":{"position":1,"left":"bvh/vr_prediction_models/model(dmp)-dataset(return-bottle)-npsi(50)-hold(3)/final-lines.txt","right":"bvh/return-bottle-training3-lines.txt","att_check":false},"trial_type":"html-keyboard-response","trial_index":126,"time_elapsed":353529,"internal_node_id":"0.0-8.0-3.29","subject":"q2q15rfnf0w89ub","sona":"7594"},{"rt":337,"stimulus":"<p>Bereit?</p>","key_press":32,"trial_type":"html-keyboard-response","trial_index":127,"time_elapsed":353868,"internal_node_id":"0.0-8.0-0.30","subject":"q2q15rfnf0w89ub","sona":"7594"},{"rt":null,"stimulus":"<div style=\"font-size:60px;\">+</div>","key_press":null,"trial_type":"html-keyboard-response","trial_index":128,"time_elapsed":355873,"internal_node_id":"0.0-8.0-1.30","subject":"q2q15rfnf0w89ub","sona":"7594"},{"trial_type":"turing-test","trial_index":129,"time_elapsed":359461,"internal_node_id":"0.0-8.0-2.30","subject":"q2q15rfnf0w89ub","sona":"7594"},{"rt":820,"stimulus":"<p>Welche Sequenz haben Sie als natürlicher empfunden?</p>","key_press":74,"test_part":"response","test_stimulus":{"position":1,"left":"bvh/vr_prediction_models/model(vcgpdm)-dataset(pass-bottle-hold)-mode(ELBO)-parts(1)-dyn(5)-lvm(5)-hold(0)/final-lines.txt","right":"bvh/pass-bottle-hold-training0-lines.txt","att_check":false},"trial_type":"html-keyboard-response","trial_index":130,"time_elapsed":360283,"internal_node_id":"0.0-8.0-3.30","subject":"q2q15rfnf0w89ub","sona":"7594"},{"rt":701,"stimulus":"<p>Bereit?</p>","key_press":32,"trial_type":"html-keyboard-response","trial_index":131,"time_elapsed":360984,"internal_node_id":"0.0-8.0-0.31","subject":"q2q15rfnf0w89ub","sona":"7594"},{"rt":null,"stimulus":"<div style=\"font-size:60px;\">+</div>","key_press":null,"trial_type":"html-keyboard-response","trial_index":132,"time_elapsed":362990,"internal_node_id":"0.0-8.0-1.31","subject":"q2q15rfnf0w89ub","sona":"7594"},{"trial_type":"turing-test","trial_index":133,"time_elapsed":368987,"internal_node_id":"0.0-8.0-2.31","subject":"q2q15rfnf0w89ub","sona":"7594"},{"rt":436,"stimulus":"<p>Welche Sequenz haben Sie als natürlicher empfunden?</p>","key_press":74,"test_part":"response","test_stimulus":{"position":1,"left":"bvh/vr_prediction_models/model(vcgpdm)-dataset(pass-bottle)-mode(MAP)-parts(1)-hold(3)/final-lines.txt","right":"bvh/pass-bottle-training3-lines.txt","att_check":false},"trial_type":"html-keyboard-response","trial_index":134,"time_elapsed":369424,"internal_node_id":"0.0-8.0-3.31","subject":"q2q15rfnf0w89ub","sona":"7594"},{"rt":537,"stimulus":"<p>Bereit?</p>","key_press":32,"trial_type":"html-keyboard-response","trial_index":135,"time_elapsed":369963,"internal_node_id":"0.0-8.0-0.32","subject":"q2q15rfnf0w89ub","sona":"7594"},{"rt":null,"stimulus":"<div style=\"font-size:60px;\">+</div>","key_press":null,"trial_type":"html-keyboard-response","trial_index":136,"time_elapsed":371965,"internal_node_id":"0.0-8.0-1.32","subject":"q2q15rfnf0w89ub","sona":"7594"},{"trial_type":"turing-test","trial_index":137,"time_elapsed":378558,"internal_node_id":"0.0-8.0-2.32","subject":"q2q15rfnf0w89ub","sona":"7594"},{"rt":1817,"stimulus":"<p>Welche Sequenz haben Sie als natürlicher empfunden?</p>","key_press":74,"test_part":"response","test_stimulus":{"position":0,"left":"bvh/return-bottle-training2-lines.txt","right":"bvh/vr_prediction_models/model(tmp)-dataset(return-bottle)-numprim(8)-hold(2)/final-lines.txt","att_check":false},"trial_type":"html-keyboard-response","trial_index":138,"time_elapsed":380376,"internal_node_id":"0.0-8.0-3.32","subject":"q2q15rfnf0w89ub","sona":"7594"},{"rt":1115,"stimulus":"<p>Bereit?</p>","key_press":32,"trial_type":"html-keyboard-response","trial_index":139,"time_elapsed":381492,"internal_node_id":"0.0-8.0-0.33","subject":"q2q15rfnf0w89ub","sona":"7594"},{"rt":null,"stimulus":"<div style=\"font-size:60px;\">+</div>","key_press":null,"trial_type":"html-keyboard-response","trial_index":140,"time_elapsed":383497,"internal_node_id":"0.0-8.0-1.33","subject":"q2q15rfnf0w89ub","sona":"7594"},{"trial_type":"turing-test","trial_index":141,"time_elapsed":389262,"internal_node_id":"0.0-8.0-2.33","subject":"q2q15rfnf0w89ub","sona":"7594"},{"rt":749,"stimulus":"<p>Welche Sequenz haben Sie als natürlicher empfunden?</p>","key_press":70,"test_part":"response","test_stimulus":{"position":1,"left":"bvh/vr_prediction_models/model(tmp)-dataset(return-bottle)-numprim(11)-hold(3)/final-lines.txt","right":"bvh/return-bottle-training3-lines.txt","att_check":false},"trial_type":"html-keyboard-response","trial_index":142,"time_elapsed":390011,"internal_node_id":"0.0-8.0-3.33","subject":"q2q15rfnf0w89ub","sona":"7594"},{"rt":22468,"stimulus":"<p>Bereit?</p>","key_press":32,"trial_type":"html-keyboard-response","trial_index":143,"time_elapsed":412481,"internal_node_id":"0.0-8.0-0.34","subject":"q2q15rfnf0w89ub","sona":"7594"},{"rt":null,"stimulus":"<div style=\"font-size:60px;\">+</div>","key_press":null,"trial_type":"html-keyboard-response","trial_index":144,"time_elapsed":414485,"internal_node_id":"0.0-8.0-1.34","subject":"q2q15rfnf0w89ub","sona":"7594"},{"trial_type":"turing-test","trial_index":145,"time_elapsed":421076,"internal_node_id":"0.0-8.0-2.34","subject":"q2q15rfnf0w89ub","sona":"7594"},{"rt":360,"stimulus":"<p>Welche Sequenz haben Sie als natürlicher empfunden?</p>","key_press":74,"test_part":"response","test_stimulus":{"position":0,"left":"bvh/return-bottle-training2-lines.txt","right":"bvh/vr_prediction_models/model(tmp)-dataset(return-bottle)-numprim(5)-hold(2)/final-lines.txt","att_check":false},"trial_type":"html-keyboard-response","trial_index":146,"time_elapsed":421438,"internal_node_id":"0.0-8.0-3.34","subject":"q2q15rfnf0w89ub","sona":"7594"},{"rt":437,"stimulus":"<p>Bereit?</p>","key_press":32,"trial_type":"html-keyboard-response","trial_index":147,"time_elapsed":421876,"internal_node_id":"0.0-8.0-0.35","subject":"q2q15rfnf0w89ub","sona":"7594"},{"rt":null,"stimulus":"<div style=\"font-size:60px;\">+</div>","key_press":null,"trial_type":"html-keyboard-response","trial_index":148,"time_elapsed":423881,"internal_node_id":"0.0-8.0-1.35","subject":"q2q15rfnf0w89ub","sona":"7594"},{"trial_type":"turing-test","trial_index":149,"time_elapsed":427304,"internal_node_id":"0.0-8.0-2.35","subject":"q2q15rfnf0w89ub","sona":"7594"},{"rt":785,"stimulus":"<p>Welche Sequenz haben Sie als natürlicher empfunden?</p>","key_press":70,"test_part":"response","test_stimulus":{"position":0,"left":"bvh/pass-bottle-hold-training0-lines.txt","right":"bvh/vr_prediction_models/model(dmp)-dataset(pass-bottle-hold)-npsi(50)-hold(0)/final-lines.txt","att_check":false},"trial_type":"html-keyboard-response","trial_index":150,"time_elapsed":428090,"internal_node_id":"0.0-8.0-3.35","subject":"q2q15rfnf0w89ub","sona":"7594"},{"rt":381,"stimulus":"<p>Bereit?</p>","key_press":32,"trial_type":"html-keyboard-response","trial_index":151,"time_elapsed":428471,"internal_node_id":"0.0-8.0-0.36","subject":"q2q15rfnf0w89ub","sona":"7594"},{"rt":null,"stimulus":"<div style=\"font-size:60px;\">+</div>","key_press":null,"trial_type":"html-keyboard-response","trial_index":152,"time_elapsed":430475,"internal_node_id":"0.0-8.0-1.36","subject":"q2q15rfnf0w89ub","sona":"7594"},{"trial_type":"turing-test","trial_index":153,"time_elapsed":436231,"internal_node_id":"0.0-8.0-2.36","subject":"q2q15rfnf0w89ub","sona":"7594"},{"rt":597,"stimulus":"<p>Welche Sequenz haben Sie als natürlicher empfunden?</p>","key_press":74,"test_part":"response","test_stimulus":{"position":0,"left":"bvh/return-bottle-training3-lines.txt","right":"bvh/vr_prediction_models/model(tmp)-dataset(return-bottle)-numprim(13)-hold(3)/final-lines.txt","att_check":false},"trial_type":"html-keyboard-response","trial_index":154,"time_elapsed":436829,"internal_node_id":"0.0-8.0-3.36","subject":"q2q15rfnf0w89ub","sona":"7594"},{"rt":435,"stimulus":"<p>Bereit?</p>","key_press":32,"trial_type":"html-keyboard-response","trial_index":155,"time_elapsed":437265,"internal_node_id":"0.0-8.0-0.37","subject":"q2q15rfnf0w89ub","sona":"7594"},{"rt":null,"stimulus":"<div style=\"font-size:60px;\">+</div>","key_press":null,"trial_type":"html-keyboard-response","trial_index":156,"time_elapsed":439271,"internal_node_id":"0.0-8.0-1.37","subject":"q2q15rfnf0w89ub","sona":"7594"},{"trial_type":"turing-test","trial_index":157,"time_elapsed":445248,"internal_node_id":"0.0-8.0-2.37","subject":"q2q15rfnf0w89ub","sona":"7594"},{"rt":560,"stimulus":"<p>Welche Sequenz haben Sie als natürlicher empfunden?</p>","key_press":74,"test_part":"response","test_stimulus":{"position":0,"left":"bvh/pass-bottle-training3-lines.txt","right":"bvh/vr_prediction_models/model(vcgpdm)-dataset(pass-bottle)-mode(ELBO)-parts(3)-dyn(35)-lvm(20)-hold(3)/final-lines.txt","att_check":false},"trial_type":"html-keyboard-response","trial_index":158,"time_elapsed":445808,"internal_node_id":"0.0-8.0-3.37","subject":"q2q15rfnf0w89ub","sona":"7594"},{"rt":301,"stimulus":"<p>Bereit?</p>","key_press":32,"trial_type":"html-keyboard-response","trial_index":159,"time_elapsed":446110,"internal_node_id":"0.0-8.0-0.38","subject":"q2q15rfnf0w89ub","sona":"7594"},{"rt":null,"stimulus":"<div style=\"font-size:60px;\">+</div>","key_press":null,"trial_type":"html-keyboard-response","trial_index":160,"time_elapsed":448115,"internal_node_id":"0.0-8.0-1.38","subject":"q2q15rfnf0w89ub","sona":"7594"},{"trial_type":"turing-test","trial_index":161,"time_elapsed":451617,"internal_node_id":"0.0-8.0-2.38","subject":"q2q15rfnf0w89ub","sona":"7594"},{"rt":334,"stimulus":"<p>Welche Sequenz haben Sie als natürlicher empfunden?</p>","key_press":74,"test_part":"response","test_stimulus":{"position":0,"left":"bvh/return-bottle-hold-training2-lines.txt","right":"bvh/vr_prediction_models/model(tmp)-dataset(return-bottle-hold)-numprim(4)-hold(2)/final-lines.txt","att_check":false},"trial_type":"html-keyboard-response","trial_index":162,"time_elapsed":451952,"internal_node_id":"0.0-8.0-3.38","subject":"q2q15rfnf0w89ub","sona":"7594"},{"rt":590,"stimulus":"<p>Bereit?</p>","key_press":32,"trial_type":"html-keyboard-response","trial_index":163,"time_elapsed":452545,"internal_node_id":"0.0-8.0-0.39","subject":"q2q15rfnf0w89ub","sona":"7594"},{"rt":null,"stimulus":"<div style=\"font-size:60px;\">+</div>","key_press":null,"trial_type":"html-keyboard-response","trial_index":164,"time_elapsed":454545,"internal_node_id":"0.0-8.0-1.39","subject":"q2q15rfnf0w89ub","sona":"7594"},{"trial_type":"turing-test","trial_index":165,"time_elapsed":461382,"internal_node_id":"0.0-8.0-2.39","subject":"q2q15rfnf0w89ub","sona":"7594"},{"rt":375,"stimulus":"<p>Welche Sequenz haben Sie als natürlicher empfunden?</p>","key_press":74,"test_part":"response","test_stimulus":{"position":0,"left":"bvh/pass-bottle-training0-lines.txt","right":"bvh/vr_prediction_models/model(vcgpdm)-dataset(pass-bottle)-mode(ELBO)-parts(1)-dyn(15)-lvm(35)-hold(0)/final-lines.txt","att_check":false},"trial_type":"html-keyboard-response","trial_index":166,"time_elapsed":461759,"internal_node_id":"0.0-8.0-3.39","subject":"q2q15rfnf0w89ub","sona":"7594"},{"rt":324,"stimulus":"<p>Bereit?</p>","key_press":32,"trial_type":"html-keyboard-response","trial_index":167,"time_elapsed":462085,"internal_node_id":"0.0-8.0-0.40","subject":"q2q15rfnf0w89ub","sona":"7594"},{"rt":null,"stimulus":"<div style=\"font-size:60px;\">+</div>","key_press":null,"trial_type":"html-keyboard-response","trial_index":168,"time_elapsed":464089,"internal_node_id":"0.0-8.0-1.40","subject":"q2q15rfnf0w89ub","sona":"7594"},{"trial_type":"turing-test","trial_index":169,"time_elapsed":469976,"internal_node_id":"0.0-8.0-2.40","subject":"q2q15rfnf0w89ub","sona":"7594"},{"rt":706,"stimulus":"<p>Welche Sequenz haben Sie als natürlicher empfunden?</p>","key_press":70,"test_part":"response","test_stimulus":{"position":1,"left":"bvh/vr_prediction_models/model(vcgpdm)-dataset(return-bottle)-mode(ELBO)-parts(3)-dyn(10)-lvm(30)-hold(3)/final-lines.txt","right":"bvh/return-bottle-training3-lines.txt","att_check":false},"trial_type":"html-keyboard-response","trial_index":170,"time_elapsed":470684,"internal_node_id":"0.0-8.0-3.40","subject":"q2q15rfnf0w89ub","sona":"7594"},{"rt":1539,"stimulus":"<p>Bereit?</p>","key_press":32,"trial_type":"html-keyboard-response","trial_index":171,"time_elapsed":472223,"internal_node_id":"0.0-8.0-0.41","subject":"q2q15rfnf0w89ub","sona":"7594"},{"rt":null,"stimulus":"<div style=\"font-size:60px;\">+</div>","key_press":null,"trial_type":"html-keyboard-response","trial_index":172,"time_elapsed":474229,"internal_node_id":"0.0-8.0-1.41","subject":"q2q15rfnf0w89ub","sona":"7594"},{"trial_type":"turing-test","trial_index":173,"time_elapsed":479893,"internal_node_id":"0.0-8.0-2.41","subject":"q2q15rfnf0w89ub","sona":"7594"},{"rt":464,"stimulus":"<p>Welche Sequenz haben Sie als natürlicher empfunden?</p>","key_press":74,"test_part":"response","test_stimulus":{"position":0,"left":"bvh/pass-bottle-training1-lines.txt","right":"bvh/vr_prediction_models/model(vcgpdm)-dataset(pass-bottle)-mode(ELBO)-parts(3)-dyn(20)-lvm(20)-hold(1)/final-lines.txt","att_check":false},"trial_type":"html-keyboard-response","trial_index":174,"time_elapsed":480359,"internal_node_id":"0.0-8.0-3.41","subject":"q2q15rfnf0w89ub","sona":"7594"},{"rt":360,"stimulus":"<p>Bereit?</p>","key_press":32,"trial_type":"html-keyboard-response","trial_index":175,"time_elapsed":480721,"internal_node_id":"0.0-8.0-0.42","subject":"q2q15rfnf0w89ub","sona":"7594"},{"rt":null,"stimulus":"<div style=\"font-size:60px;\">+</div>","key_press":null,"trial_type":"html-keyboard-response","trial_index":176,"time_elapsed":482726,"internal_node_id":"0.0-8.0-1.42","subject":"q2q15rfnf0w89ub","sona":"7594"},{"trial_type":"turing-test","trial_index":177,"time_elapsed":486178,"internal_node_id":"0.0-8.0-2.42","subject":"q2q15rfnf0w89ub","sona":"7594"},{"rt":479,"stimulus":"<p>Welche Sequenz haben Sie als natürlicher empfunden?</p>","key_press":74,"test_part":"response","test_stimulus":{"position":0,"left":"bvh/pass-bottle-hold-training0-lines.txt","right":"bvh/vr_prediction_models/model(vcgpdm)-dataset(pass-bottle-hold)-mode(ELBO)-parts(1)-dyn(25)-lvm(35)-hold(0)/final-lines.txt","att_check":false},"trial_type":"html-keyboard-response","trial_index":178,"time_elapsed":486658,"internal_node_id":"0.0-8.0-3.42","subject":"q2q15rfnf0w89ub","sona":"7594"},{"rt":254,"stimulus":"<p>Bereit?</p>","key_press":32,"trial_type":"html-keyboard-response","trial_index":179,"time_elapsed":486913,"internal_node_id":"0.0-8.0-0.43","subject":"q2q15rfnf0w89ub","sona":"7594"},{"rt":null,"stimulus":"<div style=\"font-size:60px;\">+</div>","key_press":null,"trial_type":"html-keyboard-response","trial_index":180,"time_elapsed":488917,"internal_node_id":"0.0-8.0-1.43","subject":"q2q15rfnf0w89ub","sona":"7594"},{"trial_type":"turing-test","trial_index":181,"time_elapsed":495745,"internal_node_id":"0.0-8.0-2.43","subject":"q2q15rfnf0w89ub","sona":"7594"},{"rt":485,"stimulus":"<p>Welche Sequenz haben Sie als natürlicher empfunden?</p>","key_press":74,"test_part":"response","test_stimulus":{"position":1,"left":"bvh/vr_prediction_models/model(dmp)-dataset(return-bottle)-npsi(80)-hold(2)/final-lines.txt","right":"bvh/return-bottle-training2-lines.txt","att_check":false},"trial_type":"html-keyboard-response","trial_index":182,"time_elapsed":496230,"internal_node_id":"0.0-8.0-3.43","subject":"q2q15rfnf0w89ub","sona":"7594"},{"rt":305,"stimulus":"<p>Bereit?</p>","key_press":32,"trial_type":"html-keyboard-response","trial_index":183,"time_elapsed":496536,"internal_node_id":"0.0-8.0-0.44","subject":"q2q15rfnf0w89ub","sona":"7594"},{"rt":null,"stimulus":"<div style=\"font-size:60px;\">+</div>","key_press":null,"trial_type":"html-keyboard-response","trial_index":184,"time_elapsed":498540,"internal_node_id":"0.0-8.0-1.44","subject":"q2q15rfnf0w89ub","sona":"7594"},{"trial_type":"turing-test","trial_index":185,"time_elapsed":502085,"internal_node_id":"0.0-8.0-2.44","subject":"q2q15rfnf0w89ub","sona":"7594"},{"rt":1006,"stimulus":"<p>Welche Sequenz haben Sie als natürlicher empfunden?</p>","key_press":74,"test_part":"response","test_stimulus":{"position":1,"left":"bvh/vr_prediction_models/model(vcgpdm)-dataset(return-bottle-hold)-mode(ELBO)-parts(3)-dyn(20)-lvm(15)-hold(1)/final-lines.txt","right":"bvh/return-bottle-hold-training1-lines.txt","att_check":false},"trial_type":"html-keyboard-response","trial_index":186,"time_elapsed":503092,"internal_node_id":"0.0-8.0-3.44","subject":"q2q15rfnf0w89ub","sona":"7594"},{"rt":297,"stimulus":"<p>Bereit?</p>","key_press":32,"trial_type":"html-keyboard-response","trial_index":187,"time_elapsed":503389,"internal_node_id":"0.0-8.0-0.45","subject":"q2q15rfnf0w89ub","sona":"7594"},{"rt":null,"stimulus":"<div style=\"font-size:60px;\">+</div>","key_press":null,"trial_type":"html-keyboard-response","trial_index":188,"time_elapsed":505395,"internal_node_id":"0.0-8.0-1.45","subject":"q2q15rfnf0w89ub","sona":"7594"},{"trial_type":"turing-test","trial_index":189,"time_elapsed":509150,"internal_node_id":"0.0-8.0-2.45","subject":"q2q15rfnf0w89ub","sona":"7594"},{"rt":466,"stimulus":"<p>Welche Sequenz haben Sie als natürlicher empfunden?</p>","key_press":70,"test_part":"response","test_stimulus":{"position":0,"left":"bvh/return-bottle-hold-training4-lines.txt","right":"bvh/vr_prediction_models/model(dmp)-dataset(return-bottle-hold)-npsi(40)-hold(4)/final-lines.txt","att_check":false},"trial_type":"html-keyboard-response","trial_index":190,"time_elapsed":509616,"internal_node_id":"0.0-8.0-3.45","subject":"q2q15rfnf0w89ub","sona":"7594"},{"rt":271,"stimulus":"<p>Bereit?</p>","key_press":32,"trial_type":"html-keyboard-response","trial_index":191,"time_elapsed":509888,"internal_node_id":"0.0-8.0-0.46","subject":"q2q15rfnf0w89ub","sona":"7594"},{"rt":null,"stimulus":"<div style=\"font-size:60px;\">+</div>","key_press":null,"trial_type":"html-keyboard-response","trial_index":192,"time_elapsed":511893,"internal_node_id":"0.0-8.0-1.46","subject":"q2q15rfnf0w89ub","sona":"7594"},{"trial_type":"turing-test","trial_index":193,"time_elapsed":515476,"internal_node_id":"0.0-8.0-2.46","subject":"q2q15rfnf0w89ub","sona":"7594"},{"rt":1091,"stimulus":"<p>Welche Sequenz haben Sie als natürlicher empfunden?</p>","key_press":74,"test_part":"response","test_stimulus":{"position":0,"left":"bvh/return-bottle-hold-training2-lines.txt","right":"bvh/vr_prediction_models/model(vcgpdm)-dataset(return-bottle-hold)-mode(ELBO)-parts(1)-dyn(35)-lvm(10)-hold(2)/final-lines.txt","att_check":false},"trial_type":"html-keyboard-response","trial_index":194,"time_elapsed":516568,"internal_node_id":"0.0-8.0-3.46","subject":"q2q15rfnf0w89ub","sona":"7594"},{"rt":293,"stimulus":"<p>Bereit?</p>","key_press":32,"trial_type":"html-keyboard-response","trial_index":195,"time_elapsed":516863,"internal_node_id":"0.0-8.0-0.47","subject":"q2q15rfnf0w89ub","sona":"7594"},{"rt":null,"stimulus":"<div style=\"font-size:60px;\">+</div>","key_press":null,"trial_type":"html-keyboard-response","trial_index":196,"time_elapsed":518866,"internal_node_id":"0.0-8.0-1.47","subject":"q2q15rfnf0w89ub","sona":"7594"},{"trial_type":"turing-test","trial_index":197,"time_elapsed":522390,"internal_node_id":"0.0-8.0-2.47","subject":"q2q15rfnf0w89ub","sona":"7594"},{"rt":490,"stimulus":"<p>Welche Sequenz haben Sie als natürlicher empfunden?</p>","key_press":74,"test_part":"response","test_stimulus":{"position":1,"left":"bvh/vr_prediction_models/model(tmp)-dataset(return-bottle-hold)-numprim(10)-hold(2)/final-lines.txt","right":"bvh/return-bottle-hold-training2-lines.txt","att_check":false},"trial_type":"html-keyboard-response","trial_index":198,"time_elapsed":522882,"internal_node_id":"0.0-8.0-3.47","subject":"q2q15rfnf0w89ub","sona":"7594"},{"rt":331,"stimulus":"<p>Bereit?</p>","key_press":32,"trial_type":"html-keyboard-response","trial_index":199,"time_elapsed":523214,"internal_node_id":"0.0-8.0-0.48","subject":"q2q15rfnf0w89ub","sona":"7594"},{"rt":null,"stimulus":"<div style=\"font-size:60px;\">+</div>","key_press":null,"trial_type":"html-keyboard-response","trial_index":200,"time_elapsed":525216,"internal_node_id":"0.0-8.0-1.48","subject":"q2q15rfnf0w89ub","sona":"7594"},{"trial_type":"turing-test","trial_index":201,"time_elapsed":530351,"internal_node_id":"0.0-8.0-2.48","subject":"q2q15rfnf0w89ub","sona":"7594"},{"rt":293,"stimulus":"<p>Welche Sequenz haben Sie als natürlicher empfunden?</p>","key_press":70,"test_part":"response","test_stimulus":{"position":0,"left":"bvh/return-bottle-hold-training0-lines.txt","right":"bvh/vr_prediction_models/model(tmp)-dataset(return-bottle-hold)-numprim(6)-hold(0)/final-lines.txt","att_check":false},"trial_type":"html-keyboard-response","trial_index":202,"time_elapsed":530647,"internal_node_id":"0.0-8.0-3.48","subject":"q2q15rfnf0w89ub","sona":"7594"},{"rt":281,"stimulus":"<p>Bereit?</p>","key_press":32,"trial_type":"html-keyboard-response","trial_index":203,"time_elapsed":530930,"internal_node_id":"0.0-8.0-0.49","subject":"q2q15rfnf0w89ub","sona":"7594"},{"rt":null,"stimulus":"<div style=\"font-size:60px;\">+</div>","key_press":null,"trial_type":"html-keyboard-response","trial_index":204,"time_elapsed":532933,"internal_node_id":"0.0-8.0-1.49","subject":"q2q15rfnf0w89ub","sona":"7594"},{"trial_type":"turing-test","trial_index":205,"time_elapsed":536541,"internal_node_id":"0.0-8.0-2.49","subject":"q2q15rfnf0w89ub","sona":"7594"},{"rt":665,"stimulus":"<p>Welche Sequenz haben Sie als natürlicher empfunden?</p>","key_press":70,"test_part":"response","test_stimulus":{"position":1,"left":"bvh/vr_prediction_models/model(vcgpdm)-dataset(return-bottle-hold)-mode(ELBO)-parts(3)-dyn(20)-lvm(35)-hold(2)/final-lines.txt","right":"bvh/return-bottle-hold-training2-lines.txt","att_check":false},"trial_type":"html-keyboard-response","trial_index":206,"time_elapsed":537207,"internal_node_id":"0.0-8.0-3.49","subject":"q2q15rfnf0w89ub","sona":"7594"},{"rt":841,"stimulus":"<p>Bereit?</p>","key_press":32,"trial_type":"html-keyboard-response","trial_index":207,"time_elapsed":538050,"internal_node_id":"0.0-8.0-0.50","subject":"q2q15rfnf0w89ub","sona":"7594"},{"rt":null,"stimulus":"<div style=\"font-size:60px;\">+</div>","key_press":null,"trial_type":"html-keyboard-response","trial_index":208,"time_elapsed":540050,"internal_node_id":"0.0-8.0-1.50","subject":"q2q15rfnf0w89ub","sona":"7594"},{"trial_type":"turing-test","trial_index":209,"time_elapsed":543693,"internal_node_id":"0.0-8.0-2.50","subject":"q2q15rfnf0w89ub","sona":"7594"},{"rt":1267,"stimulus":"<p>Welche Sequenz haben Sie als natürlicher empfunden?</p>","key_press":74,"test_part":"response","test_stimulus":{"position":1,"left":"bvh/vr_prediction_models/model(dmp)-dataset(pass-bottle-hold)-npsi(60)-hold(4)/final-lines.txt","right":"bvh/pass-bottle-hold-training4-lines.txt","att_check":false},"trial_type":"html-keyboard-response","trial_index":210,"time_elapsed":544962,"internal_node_id":"0.0-8.0-3.50","subject":"q2q15rfnf0w89ub","sona":"7594"},{"rt":278,"stimulus":"<p>Bereit?</p>","key_press":32,"trial_type":"html-keyboard-response","trial_index":211,"time_elapsed":545243,"internal_node_id":"0.0-8.0-0.51","subject":"q2q15rfnf0w89ub","sona":"7594"},{"rt":null,"stimulus":"<div style=\"font-size:60px;\">+</div>","key_press":null,"trial_type":"html-keyboard-response","trial_index":212,"time_elapsed":547245,"internal_node_id":"0.0-8.0-1.51","subject":"q2q15rfnf0w89ub","sona":"7594"},{"trial_type":"turing-test","trial_index":213,"time_elapsed":553115,"internal_node_id":"0.0-8.0-2.51","subject":"q2q15rfnf0w89ub","sona":"7594"},{"rt":600,"stimulus":"<p>Welche Sequenz haben Sie als natürlicher empfunden?</p>","key_press":70,"test_part":"response","test_stimulus":{"position":1,"left":"bvh/vr_prediction_models/model(vcgpdm)-dataset(pass-bottle)-mode(ELBO)-parts(3)-dyn(25)-lvm(30)-hold(4)/final-lines.txt","right":"bvh/pass-bottle-training4-lines.txt","att_check":false},"trial_type":"html-keyboard-response","trial_index":214,"time_elapsed":553717,"internal_node_id":"0.0-8.0-3.51","subject":"q2q15rfnf0w89ub","sona":"7594"},{"rt":440,"stimulus":"<p>Bereit?</p>","key_press":32,"trial_type":"html-keyboard-response","trial_index":215,"time_elapsed":554158,"internal_node_id":"0.0-8.0-0.52","subject":"q2q15rfnf0w89ub","sona":"7594"},{"rt":null,"stimulus":"<div style=\"font-size:60px;\">+</div>","key_press":null,"trial_type":"html-keyboard-response","trial_index":216,"time_elapsed":556164,"internal_node_id":"0.0-8.0-1.52","subject":"q2q15rfnf0w89ub","sona":"7594"},{"trial_type":"turing-test","trial_index":217,"time_elapsed":561591,"internal_node_id":"0.0-8.0-2.52","subject":"q2q15rfnf0w89ub","sona":"7594"},{"rt":1124,"stimulus":"<p>Welche Sequenz haben Sie als natürlicher empfunden?</p>","key_press":70,"test_part":"response","test_stimulus":{"position":0,"left":"bvh/return-bottle-training0-lines.txt","right":"bvh/vr_prediction_models/model(dmp)-dataset(return-bottle)-npsi(100)-hold(0)/final-lines.txt","att_check":false},"trial_type":"html-keyboard-response","trial_index":218,"time_elapsed":562716,"internal_node_id":"0.0-8.0-3.52","subject":"q2q15rfnf0w89ub","sona":"7594"},{"rt":474,"stimulus":"<p>Bereit?</p>","key_press":32,"trial_type":"html-keyboard-response","trial_index":219,"time_elapsed":563191,"internal_node_id":"0.0-8.0-0.53","subject":"q2q15rfnf0w89ub","sona":"7594"},{"rt":null,"stimulus":"<div style=\"font-size:60px;\">+</div>","key_press":null,"trial_type":"html-keyboard-response","trial_index":220,"time_elapsed":565194,"internal_node_id":"0.0-8.0-1.53","subject":"q2q15rfnf0w89ub","sona":"7594"},{"trial_type":"turing-test","trial_index":221,"time_elapsed":568667,"internal_node_id":"0.0-8.0-2.53","subject":"q2q15rfnf0w89ub","sona":"7594"},{"rt":540,"stimulus":"<p>Welche Sequenz haben Sie als natürlicher empfunden?</p>","key_press":70,"test_part":"response","test_stimulus":{"position":0,"left":"bvh/pass-bottle-hold-training0-lines.txt","right":"bvh/vr_prediction_models/model(vcgpdm)-dataset(pass-bottle-hold)-mode(ELBO)-parts(1)-dyn(10)-lvm(5)-hold(0)/final-lines.txt","att_check":false},"trial_type":"html-keyboard-response","trial_index":222,"time_elapsed":569208,"internal_node_id":"0.0-8.0-3.53","subject":"q2q15rfnf0w89ub","sona":"7594"},{"rt":292,"stimulus":"<p>Bereit?</p>","key_press":32,"trial_type":"html-keyboard-response","trial_index":223,"time_elapsed":569502,"internal_node_id":"0.0-8.0-0.54","subject":"q2q15rfnf0w89ub","sona":"7594"},{"rt":null,"stimulus":"<div style=\"font-size:60px;\">+</div>","key_press":null,"trial_type":"html-keyboard-response","trial_index":224,"time_elapsed":571507,"internal_node_id":"0.0-8.0-1.54","subject":"q2q15rfnf0w89ub","sona":"7594"},{"trial_type":"turing-test","trial_index":225,"time_elapsed":575372,"internal_node_id":"0.0-8.0-2.54","subject":"q2q15rfnf0w89ub","sona":"7594"},{"rt":683,"stimulus":"<p>Welche Sequenz haben Sie als natürlicher empfunden?</p>","key_press":70,"test_part":"response","test_stimulus":{"position":0,"left":"bvh/return-bottle-hold-training3-lines.txt","right":"bvh/vr_prediction_models/model(vcgpdm)-dataset(return-bottle-hold)-mode(ELBO)-parts(3)-dyn(35)-lvm(20)-hold(3)/final-lines.txt","att_check":false},"trial_type":"html-keyboard-response","trial_index":226,"time_elapsed":576057,"internal_node_id":"0.0-8.0-3.54","subject":"q2q15rfnf0w89ub","sona":"7594"},{"rt":257,"stimulus":"<p>Bereit?</p>","key_press":32,"trial_type":"html-keyboard-response","trial_index":227,"time_elapsed":576315,"internal_node_id":"0.0-8.0-0.55","subject":"q2q15rfnf0w89ub","sona":"7594"},{"rt":null,"stimulus":"<div style=\"font-size:60px;\">+</div>","key_press":null,"trial_type":"html-keyboard-response","trial_index":228,"time_elapsed":578319,"internal_node_id":"0.0-8.0-1.55","subject":"q2q15rfnf0w89ub","sona":"7594"},{"trial_type":"turing-test","trial_index":229,"time_elapsed":583781,"internal_node_id":"0.0-8.0-2.55","subject":"q2q15rfnf0w89ub","sona":"7594"},{"rt":1377,"stimulus":"<p>Welche Sequenz haben Sie als natürlicher empfunden?</p>","key_press":74,"test_part":"response","test_stimulus":{"position":1,"left":"bvh/vr_prediction_models/model(vcgpdm)-dataset(return-bottle)-mode(ELBO)-parts(1)-dyn(35)-lvm(30)-hold(0)/final-lines.txt","right":"bvh/return-bottle-training0-lines.txt","att_check":false},"trial_type":"html-keyboard-response","trial_index":230,"time_elapsed":585160,"internal_node_id":"0.0-8.0-3.55","subject":"q2q15rfnf0w89ub","sona":"7594"},{"rt":280,"stimulus":"<p>Bereit?</p>","key_press":32,"trial_type":"html-keyboard-response","trial_index":231,"time_elapsed":585441,"internal_node_id":"0.0-8.0-0.56","subject":"q2q15rfnf0w89ub","sona":"7594"},{"rt":null,"stimulus":"<div style=\"font-size:60px;\">+</div>","key_press":null,"trial_type":"html-keyboard-response","trial_index":232,"time_elapsed":587445,"internal_node_id":"0.0-8.0-1.56","subject":"q2q15rfnf0w89ub","sona":"7594"},{"trial_type":"turing-test","trial_index":233,"time_elapsed":592730,"internal_node_id":"0.0-8.0-2.56","subject":"q2q15rfnf0w89ub","sona":"7594"},{"rt":479,"stimulus":"<p>Welche Sequenz haben Sie als natürlicher empfunden?</p>","key_press":70,"test_part":"response","test_stimulus":{"position":0,"left":"bvh/return-bottle-hold-training0-lines.txt","right":"bvh/vr_prediction_models/model(vcgpdm)-dataset(return-bottle-hold)-mode(MAP)-parts(1)-hold(0)/final-lines.txt","att_check":false},"trial_type":"html-keyboard-response","trial_index":234,"time_elapsed":593212,"internal_node_id":"0.0-8.0-3.56","subject":"q2q15rfnf0w89ub","sona":"7594"},{"rt":493,"stimulus":"<p>Bereit?</p>","key_press":32,"trial_type":"html-keyboard-response","trial_index":235,"time_elapsed":593706,"internal_node_id":"0.0-8.0-0.57","subject":"q2q15rfnf0w89ub","sona":"7594"},{"rt":null,"stimulus":"<div style=\"font-size:60px;\">+</div>","key_press":null,"trial_type":"html-keyboard-response","trial_index":236,"time_elapsed":595711,"internal_node_id":"0.0-8.0-1.57","subject":"q2q15rfnf0w89ub","sona":"7594"},{"trial_type":"turing-test","trial_index":237,"time_elapsed":599142,"internal_node_id":"0.0-8.0-2.57","subject":"q2q15rfnf0w89ub","sona":"7594"},{"rt":710,"stimulus":"<p>Welche Sequenz haben Sie als natürlicher empfunden?</p>","key_press":70,"test_part":"response","test_stimulus":{"position":0,"left":"bvh/return-bottle-hold-training1-lines.txt","right":"bvh/vr_prediction_models/model(vcgpdm)-dataset(return-bottle-hold)-mode(ELBO)-parts(1)-dyn(15)-lvm(35)-hold(1)/final-lines.txt","att_check":false},"trial_type":"html-keyboard-response","trial_index":238,"time_elapsed":599854,"internal_node_id":"0.0-8.0-3.57","subject":"q2q15rfnf0w89ub","sona":"7594"},{"rt":290,"stimulus":"<p>Bereit?</p>","key_press":32,"trial_type":"html-keyboard-response","trial_index":239,"time_elapsed":600145,"internal_node_id":"0.0-8.0-0.58","subject":"q2q15rfnf0w89ub","sona":"7594"},{"rt":null,"stimulus":"<div style=\"font-size:60px;\">+</div>","key_press":null,"trial_type":"html-keyboard-response","trial_index":240,"time_elapsed":602149,"internal_node_id":"0.0-8.0-1.58","subject":"q2q15rfnf0w89ub","sona":"7594"},{"trial_type":"turing-test","trial_index":241,"time_elapsed":607949,"internal_node_id":"0.0-8.0-2.58","subject":"q2q15rfnf0w89ub","sona":"7594"},{"rt":764,"stimulus":"<p>Welche Sequenz haben Sie als natürlicher empfunden?</p>","key_press":70,"test_part":"response","test_stimulus":{"position":0,"left":"bvh/pass-bottle-training4-lines.txt","right":"bvh/vr_prediction_models/model(tmp)-dataset(pass-bottle)-numprim(14)-hold(4)/final-lines.txt","att_check":false},"trial_type":"html-keyboard-response","trial_index":242,"time_elapsed":608715,"internal_node_id":"0.0-8.0-3.58","subject":"q2q15rfnf0w89ub","sona":"7594"},{"rt":256,"stimulus":"<p>Bereit?</p>","key_press":32,"trial_type":"html-keyboard-response","trial_index":243,"time_elapsed":608973,"internal_node_id":"0.0-8.0-0.59","subject":"q2q15rfnf0w89ub","sona":"7594"},{"rt":null,"stimulus":"<div style=\"font-size:60px;\">+</div>","key_press":null,"trial_type":"html-keyboard-response","trial_index":244,"time_elapsed":610975,"internal_node_id":"0.0-8.0-1.59","subject":"q2q15rfnf0w89ub","sona":"7594"},{"trial_type":"turing-test","trial_index":245,"time_elapsed":616825,"internal_node_id":"0.0-8.0-2.59","subject":"q2q15rfnf0w89ub","sona":"7594"},{"rt":398,"stimulus":"<p>Welche Sequenz haben Sie als natürlicher empfunden?</p>","key_press":70,"test_part":"response","test_stimulus":{"position":0,"left":"bvh/return-bottle-training3-lines.txt","right":"bvh/vr_prediction_models/model(vcgpdm)-dataset(return-bottle)-mode(ELBO)-parts(3)-dyn(25)-lvm(25)-hold(3)/final-lines.txt","att_check":false},"trial_type":"html-keyboard-response","trial_index":246,"time_elapsed":617224,"internal_node_id":"0.0-8.0-3.59","subject":"q2q15rfnf0w89ub","sona":"7594"},{"rt":316,"stimulus":"<p>Bereit?</p>","key_press":32,"trial_type":"html-keyboard-response","trial_index":247,"time_elapsed":617543,"internal_node_id":"0.0-8.0-0.60","subject":"q2q15rfnf0w89ub","sona":"7594"},{"rt":null,"stimulus":"<div style=\"font-size:60px;\">+</div>","key_press":null,"trial_type":"html-keyboard-response","trial_index":248,"time_elapsed":619548,"internal_node_id":"0.0-8.0-1.60","subject":"q2q15rfnf0w89ub","sona":"7594"},{"trial_type":"turing-test","trial_index":249,"time_elapsed":623267,"internal_node_id":"0.0-8.0-2.60","subject":"q2q15rfnf0w89ub","sona":"7594"},{"rt":1447,"stimulus":"<p>Welche Sequenz haben Sie als natürlicher empfunden?</p>","key_press":74,"test_part":"response","test_stimulus":{"position":1,"left":"bvh/vr_prediction_models/model(tmp)-dataset(pass-bottle-hold)-numprim(3)-hold(3)/final-lines.txt","right":"bvh/pass-bottle-hold-training3-lines.txt","att_check":false},"trial_type":"html-keyboard-response","trial_index":250,"time_elapsed":624716,"internal_node_id":"0.0-8.0-3.60","subject":"q2q15rfnf0w89ub","sona":"7594"},{"rt":305,"stimulus":"<p>Bereit?</p>","key_press":32,"trial_type":"html-keyboard-response","trial_index":251,"time_elapsed":625023,"internal_node_id":"0.0-8.0-0.61","subject":"q2q15rfnf0w89ub","sona":"7594"},{"rt":null,"stimulus":"<div style=\"font-size:60px;\">+</div>","key_press":null,"trial_type":"html-keyboard-response","trial_index":252,"time_elapsed":627027,"internal_node_id":"0.0-8.0-1.61","subject":"q2q15rfnf0w89ub","sona":"7594"},{"trial_type":"turing-test","trial_index":253,"time_elapsed":632876,"internal_node_id":"0.0-8.0-2.61","subject":"q2q15rfnf0w89ub","sona":"7594"},{"rt":688,"stimulus":"<p>Welche Sequenz haben Sie als natürlicher empfunden?</p>","key_press":70,"test_part":"response","test_stimulus":{"position":1,"left":"bvh/vr_prediction_models/model(tmp)-dataset(pass-bottle)-numprim(10)-hold(3)/final-lines.txt","right":"bvh/pass-bottle-training3-lines.txt","att_check":false},"trial_type":"html-keyboard-response","trial_index":254,"time_elapsed":633567,"internal_node_id":"0.0-8.0-3.61","subject":"q2q15rfnf0w89ub","sona":"7594"},{"rt":324,"stimulus":"<p>Bereit?</p>","key_press":32,"trial_type":"html-keyboard-response","trial_index":255,"time_elapsed":633892,"internal_node_id":"0.0-8.0-0.62","subject":"q2q15rfnf0w89ub","sona":"7594"},{"rt":null,"stimulus":"<div style=\"font-size:60px;\">+</div>","key_press":null,"trial_type":"html-keyboard-response","trial_index":256,"time_elapsed":635898,"internal_node_id":"0.0-8.0-1.62","subject":"q2q15rfnf0w89ub","sona":"7594"},{"trial_type":"turing-test","trial_index":257,"time_elapsed":643087,"internal_node_id":"0.0-8.0-2.62","subject":"q2q15rfnf0w89ub","sona":"7594"},{"rt":1233,"stimulus":"<p>Welche Sequenz haben Sie als natürlicher empfunden?</p>","key_press":74,"test_part":"response","test_stimulus":{"position":1,"left":"bvh/vr_prediction_models/model(vcgpdm)-dataset(pass-bottle)-mode(ELBO)-parts(1)-dyn(20)-lvm(30)-hold(0)/final-lines.txt","right":"bvh/pass-bottle-training0-lines.txt","att_check":false},"trial_type":"html-keyboard-response","trial_index":258,"time_elapsed":644322,"internal_node_id":"0.0-8.0-3.62","subject":"q2q15rfnf0w89ub","sona":"7594"},{"rt":383,"stimulus":"<p>Bereit?</p>","key_press":32,"trial_type":"html-keyboard-response","trial_index":259,"time_elapsed":644706,"internal_node_id":"0.0-8.0-0.63","subject":"q2q15rfnf0w89ub","sona":"7594"},{"rt":null,"stimulus":"<div style=\"font-size:60px;\">+</div>","key_press":null,"trial_type":"html-keyboard-response","trial_index":260,"time_elapsed":646711,"internal_node_id":"0.0-8.0-1.63","subject":"q2q15rfnf0w89ub","sona":"7594"},{"trial_type":"turing-test","trial_index":261,"time_elapsed":651850,"internal_node_id":"0.0-8.0-2.63","subject":"q2q15rfnf0w89ub","sona":"7594"},{"rt":892,"stimulus":"<p>Welche Sequenz haben Sie als natürlicher empfunden?</p>","key_press":74,"test_part":"response","test_stimulus":{"position":1,"left":"bvh/vr_prediction_models/model(dmp)-dataset(return-bottle-hold)-npsi(10)-hold(0)/final-lines.txt","right":"bvh/return-bottle-hold-training0-lines.txt","att_check":true},"trial_type":"html-keyboard-response","trial_index":262,"time_elapsed":652743,"internal_node_id":"0.0-8.0-3.63","subject":"q2q15rfnf0w89ub","sona":"7594"},{"rt":238,"stimulus":"<p>Bereit?</p>","key_press":32,"trial_type":"html-keyboard-response","trial_index":263,"time_elapsed":652983,"internal_node_id":"0.0-8.0-0.64","subject":"q2q15rfnf0w89ub","sona":"7594"},{"rt":null,"stimulus":"<div style=\"font-size:60px;\">+</div>","key_press":null,"trial_type":"html-keyboard-response","trial_index":264,"time_elapsed":654989,"internal_node_id":"0.0-8.0-1.64","subject":"q2q15rfnf0w89ub","sona":"7594"},{"trial_type":"turing-test","trial_index":265,"time_elapsed":658178,"internal_node_id":"0.0-8.0-2.64","subject":"q2q15rfnf0w89ub","sona":"7594"},{"rt":1337,"stimulus":"<p>Welche Sequenz haben Sie als natürlicher empfunden?</p>","key_press":70,"test_part":"response","test_stimulus":{"position":0,"left":"bvh/return-bottle-hold-training1-lines.txt","right":"bvh/vr_prediction_models/model(tmp)-dataset(return-bottle-hold)-numprim(14)-hold(1)/final-lines.txt","att_check":false},"trial_type":"html-keyboard-response","trial_index":266,"time_elapsed":659517,"internal_node_id":"0.0-8.0-3.64","subject":"q2q15rfnf0w89ub","sona":"7594"},{"rt":870,"stimulus":"<p>Bereit?</p>","key_press":32,"trial_type":"html-keyboard-response","trial_index":267,"time_elapsed":660389,"internal_node_id":"0.0-8.0-0.65","subject":"q2q15rfnf0w89ub","sona":"7594"},{"rt":null,"stimulus":"<div style=\"font-size:60px;\">+</div>","key_press":null,"trial_type":"html-keyboard-response","trial_index":268,"time_elapsed":662395,"internal_node_id":"0.0-8.0-1.65","subject":"q2q15rfnf0w89ub","sona":"7594"},{"trial_type":"turing-test","trial_index":269,"time_elapsed":668322,"internal_node_id":"0.0-8.0-2.65","subject":"q2q15rfnf0w89ub","sona":"7594"},{"rt":764,"stimulus":"<p>Welche Sequenz haben Sie als natürlicher empfunden?</p>","key_press":70,"test_part":"response","test_stimulus":{"position":0,"left":"bvh/return-bottle-training4-lines.txt","right":"bvh/vr_prediction_models/model(vcgpdm)-dataset(return-bottle)-mode(ELBO)-parts(1)-dyn(25)-lvm(35)-hold(4)/final-lines.txt","att_check":false},"trial_type":"html-keyboard-response","trial_index":270,"time_elapsed":669088,"internal_node_id":"0.0-8.0-3.65","subject":"q2q15rfnf0w89ub","sona":"7594"},{"rt":305,"stimulus":"<p>Bereit?</p>","key_press":32,"trial_type":"html-keyboard-response","trial_index":271,"time_elapsed":669393,"internal_node_id":"0.0-8.0-0.66","subject":"q2q15rfnf0w89ub","sona":"7594"},{"rt":null,"stimulus":"<div style=\"font-size:60px;\">+</div>","key_press":null,"trial_type":"html-keyboard-response","trial_index":272,"time_elapsed":671399,"internal_node_id":"0.0-8.0-1.66","subject":"q2q15rfnf0w89ub","sona":"7594"},{"trial_type":"turing-test","trial_index":273,"time_elapsed":674715,"internal_node_id":"0.0-8.0-2.66","subject":"q2q15rfnf0w89ub","sona":"7594"},{"rt":1484,"stimulus":"<p>Welche Sequenz haben Sie als natürlicher empfunden?</p>","key_press":74,"test_part":"response","test_stimulus":{"position":1,"left":"bvh/vr_prediction_models/model(vcgpdm)-dataset(pass-bottle-hold)-mode(ELBO)-parts(1)-dyn(10)-lvm(30)-hold(1)/final-lines.txt","right":"bvh/pass-bottle-hold-training1-lines.txt","att_check":false},"trial_type":"html-keyboard-response","trial_index":274,"time_elapsed":676201,"internal_node_id":"0.0-8.0-3.66","subject":"q2q15rfnf0w89ub","sona":"7594"},{"rt":879,"stimulus":"<p>Bereit?</p>","key_press":32,"trial_type":"html-keyboard-response","trial_index":275,"time_elapsed":677081,"internal_node_id":"0.0-8.0-0.67","subject":"q2q15rfnf0w89ub","sona":"7594"},{"rt":null,"stimulus":"<div style=\"font-size:60px;\">+</div>","key_press":null,"trial_type":"html-keyboard-response","trial_index":276,"time_elapsed":679086,"internal_node_id":"0.0-8.0-1.67","subject":"q2q15rfnf0w89ub","sona":"7594"},{"trial_type":"turing-test","trial_index":277,"time_elapsed":685263,"internal_node_id":"0.0-8.0-2.67","subject":"q2q15rfnf0w89ub","sona":"7594"},{"rt":409,"stimulus":"<p>Welche Sequenz haben Sie als natürlicher empfunden?</p>","key_press":74,"test_part":"response","test_stimulus":{"position":1,"left":"bvh/vr_prediction_models/model(dmp)-dataset(return-bottle)-npsi(40)-hold(4)/final-lines.txt","right":"bvh/return-bottle-training4-lines.txt","att_check":false},"trial_type":"html-keyboard-response","trial_index":278,"time_elapsed":685675,"internal_node_id":"0.0-8.0-3.67","subject":"q2q15rfnf0w89ub","sona":"7594"},{"rt":406,"stimulus":"<p>Bereit?</p>","key_press":32,"trial_type":"html-keyboard-response","trial_index":279,"time_elapsed":686083,"internal_node_id":"0.0-8.0-0.68","subject":"q2q15rfnf0w89ub","sona":"7594"},{"rt":null,"stimulus":"<div style=\"font-size:60px;\">+</div>","key_press":null,"trial_type":"html-keyboard-response","trial_index":280,"time_elapsed":688087,"internal_node_id":"0.0-8.0-1.68","subject":"q2q15rfnf0w89ub","sona":"7594"},{"trial_type":"turing-test","trial_index":281,"time_elapsed":691341,"internal_node_id":"0.0-8.0-2.68","subject":"q2q15rfnf0w89ub","sona":"7594"},{"rt":682,"stimulus":"<p>Welche Sequenz haben Sie als natürlicher empfunden?</p>","key_press":70,"test_part":"response","test_stimulus":{"position":0,"left":"bvh/pass-bottle-hold-training1-lines.txt","right":"bvh/vr_prediction_models/model(tmp)-dataset(pass-bottle-hold)-numprim(8)-hold(1)/final-lines.txt","att_check":false},"trial_type":"html-keyboard-response","trial_index":282,"time_elapsed":692026,"internal_node_id":"0.0-8.0-3.68","subject":"q2q15rfnf0w89ub","sona":"7594"},{"rt":207,"stimulus":"<p>Bereit?</p>","key_press":32,"trial_type":"html-keyboard-response","trial_index":283,"time_elapsed":692234,"internal_node_id":"0.0-8.0-0.69","subject":"q2q15rfnf0w89ub","sona":"7594"},{"rt":null,"stimulus":"<div style=\"font-size:60px;\">+</div>","key_press":null,"trial_type":"html-keyboard-response","trial_index":284,"time_elapsed":694237,"internal_node_id":"0.0-8.0-1.69","subject":"q2q15rfnf0w89ub","sona":"7594"},{"trial_type":"turing-test","trial_index":285,"time_elapsed":698067,"internal_node_id":"0.0-8.0-2.69","subject":"q2q15rfnf0w89ub","sona":"7594"},{"rt":822,"stimulus":"<p>Welche Sequenz haben Sie als natürlicher empfunden?</p>","key_press":70,"test_part":"response","test_stimulus":{"position":1,"left":"bvh/vr_prediction_models/model(vcgpdm)-dataset(return-bottle-hold)-mode(ELBO)-parts(1)-dyn(20)-lvm(5)-hold(4)/final-lines.txt","right":"bvh/return-bottle-hold-training4-lines.txt","att_check":false},"trial_type":"html-keyboard-response","trial_index":286,"time_elapsed":698891,"internal_node_id":"0.0-8.0-3.69","subject":"q2q15rfnf0w89ub","sona":"7594"},{"rt":288,"stimulus":"<p>Bereit?</p>","key_press":32,"trial_type":"html-keyboard-response","trial_index":287,"time_elapsed":699180,"internal_node_id":"0.0-8.0-0.70","subject":"q2q15rfnf0w89ub","sona":"7594"},{"rt":null,"stimulus":"<div style=\"font-size:60px;\">+</div>","key_press":null,"trial_type":"html-keyboard-response","trial_index":288,"time_elapsed":701184,"internal_node_id":"0.0-8.0-1.70","subject":"q2q15rfnf0w89ub","sona":"7594"},{"trial_type":"turing-test","trial_index":289,"time_elapsed":704743,"internal_node_id":"0.0-8.0-2.70","subject":"q2q15rfnf0w89ub","sona":"7594"},{"rt":345,"stimulus":"<p>Welche Sequenz haben Sie als natürlicher empfunden?</p>","key_press":70,"test_part":"response","test_stimulus":{"position":0,"left":"bvh/pass-bottle-hold-training2-lines.txt","right":"bvh/vr_prediction_models/model(vcgpdm)-dataset(pass-bottle-hold)-mode(ELBO)-parts(3)-dyn(10)-lvm(25)-hold(2)/final-lines.txt","att_check":false},"trial_type":"html-keyboard-response","trial_index":290,"time_elapsed":705090,"internal_node_id":"0.0-8.0-3.70","subject":"q2q15rfnf0w89ub","sona":"7594"},{"rt":223,"stimulus":"<p>Bereit?</p>","key_press":32,"trial_type":"html-keyboard-response","trial_index":291,"time_elapsed":705314,"internal_node_id":"0.0-8.0-0.71","subject":"q2q15rfnf0w89ub","sona":"7594"},{"rt":null,"stimulus":"<div style=\"font-size:60px;\">+</div>","key_press":null,"trial_type":"html-keyboard-response","trial_index":292,"time_elapsed":707317,"internal_node_id":"0.0-8.0-1.71","subject":"q2q15rfnf0w89ub","sona":"7594"},{"trial_type":"turing-test","trial_index":293,"time_elapsed":712781,"internal_node_id":"0.0-8.0-2.71","subject":"q2q15rfnf0w89ub","sona":"7594"},{"rt":358,"stimulus":"<p>Welche Sequenz haben Sie als natürlicher empfunden?</p>","key_press":70,"test_part":"response","test_stimulus":{"position":0,"left":"bvh/pass-bottle-training1-lines.txt","right":"bvh/vr_prediction_models/model(dmp)-dataset(pass-bottle)-npsi(80)-hold(1)/final-lines.txt","att_check":true},"trial_type":"html-keyboard-response","trial_index":294,"time_elapsed":713140,"internal_node_id":"0.0-8.0-3.71","subject":"q2q15rfnf0w89ub","sona":"7594"},{"rt":268,"stimulus":"<p>Bereit?</p>","key_press":32,"trial_type":"html-keyboard-response","trial_index":295,"time_elapsed":713410,"internal_node_id":"0.0-8.0-0.72","subject":"q2q15rfnf0w89ub","sona":"7594"},{"rt":null,"stimulus":"<div style=\"font-size:60px;\">+</div>","key_press":null,"trial_type":"html-keyboard-response","trial_index":296,"time_elapsed":715413,"internal_node_id":"0.0-8.0-1.72","subject":"q2q15rfnf0w89ub","sona":"7594"},{"trial_type":"turing-test","trial_index":297,"time_elapsed":719050,"internal_node_id":"0.0-8.0-2.72","subject":"q2q15rfnf0w89ub","sona":"7594"},{"rt":400,"stimulus":"<p>Welche Sequenz haben Sie als natürlicher empfunden?</p>","key_press":70,"test_part":"response","test_stimulus":{"position":0,"left":"bvh/return-bottle-hold-training2-lines.txt","right":"bvh/vr_prediction_models/model(vcgpdm)-dataset(return-bottle-hold)-mode(ELBO)-parts(1)-dyn(25)-lvm(35)-hold(2)/final-lines.txt","att_check":false},"trial_type":"html-keyboard-response","trial_index":298,"time_elapsed":719451,"internal_node_id":"0.0-8.0-3.72","subject":"q2q15rfnf0w89ub","sona":"7594"},{"rt":228,"stimulus":"<p>Bereit?</p>","key_press":32,"trial_type":"html-keyboard-response","trial_index":299,"time_elapsed":719682,"internal_node_id":"0.0-8.0-0.73","subject":"q2q15rfnf0w89ub","sona":"7594"},{"rt":null,"stimulus":"<div style=\"font-size:60px;\">+</div>","key_press":null,"trial_type":"html-keyboard-response","trial_index":300,"time_elapsed":721685,"internal_node_id":"0.0-8.0-1.73","subject":"q2q15rfnf0w89ub","sona":"7594"},{"trial_type":"turing-test","trial_index":301,"time_elapsed":726826,"internal_node_id":"0.0-8.0-2.73","subject":"q2q15rfnf0w89ub","sona":"7594"},{"rt":340,"stimulus":"<p>Welche Sequenz haben Sie als natürlicher empfunden?</p>","key_press":70,"test_part":"response","test_stimulus":{"position":1,"left":"bvh/vr_prediction_models/model(tmp)-dataset(return-bottle-hold)-numprim(8)-hold(0)/final-lines.txt","right":"bvh/return-bottle-hold-training0-lines.txt","att_check":false},"trial_type":"html-keyboard-response","trial_index":302,"time_elapsed":727167,"internal_node_id":"0.0-8.0-3.73","subject":"q2q15rfnf0w89ub","sona":"7594"},{"rt":214,"stimulus":"<p>Bereit?</p>","key_press":32,"trial_type":"html-keyboard-response","trial_index":303,"time_elapsed":727382,"internal_node_id":"0.0-8.0-0.74","subject":"q2q15rfnf0w89ub","sona":"7594"},{"rt":null,"stimulus":"<div style=\"font-size:60px;\">+</div>","key_press":null,"trial_type":"html-keyboard-response","trial_index":304,"time_elapsed":729386,"internal_node_id":"0.0-8.0-1.74","subject":"q2q15rfnf0w89ub","sona":"7594"},{"trial_type":"turing-test","trial_index":305,"time_elapsed":732976,"internal_node_id":"0.0-8.0-2.74","subject":"q2q15rfnf0w89ub","sona":"7594"},{"rt":818,"stimulus":"<p>Welche Sequenz haben Sie als natürlicher empfunden?</p>","key_press":70,"test_part":"response","test_stimulus":{"position":0,"left":"bvh/pass-bottle-hold-training3-lines.txt","right":"bvh/vr_prediction_models/model(tmp)-dataset(pass-bottle-hold)-numprim(9)-hold(3)/final-lines.txt","att_check":false},"trial_type":"html-keyboard-response","trial_index":306,"time_elapsed":733796,"internal_node_id":"0.0-8.0-3.74","subject":"q2q15rfnf0w89ub","sona":"7594"},{"rt":320,"stimulus":"<p>Bereit?</p>","key_press":32,"trial_type":"html-keyboard-response","trial_index":307,"time_elapsed":734117,"internal_node_id":"0.0-8.0-0.75","subject":"q2q15rfnf0w89ub","sona":"7594"},{"rt":null,"stimulus":"<div style=\"font-size:60px;\">+</div>","key_press":null,"trial_type":"html-keyboard-response","trial_index":308,"time_elapsed":736123,"internal_node_id":"0.0-8.0-1.75","subject":"q2q15rfnf0w89ub","sona":"7594"},{"trial_type":"turing-test","trial_index":309,"time_elapsed":739546,"internal_node_id":"0.0-8.0-2.75","subject":"q2q15rfnf0w89ub","sona":"7594"},{"rt":1775,"stimulus":"<p>Welche Sequenz haben Sie als natürlicher empfunden?</p>","key_press":74,"test_part":"response","test_stimulus":{"position":1,"left":"bvh/vr_prediction_models/model(vcgpdm)-dataset(pass-bottle-hold)-mode(ELBO)-parts(1)-dyn(35)-lvm(30)-hold(1)/final-lines.txt","right":"bvh/pass-bottle-hold-training1-lines.txt","att_check":false},"trial_type":"html-keyboard-response","trial_index":310,"time_elapsed":741322,"internal_node_id":"0.0-8.0-3.75","subject":"q2q15rfnf0w89ub","sona":"7594"},{"rt":518,"stimulus":"<p>Bereit?</p>","key_press":32,"trial_type":"html-keyboard-response","trial_index":311,"time_elapsed":741841,"internal_node_id":"0.0-8.0-0.76","subject":"q2q15rfnf0w89ub","sona":"7594"},{"rt":null,"stimulus":"<div style=\"font-size:60px;\">+</div>","key_press":null,"trial_type":"html-keyboard-response","trial_index":312,"time_elapsed":743845,"internal_node_id":"0.0-8.0-1.76","subject":"q2q15rfnf0w89ub","sona":"7594"},{"trial_type":"turing-test","trial_index":313,"time_elapsed":747325,"internal_node_id":"0.0-8.0-2.76","subject":"q2q15rfnf0w89ub","sona":"7594"},{"rt":796,"stimulus":"<p>Welche Sequenz haben Sie als natürlicher empfunden?</p>","key_press":74,"test_part":"response","test_stimulus":{"position":1,"left":"bvh/vr_prediction_models/model(vcgpdm)-dataset(pass-bottle-hold)-mode(ELBO)-parts(1)-dyn(10)-lvm(30)-hold(0)/final-lines.txt","right":"bvh/pass-bottle-hold-training0-lines.txt","att_check":false},"trial_type":"html-keyboard-response","trial_index":314,"time_elapsed":748123,"internal_node_id":"0.0-8.0-3.76","subject":"q2q15rfnf0w89ub","sona":"7594"},{"rt":217,"stimulus":"<p>Bereit?</p>","key_press":32,"trial_type":"html-keyboard-response","trial_index":315,"time_elapsed":748341,"internal_node_id":"0.0-8.0-0.77","subject":"q2q15rfnf0w89ub","sona":"7594"},{"rt":null,"stimulus":"<div style=\"font-size:60px;\">+</div>","key_press":null,"trial_type":"html-keyboard-response","trial_index":316,"time_elapsed":750344,"internal_node_id":"0.0-8.0-1.77","subject":"q2q15rfnf0w89ub","sona":"7594"},{"trial_type":"turing-test","trial_index":317,"time_elapsed":753734,"internal_node_id":"0.0-8.0-2.77","subject":"q2q15rfnf0w89ub","sona":"7594"},{"rt":735,"stimulus":"<p>Welche Sequenz haben Sie als natürlicher empfunden?</p>","key_press":74,"test_part":"response","test_stimulus":{"position":1,"left":"bvh/vr_prediction_models/model(tmp)-dataset(pass-bottle-hold)-numprim(15)-hold(2)/final-lines.txt","right":"bvh/pass-bottle-hold-training2-lines.txt","att_check":false},"trial_type":"html-keyboard-response","trial_index":318,"time_elapsed":754471,"internal_node_id":"0.0-8.0-3.77","subject":"q2q15rfnf0w89ub","sona":"7594"},{"rt":325,"stimulus":"<p>Bereit?</p>","key_press":32,"trial_type":"html-keyboard-response","trial_index":319,"time_elapsed":754797,"internal_node_id":"0.0-8.0-0.78","subject":"q2q15rfnf0w89ub","sona":"7594"},{"rt":null,"stimulus":"<div style=\"font-size:60px;\">+</div>","key_press":null,"trial_type":"html-keyboard-response","trial_index":320,"time_elapsed":756804,"internal_node_id":"0.0-8.0-1.78","subject":"q2q15rfnf0w89ub","sona":"7594"},{"trial_type":"turing-test","trial_index":321,"time_elapsed":760592,"internal_node_id":"0.0-8.0-2.78","subject":"q2q15rfnf0w89ub","sona":"7594"},{"rt":607,"stimulus":"<p>Welche Sequenz haben Sie als natürlicher empfunden?</p>","key_press":74,"test_part":"response","test_stimulus":{"position":1,"left":"bvh/vr_prediction_models/model(vcgpdm)-dataset(pass-bottle-hold)-mode(ELBO)-parts(1)-dyn(10)-lvm(30)-hold(4)/final-lines.txt","right":"bvh/pass-bottle-hold-training4-lines.txt","att_check":false},"trial_type":"html-keyboard-response","trial_index":322,"time_elapsed":761200,"internal_node_id":"0.0-8.0-3.78","subject":"q2q15rfnf0w89ub","sona":"7594"},{"rt":263,"stimulus":"<p>Bereit?</p>","key_press":32,"trial_type":"html-keyboard-response","trial_index":323,"time_elapsed":761464,"internal_node_id":"0.0-8.0-0.79","subject":"q2q15rfnf0w89ub","sona":"7594"},{"rt":null,"stimulus":"<div style=\"font-size:60px;\">+</div>","key_press":null,"trial_type":"html-keyboard-response","trial_index":324,"time_elapsed":763470,"internal_node_id":"0.0-8.0-1.79","subject":"q2q15rfnf0w89ub","sona":"7594"},{"trial_type":"turing-test","trial_index":325,"time_elapsed":768698,"internal_node_id":"0.0-8.0-2.79","subject":"q2q15rfnf0w89ub","sona":"7594"},{"rt":1801,"stimulus":"<p>Welche Sequenz haben Sie als natürlicher empfunden?</p>","key_press":70,"test_part":"response","test_stimulus":{"position":0,"left":"bvh/return-bottle-training0-lines.txt","right":"bvh/vr_prediction_models/model(tmp)-dataset(return-bottle)-numprim(3)-hold(0)/final-lines.txt","att_check":false},"trial_type":"html-keyboard-response","trial_index":326,"time_elapsed":770502,"internal_node_id":"0.0-8.0-3.79","subject":"q2q15rfnf0w89ub","sona":"7594"},{"rt":15625,"responses":"{\"age\":\" 32\",\"gender\":\"männlich\"}","trial_type":"survey-text","trial_index":327,"time_elapsed":786131,"internal_node_id":"0.0-10.0-0.0","subject":"q2q15rfnf0w89ub","sona":"7594"},{"rt":72292,"responses":"{\"area\":\"Arme\",\"Q1\":\"nicht flüssige Bewegungen\",\"Q2\":\"nicht flüssige Bewegungen\"}","trial_type":"survey-text","trial_index":328,"time_elapsed":858432,"internal_node_id":"0.0-10.0-1.0","subject":"q2q15rfnf0w89ub","sona":"7594"}]