[{"rt":2330,"stimulus":"<p>Welcome!<br> Please choose your language to start the experiment in the chosen language.</p><p>Willkommen!<br> Bitte wählen Sie eine Sprache, um das Experiment in der ausgewählten Sprache zu starten</p>","button_pressed":"0","trial_type":"html-button-response","trial_index":0,"time_elapsed":2342,"internal_node_id":"0.0-0.0","subject":"o1z5wxhzordou75","sona":"7624"},{"view_history":"[{\"page_index\":0,\"viewing_time\":790},{\"page_index\":1,\"viewing_time\":705},{\"page_index\":2,\"viewing_time\":472},{\"page_index\":3,\"viewing_time\":865},{\"page_index\":4,\"viewing_time\":1160}]","rt":3992,"trial_type":"instructions","trial_index":1,"time_elapsed":6336,"internal_node_id":"0.0-2.0-0.0","subject":"o1z5wxhzordou75","sona":"7624"},{"rt":730,"stimulus":"<p>Ready?</p>","key_press":32,"trial_type":"html-keyboard-response","trial_index":2,"time_elapsed":7066,"internal_node_id":"0.0-3.0","subject":"o1z5wxhzordou75","sona":"7624"},{"rt":null,"stimulus":"<div style=\"font-size:60px;\">+</div>","key_press":null,"trial_type":"html-keyboard-response","trial_index":3,"time_elapsed":9068,"internal_node_id":"0.0-4.0","subject":"o1z5wxhzordou75","sona":"7624"},{"trial_type":"training","trial_index":4,"time_elapsed":12318,"internal_node_id":"0.0-5.0","subject":"o1z5wxhzordou75","sona":"7624"},{"rt":3815,"stimulus":"<p>Which sequence did you perceive as more natural?</p>","key_press":70,"trial_type":"html-keyboard-response","trial_index":5,"time_elapsed":16135,"internal_node_id":"0.0-6.0","subject":"o1z5wxhzordou75","sona":"7624"},{"rt":2748,"stimulus":"<p>The experiment starts now.</p><p><small>Please click the button if you are ready.</small></p>","button_pressed":"0","trial_type":"html-button-response","trial_index":6,"time_elapsed":18884,"internal_node_id":"0.0-7.0","subject":"o1z5wxhzordou75","sona":"7624"},{"rt":2836,"stimulus":"<p>Ready?</p>","key_press":32,"trial_type":"html-keyboard-response","trial_index":7,"time_elapsed":21722,"internal_node_id":"0.0-8.0-0.0","subject":"o1z5wxhzordou75","sona":"7624"},{"rt":null,"stimulus":"<div style=\"font-size:60px;\">+</div>","key_press":null,"trial_type":"html-keyboard-response","trial_index":8,"time_elapsed":23723,"internal_node_id":"0.0-8.0-1.0","subject":"o1z5wxhzordou75","sona":"7624"},{"trial_type":"turing-test","trial_index":9,"time_elapsed":27386,"internal_node_id":"0.0-8.0-2.0","subject":"o1z5wxhzordou75","sona":"7624"},{"rt":308,"stimulus":"<p>Which sequence did you perceive as more natural?</p>","key_press":70,"test_part":"response","test_stimulus":{"position":0,"left":"bvh/return-bottle-hold-training2-lines.txt","right":"bvh/vr_prediction_models/model(vcgpdm)-dataset(return-bottle-hold)-mode(ELBO)-parts(3)-dyn(25)-lvm(15)-hold(2)/final-lines.txt","att_check":false},"trial_type":"html-keyboard-response","trial_index":10,"time_elapsed":27696,"internal_node_id":"0.0-8.0-3.0","subject":"o1z5wxhzordou75","sona":"7624"},{"rt":365,"stimulus":"<p>Ready?</p>","key_press":32,"trial_type":"html-keyboard-response","trial_index":11,"time_elapsed":28063,"internal_node_id":"0.0-8.0-0.1","subject":"o1z5wxhzordou75","sona":"7624"},{"rt":null,"stimulus":"<div style=\"font-size:60px;\">+</div>","key_press":null,"trial_type":"html-keyboard-response","trial_index":12,"time_elapsed":30068,"internal_node_id":"0.0-8.0-1.1","subject":"o1z5wxhzordou75","sona":"7624"},{"trial_type":"turing-test","trial_index":13,"time_elapsed":36492,"internal_node_id":"0.0-8.0-2.1","subject":"o1z5wxhzordou75","sona":"7624"},{"rt":555,"stimulus":"<p>Which sequence did you perceive as more natural?</p>","key_press":74,"test_part":"response","test_stimulus":{"position":1,"left":"bvh/vr_prediction_models/model(tmp)-dataset(return-bottle)-numprim(12)-hold(2)/final-lines.txt","right":"bvh/return-bottle-training2-lines.txt","att_check":false},"trial_type":"html-keyboard-response","trial_index":14,"time_elapsed":37048,"internal_node_id":"0.0-8.0-3.1","subject":"o1z5wxhzordou75","sona":"7624"},{"rt":327,"stimulus":"<p>Ready?</p>","key_press":32,"trial_type":"html-keyboard-response","trial_index":15,"time_elapsed":37375,"internal_node_id":"0.0-8.0-0.2","subject":"o1z5wxhzordou75","sona":"7624"},{"rt":null,"stimulus":"<div style=\"font-size:60px;\">+</div>","key_press":null,"trial_type":"html-keyboard-response","trial_index":16,"time_elapsed":39378,"internal_node_id":"0.0-8.0-1.2","subject":"o1z5wxhzordou75","sona":"7624"},{"trial_type":"turing-test","trial_index":17,"time_elapsed":45022,"internal_node_id":"0.0-8.0-2.2","subject":"o1z5wxhzordou75","sona":"7624"},{"rt":392,"stimulus":"<p>Which sequence did you perceive as more natural?</p>","key_press":70,"test_part":"response","test_stimulus":{"position":0,"left":"bvh/return-bottle-training4-lines.txt","right":"bvh/vr_prediction_models/model(dmp)-dataset(return-bottle)-npsi(50)-hold(4)/final-lines.txt","att_check":false},"trial_type":"html-keyboard-response","trial_index":18,"time_elapsed":45416,"internal_node_id":"0.0-8.0-3.2","subject":"o1z5wxhzordou75","sona":"7624"},{"rt":326,"stimulus":"<p>Ready?</p>","key_press":32,"trial_type":"html-keyboard-response","trial_index":19,"time_elapsed":45744,"internal_node_id":"0.0-8.0-0.3","subject":"o1z5wxhzordou75","sona":"7624"},{"rt":null,"stimulus":"<div style=\"font-size:60px;\">+</div>","key_press":null,"trial_type":"html-keyboard-response","trial_index":20,"time_elapsed":47748,"internal_node_id":"0.0-8.0-1.3","subject":"o1z5wxhzordou75","sona":"7624"},{"trial_type":"turing-test","trial_index":21,"time_elapsed":51300,"internal_node_id":"0.0-8.0-2.3","subject":"o1z5wxhzordou75","sona":"7624"},{"rt":427,"stimulus":"<p>Which sequence did you perceive as more natural?</p>","key_press":74,"test_part":"response","test_stimulus":{"position":0,"left":"bvh/return-bottle-hold-training1-lines.txt","right":"bvh/vr_prediction_models/model(vcgpdm)-dataset(return-bottle-hold)-mode(ELBO)-parts(3)-dyn(25)-lvm(15)-hold(1)/final-lines.txt","att_check":false},"trial_type":"html-keyboard-response","trial_index":22,"time_elapsed":51728,"internal_node_id":"0.0-8.0-3.3","subject":"o1z5wxhzordou75","sona":"7624"},{"rt":382,"stimulus":"<p>Ready?</p>","key_press":32,"trial_type":"html-keyboard-response","trial_index":23,"time_elapsed":52112,"internal_node_id":"0.0-8.0-0.4","subject":"o1z5wxhzordou75","sona":"7624"},{"rt":null,"stimulus":"<div style=\"font-size:60px;\">+</div>","key_press":null,"trial_type":"html-keyboard-response","trial_index":24,"time_elapsed":54123,"internal_node_id":"0.0-8.0-1.4","subject":"o1z5wxhzordou75","sona":"7624"},{"trial_type":"turing-test","trial_index":25,"time_elapsed":59395,"internal_node_id":"0.0-8.0-2.4","subject":"o1z5wxhzordou75","sona":"7624"},{"rt":388,"stimulus":"<p>Which sequence did you perceive as more natural?</p>","key_press":74,"test_part":"response","test_stimulus":{"position":1,"left":"bvh/vr_prediction_models/model(vcgpdm)-dataset(return-bottle)-mode(ELBO)-parts(1)-dyn(35)-lvm(30)-hold(0)/final-lines.txt","right":"bvh/return-bottle-training0-lines.txt","att_check":false},"trial_type":"html-keyboard-response","trial_index":26,"time_elapsed":59784,"internal_node_id":"0.0-8.0-3.4","subject":"o1z5wxhzordou75","sona":"7624"},{"rt":311,"stimulus":"<p>Ready?</p>","key_press":32,"trial_type":"html-keyboard-response","trial_index":27,"time_elapsed":60096,"internal_node_id":"0.0-8.0-0.5","subject":"o1z5wxhzordou75","sona":"7624"},{"rt":null,"stimulus":"<div style=\"font-size:60px;\">+</div>","key_press":null,"trial_type":"html-keyboard-response","trial_index":28,"time_elapsed":62098,"internal_node_id":"0.0-8.0-1.5","subject":"o1z5wxhzordou75","sona":"7624"},{"trial_type":"turing-test","trial_index":29,"time_elapsed":65923,"internal_node_id":"0.0-8.0-2.5","subject":"o1z5wxhzordou75","sona":"7624"},{"rt":1197,"stimulus":"<p>Which sequence did you perceive as more natural?</p>","key_press":70,"test_part":"response","test_stimulus":{"position":0,"left":"bvh/return-bottle-hold-training4-lines.txt","right":"bvh/vr_prediction_models/model(vcgpdm)-dataset(return-bottle-hold)-mode(ELBO)-parts(3)-dyn(20)-lvm(20)-hold(4)/final-lines.txt","att_check":false},"trial_type":"html-keyboard-response","trial_index":30,"time_elapsed":67121,"internal_node_id":"0.0-8.0-3.5","subject":"o1z5wxhzordou75","sona":"7624"},{"rt":215,"stimulus":"<p>Ready?</p>","key_press":32,"trial_type":"html-keyboard-response","trial_index":31,"time_elapsed":67337,"internal_node_id":"0.0-8.0-0.6","subject":"o1z5wxhzordou75","sona":"7624"},{"rt":null,"stimulus":"<div style=\"font-size:60px;\">+</div>","key_press":null,"trial_type":"html-keyboard-response","trial_index":32,"time_elapsed":69342,"internal_node_id":"0.0-8.0-1.6","subject":"o1z5wxhzordou75","sona":"7624"},{"trial_type":"turing-test","trial_index":33,"time_elapsed":72498,"internal_node_id":"0.0-8.0-2.6","subject":"o1z5wxhzordou75","sona":"7624"},{"rt":414,"stimulus":"<p>Which sequence did you perceive as more natural?</p>","key_press":74,"test_part":"response","test_stimulus":{"position":1,"left":"bvh/vr_prediction_models/model(dmp)-dataset(pass-bottle-hold)-npsi(100)-hold(1)/final-lines.txt","right":"bvh/pass-bottle-hold-training1-lines.txt","att_check":false},"trial_type":"html-keyboard-response","trial_index":34,"time_elapsed":72912,"internal_node_id":"0.0-8.0-3.6","subject":"o1z5wxhzordou75","sona":"7624"},{"rt":302,"stimulus":"<p>Ready?</p>","key_press":32,"trial_type":"html-keyboard-response","trial_index":35,"time_elapsed":73216,"internal_node_id":"0.0-8.0-0.7","subject":"o1z5wxhzordou75","sona":"7624"},{"rt":null,"stimulus":"<div style=\"font-size:60px;\">+</div>","key_press":null,"trial_type":"html-keyboard-response","trial_index":36,"time_elapsed":75224,"internal_node_id":"0.0-8.0-1.7","subject":"o1z5wxhzordou75","sona":"7624"},{"trial_type":"turing-test","trial_index":37,"time_elapsed":79162,"internal_node_id":"0.0-8.0-2.7","subject":"o1z5wxhzordou75","sona":"7624"},{"rt":855,"stimulus":"<p>Which sequence did you perceive as more natural?</p>","key_press":74,"test_part":"response","test_stimulus":{"position":1,"left":"bvh/vr_prediction_models/model(tmp)-dataset(return-bottle-hold)-numprim(5)-hold(4)/final-lines.txt","right":"bvh/return-bottle-hold-training4-lines.txt","att_check":false},"trial_type":"html-keyboard-response","trial_index":38,"time_elapsed":80016,"internal_node_id":"0.0-8.0-3.7","subject":"o1z5wxhzordou75","sona":"7624"},{"rt":439,"stimulus":"<p>Ready?</p>","key_press":32,"trial_type":"html-keyboard-response","trial_index":39,"time_elapsed":80456,"internal_node_id":"0.0-8.0-0.8","subject":"o1z5wxhzordou75","sona":"7624"},{"rt":null,"stimulus":"<div style=\"font-size:60px;\">+</div>","key_press":null,"trial_type":"html-keyboard-response","trial_index":40,"time_elapsed":82462,"internal_node_id":"0.0-8.0-1.8","subject":"o1z5wxhzordou75","sona":"7624"},{"trial_type":"turing-test","trial_index":41,"time_elapsed":85753,"internal_node_id":"0.0-8.0-2.8","subject":"o1z5wxhzordou75","sona":"7624"},{"rt":1254,"stimulus":"<p>Which sequence did you perceive as more natural?</p>","key_press":74,"test_part":"response","test_stimulus":{"position":1,"left":"bvh/vr_prediction_models/model(tmp)-dataset(pass-bottle-hold)-numprim(12)-hold(2)/final-lines.txt","right":"bvh/pass-bottle-hold-training2-lines.txt","att_check":false},"trial_type":"html-keyboard-response","trial_index":42,"time_elapsed":87009,"internal_node_id":"0.0-8.0-3.8","subject":"o1z5wxhzordou75","sona":"7624"},{"rt":183,"stimulus":"<p>Ready?</p>","key_press":32,"trial_type":"html-keyboard-response","trial_index":43,"time_elapsed":87192,"internal_node_id":"0.0-8.0-0.9","subject":"o1z5wxhzordou75","sona":"7624"},{"rt":null,"stimulus":"<div style=\"font-size:60px;\">+</div>","key_press":null,"trial_type":"html-keyboard-response","trial_index":44,"time_elapsed":89196,"internal_node_id":"0.0-8.0-1.9","subject":"o1z5wxhzordou75","sona":"7624"},{"trial_type":"turing-test","trial_index":45,"time_elapsed":93017,"internal_node_id":"0.0-8.0-2.9","subject":"o1z5wxhzordou75","sona":"7624"},{"rt":622,"stimulus":"<p>Which sequence did you perceive as more natural?</p>","key_press":74,"test_part":"response","test_stimulus":{"position":1,"left":"bvh/vr_prediction_models/model(vcgpdm)-dataset(return-bottle-hold)-mode(ELBO)-parts(1)-dyn(10)-lvm(30)-hold(3)/final-lines.txt","right":"bvh/return-bottle-hold-training3-lines.txt","att_check":false},"trial_type":"html-keyboard-response","trial_index":46,"time_elapsed":93641,"internal_node_id":"0.0-8.0-3.9","subject":"o1z5wxhzordou75","sona":"7624"},{"rt":182,"stimulus":"<p>Ready?</p>","key_press":32,"trial_type":"html-keyboard-response","trial_index":47,"time_elapsed":93825,"internal_node_id":"0.0-8.0-0.10","subject":"o1z5wxhzordou75","sona":"7624"},{"rt":null,"stimulus":"<div style=\"font-size:60px;\">+</div>","key_press":null,"trial_type":"html-keyboard-response","trial_index":48,"time_elapsed":95830,"internal_node_id":"0.0-8.0-1.10","subject":"o1z5wxhzordou75","sona":"7624"},{"trial_type":"turing-test","trial_index":49,"time_elapsed":99667,"internal_node_id":"0.0-8.0-2.10","subject":"o1z5wxhzordou75","sona":"7624"},{"rt":388,"stimulus":"<p>Which sequence did you perceive as more natural?</p>","key_press":70,"test_part":"response","test_stimulus":{"position":1,"left":"bvh/vr_prediction_models/model(vcgpdm)-dataset(return-bottle-hold)-mode(ELBO)-parts(1)-dyn(20)-lvm(30)-hold(3)/final-lines.txt","right":"bvh/return-bottle-hold-training3-lines.txt","att_check":false},"trial_type":"html-keyboard-response","trial_index":50,"time_elapsed":100058,"internal_node_id":"0.0-8.0-3.10","subject":"o1z5wxhzordou75","sona":"7624"},{"rt":246,"stimulus":"<p>Ready?</p>","key_press":32,"trial_type":"html-keyboard-response","trial_index":51,"time_elapsed":100305,"internal_node_id":"0.0-8.0-0.11","subject":"o1z5wxhzordou75","sona":"7624"},{"rt":null,"stimulus":"<div style=\"font-size:60px;\">+</div>","key_press":null,"trial_type":"html-keyboard-response","trial_index":52,"time_elapsed":102311,"internal_node_id":"0.0-8.0-1.11","subject":"o1z5wxhzordou75","sona":"7624"},{"trial_type":"turing-test","trial_index":53,"time_elapsed":109223,"internal_node_id":"0.0-8.0-2.11","subject":"o1z5wxhzordou75","sona":"7624"},{"rt":300,"stimulus":"<p>Which sequence did you perceive as more natural?</p>","key_press":74,"test_part":"response","test_stimulus":{"position":1,"left":"bvh/vr_prediction_models/model(vcgpdm)-dataset(pass-bottle)-mode(ELBO)-parts(1)-dyn(10)-lvm(5)-hold(0)/final-lines.txt","right":"bvh/pass-bottle-training0-lines.txt","att_check":false},"trial_type":"html-keyboard-response","trial_index":54,"time_elapsed":109525,"internal_node_id":"0.0-8.0-3.11","subject":"o1z5wxhzordou75","sona":"7624"},{"rt":346,"stimulus":"<p>Ready?</p>","key_press":32,"trial_type":"html-keyboard-response","trial_index":55,"time_elapsed":109874,"internal_node_id":"0.0-8.0-0.12","subject":"o1z5wxhzordou75","sona":"7624"},{"rt":null,"stimulus":"<div style=\"font-size:60px;\">+</div>","key_press":null,"trial_type":"html-keyboard-response","trial_index":56,"time_elapsed":111876,"internal_node_id":"0.0-8.0-1.12","subject":"o1z5wxhzordou75","sona":"7624"},{"trial_type":"turing-test","trial_index":57,"time_elapsed":118614,"internal_node_id":"0.0-8.0-2.12","subject":"o1z5wxhzordou75","sona":"7624"},{"rt":534,"stimulus":"<p>Which sequence did you perceive as more natural?</p>","key_press":74,"test_part":"response","test_stimulus":{"position":1,"left":"bvh/vr_prediction_models/model(vcgpdm)-dataset(return-bottle)-mode(ELBO)-parts(1)-dyn(10)-lvm(30)-hold(1)/final-lines.txt","right":"bvh/return-bottle-training1-lines.txt","att_check":false},"trial_type":"html-keyboard-response","trial_index":58,"time_elapsed":119148,"internal_node_id":"0.0-8.0-3.12","subject":"o1z5wxhzordou75","sona":"7624"},{"rt":260,"stimulus":"<p>Ready?</p>","key_press":32,"trial_type":"html-keyboard-response","trial_index":59,"time_elapsed":119409,"internal_node_id":"0.0-8.0-0.13","subject":"o1z5wxhzordou75","sona":"7624"},{"rt":null,"stimulus":"<div style=\"font-size:60px;\">+</div>","key_press":null,"trial_type":"html-keyboard-response","trial_index":60,"time_elapsed":121414,"internal_node_id":"0.0-8.0-1.13","subject":"o1z5wxhzordou75","sona":"7624"},{"trial_type":"turing-test","trial_index":61,"time_elapsed":124698,"internal_node_id":"0.0-8.0-2.13","subject":"o1z5wxhzordou75","sona":"7624"},{"rt":351,"stimulus":"<p>Which sequence did you perceive as more natural?</p>","key_press":70,"test_part":"response","test_stimulus":{"position":1,"left":"bvh/vr_prediction_models/model(tmp)-dataset(return-bottle-hold)-numprim(3)-hold(1)/final-lines.txt","right":"bvh/return-bottle-hold-training1-lines.txt","att_check":false},"trial_type":"html-keyboard-response","trial_index":62,"time_elapsed":125050,"internal_node_id":"0.0-8.0-3.13","subject":"o1z5wxhzordou75","sona":"7624"},{"rt":198,"stimulus":"<p>Ready?</p>","key_press":32,"trial_type":"html-keyboard-response","trial_index":63,"time_elapsed":125249,"internal_node_id":"0.0-8.0-0.14","subject":"o1z5wxhzordou75","sona":"7624"},{"rt":null,"stimulus":"<div style=\"font-size:60px;\">+</div>","key_press":null,"trial_type":"html-keyboard-response","trial_index":64,"time_elapsed":127255,"internal_node_id":"0.0-8.0-1.14","subject":"o1z5wxhzordou75","sona":"7624"},{"trial_type":"turing-test","trial_index":65,"time_elapsed":133027,"internal_node_id":"0.0-8.0-2.14","subject":"o1z5wxhzordou75","sona":"7624"},{"rt":414,"stimulus":"<p>Which sequence did you perceive as more natural?</p>","key_press":70,"test_part":"response","test_stimulus":{"position":0,"left":"bvh/pass-bottle-training3-lines.txt","right":"bvh/vr_prediction_models/model(tmp)-dataset(pass-bottle)-numprim(14)-hold(3)/final-lines.txt","att_check":false},"trial_type":"html-keyboard-response","trial_index":66,"time_elapsed":133442,"internal_node_id":"0.0-8.0-3.14","subject":"o1z5wxhzordou75","sona":"7624"},{"rt":462,"stimulus":"<p>Ready?</p>","key_press":32,"trial_type":"html-keyboard-response","trial_index":67,"time_elapsed":133906,"internal_node_id":"0.0-8.0-0.15","subject":"o1z5wxhzordou75","sona":"7624"},{"rt":null,"stimulus":"<div style=\"font-size:60px;\">+</div>","key_press":null,"trial_type":"html-keyboard-response","trial_index":68,"time_elapsed":135912,"internal_node_id":"0.0-8.0-1.15","subject":"o1z5wxhzordou75","sona":"7624"},{"trial_type":"turing-test","trial_index":69,"time_elapsed":141609,"internal_node_id":"0.0-8.0-2.15","subject":"o1z5wxhzordou75","sona":"7624"},{"rt":392,"stimulus":"<p>Which sequence did you perceive as more natural?</p>","key_press":70,"test_part":"response","test_stimulus":{"position":0,"left":"bvh/pass-bottle-training4-lines.txt","right":"bvh/vr_prediction_models/model(tmp)-dataset(pass-bottle)-numprim(4)-hold(4)/final-lines.txt","att_check":false},"trial_type":"html-keyboard-response","trial_index":70,"time_elapsed":142002,"internal_node_id":"0.0-8.0-3.15","subject":"o1z5wxhzordou75","sona":"7624"},{"rt":383,"stimulus":"<p>Ready?</p>","key_press":32,"trial_type":"html-keyboard-response","trial_index":71,"time_elapsed":142386,"internal_node_id":"0.0-8.0-0.16","subject":"o1z5wxhzordou75","sona":"7624"},{"rt":null,"stimulus":"<div style=\"font-size:60px;\">+</div>","key_press":null,"trial_type":"html-keyboard-response","trial_index":72,"time_elapsed":144391,"internal_node_id":"0.0-8.0-1.16","subject":"o1z5wxhzordou75","sona":"7624"},{"trial_type":"turing-test","trial_index":73,"time_elapsed":150041,"internal_node_id":"0.0-8.0-2.16","subject":"o1z5wxhzordou75","sona":"7624"},{"rt":1049,"stimulus":"<p>Which sequence did you perceive as more natural?</p>","key_press":70,"test_part":"response","test_stimulus":{"position":0,"left":"bvh/return-bottle-training4-lines.txt","right":"bvh/vr_prediction_models/model(dmp)-dataset(return-bottle)-npsi(40)-hold(4)/final-lines.txt","att_check":false},"trial_type":"html-keyboard-response","trial_index":74,"time_elapsed":151091,"internal_node_id":"0.0-8.0-3.16","subject":"o1z5wxhzordou75","sona":"7624"},{"rt":342,"stimulus":"<p>Ready?</p>","key_press":32,"trial_type":"html-keyboard-response","trial_index":75,"time_elapsed":151435,"internal_node_id":"0.0-8.0-0.17","subject":"o1z5wxhzordou75","sona":"7624"},{"rt":null,"stimulus":"<div style=\"font-size:60px;\">+</div>","key_press":null,"trial_type":"html-keyboard-response","trial_index":76,"time_elapsed":153437,"internal_node_id":"0.0-8.0-1.17","subject":"o1z5wxhzordou75","sona":"7624"},{"trial_type":"turing-test","trial_index":77,"time_elapsed":158756,"internal_node_id":"0.0-8.0-2.17","subject":"o1z5wxhzordou75","sona":"7624"},{"rt":310,"stimulus":"<p>Which sequence did you perceive as more natural?</p>","key_press":74,"test_part":"response","test_stimulus":{"position":0,"left":"bvh/return-bottle-hold-training0-lines.txt","right":"bvh/vr_prediction_models/model(vcgpdm)-dataset(return-bottle-hold)-mode(ELBO)-parts(3)-dyn(10)-lvm(10)-hold(0)/final-lines.txt","att_check":false},"trial_type":"html-keyboard-response","trial_index":78,"time_elapsed":159067,"internal_node_id":"0.0-8.0-3.17","subject":"o1z5wxhzordou75","sona":"7624"},{"rt":303,"stimulus":"<p>Ready?</p>","key_press":32,"trial_type":"html-keyboard-response","trial_index":79,"time_elapsed":159371,"internal_node_id":"0.0-8.0-0.18","subject":"o1z5wxhzordou75","sona":"7624"},{"rt":null,"stimulus":"<div style=\"font-size:60px;\">+</div>","key_press":null,"trial_type":"html-keyboard-response","trial_index":80,"time_elapsed":161378,"internal_node_id":"0.0-8.0-1.18","subject":"o1z5wxhzordou75","sona":"7624"},{"trial_type":"turing-test","trial_index":81,"time_elapsed":165310,"internal_node_id":"0.0-8.0-2.18","subject":"o1z5wxhzordou75","sona":"7624"},{"rt":293,"stimulus":"<p>Which sequence did you perceive as more natural?</p>","key_press":74,"test_part":"response","test_stimulus":{"position":0,"left":"bvh/return-bottle-hold-training4-lines.txt","right":"bvh/vr_prediction_models/model(vcgpdm)-dataset(return-bottle-hold)-mode(ELBO)-parts(1)-dyn(20)-lvm(5)-hold(4)/final-lines.txt","att_check":false},"trial_type":"html-keyboard-response","trial_index":82,"time_elapsed":165603,"internal_node_id":"0.0-8.0-3.18","subject":"o1z5wxhzordou75","sona":"7624"},{"rt":301,"stimulus":"<p>Ready?</p>","key_press":32,"trial_type":"html-keyboard-response","trial_index":83,"time_elapsed":165907,"internal_node_id":"0.0-8.0-0.19","subject":"o1z5wxhzordou75","sona":"7624"},{"rt":null,"stimulus":"<div style=\"font-size:60px;\">+</div>","key_press":null,"trial_type":"html-keyboard-response","trial_index":84,"time_elapsed":167914,"internal_node_id":"0.0-8.0-1.19","subject":"o1z5wxhzordou75","sona":"7624"},{"trial_type":"turing-test","trial_index":85,"time_elapsed":173284,"internal_node_id":"0.0-8.0-2.19","subject":"o1z5wxhzordou75","sona":"7624"},{"rt":367,"stimulus":"<p>Which sequence did you perceive as more natural?</p>","key_press":70,"test_part":"response","test_stimulus":{"position":0,"left":"bvh/return-bottle-training0-lines.txt","right":"bvh/vr_prediction_models/model(tmp)-dataset(return-bottle)-numprim(15)-hold(0)/final-lines.txt","att_check":false},"trial_type":"html-keyboard-response","trial_index":86,"time_elapsed":173651,"internal_node_id":"0.0-8.0-3.19","subject":"o1z5wxhzordou75","sona":"7624"},{"rt":295,"stimulus":"<p>Ready?</p>","key_press":32,"trial_type":"html-keyboard-response","trial_index":87,"time_elapsed":173947,"internal_node_id":"0.0-8.0-0.20","subject":"o1z5wxhzordou75","sona":"7624"},{"rt":null,"stimulus":"<div style=\"font-size:60px;\">+</div>","key_press":null,"trial_type":"html-keyboard-response","trial_index":88,"time_elapsed":175951,"internal_node_id":"0.0-8.0-1.20","subject":"o1z5wxhzordou75","sona":"7624"},{"trial_type":"turing-test","trial_index":89,"time_elapsed":179123,"internal_node_id":"0.0-8.0-2.20","subject":"o1z5wxhzordou75","sona":"7624"},{"rt":1070,"stimulus":"<p>Which sequence did you perceive as more natural?</p>","key_press":70,"test_part":"response","test_stimulus":{"position":0,"left":"bvh/pass-bottle-hold-training1-lines.txt","right":"bvh/vr_prediction_models/model(tmp)-dataset(pass-bottle-hold)-numprim(5)-hold(1)/final-lines.txt","att_check":false},"trial_type":"html-keyboard-response","trial_index":90,"time_elapsed":180196,"internal_node_id":"0.0-8.0-3.20","subject":"o1z5wxhzordou75","sona":"7624"},{"rt":335,"stimulus":"<p>Ready?</p>","key_press":32,"trial_type":"html-keyboard-response","trial_index":91,"time_elapsed":180532,"internal_node_id":"0.0-8.0-0.21","subject":"o1z5wxhzordou75","sona":"7624"},{"rt":null,"stimulus":"<div style=\"font-size:60px;\">+</div>","key_press":null,"trial_type":"html-keyboard-response","trial_index":92,"time_elapsed":182538,"internal_node_id":"0.0-8.0-1.21","subject":"o1z5wxhzordou75","sona":"7624"},{"trial_type":"turing-test","trial_index":93,"time_elapsed":188361,"internal_node_id":"0.0-8.0-2.21","subject":"o1z5wxhzordou75","sona":"7624"},{"rt":345,"stimulus":"<p>Which sequence did you perceive as more natural?</p>","key_press":74,"test_part":"response","test_stimulus":{"position":1,"left":"bvh/vr_prediction_models/model(dmp)-dataset(return-bottle)-npsi(80)-hold(3)/final-lines.txt","right":"bvh/return-bottle-training3-lines.txt","att_check":true},"trial_type":"html-keyboard-response","trial_index":94,"time_elapsed":188707,"internal_node_id":"0.0-8.0-3.21","subject":"o1z5wxhzordou75","sona":"7624"},{"rt":318,"stimulus":"<p>Ready?</p>","key_press":32,"trial_type":"html-keyboard-response","trial_index":95,"time_elapsed":189027,"internal_node_id":"0.0-8.0-0.22","subject":"o1z5wxhzordou75","sona":"7624"},{"rt":null,"stimulus":"<div style=\"font-size:60px;\">+</div>","key_press":null,"trial_type":"html-keyboard-response","trial_index":96,"time_elapsed":191032,"internal_node_id":"0.0-8.0-1.22","subject":"o1z5wxhzordou75","sona":"7624"},{"trial_type":"turing-test","trial_index":97,"time_elapsed":194638,"internal_node_id":"0.0-8.0-2.22","subject":"o1z5wxhzordou75","sona":"7624"},{"rt":317,"stimulus":"<p>Which sequence did you perceive as more natural?</p>","key_press":70,"test_part":"response","test_stimulus":{"position":0,"left":"bvh/pass-bottle-hold-training0-lines.txt","right":"bvh/vr_prediction_models/model(vcgpdm)-dataset(pass-bottle-hold)-mode(ELBO)-parts(1)-dyn(35)-lvm(10)-hold(0)/final-lines.txt","att_check":false},"trial_type":"html-keyboard-response","trial_index":98,"time_elapsed":194956,"internal_node_id":"0.0-8.0-3.22","subject":"o1z5wxhzordou75","sona":"7624"},{"rt":270,"stimulus":"<p>Ready?</p>","key_press":32,"trial_type":"html-keyboard-response","trial_index":99,"time_elapsed":195228,"internal_node_id":"0.0-8.0-0.23","subject":"o1z5wxhzordou75","sona":"7624"},{"rt":null,"stimulus":"<div style=\"font-size:60px;\">+</div>","key_press":null,"trial_type":"html-keyboard-response","trial_index":100,"time_elapsed":197232,"internal_node_id":"0.0-8.0-1.23","subject":"o1z5wxhzordou75","sona":"7624"},{"trial_type":"turing-test","trial_index":101,"time_elapsed":200580,"internal_node_id":"0.0-8.0-2.23","subject":"o1z5wxhzordou75","sona":"7624"},{"rt":303,"stimulus":"<p>Which sequence did you perceive as more natural?</p>","key_press":74,"test_part":"response","test_stimulus":{"position":1,"left":"bvh/vr_prediction_models/model(tmp)-dataset(return-bottle-hold)-numprim(4)-hold(2)/final-lines.txt","right":"bvh/return-bottle-hold-training2-lines.txt","att_check":false},"trial_type":"html-keyboard-response","trial_index":102,"time_elapsed":200884,"internal_node_id":"0.0-8.0-3.23","subject":"o1z5wxhzordou75","sona":"7624"},{"rt":287,"stimulus":"<p>Ready?</p>","key_press":32,"trial_type":"html-keyboard-response","trial_index":103,"time_elapsed":201172,"internal_node_id":"0.0-8.0-0.24","subject":"o1z5wxhzordou75","sona":"7624"},{"rt":null,"stimulus":"<div style=\"font-size:60px;\">+</div>","key_press":null,"trial_type":"html-keyboard-response","trial_index":104,"time_elapsed":203175,"internal_node_id":"0.0-8.0-1.24","subject":"o1z5wxhzordou75","sona":"7624"},{"trial_type":"turing-test","trial_index":105,"time_elapsed":206497,"internal_node_id":"0.0-8.0-2.24","subject":"o1z5wxhzordou75","sona":"7624"},{"rt":328,"stimulus":"<p>Which sequence did you perceive as more natural?</p>","key_press":74,"test_part":"response","test_stimulus":{"position":0,"left":"bvh/return-bottle-hold-training2-lines.txt","right":"bvh/vr_prediction_models/model(tmp)-dataset(return-bottle-hold)-numprim(4)-hold(2)/final-lines.txt","att_check":false},"trial_type":"html-keyboard-response","trial_index":106,"time_elapsed":206828,"internal_node_id":"0.0-8.0-3.24","subject":"o1z5wxhzordou75","sona":"7624"},{"rt":285,"stimulus":"<p>Ready?</p>","key_press":32,"trial_type":"html-keyboard-response","trial_index":107,"time_elapsed":207116,"internal_node_id":"0.0-8.0-0.25","subject":"o1z5wxhzordou75","sona":"7624"},{"rt":null,"stimulus":"<div style=\"font-size:60px;\">+</div>","key_press":null,"trial_type":"html-keyboard-response","trial_index":108,"time_elapsed":209123,"internal_node_id":"0.0-8.0-1.25","subject":"o1z5wxhzordou75","sona":"7624"},{"trial_type":"turing-test","trial_index":109,"time_elapsed":212298,"internal_node_id":"0.0-8.0-2.25","subject":"o1z5wxhzordou75","sona":"7624"},{"rt":312,"stimulus":"<p>Which sequence did you perceive as more natural?</p>","key_press":70,"test_part":"response","test_stimulus":{"position":0,"left":"bvh/pass-bottle-hold-training1-lines.txt","right":"bvh/vr_prediction_models/model(dmp)-dataset(pass-bottle-hold)-npsi(30)-hold(1)/final-lines.txt","att_check":false},"trial_type":"html-keyboard-response","trial_index":110,"time_elapsed":212612,"internal_node_id":"0.0-8.0-3.25","subject":"o1z5wxhzordou75","sona":"7624"},{"rt":222,"stimulus":"<p>Ready?</p>","key_press":32,"trial_type":"html-keyboard-response","trial_index":111,"time_elapsed":212836,"internal_node_id":"0.0-8.0-0.26","subject":"o1z5wxhzordou75","sona":"7624"},{"rt":null,"stimulus":"<div style=\"font-size:60px;\">+</div>","key_press":null,"trial_type":"html-keyboard-response","trial_index":112,"time_elapsed":214838,"internal_node_id":"0.0-8.0-1.26","subject":"o1z5wxhzordou75","sona":"7624"},{"trial_type":"turing-test","trial_index":113,"time_elapsed":220739,"internal_node_id":"0.0-8.0-2.26","subject":"o1z5wxhzordou75","sona":"7624"},{"rt":296,"stimulus":"<p>Which sequence did you perceive as more natural?</p>","key_press":74,"test_part":"response","test_stimulus":{"position":1,"left":"bvh/vr_prediction_models/model(vcgpdm)-dataset(return-bottle)-mode(ELBO)-parts(1)-dyn(10)-lvm(30)-hold(3)/final-lines.txt","right":"bvh/return-bottle-training3-lines.txt","att_check":false},"trial_type":"html-keyboard-response","trial_index":114,"time_elapsed":221037,"internal_node_id":"0.0-8.0-3.26","subject":"o1z5wxhzordou75","sona":"7624"},{"rt":287,"stimulus":"<p>Ready?</p>","key_press":32,"trial_type":"html-keyboard-response","trial_index":115,"time_elapsed":221324,"internal_node_id":"0.0-8.0-0.27","subject":"o1z5wxhzordou75","sona":"7624"},{"rt":null,"stimulus":"<div style=\"font-size:60px;\">+</div>","key_press":null,"trial_type":"html-keyboard-response","trial_index":116,"time_elapsed":223329,"internal_node_id":"0.0-8.0-1.27","subject":"o1z5wxhzordou75","sona":"7624"},{"trial_type":"turing-test","trial_index":117,"time_elapsed":229263,"internal_node_id":"0.0-8.0-2.27","subject":"o1z5wxhzordou75","sona":"7624"},{"rt":341,"stimulus":"<p>Which sequence did you perceive as more natural?</p>","key_press":74,"test_part":"response","test_stimulus":{"position":1,"left":"bvh/vr_prediction_models/model(vcgpdm)-dataset(pass-bottle)-mode(ELBO)-parts(3)-dyn(10)-lvm(30)-hold(4)/final-lines.txt","right":"bvh/pass-bottle-training4-lines.txt","att_check":false},"trial_type":"html-keyboard-response","trial_index":118,"time_elapsed":229605,"internal_node_id":"0.0-8.0-3.27","subject":"o1z5wxhzordou75","sona":"7624"},{"rt":510,"stimulus":"<p>Ready?</p>","key_press":32,"trial_type":"html-keyboard-response","trial_index":119,"time_elapsed":230116,"internal_node_id":"0.0-8.0-0.28","subject":"o1z5wxhzordou75","sona":"7624"},{"rt":null,"stimulus":"<div style=\"font-size:60px;\">+</div>","key_press":null,"trial_type":"html-keyboard-response","trial_index":120,"time_elapsed":232124,"internal_node_id":"0.0-8.0-1.28","subject":"o1z5wxhzordou75","sona":"7624"},{"trial_type":"turing-test","trial_index":121,"time_elapsed":238683,"internal_node_id":"0.0-8.0-2.28","subject":"o1z5wxhzordou75","sona":"7624"},{"rt":473,"stimulus":"<p>Which sequence did you perceive as more natural?</p>","key_press":74,"test_part":"response","test_stimulus":{"position":1,"left":"bvh/vr_prediction_models/model(dmp)-dataset(return-bottle)-npsi(40)-hold(2)/final-lines.txt","right":"bvh/return-bottle-training2-lines.txt","att_check":false},"trial_type":"html-keyboard-response","trial_index":122,"time_elapsed":239157,"internal_node_id":"0.0-8.0-3.28","subject":"o1z5wxhzordou75","sona":"7624"},{"rt":286,"stimulus":"<p>Ready?</p>","key_press":32,"trial_type":"html-keyboard-response","trial_index":123,"time_elapsed":239445,"internal_node_id":"0.0-8.0-0.29","subject":"o1z5wxhzordou75","sona":"7624"},{"rt":null,"stimulus":"<div style=\"font-size:60px;\">+</div>","key_press":null,"trial_type":"html-keyboard-response","trial_index":124,"time_elapsed":241449,"internal_node_id":"0.0-8.0-1.29","subject":"o1z5wxhzordou75","sona":"7624"},{"trial_type":"turing-test","trial_index":125,"time_elapsed":247098,"internal_node_id":"0.0-8.0-2.29","subject":"o1z5wxhzordou75","sona":"7624"},{"rt":433,"stimulus":"<p>Which sequence did you perceive as more natural?</p>","key_press":74,"test_part":"response","test_stimulus":{"position":1,"left":"bvh/vr_prediction_models/model(dmp)-dataset(return-bottle)-npsi(60)-hold(4)/final-lines.txt","right":"bvh/return-bottle-training4-lines.txt","att_check":false},"trial_type":"html-keyboard-response","trial_index":126,"time_elapsed":247533,"internal_node_id":"0.0-8.0-3.29","subject":"o1z5wxhzordou75","sona":"7624"},{"rt":262,"stimulus":"<p>Ready?</p>","key_press":32,"trial_type":"html-keyboard-response","trial_index":127,"time_elapsed":247797,"internal_node_id":"0.0-8.0-0.30","subject":"o1z5wxhzordou75","sona":"7624"},{"rt":null,"stimulus":"<div style=\"font-size:60px;\">+</div>","key_press":null,"trial_type":"html-keyboard-response","trial_index":128,"time_elapsed":249803,"internal_node_id":"0.0-8.0-1.30","subject":"o1z5wxhzordou75","sona":"7624"},{"trial_type":"turing-test","trial_index":129,"time_elapsed":253174,"internal_node_id":"0.0-8.0-2.30","subject":"o1z5wxhzordou75","sona":"7624"},{"rt":525,"stimulus":"<p>Which sequence did you perceive as more natural?</p>","key_press":74,"test_part":"response","test_stimulus":{"position":0,"left":"bvh/return-bottle-hold-training2-lines.txt","right":"bvh/vr_prediction_models/model(vcgpdm)-dataset(return-bottle-hold)-mode(ELBO)-parts(3)-dyn(25)-lvm(30)-hold(2)/final-lines.txt","att_check":false},"trial_type":"html-keyboard-response","trial_index":130,"time_elapsed":253701,"internal_node_id":"0.0-8.0-3.30","subject":"o1z5wxhzordou75","sona":"7624"},{"rt":287,"stimulus":"<p>Ready?</p>","key_press":32,"trial_type":"html-keyboard-response","trial_index":131,"time_elapsed":253989,"internal_node_id":"0.0-8.0-0.31","subject":"o1z5wxhzordou75","sona":"7624"},{"rt":null,"stimulus":"<div style=\"font-size:60px;\">+</div>","key_press":null,"trial_type":"html-keyboard-response","trial_index":132,"time_elapsed":255995,"internal_node_id":"0.0-8.0-1.31","subject":"o1z5wxhzordou75","sona":"7624"},{"trial_type":"turing-test","trial_index":133,"time_elapsed":261541,"internal_node_id":"0.0-8.0-2.31","subject":"o1z5wxhzordou75","sona":"7624"},{"rt":2279,"stimulus":"<p>Which sequence did you perceive as more natural?</p>","key_press":74,"test_part":"response","test_stimulus":{"position":1,"left":"bvh/vr_prediction_models/model(vcgpdm)-dataset(return-bottle)-mode(ELBO)-parts(1)-dyn(30)-lvm(35)-hold(0)/final-lines.txt","right":"bvh/return-bottle-training0-lines.txt","att_check":false},"trial_type":"html-keyboard-response","trial_index":134,"time_elapsed":263822,"internal_node_id":"0.0-8.0-3.31","subject":"o1z5wxhzordou75","sona":"7624"},{"rt":245,"stimulus":"<p>Ready?</p>","key_press":32,"trial_type":"html-keyboard-response","trial_index":135,"time_elapsed":264069,"internal_node_id":"0.0-8.0-0.32","subject":"o1z5wxhzordou75","sona":"7624"},{"rt":null,"stimulus":"<div style=\"font-size:60px;\">+</div>","key_press":null,"trial_type":"html-keyboard-response","trial_index":136,"time_elapsed":266074,"internal_node_id":"0.0-8.0-1.32","subject":"o1z5wxhzordou75","sona":"7624"},{"trial_type":"turing-test","trial_index":137,"time_elapsed":269489,"internal_node_id":"0.0-8.0-2.32","subject":"o1z5wxhzordou75","sona":"7624"},{"rt":404,"stimulus":"<p>Which sequence did you perceive as more natural?</p>","key_press":74,"test_part":"response","test_stimulus":{"position":1,"left":"bvh/vr_prediction_models/model(vcgpdm)-dataset(pass-bottle-hold)-mode(ELBO)-parts(3)-dyn(25)-lvm(25)-hold(1)/final-lines.txt","right":"bvh/pass-bottle-hold-training1-lines.txt","att_check":false},"trial_type":"html-keyboard-response","trial_index":138,"time_elapsed":269894,"internal_node_id":"0.0-8.0-3.32","subject":"o1z5wxhzordou75","sona":"7624"},{"rt":182,"stimulus":"<p>Ready?</p>","key_press":32,"trial_type":"html-keyboard-response","trial_index":139,"time_elapsed":270077,"internal_node_id":"0.0-8.0-0.33","subject":"o1z5wxhzordou75","sona":"7624"},{"rt":null,"stimulus":"<div style=\"font-size:60px;\">+</div>","key_press":null,"trial_type":"html-keyboard-response","trial_index":140,"time_elapsed":272085,"internal_node_id":"0.0-8.0-1.33","subject":"o1z5wxhzordou75","sona":"7624"},{"trial_type":"turing-test","trial_index":141,"time_elapsed":275175,"internal_node_id":"0.0-8.0-2.33","subject":"o1z5wxhzordou75","sona":"7624"},{"rt":1293,"stimulus":"<p>Which sequence did you perceive as more natural?</p>","key_press":74,"test_part":"response","test_stimulus":{"position":0,"left":"bvh/pass-bottle-hold-training1-lines.txt","right":"bvh/vr_prediction_models/model(tmp)-dataset(pass-bottle-hold)-numprim(11)-hold(1)/final-lines.txt","att_check":false},"trial_type":"html-keyboard-response","trial_index":142,"time_elapsed":276470,"internal_node_id":"0.0-8.0-3.33","subject":"o1z5wxhzordou75","sona":"7624"},{"rt":199,"stimulus":"<p>Ready?</p>","key_press":32,"trial_type":"html-keyboard-response","trial_index":143,"time_elapsed":276670,"internal_node_id":"0.0-8.0-0.34","subject":"o1z5wxhzordou75","sona":"7624"},{"rt":null,"stimulus":"<div style=\"font-size:60px;\">+</div>","key_press":null,"trial_type":"html-keyboard-response","trial_index":144,"time_elapsed":278679,"internal_node_id":"0.0-8.0-1.34","subject":"o1z5wxhzordou75","sona":"7624"},{"trial_type":"turing-test","trial_index":145,"time_elapsed":282394,"internal_node_id":"0.0-8.0-2.34","subject":"o1z5wxhzordou75","sona":"7624"},{"rt":362,"stimulus":"<p>Which sequence did you perceive as more natural?</p>","key_press":74,"test_part":"response","test_stimulus":{"position":1,"left":"bvh/vr_prediction_models/model(vcgpdm)-dataset(pass-bottle-hold)-mode(ELBO)-parts(1)-dyn(35)-lvm(30)-hold(3)/final-lines.txt","right":"bvh/pass-bottle-hold-training3-lines.txt","att_check":false},"trial_type":"html-keyboard-response","trial_index":146,"time_elapsed":282758,"internal_node_id":"0.0-8.0-3.34","subject":"o1z5wxhzordou75","sona":"7624"},{"rt":229,"stimulus":"<p>Ready?</p>","key_press":32,"trial_type":"html-keyboard-response","trial_index":147,"time_elapsed":282990,"internal_node_id":"0.0-8.0-0.35","subject":"o1z5wxhzordou75","sona":"7624"},{"rt":null,"stimulus":"<div style=\"font-size:60px;\">+</div>","key_press":null,"trial_type":"html-keyboard-response","trial_index":148,"time_elapsed":284996,"internal_node_id":"0.0-8.0-1.35","subject":"o1z5wxhzordou75","sona":"7624"},{"trial_type":"turing-test","trial_index":149,"time_elapsed":291926,"internal_node_id":"0.0-8.0-2.35","subject":"o1z5wxhzordou75","sona":"7624"},{"rt":352,"stimulus":"<p>Which sequence did you perceive as more natural?</p>","key_press":74,"test_part":"response","test_stimulus":{"position":1,"left":"bvh/vr_prediction_models/model(vcgpdm)-dataset(pass-bottle)-mode(ELBO)-parts(3)-dyn(10)-lvm(30)-hold(0)/final-lines.txt","right":"bvh/pass-bottle-training0-lines.txt","att_check":false},"trial_type":"html-keyboard-response","trial_index":150,"time_elapsed":292279,"internal_node_id":"0.0-8.0-3.35","subject":"o1z5wxhzordou75","sona":"7624"},{"rt":525,"stimulus":"<p>Ready?</p>","key_press":32,"trial_type":"html-keyboard-response","trial_index":151,"time_elapsed":292807,"internal_node_id":"0.0-8.0-0.36","subject":"o1z5wxhzordou75","sona":"7624"},{"rt":null,"stimulus":"<div style=\"font-size:60px;\">+</div>","key_press":null,"trial_type":"html-keyboard-response","trial_index":152,"time_elapsed":294808,"internal_node_id":"0.0-8.0-1.36","subject":"o1z5wxhzordou75","sona":"7624"},{"trial_type":"turing-test","trial_index":153,"time_elapsed":300410,"internal_node_id":"0.0-8.0-2.36","subject":"o1z5wxhzordou75","sona":"7624"},{"rt":6986,"stimulus":"<p>Which sequence did you perceive as more natural?</p>","key_press":70,"test_part":"response","test_stimulus":{"position":1,"left":"bvh/vr_prediction_models/model(dmp)-dataset(pass-bottle)-npsi(60)-hold(1)/final-lines.txt","right":"bvh/pass-bottle-training1-lines.txt","att_check":false},"trial_type":"html-keyboard-response","trial_index":154,"time_elapsed":307399,"internal_node_id":"0.0-8.0-3.36","subject":"o1z5wxhzordou75","sona":"7624"},{"rt":207,"stimulus":"<p>Ready?</p>","key_press":32,"trial_type":"html-keyboard-response","trial_index":155,"time_elapsed":307607,"internal_node_id":"0.0-8.0-0.37","subject":"o1z5wxhzordou75","sona":"7624"},{"rt":null,"stimulus":"<div style=\"font-size:60px;\">+</div>","key_press":null,"trial_type":"html-keyboard-response","trial_index":156,"time_elapsed":309612,"internal_node_id":"0.0-8.0-1.37","subject":"o1z5wxhzordou75","sona":"7624"},{"trial_type":"turing-test","trial_index":157,"time_elapsed":316064,"internal_node_id":"0.0-8.0-2.37","subject":"o1z5wxhzordou75","sona":"7624"},{"rt":8725,"stimulus":"<p>Which sequence did you perceive as more natural?</p>","key_press":74,"test_part":"response","test_stimulus":{"position":1,"left":"bvh/vr_prediction_models/model(vcgpdm)-dataset(return-bottle)-mode(ELBO)-parts(1)-dyn(30)-lvm(35)-hold(2)/final-lines.txt","right":"bvh/return-bottle-training2-lines.txt","att_check":false},"trial_type":"html-keyboard-response","trial_index":158,"time_elapsed":324791,"internal_node_id":"0.0-8.0-3.37","subject":"o1z5wxhzordou75","sona":"7624"},{"rt":173,"stimulus":"<p>Ready?</p>","key_press":32,"trial_type":"html-keyboard-response","trial_index":159,"time_elapsed":324967,"internal_node_id":"0.0-8.0-0.38","subject":"o1z5wxhzordou75","sona":"7624"},{"rt":null,"stimulus":"<div style=\"font-size:60px;\">+</div>","key_press":null,"trial_type":"html-keyboard-response","trial_index":160,"time_elapsed":326972,"internal_node_id":"0.0-8.0-1.38","subject":"o1z5wxhzordou75","sona":"7624"},{"trial_type":"turing-test","trial_index":161,"time_elapsed":332376,"internal_node_id":"0.0-8.0-2.38","subject":"o1z5wxhzordou75","sona":"7624"},{"rt":1174,"stimulus":"<p>Which sequence did you perceive as more natural?</p>","key_press":70,"test_part":"response","test_stimulus":{"position":1,"left":"bvh/vr_prediction_models/model(tmp)-dataset(pass-bottle)-numprim(9)-hold(1)/final-lines.txt","right":"bvh/pass-bottle-training1-lines.txt","att_check":false},"trial_type":"html-keyboard-response","trial_index":162,"time_elapsed":333552,"internal_node_id":"0.0-8.0-3.38","subject":"o1z5wxhzordou75","sona":"7624"},{"rt":221,"stimulus":"<p>Ready?</p>","key_press":32,"trial_type":"html-keyboard-response","trial_index":163,"time_elapsed":333776,"internal_node_id":"0.0-8.0-0.39","subject":"o1z5wxhzordou75","sona":"7624"},{"rt":null,"stimulus":"<div style=\"font-size:60px;\">+</div>","key_press":null,"trial_type":"html-keyboard-response","trial_index":164,"time_elapsed":335781,"internal_node_id":"0.0-8.0-1.39","subject":"o1z5wxhzordou75","sona":"7624"},{"trial_type":"turing-test","trial_index":165,"time_elapsed":339524,"internal_node_id":"0.0-8.0-2.39","subject":"o1z5wxhzordou75","sona":"7624"},{"rt":459,"stimulus":"<p>Which sequence did you perceive as more natural?</p>","key_press":74,"test_part":"response","test_stimulus":{"position":1,"left":"bvh/vr_prediction_models/model(dmp)-dataset(return-bottle-hold)-npsi(10)-hold(4)/final-lines.txt","right":"bvh/return-bottle-hold-training4-lines.txt","att_check":true},"trial_type":"html-keyboard-response","trial_index":166,"time_elapsed":339983,"internal_node_id":"0.0-8.0-3.39","subject":"o1z5wxhzordou75","sona":"7624"},{"rt":230,"stimulus":"<p>Ready?</p>","key_press":32,"trial_type":"html-keyboard-response","trial_index":167,"time_elapsed":340216,"internal_node_id":"0.0-8.0-0.40","subject":"o1z5wxhzordou75","sona":"7624"},{"rt":null,"stimulus":"<div style=\"font-size:60px;\">+</div>","key_press":null,"trial_type":"html-keyboard-response","trial_index":168,"time_elapsed":342220,"internal_node_id":"0.0-8.0-1.40","subject":"o1z5wxhzordou75","sona":"7624"},{"trial_type":"turing-test","trial_index":169,"time_elapsed":345815,"internal_node_id":"0.0-8.0-2.40","subject":"o1z5wxhzordou75","sona":"7624"},{"rt":1264,"stimulus":"<p>Which sequence did you perceive as more natural?</p>","key_press":74,"test_part":"response","test_stimulus":{"position":1,"left":"bvh/vr_prediction_models/model(dmp)-dataset(pass-bottle-hold)-npsi(50)-hold(4)/final-lines.txt","right":"bvh/pass-bottle-hold-training4-lines.txt","att_check":false},"trial_type":"html-keyboard-response","trial_index":170,"time_elapsed":347080,"internal_node_id":"0.0-8.0-3.40","subject":"o1z5wxhzordou75","sona":"7624"},{"rt":254,"stimulus":"<p>Ready?</p>","key_press":32,"trial_type":"html-keyboard-response","trial_index":171,"time_elapsed":347336,"internal_node_id":"0.0-8.0-0.41","subject":"o1z5wxhzordou75","sona":"7624"},{"rt":null,"stimulus":"<div style=\"font-size:60px;\">+</div>","key_press":null,"trial_type":"html-keyboard-response","trial_index":172,"time_elapsed":349339,"internal_node_id":"0.0-8.0-1.41","subject":"o1z5wxhzordou75","sona":"7624"},{"trial_type":"turing-test","trial_index":173,"time_elapsed":355408,"internal_node_id":"0.0-8.0-2.41","subject":"o1z5wxhzordou75","sona":"7624"},{"rt":87,"stimulus":"<p>Which sequence did you perceive as more natural?</p>","key_press":70,"test_part":"response","test_stimulus":{"position":0,"left":"bvh/return-bottle-training4-lines.txt","right":"bvh/vr_prediction_models/model(vcgpdm)-dataset(return-bottle)-mode(ELBO)-parts(3)-dyn(10)-lvm(30)-hold(4)/final-lines.txt","att_check":false},"trial_type":"html-keyboard-response","trial_index":174,"time_elapsed":355497,"internal_node_id":"0.0-8.0-3.41","subject":"o1z5wxhzordou75","sona":"7624"},{"rt":375,"stimulus":"<p>Ready?</p>","key_press":32,"trial_type":"html-keyboard-response","trial_index":175,"time_elapsed":355872,"internal_node_id":"0.0-8.0-0.42","subject":"o1z5wxhzordou75","sona":"7624"},{"rt":null,"stimulus":"<div style=\"font-size:60px;\">+</div>","key_press":null,"trial_type":"html-keyboard-response","trial_index":176,"time_elapsed":357875,"internal_node_id":"0.0-8.0-1.42","subject":"o1z5wxhzordou75","sona":"7624"},{"trial_type":"turing-test","trial_index":177,"time_elapsed":362857,"internal_node_id":"0.0-8.0-2.42","subject":"o1z5wxhzordou75","sona":"7624"},{"rt":382,"stimulus":"<p>Which sequence did you perceive as more natural?</p>","key_press":74,"test_part":"response","test_stimulus":{"position":1,"left":"bvh/vr_prediction_models/model(dmp)-dataset(return-bottle-hold)-npsi(10)-hold(0)/final-lines.txt","right":"bvh/return-bottle-hold-training0-lines.txt","att_check":false},"trial_type":"html-keyboard-response","trial_index":178,"time_elapsed":363240,"internal_node_id":"0.0-8.0-3.42","subject":"o1z5wxhzordou75","sona":"7624"},{"rt":222,"stimulus":"<p>Ready?</p>","key_press":32,"trial_type":"html-keyboard-response","trial_index":179,"time_elapsed":363464,"internal_node_id":"0.0-8.0-0.43","subject":"o1z5wxhzordou75","sona":"7624"},{"rt":null,"stimulus":"<div style=\"font-size:60px;\">+</div>","key_press":null,"trial_type":"html-keyboard-response","trial_index":180,"time_elapsed":365472,"internal_node_id":"0.0-8.0-1.43","subject":"o1z5wxhzordou75","sona":"7624"},{"trial_type":"turing-test","trial_index":181,"time_elapsed":371518,"internal_node_id":"0.0-8.0-2.43","subject":"o1z5wxhzordou75","sona":"7624"},{"rt":7009,"stimulus":"<p>Which sequence did you perceive as more natural?</p>","key_press":74,"test_part":"response","test_stimulus":{"position":0,"left":"bvh/return-bottle-training1-lines.txt","right":"bvh/vr_prediction_models/model(tmp)-dataset(return-bottle)-numprim(11)-hold(1)/final-lines.txt","att_check":false},"trial_type":"html-keyboard-response","trial_index":182,"time_elapsed":378529,"internal_node_id":"0.0-8.0-3.43","subject":"o1z5wxhzordou75","sona":"7624"},{"rt":350,"stimulus":"<p>Ready?</p>","key_press":32,"trial_type":"html-keyboard-response","trial_index":183,"time_elapsed":378881,"internal_node_id":"0.0-8.0-0.44","subject":"o1z5wxhzordou75","sona":"7624"},{"rt":null,"stimulus":"<div style=\"font-size:60px;\">+</div>","key_press":null,"trial_type":"html-keyboard-response","trial_index":184,"time_elapsed":380884,"internal_node_id":"0.0-8.0-1.44","subject":"o1z5wxhzordou75","sona":"7624"},{"trial_type":"turing-test","trial_index":185,"time_elapsed":384310,"internal_node_id":"0.0-8.0-2.44","subject":"o1z5wxhzordou75","sona":"7624"},{"rt":354,"stimulus":"<p>Which sequence did you perceive as more natural?</p>","key_press":74,"test_part":"response","test_stimulus":{"position":0,"left":"bvh/pass-bottle-hold-training1-lines.txt","right":"bvh/vr_prediction_models/model(vcgpdm)-dataset(pass-bottle-hold)-mode(ELBO)-parts(3)-dyn(35)-lvm(20)-hold(1)/final-lines.txt","att_check":false},"trial_type":"html-keyboard-response","trial_index":186,"time_elapsed":384665,"internal_node_id":"0.0-8.0-3.44","subject":"o1z5wxhzordou75","sona":"7624"},{"rt":230,"stimulus":"<p>Ready?</p>","key_press":32,"trial_type":"html-keyboard-response","trial_index":187,"time_elapsed":384897,"internal_node_id":"0.0-8.0-0.45","subject":"o1z5wxhzordou75","sona":"7624"},{"rt":null,"stimulus":"<div style=\"font-size:60px;\">+</div>","key_press":null,"trial_type":"html-keyboard-response","trial_index":188,"time_elapsed":386901,"internal_node_id":"0.0-8.0-1.45","subject":"o1z5wxhzordou75","sona":"7624"},{"trial_type":"turing-test","trial_index":189,"time_elapsed":393336,"internal_node_id":"0.0-8.0-2.45","subject":"o1z5wxhzordou75","sona":"7624"},{"rt":433,"stimulus":"<p>Which sequence did you perceive as more natural?</p>","key_press":70,"test_part":"response","test_stimulus":{"position":0,"left":"bvh/return-bottle-training2-lines.txt","right":"bvh/vr_prediction_models/model(dmp)-dataset(return-bottle)-npsi(40)-hold(2)/final-lines.txt","att_check":false},"trial_type":"html-keyboard-response","trial_index":190,"time_elapsed":393769,"internal_node_id":"0.0-8.0-3.45","subject":"o1z5wxhzordou75","sona":"7624"},{"rt":255,"stimulus":"<p>Ready?</p>","key_press":32,"trial_type":"html-keyboard-response","trial_index":191,"time_elapsed":394025,"internal_node_id":"0.0-8.0-0.46","subject":"o1z5wxhzordou75","sona":"7624"},{"rt":null,"stimulus":"<div style=\"font-size:60px;\">+</div>","key_press":null,"trial_type":"html-keyboard-response","trial_index":192,"time_elapsed":396032,"internal_node_id":"0.0-8.0-1.46","subject":"o1z5wxhzordou75","sona":"7624"},{"trial_type":"turing-test","trial_index":193,"time_elapsed":401986,"internal_node_id":"0.0-8.0-2.46","subject":"o1z5wxhzordou75","sona":"7624"},{"rt":529,"stimulus":"<p>Which sequence did you perceive as more natural?</p>","key_press":74,"test_part":"response","test_stimulus":{"position":1,"left":"bvh/vr_prediction_models/model(vcgpdm)-dataset(return-bottle)-mode(ELBO)-parts(1)-dyn(25)-lvm(35)-hold(1)/final-lines.txt","right":"bvh/return-bottle-training1-lines.txt","att_check":false},"trial_type":"html-keyboard-response","trial_index":194,"time_elapsed":402516,"internal_node_id":"0.0-8.0-3.46","subject":"o1z5wxhzordou75","sona":"7624"},{"rt":308,"stimulus":"<p>Ready?</p>","key_press":32,"trial_type":"html-keyboard-response","trial_index":195,"time_elapsed":402825,"internal_node_id":"0.0-8.0-0.47","subject":"o1z5wxhzordou75","sona":"7624"},{"rt":null,"stimulus":"<div style=\"font-size:60px;\">+</div>","key_press":null,"trial_type":"html-keyboard-response","trial_index":196,"time_elapsed":404828,"internal_node_id":"0.0-8.0-1.47","subject":"o1z5wxhzordou75","sona":"7624"},{"trial_type":"turing-test","trial_index":197,"time_elapsed":410286,"internal_node_id":"0.0-8.0-2.47","subject":"o1z5wxhzordou75","sona":"7624"},{"rt":147,"stimulus":"<p>Which sequence did you perceive as more natural?</p>","key_press":74,"test_part":"response","test_stimulus":{"position":1,"left":"bvh/vr_prediction_models/model(dmp)-dataset(return-bottle)-npsi(90)-hold(0)/final-lines.txt","right":"bvh/return-bottle-training0-lines.txt","att_check":false},"trial_type":"html-keyboard-response","trial_index":198,"time_elapsed":410435,"internal_node_id":"0.0-8.0-3.47","subject":"o1z5wxhzordou75","sona":"7624"},{"rt":357,"stimulus":"<p>Ready?</p>","key_press":32,"trial_type":"html-keyboard-response","trial_index":199,"time_elapsed":410794,"internal_node_id":"0.0-8.0-0.48","subject":"o1z5wxhzordou75","sona":"7624"},{"rt":null,"stimulus":"<div style=\"font-size:60px;\">+</div>","key_press":null,"trial_type":"html-keyboard-response","trial_index":200,"time_elapsed":412797,"internal_node_id":"0.0-8.0-1.48","subject":"o1z5wxhzordou75","sona":"7624"},{"trial_type":"turing-test","trial_index":201,"time_elapsed":419654,"internal_node_id":"0.0-8.0-2.48","subject":"o1z5wxhzordou75","sona":"7624"},{"rt":329,"stimulus":"<p>Which sequence did you perceive as more natural?</p>","key_press":70,"test_part":"response","test_stimulus":{"position":0,"left":"bvh/return-bottle-training2-lines.txt","right":"bvh/vr_prediction_models/model(vcgpdm)-dataset(return-bottle)-mode(ELBO)-parts(3)-dyn(15)-lvm(30)-hold(2)/final-lines.txt","att_check":false},"trial_type":"html-keyboard-response","trial_index":202,"time_elapsed":419987,"internal_node_id":"0.0-8.0-3.48","subject":"o1z5wxhzordou75","sona":"7624"},{"rt":261,"stimulus":"<p>Ready?</p>","key_press":32,"trial_type":"html-keyboard-response","trial_index":203,"time_elapsed":420250,"internal_node_id":"0.0-8.0-0.49","subject":"o1z5wxhzordou75","sona":"7624"},{"rt":null,"stimulus":"<div style=\"font-size:60px;\">+</div>","key_press":null,"trial_type":"html-keyboard-response","trial_index":204,"time_elapsed":422253,"internal_node_id":"0.0-8.0-1.49","subject":"o1z5wxhzordou75","sona":"7624"},{"trial_type":"turing-test","trial_index":205,"time_elapsed":427860,"internal_node_id":"0.0-8.0-2.49","subject":"o1z5wxhzordou75","sona":"7624"},{"rt":435,"stimulus":"<p>Which sequence did you perceive as more natural?</p>","key_press":74,"test_part":"response","test_stimulus":{"position":0,"left":"bvh/pass-bottle-training4-lines.txt","right":"bvh/vr_prediction_models/model(vcgpdm)-dataset(pass-bottle)-mode(ELBO)-parts(3)-dyn(25)-lvm(25)-hold(4)/final-lines.txt","att_check":false},"trial_type":"html-keyboard-response","trial_index":206,"time_elapsed":428298,"internal_node_id":"0.0-8.0-3.49","subject":"o1z5wxhzordou75","sona":"7624"},{"rt":294,"stimulus":"<p>Ready?</p>","key_press":32,"trial_type":"html-keyboard-response","trial_index":207,"time_elapsed":428594,"internal_node_id":"0.0-8.0-0.50","subject":"o1z5wxhzordou75","sona":"7624"},{"rt":null,"stimulus":"<div style=\"font-size:60px;\">+</div>","key_press":null,"trial_type":"html-keyboard-response","trial_index":208,"time_elapsed":430598,"internal_node_id":"0.0-8.0-1.50","subject":"o1z5wxhzordou75","sona":"7624"},{"trial_type":"turing-test","trial_index":209,"time_elapsed":436208,"internal_node_id":"0.0-8.0-2.50","subject":"o1z5wxhzordou75","sona":"7624"},{"rt":289,"stimulus":"<p>Which sequence did you perceive as more natural?</p>","key_press":70,"test_part":"response","test_stimulus":{"position":0,"left":"bvh/return-bottle-training0-lines.txt","right":"bvh/vr_prediction_models/model(vcgpdm)-dataset(return-bottle)-mode(ELBO)-parts(3)-dyn(25)-lvm(30)-hold(0)/final-lines.txt","att_check":false},"trial_type":"html-keyboard-response","trial_index":210,"time_elapsed":436499,"internal_node_id":"0.0-8.0-3.50","subject":"o1z5wxhzordou75","sona":"7624"},{"rt":350,"stimulus":"<p>Ready?</p>","key_press":32,"trial_type":"html-keyboard-response","trial_index":211,"time_elapsed":436851,"internal_node_id":"0.0-8.0-0.51","subject":"o1z5wxhzordou75","sona":"7624"},{"rt":null,"stimulus":"<div style=\"font-size:60px;\">+</div>","key_press":null,"trial_type":"html-keyboard-response","trial_index":212,"time_elapsed":438856,"internal_node_id":"0.0-8.0-1.51","subject":"o1z5wxhzordou75","sona":"7624"},{"trial_type":"turing-test","trial_index":213,"time_elapsed":444124,"internal_node_id":"0.0-8.0-2.51","subject":"o1z5wxhzordou75","sona":"7624"},{"rt":477,"stimulus":"<p>Which sequence did you perceive as more natural?</p>","key_press":74,"test_part":"response","test_stimulus":{"position":0,"left":"bvh/return-bottle-training0-lines.txt","right":"bvh/vr_prediction_models/model(vcgpdm)-dataset(return-bottle)-mode(MAP)-parts(1)-hold(0)/final-lines.txt","att_check":false},"trial_type":"html-keyboard-response","trial_index":214,"time_elapsed":444603,"internal_node_id":"0.0-8.0-3.51","subject":"o1z5wxhzordou75","sona":"7624"},{"rt":302,"stimulus":"<p>Ready?</p>","key_press":32,"trial_type":"html-keyboard-response","trial_index":215,"time_elapsed":444907,"internal_node_id":"0.0-8.0-0.52","subject":"o1z5wxhzordou75","sona":"7624"},{"rt":null,"stimulus":"<div style=\"font-size:60px;\">+</div>","key_press":null,"trial_type":"html-keyboard-response","trial_index":216,"time_elapsed":446911,"internal_node_id":"0.0-8.0-1.52","subject":"o1z5wxhzordou75","sona":"7624"},{"trial_type":"turing-test","trial_index":217,"time_elapsed":453523,"internal_node_id":"0.0-8.0-2.52","subject":"o1z5wxhzordou75","sona":"7624"},{"rt":405,"stimulus":"<p>Which sequence did you perceive as more natural?</p>","key_press":70,"test_part":"response","test_stimulus":{"position":0,"left":"bvh/return-bottle-training2-lines.txt","right":"bvh/vr_prediction_models/model(tmp)-dataset(return-bottle)-numprim(10)-hold(2)/final-lines.txt","att_check":false},"trial_type":"html-keyboard-response","trial_index":218,"time_elapsed":453931,"internal_node_id":"0.0-8.0-3.52","subject":"o1z5wxhzordou75","sona":"7624"},{"rt":350,"stimulus":"<p>Ready?</p>","key_press":32,"trial_type":"html-keyboard-response","trial_index":219,"time_elapsed":454282,"internal_node_id":"0.0-8.0-0.53","subject":"o1z5wxhzordou75","sona":"7624"},{"rt":null,"stimulus":"<div style=\"font-size:60px;\">+</div>","key_press":null,"trial_type":"html-keyboard-response","trial_index":220,"time_elapsed":456287,"internal_node_id":"0.0-8.0-1.53","subject":"o1z5wxhzordou75","sona":"7624"},{"trial_type":"turing-test","trial_index":221,"time_elapsed":462036,"internal_node_id":"0.0-8.0-2.53","subject":"o1z5wxhzordou75","sona":"7624"},{"rt":397,"stimulus":"<p>Which sequence did you perceive as more natural?</p>","key_press":70,"test_part":"response","test_stimulus":{"position":0,"left":"bvh/return-bottle-training3-lines.txt","right":"bvh/vr_prediction_models/model(tmp)-dataset(return-bottle)-numprim(14)-hold(3)/final-lines.txt","att_check":false},"trial_type":"html-keyboard-response","trial_index":222,"time_elapsed":462436,"internal_node_id":"0.0-8.0-3.53","subject":"o1z5wxhzordou75","sona":"7624"},{"rt":206,"stimulus":"<p>Ready?</p>","key_press":32,"trial_type":"html-keyboard-response","trial_index":223,"time_elapsed":462643,"internal_node_id":"0.0-8.0-0.54","subject":"o1z5wxhzordou75","sona":"7624"},{"rt":null,"stimulus":"<div style=\"font-size:60px;\">+</div>","key_press":null,"trial_type":"html-keyboard-response","trial_index":224,"time_elapsed":464649,"internal_node_id":"0.0-8.0-1.54","subject":"o1z5wxhzordou75","sona":"7624"},{"trial_type":"turing-test","trial_index":225,"time_elapsed":468188,"internal_node_id":"0.0-8.0-2.54","subject":"o1z5wxhzordou75","sona":"7624"},{"rt":902,"stimulus":"<p>Which sequence did you perceive as more natural?</p>","key_press":70,"test_part":"response","test_stimulus":{"position":0,"left":"bvh/pass-bottle-hold-training0-lines.txt","right":"bvh/vr_prediction_models/model(vcgpdm)-dataset(pass-bottle-hold)-mode(ELBO)-parts(1)-dyn(20)-lvm(20)-hold(0)/final-lines.txt","att_check":false},"trial_type":"html-keyboard-response","trial_index":226,"time_elapsed":469092,"internal_node_id":"0.0-8.0-3.54","subject":"o1z5wxhzordou75","sona":"7624"},{"rt":278,"stimulus":"<p>Ready?</p>","key_press":32,"trial_type":"html-keyboard-response","trial_index":227,"time_elapsed":469371,"internal_node_id":"0.0-8.0-0.55","subject":"o1z5wxhzordou75","sona":"7624"},{"rt":null,"stimulus":"<div style=\"font-size:60px;\">+</div>","key_press":null,"trial_type":"html-keyboard-response","trial_index":228,"time_elapsed":471375,"internal_node_id":"0.0-8.0-1.55","subject":"o1z5wxhzordou75","sona":"7624"},{"trial_type":"turing-test","trial_index":229,"time_elapsed":474724,"internal_node_id":"0.0-8.0-2.55","subject":"o1z5wxhzordou75","sona":"7624"},{"rt":278,"stimulus":"<p>Which sequence did you perceive as more natural?</p>","key_press":74,"test_part":"response","test_stimulus":{"position":1,"left":"bvh/vr_prediction_models/model(dmp)-dataset(pass-bottle-hold)-npsi(70)-hold(2)/final-lines.txt","right":"bvh/pass-bottle-hold-training2-lines.txt","att_check":false},"trial_type":"html-keyboard-response","trial_index":230,"time_elapsed":475003,"internal_node_id":"0.0-8.0-3.55","subject":"o1z5wxhzordou75","sona":"7624"},{"rt":261,"stimulus":"<p>Ready?</p>","key_press":32,"trial_type":"html-keyboard-response","trial_index":231,"time_elapsed":475267,"internal_node_id":"0.0-8.0-0.56","subject":"o1z5wxhzordou75","sona":"7624"},{"rt":null,"stimulus":"<div style=\"font-size:60px;\">+</div>","key_press":null,"trial_type":"html-keyboard-response","trial_index":232,"time_elapsed":477272,"internal_node_id":"0.0-8.0-1.56","subject":"o1z5wxhzordou75","sona":"7624"},{"trial_type":"turing-test","trial_index":233,"time_elapsed":482569,"internal_node_id":"0.0-8.0-2.56","subject":"o1z5wxhzordou75","sona":"7624"},{"rt":440,"stimulus":"<p>Which sequence did you perceive as more natural?</p>","key_press":70,"test_part":"response","test_stimulus":{"position":0,"left":"bvh/pass-bottle-training1-lines.txt","right":"bvh/vr_prediction_models/model(dmp)-dataset(pass-bottle)-npsi(90)-hold(1)/final-lines.txt","att_check":true},"trial_type":"html-keyboard-response","trial_index":234,"time_elapsed":483011,"internal_node_id":"0.0-8.0-3.56","subject":"o1z5wxhzordou75","sona":"7624"},{"rt":270,"stimulus":"<p>Ready?</p>","key_press":32,"trial_type":"html-keyboard-response","trial_index":235,"time_elapsed":483283,"internal_node_id":"0.0-8.0-0.57","subject":"o1z5wxhzordou75","sona":"7624"},{"rt":null,"stimulus":"<div style=\"font-size:60px;\">+</div>","key_press":null,"trial_type":"html-keyboard-response","trial_index":236,"time_elapsed":485287,"internal_node_id":"0.0-8.0-1.57","subject":"o1z5wxhzordou75","sona":"7624"},{"trial_type":"turing-test","trial_index":237,"time_elapsed":488880,"internal_node_id":"0.0-8.0-2.57","subject":"o1z5wxhzordou75","sona":"7624"},{"rt":618,"stimulus":"<p>Which sequence did you perceive as more natural?</p>","key_press":70,"test_part":"response","test_stimulus":{"position":1,"left":"bvh/vr_prediction_models/model(vcgpdm)-dataset(pass-bottle-hold)-mode(ELBO)-parts(1)-dyn(10)-lvm(30)-hold(2)/final-lines.txt","right":"bvh/pass-bottle-hold-training2-lines.txt","att_check":false},"trial_type":"html-keyboard-response","trial_index":238,"time_elapsed":489500,"internal_node_id":"0.0-8.0-3.57","subject":"o1z5wxhzordou75","sona":"7624"},{"rt":237,"stimulus":"<p>Ready?</p>","key_press":32,"trial_type":"html-keyboard-response","trial_index":239,"time_elapsed":489739,"internal_node_id":"0.0-8.0-0.58","subject":"o1z5wxhzordou75","sona":"7624"},{"rt":null,"stimulus":"<div style=\"font-size:60px;\">+</div>","key_press":null,"trial_type":"html-keyboard-response","trial_index":240,"time_elapsed":491744,"internal_node_id":"0.0-8.0-1.58","subject":"o1z5wxhzordou75","sona":"7624"},{"trial_type":"turing-test","trial_index":241,"time_elapsed":497436,"internal_node_id":"0.0-8.0-2.58","subject":"o1z5wxhzordou75","sona":"7624"},{"rt":533,"stimulus":"<p>Which sequence did you perceive as more natural?</p>","key_press":70,"test_part":"response","test_stimulus":{"position":1,"left":"bvh/vr_prediction_models/model(vcgpdm)-dataset(pass-bottle)-mode(ELBO)-parts(3)-dyn(35)-lvm(20)-hold(3)/final-lines.txt","right":"bvh/pass-bottle-training3-lines.txt","att_check":false},"trial_type":"html-keyboard-response","trial_index":242,"time_elapsed":497972,"internal_node_id":"0.0-8.0-3.58","subject":"o1z5wxhzordou75","sona":"7624"},{"rt":318,"stimulus":"<p>Ready?</p>","key_press":32,"trial_type":"html-keyboard-response","trial_index":243,"time_elapsed":498292,"internal_node_id":"0.0-8.0-0.59","subject":"o1z5wxhzordou75","sona":"7624"},{"rt":null,"stimulus":"<div style=\"font-size:60px;\">+</div>","key_press":null,"trial_type":"html-keyboard-response","trial_index":244,"time_elapsed":500296,"internal_node_id":"0.0-8.0-1.59","subject":"o1z5wxhzordou75","sona":"7624"},{"trial_type":"turing-test","trial_index":245,"time_elapsed":506274,"internal_node_id":"0.0-8.0-2.59","subject":"o1z5wxhzordou75","sona":"7624"},{"rt":552,"stimulus":"<p>Which sequence did you perceive as more natural?</p>","key_press":74,"test_part":"response","test_stimulus":{"position":0,"left":"bvh/pass-bottle-training2-lines.txt","right":"bvh/vr_prediction_models/model(tmp)-dataset(pass-bottle)-numprim(3)-hold(2)/final-lines.txt","att_check":false},"trial_type":"html-keyboard-response","trial_index":246,"time_elapsed":506828,"internal_node_id":"0.0-8.0-3.59","subject":"o1z5wxhzordou75","sona":"7624"},{"rt":246,"stimulus":"<p>Ready?</p>","key_press":32,"trial_type":"html-keyboard-response","trial_index":247,"time_elapsed":507076,"internal_node_id":"0.0-8.0-0.60","subject":"o1z5wxhzordou75","sona":"7624"},{"rt":null,"stimulus":"<div style=\"font-size:60px;\">+</div>","key_press":null,"trial_type":"html-keyboard-response","trial_index":248,"time_elapsed":509083,"internal_node_id":"0.0-8.0-1.60","subject":"o1z5wxhzordou75","sona":"7624"},{"trial_type":"turing-test","trial_index":249,"time_elapsed":512562,"internal_node_id":"0.0-8.0-2.60","subject":"o1z5wxhzordou75","sona":"7624"},{"rt":569,"stimulus":"<p>Which sequence did you perceive as more natural?</p>","key_press":70,"test_part":"response","test_stimulus":{"position":1,"left":"bvh/vr_prediction_models/model(dmp)-dataset(return-bottle-hold)-npsi(30)-hold(1)/final-lines.txt","right":"bvh/return-bottle-hold-training1-lines.txt","att_check":false},"trial_type":"html-keyboard-response","trial_index":250,"time_elapsed":513133,"internal_node_id":"0.0-8.0-3.60","subject":"o1z5wxhzordou75","sona":"7624"},{"rt":215,"stimulus":"<p>Ready?</p>","key_press":32,"trial_type":"html-keyboard-response","trial_index":251,"time_elapsed":513349,"internal_node_id":"0.0-8.0-0.61","subject":"o1z5wxhzordou75","sona":"7624"},{"rt":null,"stimulus":"<div style=\"font-size:60px;\">+</div>","key_press":null,"trial_type":"html-keyboard-response","trial_index":252,"time_elapsed":515353,"internal_node_id":"0.0-8.0-1.61","subject":"o1z5wxhzordou75","sona":"7624"},{"trial_type":"turing-test","trial_index":253,"time_elapsed":521294,"internal_node_id":"0.0-8.0-2.61","subject":"o1z5wxhzordou75","sona":"7624"},{"rt":292,"stimulus":"<p>Which sequence did you perceive as more natural?</p>","key_press":74,"test_part":"response","test_stimulus":{"position":1,"left":"bvh/vr_prediction_models/model(vcgpdm)-dataset(return-bottle)-mode(ELBO)-parts(3)-dyn(25)-lvm(15)-hold(4)/final-lines.txt","right":"bvh/return-bottle-training4-lines.txt","att_check":false},"trial_type":"html-keyboard-response","trial_index":254,"time_elapsed":521589,"internal_node_id":"0.0-8.0-3.61","subject":"o1z5wxhzordou75","sona":"7624"},{"rt":261,"stimulus":"<p>Ready?</p>","key_press":32,"trial_type":"html-keyboard-response","trial_index":255,"time_elapsed":521853,"internal_node_id":"0.0-8.0-0.62","subject":"o1z5wxhzordou75","sona":"7624"},{"rt":null,"stimulus":"<div style=\"font-size:60px;\">+</div>","key_press":null,"trial_type":"html-keyboard-response","trial_index":256,"time_elapsed":523855,"internal_node_id":"0.0-8.0-1.62","subject":"o1z5wxhzordou75","sona":"7624"},{"trial_type":"turing-test","trial_index":257,"time_elapsed":530213,"internal_node_id":"0.0-8.0-2.62","subject":"o1z5wxhzordou75","sona":"7624"},{"rt":263,"stimulus":"<p>Which sequence did you perceive as more natural?</p>","key_press":70,"test_part":"response","test_stimulus":{"position":1,"left":"bvh/vr_prediction_models/model(tmp)-dataset(pass-bottle)-numprim(13)-hold(2)/final-lines.txt","right":"bvh/pass-bottle-training2-lines.txt","att_check":false},"trial_type":"html-keyboard-response","trial_index":258,"time_elapsed":530476,"internal_node_id":"0.0-8.0-3.62","subject":"o1z5wxhzordou75","sona":"7624"},{"rt":310,"stimulus":"<p>Ready?</p>","key_press":32,"trial_type":"html-keyboard-response","trial_index":259,"time_elapsed":530789,"internal_node_id":"0.0-8.0-0.63","subject":"o1z5wxhzordou75","sona":"7624"},{"rt":null,"stimulus":"<div style=\"font-size:60px;\">+</div>","key_press":null,"trial_type":"html-keyboard-response","trial_index":260,"time_elapsed":532793,"internal_node_id":"0.0-8.0-1.63","subject":"o1z5wxhzordou75","sona":"7624"},{"trial_type":"turing-test","trial_index":261,"time_elapsed":536621,"internal_node_id":"0.0-8.0-2.63","subject":"o1z5wxhzordou75","sona":"7624"},{"rt":918,"stimulus":"<p>Which sequence did you perceive as more natural?</p>","key_press":74,"test_part":"response","test_stimulus":{"position":1,"left":"bvh/vr_prediction_models/model(vcgpdm)-dataset(pass-bottle-hold)-mode(MAP)-parts(3)-hold(3)/final-lines.txt","right":"bvh/pass-bottle-hold-training3-lines.txt","att_check":false},"trial_type":"html-keyboard-response","trial_index":262,"time_elapsed":537541,"internal_node_id":"0.0-8.0-3.63","subject":"o1z5wxhzordou75","sona":"7624"},{"rt":255,"stimulus":"<p>Ready?</p>","key_press":32,"trial_type":"html-keyboard-response","trial_index":263,"time_elapsed":537797,"internal_node_id":"0.0-8.0-0.64","subject":"o1z5wxhzordou75","sona":"7624"},{"rt":null,"stimulus":"<div style=\"font-size:60px;\">+</div>","key_press":null,"trial_type":"html-keyboard-response","trial_index":264,"time_elapsed":539799,"internal_node_id":"0.0-8.0-1.64","subject":"o1z5wxhzordou75","sona":"7624"},{"trial_type":"turing-test","trial_index":265,"time_elapsed":545823,"internal_node_id":"0.0-8.0-2.64","subject":"o1z5wxhzordou75","sona":"7624"},{"rt":356,"stimulus":"<p>Which sequence did you perceive as more natural?</p>","key_press":74,"test_part":"response","test_stimulus":{"position":1,"left":"bvh/vr_prediction_models/model(vcgpdm)-dataset(pass-bottle)-mode(ELBO)-parts(1)-dyn(35)-lvm(10)-hold(3)/final-lines.txt","right":"bvh/pass-bottle-training3-lines.txt","att_check":false},"trial_type":"html-keyboard-response","trial_index":266,"time_elapsed":546181,"internal_node_id":"0.0-8.0-3.64","subject":"o1z5wxhzordou75","sona":"7624"},{"rt":229,"stimulus":"<p>Ready?</p>","key_press":32,"trial_type":"html-keyboard-response","trial_index":267,"time_elapsed":546414,"internal_node_id":"0.0-8.0-0.65","subject":"o1z5wxhzordou75","sona":"7624"},{"rt":null,"stimulus":"<div style=\"font-size:60px;\">+</div>","key_press":null,"trial_type":"html-keyboard-response","trial_index":268,"time_elapsed":548419,"internal_node_id":"0.0-8.0-1.65","subject":"o1z5wxhzordou75","sona":"7624"},{"trial_type":"turing-test","trial_index":269,"time_elapsed":551755,"internal_node_id":"0.0-8.0-2.65","subject":"o1z5wxhzordou75","sona":"7624"},{"rt":825,"stimulus":"<p>Which sequence did you perceive as more natural?</p>","key_press":70,"test_part":"response","test_stimulus":{"position":1,"left":"bvh/vr_prediction_models/model(tmp)-dataset(return-bottle-hold)-numprim(14)-hold(2)/final-lines.txt","right":"bvh/return-bottle-hold-training2-lines.txt","att_check":false},"trial_type":"html-keyboard-response","trial_index":270,"time_elapsed":552581,"internal_node_id":"0.0-8.0-3.65","subject":"o1z5wxhzordou75","sona":"7624"},{"rt":237,"stimulus":"<p>Ready?</p>","key_press":32,"trial_type":"html-keyboard-response","trial_index":271,"time_elapsed":552821,"internal_node_id":"0.0-8.0-0.66","subject":"o1z5wxhzordou75","sona":"7624"},{"rt":null,"stimulus":"<div style=\"font-size:60px;\">+</div>","key_press":null,"trial_type":"html-keyboard-response","trial_index":272,"time_elapsed":554829,"internal_node_id":"0.0-8.0-1.66","subject":"o1z5wxhzordou75","sona":"7624"},{"trial_type":"turing-test","trial_index":273,"time_elapsed":560873,"internal_node_id":"0.0-8.0-2.66","subject":"o1z5wxhzordou75","sona":"7624"},{"rt":322,"stimulus":"<p>Which sequence did you perceive as more natural?</p>","key_press":74,"test_part":"response","test_stimulus":{"position":1,"left":"bvh/vr_prediction_models/model(vcgpdm)-dataset(pass-bottle)-mode(ELBO)-parts(3)-dyn(25)-lvm(15)-hold(3)/final-lines.txt","right":"bvh/pass-bottle-training3-lines.txt","att_check":false},"trial_type":"html-keyboard-response","trial_index":274,"time_elapsed":561199,"internal_node_id":"0.0-8.0-3.66","subject":"o1z5wxhzordou75","sona":"7624"},{"rt":237,"stimulus":"<p>Ready?</p>","key_press":32,"trial_type":"html-keyboard-response","trial_index":275,"time_elapsed":561438,"internal_node_id":"0.0-8.0-0.67","subject":"o1z5wxhzordou75","sona":"7624"},{"rt":null,"stimulus":"<div style=\"font-size:60px;\">+</div>","key_press":null,"trial_type":"html-keyboard-response","trial_index":276,"time_elapsed":563440,"internal_node_id":"0.0-8.0-1.67","subject":"o1z5wxhzordou75","sona":"7624"},{"trial_type":"turing-test","trial_index":277,"time_elapsed":569561,"internal_node_id":"0.0-8.0-2.67","subject":"o1z5wxhzordou75","sona":"7624"},{"rt":443,"stimulus":"<p>Which sequence did you perceive as more natural?</p>","key_press":74,"test_part":"response","test_stimulus":{"position":1,"left":"bvh/vr_prediction_models/model(tmp)-dataset(pass-bottle)-numprim(7)-hold(2)/final-lines.txt","right":"bvh/pass-bottle-training2-lines.txt","att_check":false},"trial_type":"html-keyboard-response","trial_index":278,"time_elapsed":570006,"internal_node_id":"0.0-8.0-3.67","subject":"o1z5wxhzordou75","sona":"7624"},{"rt":294,"stimulus":"<p>Ready?</p>","key_press":32,"trial_type":"html-keyboard-response","trial_index":279,"time_elapsed":570302,"internal_node_id":"0.0-8.0-0.68","subject":"o1z5wxhzordou75","sona":"7624"},{"rt":null,"stimulus":"<div style=\"font-size:60px;\">+</div>","key_press":null,"trial_type":"html-keyboard-response","trial_index":280,"time_elapsed":572307,"internal_node_id":"0.0-8.0-1.68","subject":"o1z5wxhzordou75","sona":"7624"},{"trial_type":"turing-test","trial_index":281,"time_elapsed":575893,"internal_node_id":"0.0-8.0-2.68","subject":"o1z5wxhzordou75","sona":"7624"},{"rt":344,"stimulus":"<p>Which sequence did you perceive as more natural?</p>","key_press":74,"test_part":"response","test_stimulus":{"position":1,"left":"bvh/vr_prediction_models/model(vcgpdm)-dataset(pass-bottle-hold)-mode(ELBO)-parts(3)-dyn(20)-lvm(20)-hold(0)/final-lines.txt","right":"bvh/pass-bottle-hold-training0-lines.txt","att_check":false},"trial_type":"html-keyboard-response","trial_index":282,"time_elapsed":576239,"internal_node_id":"0.0-8.0-3.68","subject":"o1z5wxhzordou75","sona":"7624"},{"rt":310,"stimulus":"<p>Ready?</p>","key_press":32,"trial_type":"html-keyboard-response","trial_index":283,"time_elapsed":576550,"internal_node_id":"0.0-8.0-0.69","subject":"o1z5wxhzordou75","sona":"7624"},{"rt":null,"stimulus":"<div style=\"font-size:60px;\">+</div>","key_press":null,"trial_type":"html-keyboard-response","trial_index":284,"time_elapsed":578554,"internal_node_id":"0.0-8.0-1.69","subject":"o1z5wxhzordou75","sona":"7624"},{"trial_type":"turing-test","trial_index":285,"time_elapsed":584250,"internal_node_id":"0.0-8.0-2.69","subject":"o1z5wxhzordou75","sona":"7624"},{"rt":523,"stimulus":"<p>Which sequence did you perceive as more natural?</p>","key_press":70,"test_part":"response","test_stimulus":{"position":0,"left":"bvh/pass-bottle-training3-lines.txt","right":"bvh/vr_prediction_models/model(vcgpdm)-dataset(pass-bottle)-mode(ELBO)-parts(1)-dyn(35)-lvm(10)-hold(3)/final-lines.txt","att_check":false},"trial_type":"html-keyboard-response","trial_index":286,"time_elapsed":584775,"internal_node_id":"0.0-8.0-3.69","subject":"o1z5wxhzordou75","sona":"7624"},{"rt":301,"stimulus":"<p>Ready?</p>","key_press":32,"trial_type":"html-keyboard-response","trial_index":287,"time_elapsed":585078,"internal_node_id":"0.0-8.0-0.70","subject":"o1z5wxhzordou75","sona":"7624"},{"rt":null,"stimulus":"<div style=\"font-size:60px;\">+</div>","key_press":null,"trial_type":"html-keyboard-response","trial_index":288,"time_elapsed":587082,"internal_node_id":"0.0-8.0-1.70","subject":"o1z5wxhzordou75","sona":"7624"},{"trial_type":"turing-test","trial_index":289,"time_elapsed":590914,"internal_node_id":"0.0-8.0-2.70","subject":"o1z5wxhzordou75","sona":"7624"},{"rt":42,"stimulus":"<p>Which sequence did you perceive as more natural?</p>","key_press":70,"test_part":"response","test_stimulus":{"position":1,"left":"bvh/vr_prediction_models/model(vcgpdm)-dataset(pass-bottle-hold)-mode(ELBO)-parts(3)-dyn(25)-lvm(30)-hold(4)/final-lines.txt","right":"bvh/pass-bottle-hold-training4-lines.txt","att_check":false},"trial_type":"html-keyboard-response","trial_index":290,"time_elapsed":590959,"internal_node_id":"0.0-8.0-3.70","subject":"o1z5wxhzordou75","sona":"7624"},{"rt":302,"stimulus":"<p>Ready?</p>","key_press":32,"trial_type":"html-keyboard-response","trial_index":291,"time_elapsed":591263,"internal_node_id":"0.0-8.0-0.71","subject":"o1z5wxhzordou75","sona":"7624"},{"rt":null,"stimulus":"<div style=\"font-size:60px;\">+</div>","key_press":null,"trial_type":"html-keyboard-response","trial_index":292,"time_elapsed":593265,"internal_node_id":"0.0-8.0-1.71","subject":"o1z5wxhzordou75","sona":"7624"},{"trial_type":"turing-test","trial_index":293,"time_elapsed":596591,"internal_node_id":"0.0-8.0-2.71","subject":"o1z5wxhzordou75","sona":"7624"},{"rt":486,"stimulus":"<p>Which sequence did you perceive as more natural?</p>","key_press":70,"test_part":"response","test_stimulus":{"position":1,"left":"bvh/vr_prediction_models/model(tmp)-dataset(return-bottle-hold)-numprim(13)-hold(1)/final-lines.txt","right":"bvh/return-bottle-hold-training1-lines.txt","att_check":false},"trial_type":"html-keyboard-response","trial_index":294,"time_elapsed":597079,"internal_node_id":"0.0-8.0-3.71","subject":"o1z5wxhzordou75","sona":"7624"},{"rt":245,"stimulus":"<p>Ready?</p>","key_press":32,"trial_type":"html-keyboard-response","trial_index":295,"time_elapsed":597326,"internal_node_id":"0.0-8.0-0.72","subject":"o1z5wxhzordou75","sona":"7624"},{"rt":null,"stimulus":"<div style=\"font-size:60px;\">+</div>","key_press":null,"trial_type":"html-keyboard-response","trial_index":296,"time_elapsed":599331,"internal_node_id":"0.0-8.0-1.72","subject":"o1z5wxhzordou75","sona":"7624"},{"trial_type":"turing-test","trial_index":297,"time_elapsed":605295,"internal_node_id":"0.0-8.0-2.72","subject":"o1z5wxhzordou75","sona":"7624"},{"rt":15,"stimulus":"<p>Which sequence did you perceive as more natural?</p>","key_press":70,"test_part":"response","test_stimulus":{"position":0,"left":"bvh/return-bottle-training3-lines.txt","right":"bvh/vr_prediction_models/model(vcgpdm)-dataset(return-bottle)-mode(ELBO)-parts(3)-dyn(25)-lvm(25)-hold(3)/final-lines.txt","att_check":false},"trial_type":"html-keyboard-response","trial_index":298,"time_elapsed":605311,"internal_node_id":"0.0-8.0-3.72","subject":"o1z5wxhzordou75","sona":"7624"},{"rt":390,"stimulus":"<p>Ready?</p>","key_press":32,"trial_type":"html-keyboard-response","trial_index":299,"time_elapsed":605704,"internal_node_id":"0.0-8.0-0.73","subject":"o1z5wxhzordou75","sona":"7624"},{"rt":null,"stimulus":"<div style=\"font-size:60px;\">+</div>","key_press":null,"trial_type":"html-keyboard-response","trial_index":300,"time_elapsed":607710,"internal_node_id":"0.0-8.0-1.73","subject":"o1z5wxhzordou75","sona":"7624"},{"trial_type":"turing-test","trial_index":301,"time_elapsed":611352,"internal_node_id":"0.0-8.0-2.73","subject":"o1z5wxhzordou75","sona":"7624"},{"rt":310,"stimulus":"<p>Which sequence did you perceive as more natural?</p>","key_press":74,"test_part":"response","test_stimulus":{"position":1,"left":"bvh/vr_prediction_models/model(dmp)-dataset(return-bottle-hold)-npsi(10)-hold(3)/final-lines.txt","right":"bvh/return-bottle-hold-training3-lines.txt","att_check":false},"trial_type":"html-keyboard-response","trial_index":302,"time_elapsed":611663,"internal_node_id":"0.0-8.0-3.73","subject":"o1z5wxhzordou75","sona":"7624"},{"rt":230,"stimulus":"<p>Ready?</p>","key_press":32,"trial_type":"html-keyboard-response","trial_index":303,"time_elapsed":611895,"internal_node_id":"0.0-8.0-0.74","subject":"o1z5wxhzordou75","sona":"7624"},{"rt":null,"stimulus":"<div style=\"font-size:60px;\">+</div>","key_press":null,"trial_type":"html-keyboard-response","trial_index":304,"time_elapsed":613900,"internal_node_id":"0.0-8.0-1.74","subject":"o1z5wxhzordou75","sona":"7624"},{"trial_type":"turing-test","trial_index":305,"time_elapsed":619900,"internal_node_id":"0.0-8.0-2.74","subject":"o1z5wxhzordou75","sona":"7624"},{"rt":297,"stimulus":"<p>Which sequence did you perceive as more natural?</p>","key_press":74,"test_part":"response","test_stimulus":{"position":1,"left":"bvh/vr_prediction_models/model(vcgpdm)-dataset(pass-bottle)-mode(ELBO)-parts(1)-dyn(20)-lvm(30)-hold(4)/final-lines.txt","right":"bvh/pass-bottle-training4-lines.txt","att_check":false},"trial_type":"html-keyboard-response","trial_index":306,"time_elapsed":620199,"internal_node_id":"0.0-8.0-3.74","subject":"o1z5wxhzordou75","sona":"7624"},{"rt":324,"stimulus":"<p>Ready?</p>","key_press":32,"trial_type":"html-keyboard-response","trial_index":307,"time_elapsed":620527,"internal_node_id":"0.0-8.0-0.75","subject":"o1z5wxhzordou75","sona":"7624"},{"rt":null,"stimulus":"<div style=\"font-size:60px;\">+</div>","key_press":null,"trial_type":"html-keyboard-response","trial_index":308,"time_elapsed":622531,"internal_node_id":"0.0-8.0-1.75","subject":"o1z5wxhzordou75","sona":"7624"},{"trial_type":"turing-test","trial_index":309,"time_elapsed":626139,"internal_node_id":"0.0-8.0-2.75","subject":"o1z5wxhzordou75","sona":"7624"},{"rt":370,"stimulus":"<p>Which sequence did you perceive as more natural?</p>","key_press":74,"test_part":"response","test_stimulus":{"position":1,"left":"bvh/vr_prediction_models/model(vcgpdm)-dataset(pass-bottle-hold)-mode(ELBO)-parts(1)-dyn(10)-lvm(30)-hold(0)/final-lines.txt","right":"bvh/pass-bottle-hold-training0-lines.txt","att_check":false},"trial_type":"html-keyboard-response","trial_index":310,"time_elapsed":626511,"internal_node_id":"0.0-8.0-3.75","subject":"o1z5wxhzordou75","sona":"7624"},{"rt":349,"stimulus":"<p>Ready?</p>","key_press":32,"trial_type":"html-keyboard-response","trial_index":311,"time_elapsed":626863,"internal_node_id":"0.0-8.0-0.76","subject":"o1z5wxhzordou75","sona":"7624"},{"rt":null,"stimulus":"<div style=\"font-size:60px;\">+</div>","key_press":null,"trial_type":"html-keyboard-response","trial_index":312,"time_elapsed":628868,"internal_node_id":"0.0-8.0-1.76","subject":"o1z5wxhzordou75","sona":"7624"},{"trial_type":"turing-test","trial_index":313,"time_elapsed":632095,"internal_node_id":"0.0-8.0-2.76","subject":"o1z5wxhzordou75","sona":"7624"},{"rt":343,"stimulus":"<p>Which sequence did you perceive as more natural?</p>","key_press":74,"test_part":"response","test_stimulus":{"position":1,"left":"bvh/vr_prediction_models/model(vcgpdm)-dataset(pass-bottle-hold)-mode(ELBO)-parts(1)-dyn(10)-lvm(30)-hold(0)/final-lines.txt","right":"bvh/pass-bottle-hold-training0-lines.txt","att_check":false},"trial_type":"html-keyboard-response","trial_index":314,"time_elapsed":632439,"internal_node_id":"0.0-8.0-3.76","subject":"o1z5wxhzordou75","sona":"7624"},{"rt":270,"stimulus":"<p>Ready?</p>","key_press":32,"trial_type":"html-keyboard-response","trial_index":315,"time_elapsed":632712,"internal_node_id":"0.0-8.0-0.77","subject":"o1z5wxhzordou75","sona":"7624"},{"rt":null,"stimulus":"<div style=\"font-size:60px;\">+</div>","key_press":null,"trial_type":"html-keyboard-response","trial_index":316,"time_elapsed":634716,"internal_node_id":"0.0-8.0-1.77","subject":"o1z5wxhzordou75","sona":"7624"},{"trial_type":"turing-test","trial_index":317,"time_elapsed":638306,"internal_node_id":"0.0-8.0-2.77","subject":"o1z5wxhzordou75","sona":"7624"},{"rt":523,"stimulus":"<p>Which sequence did you perceive as more natural?</p>","key_press":70,"test_part":"response","test_stimulus":{"position":1,"left":"bvh/vr_prediction_models/model(tmp)-dataset(return-bottle-hold)-numprim(8)-hold(4)/final-lines.txt","right":"bvh/return-bottle-hold-training4-lines.txt","att_check":false},"trial_type":"html-keyboard-response","trial_index":318,"time_elapsed":638832,"internal_node_id":"0.0-8.0-3.77","subject":"o1z5wxhzordou75","sona":"7624"},{"rt":341,"stimulus":"<p>Ready?</p>","key_press":32,"trial_type":"html-keyboard-response","trial_index":319,"time_elapsed":639176,"internal_node_id":"0.0-8.0-0.78","subject":"o1z5wxhzordou75","sona":"7624"},{"rt":null,"stimulus":"<div style=\"font-size:60px;\">+</div>","key_press":null,"trial_type":"html-keyboard-response","trial_index":320,"time_elapsed":641178,"internal_node_id":"0.0-8.0-1.78","subject":"o1z5wxhzordou75","sona":"7624"},{"trial_type":"turing-test","trial_index":321,"time_elapsed":644478,"internal_node_id":"0.0-8.0-2.78","subject":"o1z5wxhzordou75","sona":"7624"},{"rt":398,"stimulus":"<p>Which sequence did you perceive as more natural?</p>","key_press":74,"test_part":"response","test_stimulus":{"position":1,"left":"bvh/vr_prediction_models/model(tmp)-dataset(return-bottle-hold)-numprim(15)-hold(1)/final-lines.txt","right":"bvh/return-bottle-hold-training1-lines.txt","att_check":false},"trial_type":"html-keyboard-response","trial_index":322,"time_elapsed":644880,"internal_node_id":"0.0-8.0-3.78","subject":"o1z5wxhzordou75","sona":"7624"},{"rt":261,"stimulus":"<p>Ready?</p>","key_press":32,"trial_type":"html-keyboard-response","trial_index":323,"time_elapsed":645143,"internal_node_id":"0.0-8.0-0.79","subject":"o1z5wxhzordou75","sona":"7624"},{"rt":null,"stimulus":"<div style=\"font-size:60px;\">+</div>","key_press":null,"trial_type":"html-keyboard-response","trial_index":324,"time_elapsed":647148,"internal_node_id":"0.0-8.0-1.79","subject":"o1z5wxhzordou75","sona":"7624"},{"trial_type":"turing-test","trial_index":325,"time_elapsed":652341,"internal_node_id":"0.0-8.0-2.79","subject":"o1z5wxhzordou75","sona":"7624"},{"rt":280,"stimulus":"<p>Which sequence did you perceive as more natural?</p>","key_press":70,"test_part":"response","test_stimulus":{"position":0,"left":"bvh/return-bottle-hold-training0-lines.txt","right":"bvh/vr_prediction_models/model(tmp)-dataset(return-bottle-hold)-numprim(7)-hold(0)/final-lines.txt","att_check":false},"trial_type":"html-keyboard-response","trial_index":326,"time_elapsed":652625,"internal_node_id":"0.0-8.0-3.79","subject":"o1z5wxhzordou75","sona":"7624"},{"rt":10705,"responses":"{\"age\":\"22\",\"gender\":\"male\"}","trial_type":"survey-text","trial_index":327,"time_elapsed":663336,"internal_node_id":"0.0-9.0-0.0","subject":"o1z5wxhzordou75","sona":"7624"},{"rt":39303,"responses":"{\"area\":\"Hip and Legs\",\"Q1\":\"\",\"Q2\":\"\"}","trial_type":"survey-text","trial_index":328,"time_elapsed":702663,"internal_node_id":"0.0-9.0-1.0","subject":"o1z5wxhzordou75","sona":"7624"}]