[{"rt":2116.9499999959953,"stimulus":"<p>Welcome!<br> Please choose your language to start the experiment in the chosen language.</p><p>Willkommen!<br> Bitte wählen Sie eine Sprache, um das Experiment in der ausgewählten Sprache zu starten</p>","button_pressed":"1","trial_type":"html-button-response","trial_index":0,"time_elapsed":2150,"internal_node_id":"0.0-0.0","subject":"rrj336zygro6hga","sona":"7399"},{"view_history":"[{\"page_index\":0,\"viewing_time\":4931.295000002137},{\"page_index\":1,\"viewing_time\":3566.2949999968987},{\"page_index\":2,\"viewing_time\":6349.629999996978},{\"page_index\":3,\"viewing_time\":4184.229999998934},{\"page_index\":4,\"viewing_time\":2034.9249999999302}]","rt":21068.839999992633,"trial_type":"instructions","trial_index":1,"time_elapsed":23220,"internal_node_id":"0.0-1.0-0.0","subject":"rrj336zygro6hga","sona":"7399"},{"rt":2028.52000000712,"stimulus":"<p>Bereit?</p>","key_press":32,"trial_type":"html-keyboard-response","trial_index":2,"time_elapsed":25252,"internal_node_id":"0.0-3.0","subject":"rrj336zygro6hga","sona":"7399"},{"rt":null,"stimulus":"<div style=\"font-size:60px;\">+</div>","key_press":null,"trial_type":"html-keyboard-response","trial_index":3,"time_elapsed":27295,"internal_node_id":"0.0-4.0","subject":"rrj336zygro6hga","sona":"7399"},{"trial_type":"training","trial_index":4,"time_elapsed":30658,"internal_node_id":"0.0-5.0","subject":"rrj336zygro6hga","sona":"7399"},{"rt":2813.5849999962375,"stimulus":"<p>Welche Sequenz haben Sie als natürlicher empfunden?</p>","key_press":70,"trial_type":"html-keyboard-response","trial_index":5,"time_elapsed":33474,"internal_node_id":"0.0-6.0","subject":"rrj336zygro6hga","sona":"7399"},{"rt":7040.9250000084285,"stimulus":"<p>Das Experiment startet nun.</p><p><small>Bitte drücken Sie den Knopf, wenn Sie bereit sind.</small></p>","button_pressed":"0","trial_type":"html-button-response","trial_index":6,"time_elapsed":40517,"internal_node_id":"0.0-7.0","subject":"rrj336zygro6hga","sona":"7399"},{"rt":2441.479999994044,"stimulus":"<p>Bereit?</p>","key_press":32,"trial_type":"html-keyboard-response","trial_index":7,"time_elapsed":42961,"internal_node_id":"0.0-8.0-0.0","subject":"rrj336zygro6hga","sona":"7399"},{"rt":null,"stimulus":"<div style=\"font-size:60px;\">+</div>","key_press":null,"trial_type":"html-keyboard-response","trial_index":8,"time_elapsed":44993,"internal_node_id":"0.0-8.0-1.0","subject":"rrj336zygro6hga","sona":"7399"},{"trial_type":"turing-test","trial_index":9,"time_elapsed":50526,"internal_node_id":"0.0-8.0-2.0","subject":"rrj336zygro6hga","sona":"7399"},{"rt":94.47500000533182,"stimulus":"<p>Welche Sequenz haben Sie als natürlicher empfunden?</p>","key_press":70,"test_part":"response","test_stimulus":{"position":0,"left":"bvh/return-bottle-training0-lines.txt","right":"bvh/vr_prediction_models/model(vcgpdm)-dataset(return-bottle)-mode(ELBO)-parts(3)-dyn(20)-lvm(15)-hold(0)/final-lines.txt","att_check":false},"trial_type":"html-keyboard-response","trial_index":10,"time_elapsed":50632,"internal_node_id":"0.0-8.0-3.0","subject":"rrj336zygro6hga","sona":"7399"},{"rt":1118.5549999936484,"stimulus":"<p>Bereit?</p>","key_press":32,"trial_type":"html-keyboard-response","trial_index":11,"time_elapsed":51757,"internal_node_id":"0.0-8.0-0.1","subject":"rrj336zygro6hga","sona":"7399"},{"rt":null,"stimulus":"<div style=\"font-size:60px;\">+</div>","key_press":null,"trial_type":"html-keyboard-response","trial_index":12,"time_elapsed":53779,"internal_node_id":"0.0-8.0-1.1","subject":"rrj336zygro6hga","sona":"7399"},{"trial_type":"turing-test","trial_index":13,"time_elapsed":57215,"internal_node_id":"0.0-8.0-2.1","subject":"rrj336zygro6hga","sona":"7399"},{"rt":815.3149999998277,"stimulus":"<p>Welche Sequenz haben Sie als natürlicher empfunden?</p>","key_press":70,"test_part":"response","test_stimulus":{"position":0,"left":"bvh/pass-bottle-hold-training0-lines.txt","right":"bvh/vr_prediction_models/model(vcgpdm)-dataset(pass-bottle-hold)-mode(ELBO)-parts(1)-dyn(30)-lvm(30)-hold(0)/final-lines.txt","att_check":false},"trial_type":"html-keyboard-response","trial_index":14,"time_elapsed":58036,"internal_node_id":"0.0-8.0-3.1","subject":"rrj336zygro6hga","sona":"7399"},{"rt":616.5650000039022,"stimulus":"<p>Bereit?</p>","key_press":32,"trial_type":"html-keyboard-response","trial_index":15,"time_elapsed":58657,"internal_node_id":"0.0-8.0-0.2","subject":"rrj336zygro6hga","sona":"7399"},{"rt":null,"stimulus":"<div style=\"font-size:60px;\">+</div>","key_press":null,"trial_type":"html-keyboard-response","trial_index":16,"time_elapsed":60677,"internal_node_id":"0.0-8.0-1.2","subject":"rrj336zygro6hga","sona":"7399"},{"trial_type":"turing-test","trial_index":17,"time_elapsed":64276,"internal_node_id":"0.0-8.0-2.2","subject":"rrj336zygro6hga","sona":"7399"},{"rt":631.3299999892479,"stimulus":"<p>Welche Sequenz haben Sie als natürlicher empfunden?</p>","key_press":74,"test_part":"response","test_stimulus":{"position":0,"left":"bvh/return-bottle-hold-training2-lines.txt","right":"bvh/vr_prediction_models/model(vcgpdm)-dataset(return-bottle-hold)-mode(ELBO)-parts(3)-dyn(10)-lvm(10)-hold(2)/final-lines.txt","att_check":false},"trial_type":"html-keyboard-response","trial_index":18,"time_elapsed":64914,"internal_node_id":"0.0-8.0-3.2","subject":"rrj336zygro6hga","sona":"7399"},{"rt":410.0049999979092,"stimulus":"<p>Bereit?</p>","key_press":32,"trial_type":"html-keyboard-response","trial_index":19,"time_elapsed":65328,"internal_node_id":"0.0-8.0-0.3","subject":"rrj336zygro6hga","sona":"7399"},{"rt":null,"stimulus":"<div style=\"font-size:60px;\">+</div>","key_press":null,"trial_type":"html-keyboard-response","trial_index":20,"time_elapsed":67360,"internal_node_id":"0.0-8.0-1.3","subject":"rrj336zygro6hga","sona":"7399"},{"trial_type":"turing-test","trial_index":21,"time_elapsed":71112,"internal_node_id":"0.0-8.0-2.3","subject":"rrj336zygro6hga","sona":"7399"},{"rt":610.5650000099558,"stimulus":"<p>Welche Sequenz haben Sie als natürlicher empfunden?</p>","key_press":74,"test_part":"response","test_stimulus":{"position":1,"left":"bvh/vr_prediction_models/model(tmp)-dataset(return-bottle-hold)-numprim(5)-hold(4)/final-lines.txt","right":"bvh/return-bottle-hold-training4-lines.txt","att_check":false},"trial_type":"html-keyboard-response","trial_index":22,"time_elapsed":71729,"internal_node_id":"0.0-8.0-3.3","subject":"rrj336zygro6hga","sona":"7399"},{"rt":357.5799999962328,"stimulus":"<p>Bereit?</p>","key_press":32,"trial_type":"html-keyboard-response","trial_index":23,"time_elapsed":72091,"internal_node_id":"0.0-8.0-0.4","subject":"rrj336zygro6hga","sona":"7399"},{"rt":null,"stimulus":"<div style=\"font-size:60px;\">+</div>","key_press":null,"trial_type":"html-keyboard-response","trial_index":24,"time_elapsed":74113,"internal_node_id":"0.0-8.0-1.4","subject":"rrj336zygro6hga","sona":"7399"},{"trial_type":"turing-test","trial_index":25,"time_elapsed":80828,"internal_node_id":"0.0-8.0-2.4","subject":"rrj336zygro6hga","sona":"7399"},{"rt":514.725000000908,"stimulus":"<p>Welche Sequenz haben Sie als natürlicher empfunden?</p>","key_press":70,"test_part":"response","test_stimulus":{"position":0,"left":"bvh/return-bottle-training2-lines.txt","right":"bvh/vr_prediction_models/model(vcgpdm)-dataset(return-bottle)-mode(ELBO)-parts(3)-dyn(20)-lvm(35)-hold(2)/final-lines.txt","att_check":false},"trial_type":"html-keyboard-response","trial_index":26,"time_elapsed":81349,"internal_node_id":"0.0-8.0-3.4","subject":"rrj336zygro6hga","sona":"7399"},{"rt":344.0649999974994,"stimulus":"<p>Bereit?</p>","key_press":32,"trial_type":"html-keyboard-response","trial_index":27,"time_elapsed":81699,"internal_node_id":"0.0-8.0-0.5","subject":"rrj336zygro6hga","sona":"7399"},{"rt":null,"stimulus":"<div style=\"font-size:60px;\">+</div>","key_press":null,"trial_type":"html-keyboard-response","trial_index":28,"time_elapsed":83727,"internal_node_id":"0.0-8.0-1.5","subject":"rrj336zygro6hga","sona":"7399"},{"trial_type":"turing-test","trial_index":29,"time_elapsed":86978,"internal_node_id":"0.0-8.0-2.5","subject":"rrj336zygro6hga","sona":"7399"},{"rt":415.21999999531545,"stimulus":"<p>Welche Sequenz haben Sie als natürlicher empfunden?</p>","key_press":74,"test_part":"response","test_stimulus":{"position":1,"left":"bvh/vr_prediction_models/model(dmp)-dataset(pass-bottle-hold)-npsi(70)-hold(1)/final-lines.txt","right":"bvh/pass-bottle-hold-training1-lines.txt","att_check":false},"trial_type":"html-keyboard-response","trial_index":30,"time_elapsed":87398,"internal_node_id":"0.0-8.0-3.5","subject":"rrj336zygro6hga","sona":"7399"},{"rt":233.81499999959487,"stimulus":"<p>Bereit?</p>","key_press":32,"trial_type":"html-keyboard-response","trial_index":31,"time_elapsed":87636,"internal_node_id":"0.0-8.0-0.6","subject":"rrj336zygro6hga","sona":"7399"},{"rt":null,"stimulus":"<div style=\"font-size:60px;\">+</div>","key_press":null,"trial_type":"html-keyboard-response","trial_index":32,"time_elapsed":89660,"internal_node_id":"0.0-8.0-1.6","subject":"rrj336zygro6hga","sona":"7399"},{"trial_type":"turing-test","trial_index":33,"time_elapsed":95260,"internal_node_id":"0.0-8.0-2.6","subject":"rrj336zygro6hga","sona":"7399"},{"rt":415.16499999852385,"stimulus":"<p>Welche Sequenz haben Sie als natürlicher empfunden?</p>","key_press":74,"test_part":"response","test_stimulus":{"position":0,"left":"bvh/pass-bottle-training1-lines.txt","right":"bvh/vr_prediction_models/model(vcgpdm)-dataset(pass-bottle)-mode(ELBO)-parts(3)-dyn(20)-lvm(15)-hold(1)/final-lines.txt","att_check":false},"trial_type":"html-keyboard-response","trial_index":34,"time_elapsed":95685,"internal_node_id":"0.0-8.0-3.6","subject":"rrj336zygro6hga","sona":"7399"},{"rt":234.08500000368804,"stimulus":"<p>Bereit?</p>","key_press":32,"trial_type":"html-keyboard-response","trial_index":35,"time_elapsed":95928,"internal_node_id":"0.0-8.0-0.7","subject":"rrj336zygro6hga","sona":"7399"},{"rt":null,"stimulus":"<div style=\"font-size:60px;\">+</div>","key_press":null,"trial_type":"html-keyboard-response","trial_index":36,"time_elapsed":97945,"internal_node_id":"0.0-8.0-1.7","subject":"rrj336zygro6hga","sona":"7399"},{"trial_type":"turing-test","trial_index":37,"time_elapsed":101578,"internal_node_id":"0.0-8.0-2.7","subject":"rrj336zygro6hga","sona":"7399"},{"rt":378.1050000106916,"stimulus":"<p>Welche Sequenz haben Sie als natürlicher empfunden?</p>","key_press":70,"test_part":"response","test_stimulus":{"position":1,"left":"bvh/vr_prediction_models/model(tmp)-dataset(pass-bottle-hold)-numprim(8)-hold(4)/final-lines.txt","right":"bvh/pass-bottle-hold-training4-lines.txt","att_check":false},"trial_type":"html-keyboard-response","trial_index":38,"time_elapsed":101962,"internal_node_id":"0.0-8.0-3.7","subject":"rrj336zygro6hga","sona":"7399"},{"rt":331.995000000461,"stimulus":"<p>Bereit?</p>","key_press":32,"trial_type":"html-keyboard-response","trial_index":39,"time_elapsed":102301,"internal_node_id":"0.0-8.0-0.8","subject":"rrj336zygro6hga","sona":"7399"},{"rt":null,"stimulus":"<div style=\"font-size:60px;\">+</div>","key_press":null,"trial_type":"html-keyboard-response","trial_index":40,"time_elapsed":104328,"internal_node_id":"0.0-8.0-1.8","subject":"rrj336zygro6hga","sona":"7399"},{"trial_type":"turing-test","trial_index":41,"time_elapsed":110258,"internal_node_id":"0.0-8.0-2.8","subject":"rrj336zygro6hga","sona":"7399"},{"rt":479.5049999956973,"stimulus":"<p>Welche Sequenz haben Sie als natürlicher empfunden?</p>","key_press":74,"test_part":"response","test_stimulus":{"position":1,"left":"bvh/vr_prediction_models/model(vcgpdm)-dataset(pass-bottle)-mode(ELBO)-parts(3)-dyn(10)-lvm(10)-hold(3)/final-lines.txt","right":"bvh/pass-bottle-training3-lines.txt","att_check":false},"trial_type":"html-keyboard-response","trial_index":42,"time_elapsed":110749,"internal_node_id":"0.0-8.0-3.8","subject":"rrj336zygro6hga","sona":"7399"},{"rt":254.78500001190696,"stimulus":"<p>Bereit?</p>","key_press":32,"trial_type":"html-keyboard-response","trial_index":43,"time_elapsed":111007,"internal_node_id":"0.0-8.0-0.9","subject":"rrj336zygro6hga","sona":"7399"},{"rt":null,"stimulus":"<div style=\"font-size:60px;\">+</div>","key_press":null,"trial_type":"html-keyboard-response","trial_index":44,"time_elapsed":113028,"internal_node_id":"0.0-8.0-1.9","subject":"rrj336zygro6hga","sona":"7399"},{"trial_type":"turing-test","trial_index":45,"time_elapsed":118427,"internal_node_id":"0.0-8.0-2.9","subject":"rrj336zygro6hga","sona":"7399"},{"rt":392.664999992121,"stimulus":"<p>Welche Sequenz haben Sie als natürlicher empfunden?</p>","key_press":74,"test_part":"response","test_stimulus":{"position":1,"left":"bvh/vr_prediction_models/model(dmp)-dataset(return-bottle)-npsi(80)-hold(0)/final-lines.txt","right":"bvh/return-bottle-training0-lines.txt","att_check":false},"trial_type":"html-keyboard-response","trial_index":46,"time_elapsed":118830,"internal_node_id":"0.0-8.0-3.9","subject":"rrj336zygro6hga","sona":"7399"},{"rt":251.52000000525732,"stimulus":"<p>Bereit?</p>","key_press":32,"trial_type":"html-keyboard-response","trial_index":47,"time_elapsed":119085,"internal_node_id":"0.0-8.0-0.10","subject":"rrj336zygro6hga","sona":"7399"},{"rt":null,"stimulus":"<div style=\"font-size:60px;\">+</div>","key_press":null,"trial_type":"html-keyboard-response","trial_index":48,"time_elapsed":121110,"internal_node_id":"0.0-8.0-1.10","subject":"rrj336zygro6hga","sona":"7399"},{"trial_type":"turing-test","trial_index":49,"time_elapsed":126276,"internal_node_id":"0.0-8.0-2.10","subject":"rrj336zygro6hga","sona":"7399"},{"rt":317.5200000114273,"stimulus":"<p>Welche Sequenz haben Sie als natürlicher empfunden?</p>","key_press":70,"test_part":"response","test_stimulus":{"position":0,"left":"bvh/return-bottle-hold-training0-lines.txt","right":"bvh/vr_prediction_models/model(tmp)-dataset(return-bottle-hold)-numprim(7)-hold(0)/final-lines.txt","att_check":false},"trial_type":"html-keyboard-response","trial_index":50,"time_elapsed":126604,"internal_node_id":"0.0-8.0-3.10","subject":"rrj336zygro6hga","sona":"7399"},{"rt":572.5349999993341,"stimulus":"<p>Bereit?</p>","key_press":32,"trial_type":"html-keyboard-response","trial_index":51,"time_elapsed":127183,"internal_node_id":"0.0-8.0-0.11","subject":"rrj336zygro6hga","sona":"7399"},{"rt":null,"stimulus":"<div style=\"font-size:60px;\">+</div>","key_press":null,"trial_type":"html-keyboard-response","trial_index":52,"time_elapsed":129212,"internal_node_id":"0.0-8.0-1.11","subject":"rrj336zygro6hga","sona":"7399"},{"trial_type":"turing-test","trial_index":53,"time_elapsed":132545,"internal_node_id":"0.0-8.0-2.11","subject":"rrj336zygro6hga","sona":"7399"},{"rt":525.4350000031991,"stimulus":"<p>Welche Sequenz haben Sie als natürlicher empfunden?</p>","key_press":70,"test_part":"response","test_stimulus":{"position":0,"left":"bvh/pass-bottle-hold-training0-lines.txt","right":"bvh/vr_prediction_models/model(dmp)-dataset(pass-bottle-hold)-npsi(90)-hold(0)/final-lines.txt","att_check":false},"trial_type":"html-keyboard-response","trial_index":54,"time_elapsed":133079,"internal_node_id":"0.0-8.0-3.11","subject":"rrj336zygro6hga","sona":"7399"},{"rt":220.26000000187196,"stimulus":"<p>Bereit?</p>","key_press":32,"trial_type":"html-keyboard-response","trial_index":55,"time_elapsed":133305,"internal_node_id":"0.0-8.0-0.12","subject":"rrj336zygro6hga","sona":"7399"},{"rt":null,"stimulus":"<div style=\"font-size:60px;\">+</div>","key_press":null,"trial_type":"html-keyboard-response","trial_index":56,"time_elapsed":135310,"internal_node_id":"0.0-8.0-1.12","subject":"rrj336zygro6hga","sona":"7399"},{"trial_type":"turing-test","trial_index":57,"time_elapsed":139011,"internal_node_id":"0.0-8.0-2.12","subject":"rrj336zygro6hga","sona":"7399"},{"rt":464.975000009872,"stimulus":"<p>Welche Sequenz haben Sie als natürlicher empfunden?</p>","key_press":74,"test_part":"response","test_stimulus":{"position":1,"left":"bvh/vr_prediction_models/model(vcgpdm)-dataset(pass-bottle-hold)-mode(MAP)-parts(1)-hold(3)/final-lines.txt","right":"bvh/pass-bottle-hold-training3-lines.txt","att_check":false},"trial_type":"html-keyboard-response","trial_index":58,"time_elapsed":139483,"internal_node_id":"0.0-8.0-3.12","subject":"rrj336zygro6hga","sona":"7399"},{"rt":193.0350000038743,"stimulus":"<p>Bereit?</p>","key_press":32,"trial_type":"html-keyboard-response","trial_index":59,"time_elapsed":139681,"internal_node_id":"0.0-8.0-0.13","subject":"rrj336zygro6hga","sona":"7399"},{"rt":null,"stimulus":"<div style=\"font-size:60px;\">+</div>","key_press":null,"trial_type":"html-keyboard-response","trial_index":60,"time_elapsed":141704,"internal_node_id":"0.0-8.0-1.13","subject":"rrj336zygro6hga","sona":"7399"},{"trial_type":"turing-test","trial_index":61,"time_elapsed":147877,"internal_node_id":"0.0-8.0-2.13","subject":"rrj336zygro6hga","sona":"7399"},{"rt":384.54499999352265,"stimulus":"<p>Welche Sequenz haben Sie als natürlicher empfunden?</p>","key_press":70,"test_part":"response","test_stimulus":{"position":0,"left":"bvh/pass-bottle-training2-lines.txt","right":"bvh/vr_prediction_models/model(tmp)-dataset(pass-bottle)-numprim(8)-hold(2)/final-lines.txt","att_check":false},"trial_type":"html-keyboard-response","trial_index":62,"time_elapsed":148268,"internal_node_id":"0.0-8.0-3.13","subject":"rrj336zygro6hga","sona":"7399"},{"rt":420.23499999777414,"stimulus":"<p>Bereit?</p>","key_press":32,"trial_type":"html-keyboard-response","trial_index":63,"time_elapsed":148695,"internal_node_id":"0.0-8.0-0.14","subject":"rrj336zygro6hga","sona":"7399"},{"rt":null,"stimulus":"<div style=\"font-size:60px;\">+</div>","key_press":null,"trial_type":"html-keyboard-response","trial_index":64,"time_elapsed":150712,"internal_node_id":"0.0-8.0-1.14","subject":"rrj336zygro6hga","sona":"7399"},{"trial_type":"turing-test","trial_index":65,"time_elapsed":154296,"internal_node_id":"0.0-8.0-2.14","subject":"rrj336zygro6hga","sona":"7399"},{"rt":610.7800000027055,"stimulus":"<p>Welche Sequenz haben Sie als natürlicher empfunden?</p>","key_press":74,"test_part":"response","test_stimulus":{"position":0,"left":"bvh/pass-bottle-hold-training4-lines.txt","right":"bvh/vr_prediction_models/model(dmp)-dataset(pass-bottle-hold)-npsi(80)-hold(4)/final-lines.txt","att_check":false},"trial_type":"html-keyboard-response","trial_index":66,"time_elapsed":154915,"internal_node_id":"0.0-8.0-3.14","subject":"rrj336zygro6hga","sona":"7399"},{"rt":205.5149999941932,"stimulus":"<p>Bereit?</p>","key_press":32,"trial_type":"html-keyboard-response","trial_index":67,"time_elapsed":155125,"internal_node_id":"0.0-8.0-0.15","subject":"rrj336zygro6hga","sona":"7399"},{"rt":null,"stimulus":"<div style=\"font-size:60px;\">+</div>","key_press":null,"trial_type":"html-keyboard-response","trial_index":68,"time_elapsed":157158,"internal_node_id":"0.0-8.0-1.15","subject":"rrj336zygro6hga","sona":"7399"},{"trial_type":"turing-test","trial_index":69,"time_elapsed":164011,"internal_node_id":"0.0-8.0-2.15","subject":"rrj336zygro6hga","sona":"7399"},{"rt":528.8000000000466,"stimulus":"<p>Welche Sequenz haben Sie als natürlicher empfunden?</p>","key_press":74,"test_part":"response","test_stimulus":{"position":0,"left":"bvh/pass-bottle-training0-lines.txt","right":"bvh/vr_prediction_models/model(vcgpdm)-dataset(pass-bottle)-mode(ELBO)-parts(1)-dyn(10)-lvm(5)-hold(0)/final-lines.txt","att_check":false},"trial_type":"html-keyboard-response","trial_index":70,"time_elapsed":164554,"internal_node_id":"0.0-8.0-3.15","subject":"rrj336zygro6hga","sona":"7399"},{"rt":207.02000000164844,"stimulus":"<p>Bereit?</p>","key_press":32,"trial_type":"html-keyboard-response","trial_index":71,"time_elapsed":164766,"internal_node_id":"0.0-8.0-0.16","subject":"rrj336zygro6hga","sona":"7399"},{"rt":null,"stimulus":"<div style=\"font-size:60px;\">+</div>","key_press":null,"trial_type":"html-keyboard-response","trial_index":72,"time_elapsed":166791,"internal_node_id":"0.0-8.0-1.16","subject":"rrj336zygro6hga","sona":"7399"},{"trial_type":"turing-test","trial_index":73,"time_elapsed":172660,"internal_node_id":"0.0-8.0-2.16","subject":"rrj336zygro6hga","sona":"7399"},{"rt":384.474999998929,"stimulus":"<p>Welche Sequenz haben Sie als natürlicher empfunden?</p>","key_press":74,"test_part":"response","test_stimulus":{"position":1,"left":"bvh/vr_prediction_models/model(vcgpdm)-dataset(pass-bottle)-mode(ELBO)-parts(1)-dyn(30)-lvm(30)-hold(4)/final-lines.txt","right":"bvh/pass-bottle-training4-lines.txt","att_check":false},"trial_type":"html-keyboard-response","trial_index":74,"time_elapsed":173053,"internal_node_id":"0.0-8.0-3.16","subject":"rrj336zygro6hga","sona":"7399"},{"rt":281.1599999986356,"stimulus":"<p>Bereit?</p>","key_press":32,"trial_type":"html-keyboard-response","trial_index":75,"time_elapsed":173338,"internal_node_id":"0.0-8.0-0.17","subject":"rrj336zygro6hga","sona":"7399"},{"rt":null,"stimulus":"<div style=\"font-size:60px;\">+</div>","key_press":null,"trial_type":"html-keyboard-response","trial_index":76,"time_elapsed":175361,"internal_node_id":"0.0-8.0-1.17","subject":"rrj336zygro6hga","sona":"7399"},{"trial_type":"turing-test","trial_index":77,"time_elapsed":182226,"internal_node_id":"0.0-8.0-2.17","subject":"rrj336zygro6hga","sona":"7399"},{"rt":372.670000011567,"stimulus":"<p>Welche Sequenz haben Sie als natürlicher empfunden?</p>","key_press":74,"test_part":"response","test_stimulus":{"position":1,"left":"bvh/vr_prediction_models/model(vcgpdm)-dataset(pass-bottle)-mode(ELBO)-parts(1)-dyn(20)-lvm(30)-hold(0)/final-lines.txt","right":"bvh/pass-bottle-training0-lines.txt","att_check":false},"trial_type":"html-keyboard-response","trial_index":78,"time_elapsed":182610,"internal_node_id":"0.0-8.0-3.17","subject":"rrj336zygro6hga","sona":"7399"},{"rt":279.08999999635853,"stimulus":"<p>Bereit?</p>","key_press":32,"trial_type":"html-keyboard-response","trial_index":79,"time_elapsed":182898,"internal_node_id":"0.0-8.0-0.18","subject":"rrj336zygro6hga","sona":"7399"},{"rt":null,"stimulus":"<div style=\"font-size:60px;\">+</div>","key_press":null,"trial_type":"html-keyboard-response","trial_index":80,"time_elapsed":184910,"internal_node_id":"0.0-8.0-1.18","subject":"rrj336zygro6hga","sona":"7399"},{"trial_type":"turing-test","trial_index":81,"time_elapsed":190793,"internal_node_id":"0.0-8.0-2.18","subject":"rrj336zygro6hga","sona":"7399"},{"rt":312.69000000611413,"stimulus":"<p>Welche Sequenz haben Sie als natürlicher empfunden?</p>","key_press":74,"test_part":"response","test_stimulus":{"position":1,"left":"bvh/vr_prediction_models/model(vcgpdm)-dataset(return-bottle)-mode(ELBO)-parts(3)-dyn(15)-lvm(30)-hold(3)/final-lines.txt","right":"bvh/return-bottle-training3-lines.txt","att_check":false},"trial_type":"html-keyboard-response","trial_index":82,"time_elapsed":191117,"internal_node_id":"0.0-8.0-3.18","subject":"rrj336zygro6hga","sona":"7399"},{"rt":257.68999999854714,"stimulus":"<p>Bereit?</p>","key_press":32,"trial_type":"html-keyboard-response","trial_index":83,"time_elapsed":191383,"internal_node_id":"0.0-8.0-0.19","subject":"rrj336zygro6hga","sona":"7399"},{"rt":null,"stimulus":"<div style=\"font-size:60px;\">+</div>","key_press":null,"trial_type":"html-keyboard-response","trial_index":84,"time_elapsed":193403,"internal_node_id":"0.0-8.0-1.19","subject":"rrj336zygro6hga","sona":"7399"},{"trial_type":"turing-test","trial_index":85,"time_elapsed":199344,"internal_node_id":"0.0-8.0-2.19","subject":"rrj336zygro6hga","sona":"7399"},{"rt":305.82999999751337,"stimulus":"<p>Welche Sequenz haben Sie als natürlicher empfunden?</p>","key_press":70,"test_part":"response","test_stimulus":{"position":0,"left":"bvh/return-bottle-training4-lines.txt","right":"bvh/vr_prediction_models/model(vcgpdm)-dataset(return-bottle)-mode(MAP)-parts(1)-hold(4)/final-lines.txt","att_check":false},"trial_type":"html-keyboard-response","trial_index":86,"time_elapsed":199662,"internal_node_id":"0.0-8.0-3.19","subject":"rrj336zygro6hga","sona":"7399"},{"rt":278.38500001234934,"stimulus":"<p>Bereit?</p>","key_press":32,"trial_type":"html-keyboard-response","trial_index":87,"time_elapsed":199946,"internal_node_id":"0.0-8.0-0.20","subject":"rrj336zygro6hga","sona":"7399"},{"rt":null,"stimulus":"<div style=\"font-size:60px;\">+</div>","key_press":null,"trial_type":"html-keyboard-response","trial_index":88,"time_elapsed":201975,"internal_node_id":"0.0-8.0-1.20","subject":"rrj336zygro6hga","sona":"7399"},{"trial_type":"turing-test","trial_index":89,"time_elapsed":208824,"internal_node_id":"0.0-8.0-2.20","subject":"rrj336zygro6hga","sona":"7399"},{"rt":264.44500000798143,"stimulus":"<p>Welche Sequenz haben Sie als natürlicher empfunden?</p>","key_press":70,"test_part":"response","test_stimulus":{"position":0,"left":"bvh/pass-bottle-training0-lines.txt","right":"bvh/vr_prediction_models/model(vcgpdm)-dataset(pass-bottle)-mode(ELBO)-parts(1)-dyn(30)-lvm(35)-hold(0)/final-lines.txt","att_check":false},"trial_type":"html-keyboard-response","trial_index":90,"time_elapsed":209101,"internal_node_id":"0.0-8.0-3.20","subject":"rrj336zygro6hga","sona":"7399"},{"rt":279.8249999905238,"stimulus":"<p>Bereit?</p>","key_press":32,"trial_type":"html-keyboard-response","trial_index":91,"time_elapsed":209389,"internal_node_id":"0.0-8.0-0.21","subject":"rrj336zygro6hga","sona":"7399"},{"rt":null,"stimulus":"<div style=\"font-size:60px;\">+</div>","key_press":null,"trial_type":"html-keyboard-response","trial_index":92,"time_elapsed":211424,"internal_node_id":"0.0-8.0-1.21","subject":"rrj336zygro6hga","sona":"7399"},{"trial_type":"turing-test","trial_index":93,"time_elapsed":217324,"internal_node_id":"0.0-8.0-2.21","subject":"rrj336zygro6hga","sona":"7399"},{"rt":340.42500000214204,"stimulus":"<p>Welche Sequenz haben Sie als natürlicher empfunden?</p>","key_press":70,"test_part":"response","test_stimulus":{"position":0,"left":"bvh/pass-bottle-training3-lines.txt","right":"bvh/vr_prediction_models/model(vcgpdm)-dataset(pass-bottle)-mode(ELBO)-parts(1)-dyn(15)-lvm(35)-hold(3)/final-lines.txt","att_check":false},"trial_type":"html-keyboard-response","trial_index":94,"time_elapsed":217676,"internal_node_id":"0.0-8.0-3.21","subject":"rrj336zygro6hga","sona":"7399"},{"rt":267.5749999907566,"stimulus":"<p>Bereit?</p>","key_press":32,"trial_type":"html-keyboard-response","trial_index":95,"time_elapsed":217951,"internal_node_id":"0.0-8.0-0.22","subject":"rrj336zygro6hga","sona":"7399"},{"rt":null,"stimulus":"<div style=\"font-size:60px;\">+</div>","key_press":null,"trial_type":"html-keyboard-response","trial_index":96,"time_elapsed":219976,"internal_node_id":"0.0-8.0-1.22","subject":"rrj336zygro6hga","sona":"7399"},{"trial_type":"turing-test","trial_index":97,"time_elapsed":223445,"internal_node_id":"0.0-8.0-2.22","subject":"rrj336zygro6hga","sona":"7399"},{"rt":315.7400000054622,"stimulus":"<p>Welche Sequenz haben Sie als natürlicher empfunden?</p>","key_press":74,"test_part":"response","test_stimulus":{"position":0,"left":"bvh/return-bottle-hold-training1-lines.txt","right":"bvh/vr_prediction_models/model(vcgpdm)-dataset(return-bottle-hold)-mode(ELBO)-parts(1)-dyn(20)-lvm(20)-hold(1)/final-lines.txt","att_check":false},"trial_type":"html-keyboard-response","trial_index":98,"time_elapsed":223772,"internal_node_id":"0.0-8.0-3.22","subject":"rrj336zygro6hga","sona":"7399"},{"rt":485.51499999302905,"stimulus":"<p>Bereit?</p>","key_press":32,"trial_type":"html-keyboard-response","trial_index":99,"time_elapsed":224263,"internal_node_id":"0.0-8.0-0.23","subject":"rrj336zygro6hga","sona":"7399"},{"rt":null,"stimulus":"<div style=\"font-size:60px;\">+</div>","key_press":null,"trial_type":"html-keyboard-response","trial_index":100,"time_elapsed":226290,"internal_node_id":"0.0-8.0-1.23","subject":"rrj336zygro6hga","sona":"7399"},{"trial_type":"turing-test","trial_index":101,"time_elapsed":232926,"internal_node_id":"0.0-8.0-2.23","subject":"rrj336zygro6hga","sona":"7399"},{"rt":430.0750000111293,"stimulus":"<p>Welche Sequenz haben Sie als natürlicher empfunden?</p>","key_press":70,"test_part":"response","test_stimulus":{"position":1,"left":"bvh/vr_prediction_models/model(vcgpdm)-dataset(return-bottle)-mode(ELBO)-parts(1)-dyn(20)-lvm(30)-hold(2)/final-lines.txt","right":"bvh/return-bottle-training2-lines.txt","att_check":false},"trial_type":"html-keyboard-response","trial_index":102,"time_elapsed":233371,"internal_node_id":"0.0-8.0-3.23","subject":"rrj336zygro6hga","sona":"7399"},{"rt":252.7049999916926,"stimulus":"<p>Bereit?</p>","key_press":32,"trial_type":"html-keyboard-response","trial_index":103,"time_elapsed":233631,"internal_node_id":"0.0-8.0-0.24","subject":"rrj336zygro6hga","sona":"7399"},{"rt":null,"stimulus":"<div style=\"font-size:60px;\">+</div>","key_press":null,"trial_type":"html-keyboard-response","trial_index":104,"time_elapsed":235651,"internal_node_id":"0.0-8.0-1.24","subject":"rrj336zygro6hga","sona":"7399"},{"trial_type":"turing-test","trial_index":105,"time_elapsed":240777,"internal_node_id":"0.0-8.0-2.24","subject":"rrj336zygro6hga","sona":"7399"},{"rt":295.69500000798143,"stimulus":"<p>Welche Sequenz haben Sie als natürlicher empfunden?</p>","key_press":70,"test_part":"response","test_stimulus":{"position":0,"left":"bvh/return-bottle-hold-training0-lines.txt","right":"bvh/vr_prediction_models/model(tmp)-dataset(return-bottle-hold)-numprim(3)-hold(0)/final-lines.txt","att_check":false},"trial_type":"html-keyboard-response","trial_index":106,"time_elapsed":241082,"internal_node_id":"0.0-8.0-3.24","subject":"rrj336zygro6hga","sona":"7399"},{"rt":253.2000000064727,"stimulus":"<p>Bereit?</p>","key_press":32,"trial_type":"html-keyboard-response","trial_index":107,"time_elapsed":241341,"internal_node_id":"0.0-8.0-0.25","subject":"rrj336zygro6hga","sona":"7399"},{"rt":null,"stimulus":"<div style=\"font-size:60px;\">+</div>","key_press":null,"trial_type":"html-keyboard-response","trial_index":108,"time_elapsed":243374,"internal_node_id":"0.0-8.0-1.25","subject":"rrj336zygro6hga","sona":"7399"},{"trial_type":"turing-test","trial_index":109,"time_elapsed":246778,"internal_node_id":"0.0-8.0-2.25","subject":"rrj336zygro6hga","sona":"7399"},{"rt":345.98000001278706,"stimulus":"<p>Welche Sequenz haben Sie als natürlicher empfunden?</p>","key_press":74,"test_part":"response","test_stimulus":{"position":1,"left":"bvh/vr_prediction_models/model(vcgpdm)-dataset(pass-bottle-hold)-mode(ELBO)-parts(1)-dyn(10)-lvm(5)-hold(1)/final-lines.txt","right":"bvh/pass-bottle-hold-training1-lines.txt","att_check":false},"trial_type":"html-keyboard-response","trial_index":110,"time_elapsed":247131,"internal_node_id":"0.0-8.0-3.25","subject":"rrj336zygro6hga","sona":"7399"},{"rt":237.58499999530613,"stimulus":"<p>Bereit?</p>","key_press":32,"trial_type":"html-keyboard-response","trial_index":111,"time_elapsed":247373,"internal_node_id":"0.0-8.0-0.26","subject":"rrj336zygro6hga","sona":"7399"},{"rt":null,"stimulus":"<div style=\"font-size:60px;\">+</div>","key_press":null,"trial_type":"html-keyboard-response","trial_index":112,"time_elapsed":249393,"internal_node_id":"0.0-8.0-1.26","subject":"rrj336zygro6hga","sona":"7399"},{"trial_type":"turing-test","trial_index":113,"time_elapsed":256178,"internal_node_id":"0.0-8.0-2.26","subject":"rrj336zygro6hga","sona":"7399"},{"rt":347.6599999994505,"stimulus":"<p>Welche Sequenz haben Sie als natürlicher empfunden?</p>","key_press":70,"test_part":"response","test_stimulus":{"position":0,"left":"bvh/pass-bottle-training0-lines.txt","right":"bvh/vr_prediction_models/model(vcgpdm)-dataset(pass-bottle)-mode(ELBO)-parts(1)-dyn(25)-lvm(35)-hold(0)/final-lines.txt","att_check":false},"trial_type":"html-keyboard-response","trial_index":114,"time_elapsed":256542,"internal_node_id":"0.0-8.0-3.26","subject":"rrj336zygro6hga","sona":"7399"},{"rt":256.215000001248,"stimulus":"<p>Bereit?</p>","key_press":32,"trial_type":"html-keyboard-response","trial_index":115,"time_elapsed":256805,"internal_node_id":"0.0-8.0-0.27","subject":"rrj336zygro6hga","sona":"7399"},{"rt":null,"stimulus":"<div style=\"font-size:60px;\">+</div>","key_press":null,"trial_type":"html-keyboard-response","trial_index":116,"time_elapsed":258826,"internal_node_id":"0.0-8.0-1.27","subject":"rrj336zygro6hga","sona":"7399"},{"trial_type":"turing-test","trial_index":117,"time_elapsed":264109,"internal_node_id":"0.0-8.0-2.27","subject":"rrj336zygro6hga","sona":"7399"},{"rt":1037.4449999944773,"stimulus":"<p>Welche Sequenz haben Sie als natürlicher empfunden?</p>","key_press":74,"test_part":"response","test_stimulus":{"position":1,"left":"bvh/vr_prediction_models/model(dmp)-dataset(return-bottle-hold)-npsi(10)-hold(0)/final-lines.txt","right":"bvh/return-bottle-hold-training0-lines.txt","att_check":false},"trial_type":"html-keyboard-response","trial_index":118,"time_elapsed":265158,"internal_node_id":"0.0-8.0-3.27","subject":"rrj336zygro6hga","sona":"7399"},{"rt":415.7600000035018,"stimulus":"<p>Bereit?</p>","key_press":32,"trial_type":"html-keyboard-response","trial_index":119,"time_elapsed":265582,"internal_node_id":"0.0-8.0-0.28","subject":"rrj336zygro6hga","sona":"7399"},{"rt":null,"stimulus":"<div style=\"font-size:60px;\">+</div>","key_press":null,"trial_type":"html-keyboard-response","trial_index":120,"time_elapsed":267609,"internal_node_id":"0.0-8.0-1.28","subject":"rrj336zygro6hga","sona":"7399"},{"trial_type":"turing-test","trial_index":121,"time_elapsed":270841,"internal_node_id":"0.0-8.0-2.28","subject":"rrj336zygro6hga","sona":"7399"},{"rt":372.21000000135973,"stimulus":"<p>Welche Sequenz haben Sie als natürlicher empfunden?</p>","key_press":70,"test_part":"response","test_stimulus":{"position":0,"left":"bvh/pass-bottle-hold-training1-lines.txt","right":"bvh/vr_prediction_models/model(tmp)-dataset(pass-bottle-hold)-numprim(12)-hold(1)/final-lines.txt","att_check":false},"trial_type":"html-keyboard-response","trial_index":122,"time_elapsed":271222,"internal_node_id":"0.0-8.0-3.28","subject":"rrj336zygro6hga","sona":"7399"},{"rt":204.0500000002794,"stimulus":"<p>Bereit?</p>","key_press":32,"trial_type":"html-keyboard-response","trial_index":123,"time_elapsed":271431,"internal_node_id":"0.0-8.0-0.29","subject":"rrj336zygro6hga","sona":"7399"},{"rt":null,"stimulus":"<div style=\"font-size:60px;\">+</div>","key_press":null,"trial_type":"html-keyboard-response","trial_index":124,"time_elapsed":273457,"internal_node_id":"0.0-8.0-1.29","subject":"rrj336zygro6hga","sona":"7399"},{"trial_type":"turing-test","trial_index":125,"time_elapsed":276910,"internal_node_id":"0.0-8.0-2.29","subject":"rrj336zygro6hga","sona":"7399"},{"rt":236.48999999568332,"stimulus":"<p>Welche Sequenz haben Sie als natürlicher empfunden?</p>","key_press":74,"test_part":"response","test_stimulus":{"position":1,"left":"bvh/vr_prediction_models/model(vcgpdm)-dataset(pass-bottle-hold)-mode(ELBO)-parts(3)-dyn(15)-lvm(30)-hold(0)/final-lines.txt","right":"bvh/pass-bottle-hold-training0-lines.txt","att_check":false},"trial_type":"html-keyboard-response","trial_index":126,"time_elapsed":277155,"internal_node_id":"0.0-8.0-3.29","subject":"rrj336zygro6hga","sona":"7399"},{"rt":244.31499998900108,"stimulus":"<p>Bereit?</p>","key_press":32,"trial_type":"html-keyboard-response","trial_index":127,"time_elapsed":277403,"internal_node_id":"0.0-8.0-0.30","subject":"rrj336zygro6hga","sona":"7399"},{"rt":null,"stimulus":"<div style=\"font-size:60px;\">+</div>","key_press":null,"trial_type":"html-keyboard-response","trial_index":128,"time_elapsed":279426,"internal_node_id":"0.0-8.0-1.30","subject":"rrj336zygro6hga","sona":"7399"},{"trial_type":"turing-test","trial_index":129,"time_elapsed":285577,"internal_node_id":"0.0-8.0-2.30","subject":"rrj336zygro6hga","sona":"7399"},{"rt":328.35499999055173,"stimulus":"<p>Welche Sequenz haben Sie als natürlicher empfunden?</p>","key_press":74,"test_part":"response","test_stimulus":{"position":0,"left":"bvh/pass-bottle-training2-lines.txt","right":"bvh/vr_prediction_models/model(vcgpdm)-dataset(pass-bottle)-mode(ELBO)-parts(1)-dyn(20)-lvm(30)-hold(2)/final-lines.txt","att_check":false},"trial_type":"html-keyboard-response","trial_index":130,"time_elapsed":285916,"internal_node_id":"0.0-8.0-3.30","subject":"rrj336zygro6hga","sona":"7399"},{"rt":274.344999997993,"stimulus":"<p>Bereit?</p>","key_press":32,"trial_type":"html-keyboard-response","trial_index":131,"time_elapsed":286197,"internal_node_id":"0.0-8.0-0.31","subject":"rrj336zygro6hga","sona":"7399"},{"rt":null,"stimulus":"<div style=\"font-size:60px;\">+</div>","key_press":null,"trial_type":"html-keyboard-response","trial_index":132,"time_elapsed":288226,"internal_node_id":"0.0-8.0-1.31","subject":"rrj336zygro6hga","sona":"7399"},{"trial_type":"turing-test","trial_index":133,"time_elapsed":293653,"internal_node_id":"0.0-8.0-2.31","subject":"rrj336zygro6hga","sona":"7399"},{"rt":323.0899999907706,"stimulus":"<p>Welche Sequenz haben Sie als natürlicher empfunden?</p>","key_press":70,"test_part":"response","test_stimulus":{"position":0,"left":"bvh/return-bottle-training0-lines.txt","right":"bvh/vr_prediction_models/model(tmp)-dataset(return-bottle)-numprim(7)-hold(0)/final-lines.txt","att_check":false},"trial_type":"html-keyboard-response","trial_index":134,"time_elapsed":293987,"internal_node_id":"0.0-8.0-3.31","subject":"rrj336zygro6hga","sona":"7399"},{"rt":234.17500000505242,"stimulus":"<p>Bereit?</p>","key_press":32,"trial_type":"html-keyboard-response","trial_index":135,"time_elapsed":294232,"internal_node_id":"0.0-8.0-0.32","subject":"rrj336zygro6hga","sona":"7399"},{"rt":null,"stimulus":"<div style=\"font-size:60px;\">+</div>","key_press":null,"trial_type":"html-keyboard-response","trial_index":136,"time_elapsed":296259,"internal_node_id":"0.0-8.0-1.32","subject":"rrj336zygro6hga","sona":"7399"},{"trial_type":"turing-test","trial_index":137,"time_elapsed":299843,"internal_node_id":"0.0-8.0-2.32","subject":"rrj336zygro6hga","sona":"7399"},{"rt":297.27500000444707,"stimulus":"<p>Welche Sequenz haben Sie als natürlicher empfunden?</p>","key_press":70,"test_part":"response","test_stimulus":{"position":0,"left":"bvh/return-bottle-hold-training2-lines.txt","right":"bvh/vr_prediction_models/model(vcgpdm)-dataset(return-bottle-hold)-mode(ELBO)-parts(3)-dyn(35)-lvm(20)-hold(2)/final-lines.txt","att_check":false},"trial_type":"html-keyboard-response","trial_index":138,"time_elapsed":300154,"internal_node_id":"0.0-8.0-3.32","subject":"rrj336zygro6hga","sona":"7399"},{"rt":265.54000000760425,"stimulus":"<p>Bereit?</p>","key_press":32,"trial_type":"html-keyboard-response","trial_index":139,"time_elapsed":300425,"internal_node_id":"0.0-8.0-0.33","subject":"rrj336zygro6hga","sona":"7399"},{"rt":null,"stimulus":"<div style=\"font-size:60px;\">+</div>","key_press":null,"trial_type":"html-keyboard-response","trial_index":140,"time_elapsed":302457,"internal_node_id":"0.0-8.0-1.33","subject":"rrj336zygro6hga","sona":"7399"},{"trial_type":"turing-test","trial_index":141,"time_elapsed":309026,"internal_node_id":"0.0-8.0-2.33","subject":"rrj336zygro6hga","sona":"7399"},{"rt":365.2650000003632,"stimulus":"<p>Welche Sequenz haben Sie als natürlicher empfunden?</p>","key_press":74,"test_part":"response","test_stimulus":{"position":1,"left":"bvh/vr_prediction_models/model(dmp)-dataset(return-bottle)-npsi(80)-hold(2)/final-lines.txt","right":"bvh/return-bottle-training2-lines.txt","att_check":false},"trial_type":"html-keyboard-response","trial_index":142,"time_elapsed":309404,"internal_node_id":"0.0-8.0-3.33","subject":"rrj336zygro6hga","sona":"7399"},{"rt":309.4249999994645,"stimulus":"<p>Bereit?</p>","key_press":32,"trial_type":"html-keyboard-response","trial_index":143,"time_elapsed":309722,"internal_node_id":"0.0-8.0-0.34","subject":"rrj336zygro6hga","sona":"7399"},{"rt":null,"stimulus":"<div style=\"font-size:60px;\">+</div>","key_press":null,"trial_type":"html-keyboard-response","trial_index":144,"time_elapsed":311742,"internal_node_id":"0.0-8.0-1.34","subject":"rrj336zygro6hga","sona":"7399"},{"trial_type":"turing-test","trial_index":145,"time_elapsed":315592,"internal_node_id":"0.0-8.0-2.34","subject":"rrj336zygro6hga","sona":"7399"},{"rt":314.1849999956321,"stimulus":"<p>Welche Sequenz haben Sie als natürlicher empfunden?</p>","key_press":70,"test_part":"response","test_stimulus":{"position":0,"left":"bvh/return-bottle-hold-training4-lines.txt","right":"bvh/vr_prediction_models/model(vcgpdm)-dataset(return-bottle-hold)-mode(ELBO)-parts(3)-dyn(10)-lvm(30)-hold(4)/final-lines.txt","att_check":false},"trial_type":"html-keyboard-response","trial_index":146,"time_elapsed":315916,"internal_node_id":"0.0-8.0-3.34","subject":"rrj336zygro6hga","sona":"7399"},{"rt":255.08499999705236,"stimulus":"<p>Bereit?</p>","key_press":32,"trial_type":"html-keyboard-response","trial_index":147,"time_elapsed":316180,"internal_node_id":"0.0-8.0-0.35","subject":"rrj336zygro6hga","sona":"7399"},{"rt":null,"stimulus":"<div style=\"font-size:60px;\">+</div>","key_press":null,"trial_type":"html-keyboard-response","trial_index":148,"time_elapsed":318193,"internal_node_id":"0.0-8.0-1.35","subject":"rrj336zygro6hga","sona":"7399"},{"trial_type":"turing-test","trial_index":149,"time_elapsed":322043,"internal_node_id":"0.0-8.0-2.35","subject":"rrj336zygro6hga","sona":"7399"},{"rt":323.7750000116648,"stimulus":"<p>Welche Sequenz haben Sie als natürlicher empfunden?</p>","key_press":70,"test_part":"response","test_stimulus":{"position":0,"left":"bvh/return-bottle-hold-training4-lines.txt","right":"bvh/vr_prediction_models/model(vcgpdm)-dataset(return-bottle-hold)-mode(ELBO)-parts(3)-dyn(25)-lvm(30)-hold(4)/final-lines.txt","att_check":false},"trial_type":"html-keyboard-response","trial_index":150,"time_elapsed":322375,"internal_node_id":"0.0-8.0-3.35","subject":"rrj336zygro6hga","sona":"7399"},{"rt":211.39500000572298,"stimulus":"<p>Bereit?</p>","key_press":32,"trial_type":"html-keyboard-response","trial_index":151,"time_elapsed":322596,"internal_node_id":"0.0-8.0-0.36","subject":"rrj336zygro6hga","sona":"7399"},{"rt":null,"stimulus":"<div style=\"font-size:60px;\">+</div>","key_press":null,"trial_type":"html-keyboard-response","trial_index":152,"time_elapsed":324611,"internal_node_id":"0.0-8.0-1.36","subject":"rrj336zygro6hga","sona":"7399"},{"trial_type":"turing-test","trial_index":153,"time_elapsed":328077,"internal_node_id":"0.0-8.0-2.36","subject":"rrj336zygro6hga","sona":"7399"},{"rt":297.3350000102073,"stimulus":"<p>Welche Sequenz haben Sie als natürlicher empfunden?</p>","key_press":74,"test_part":"response","test_stimulus":{"position":1,"left":"bvh/vr_prediction_models/model(vcgpdm)-dataset(pass-bottle-hold)-mode(MAP)-parts(3)-hold(0)/final-lines.txt","right":"bvh/pass-bottle-hold-training0-lines.txt","att_check":false},"trial_type":"html-keyboard-response","trial_index":154,"time_elapsed":328383,"internal_node_id":"0.0-8.0-3.36","subject":"rrj336zygro6hga","sona":"7399"},{"rt":236.31000000750646,"stimulus":"<p>Bereit?</p>","key_press":32,"trial_type":"html-keyboard-response","trial_index":155,"time_elapsed":328629,"internal_node_id":"0.0-8.0-0.37","subject":"rrj336zygro6hga","sona":"7399"},{"rt":null,"stimulus":"<div style=\"font-size:60px;\">+</div>","key_press":null,"trial_type":"html-keyboard-response","trial_index":156,"time_elapsed":330644,"internal_node_id":"0.0-8.0-1.37","subject":"rrj336zygro6hga","sona":"7399"},{"trial_type":"turing-test","trial_index":157,"time_elapsed":334110,"internal_node_id":"0.0-8.0-2.37","subject":"rrj336zygro6hga","sona":"7399"},{"rt":274.81499999703374,"stimulus":"<p>Welche Sequenz haben Sie als natürlicher empfunden?</p>","key_press":74,"test_part":"response","test_stimulus":{"position":0,"left":"bvh/pass-bottle-hold-training2-lines.txt","right":"bvh/vr_prediction_models/model(vcgpdm)-dataset(pass-bottle-hold)-mode(ELBO)-parts(1)-dyn(10)-lvm(5)-hold(2)/final-lines.txt","att_check":false},"trial_type":"html-keyboard-response","trial_index":158,"time_elapsed":334393,"internal_node_id":"0.0-8.0-3.37","subject":"rrj336zygro6hga","sona":"7399"},{"rt":210.46499999647494,"stimulus":"<p>Bereit?</p>","key_press":32,"trial_type":"html-keyboard-response","trial_index":159,"time_elapsed":334610,"internal_node_id":"0.0-8.0-0.38","subject":"rrj336zygro6hga","sona":"7399"},{"rt":null,"stimulus":"<div style=\"font-size:60px;\">+</div>","key_press":null,"trial_type":"html-keyboard-response","trial_index":160,"time_elapsed":336624,"internal_node_id":"0.0-8.0-1.38","subject":"rrj336zygro6hga","sona":"7399"},{"trial_type":"turing-test","trial_index":161,"time_elapsed":342321,"internal_node_id":"0.0-8.0-2.38","subject":"rrj336zygro6hga","sona":"7399"},{"rt":385.48500000615604,"stimulus":"<p>Welche Sequenz haben Sie als natürlicher empfunden?</p>","key_press":70,"test_part":"response","test_stimulus":{"position":0,"left":"bvh/pass-bottle-training4-lines.txt","right":"bvh/vr_prediction_models/model(tmp)-dataset(pass-bottle)-numprim(12)-hold(4)/final-lines.txt","att_check":false},"trial_type":"html-keyboard-response","trial_index":162,"time_elapsed":342721,"internal_node_id":"0.0-8.0-3.38","subject":"rrj336zygro6hga","sona":"7399"},{"rt":202.6999999943655,"stimulus":"<p>Bereit?</p>","key_press":32,"trial_type":"html-keyboard-response","trial_index":163,"time_elapsed":342930,"internal_node_id":"0.0-8.0-0.39","subject":"rrj336zygro6hga","sona":"7399"},{"rt":null,"stimulus":"<div style=\"font-size:60px;\">+</div>","key_press":null,"trial_type":"html-keyboard-response","trial_index":164,"time_elapsed":344957,"internal_node_id":"0.0-8.0-1.39","subject":"rrj336zygro6hga","sona":"7399"},{"trial_type":"turing-test","trial_index":165,"time_elapsed":350408,"internal_node_id":"0.0-8.0-2.39","subject":"rrj336zygro6hga","sona":"7399"},{"rt":1052.9950000054669,"stimulus":"<p>Welche Sequenz haben Sie als natürlicher empfunden?</p>","key_press":74,"test_part":"response","test_stimulus":{"position":1,"left":"bvh/vr_prediction_models/model(tmp)-dataset(return-bottle)-numprim(15)-hold(0)/final-lines.txt","right":"bvh/return-bottle-training0-lines.txt","att_check":false},"trial_type":"html-keyboard-response","trial_index":166,"time_elapsed":351471,"internal_node_id":"0.0-8.0-3.39","subject":"rrj336zygro6hga","sona":"7399"},{"rt":267.3849999991944,"stimulus":"<p>Bereit?</p>","key_press":32,"trial_type":"html-keyboard-response","trial_index":167,"time_elapsed":351746,"internal_node_id":"0.0-8.0-0.40","subject":"rrj336zygro6hga","sona":"7399"},{"rt":null,"stimulus":"<div style=\"font-size:60px;\">+</div>","key_press":null,"trial_type":"html-keyboard-response","trial_index":168,"time_elapsed":353768,"internal_node_id":"0.0-8.0-1.40","subject":"rrj336zygro6hga","sona":"7399"},{"trial_type":"turing-test","trial_index":169,"time_elapsed":359683,"internal_node_id":"0.0-8.0-2.40","subject":"rrj336zygro6hga","sona":"7399"},{"rt":222.34999999636784,"stimulus":"<p>Welche Sequenz haben Sie als natürlicher empfunden?</p>","key_press":70,"test_part":"response","test_stimulus":{"position":0,"left":"bvh/return-bottle-training4-lines.txt","right":"bvh/vr_prediction_models/model(vcgpdm)-dataset(return-bottle)-mode(ELBO)-parts(1)-dyn(30)-lvm(35)-hold(4)/final-lines.txt","att_check":false},"trial_type":"html-keyboard-response","trial_index":170,"time_elapsed":359920,"internal_node_id":"0.0-8.0-3.40","subject":"rrj336zygro6hga","sona":"7399"},{"rt":265.769999998156,"stimulus":"<p>Bereit?</p>","key_press":32,"trial_type":"html-keyboard-response","trial_index":171,"time_elapsed":360195,"internal_node_id":"0.0-8.0-0.41","subject":"rrj336zygro6hga","sona":"7399"},{"rt":null,"stimulus":"<div style=\"font-size:60px;\">+</div>","key_press":null,"trial_type":"html-keyboard-response","trial_index":172,"time_elapsed":362225,"internal_node_id":"0.0-8.0-1.41","subject":"rrj336zygro6hga","sona":"7399"},{"trial_type":"turing-test","trial_index":173,"time_elapsed":366159,"internal_node_id":"0.0-8.0-2.41","subject":"rrj336zygro6hga","sona":"7399"},{"rt":450.0700000062352,"stimulus":"<p>Welche Sequenz haben Sie als natürlicher empfunden?</p>","key_press":70,"test_part":"response","test_stimulus":{"position":0,"left":"bvh/return-bottle-hold-training4-lines.txt","right":"bvh/vr_prediction_models/model(vcgpdm)-dataset(return-bottle-hold)-mode(ELBO)-parts(1)-dyn(35)-lvm(30)-hold(4)/final-lines.txt","att_check":false},"trial_type":"html-keyboard-response","trial_index":174,"time_elapsed":366621,"internal_node_id":"0.0-8.0-3.41","subject":"rrj336zygro6hga","sona":"7399"},{"rt":209.91000000503846,"stimulus":"<p>Bereit?</p>","key_press":32,"trial_type":"html-keyboard-response","trial_index":175,"time_elapsed":366839,"internal_node_id":"0.0-8.0-0.42","subject":"rrj336zygro6hga","sona":"7399"},{"rt":null,"stimulus":"<div style=\"font-size:60px;\">+</div>","key_press":null,"trial_type":"html-keyboard-response","trial_index":176,"time_elapsed":368857,"internal_node_id":"0.0-8.0-1.42","subject":"rrj336zygro6hga","sona":"7399"},{"trial_type":"turing-test","trial_index":177,"time_elapsed":372207,"internal_node_id":"0.0-8.0-2.42","subject":"rrj336zygro6hga","sona":"7399"},{"rt":482.34999999112915,"stimulus":"<p>Welche Sequenz haben Sie als natürlicher empfunden?</p>","key_press":74,"test_part":"response","test_stimulus":{"position":0,"left":"bvh/pass-bottle-hold-training2-lines.txt","right":"bvh/vr_prediction_models/model(dmp)-dataset(pass-bottle-hold)-npsi(10)-hold(2)/final-lines.txt","att_check":false},"trial_type":"html-keyboard-response","trial_index":178,"time_elapsed":372702,"internal_node_id":"0.0-8.0-3.42","subject":"rrj336zygro6hga","sona":"7399"},{"rt":179.66499998874497,"stimulus":"<p>Bereit?</p>","key_press":32,"trial_type":"html-keyboard-response","trial_index":179,"time_elapsed":372887,"internal_node_id":"0.0-8.0-0.43","subject":"rrj336zygro6hga","sona":"7399"},{"rt":null,"stimulus":"<div style=\"font-size:60px;\">+</div>","key_press":null,"trial_type":"html-keyboard-response","trial_index":180,"time_elapsed":374908,"internal_node_id":"0.0-8.0-1.43","subject":"rrj336zygro6hga","sona":"7399"},{"trial_type":"turing-test","trial_index":181,"time_elapsed":381795,"internal_node_id":"0.0-8.0-2.43","subject":"rrj336zygro6hga","sona":"7399"},{"rt":391.4800000056857,"stimulus":"<p>Welche Sequenz haben Sie als natürlicher empfunden?</p>","key_press":70,"test_part":"response","test_stimulus":{"position":0,"left":"bvh/pass-bottle-training0-lines.txt","right":"bvh/vr_prediction_models/model(vcgpdm)-dataset(pass-bottle)-mode(ELBO)-parts(1)-dyn(10)-lvm(25)-hold(0)/final-lines.txt","att_check":false},"trial_type":"html-keyboard-response","trial_index":182,"time_elapsed":382199,"internal_node_id":"0.0-8.0-3.43","subject":"rrj336zygro6hga","sona":"7399"},{"rt":250.37999999767635,"stimulus":"<p>Bereit?</p>","key_press":32,"trial_type":"html-keyboard-response","trial_index":183,"time_elapsed":382456,"internal_node_id":"0.0-8.0-0.44","subject":"rrj336zygro6hga","sona":"7399"},{"rt":null,"stimulus":"<div style=\"font-size:60px;\">+</div>","key_press":null,"trial_type":"html-keyboard-response","trial_index":184,"time_elapsed":384476,"internal_node_id":"0.0-8.0-1.44","subject":"rrj336zygro6hga","sona":"7399"},{"trial_type":"turing-test","trial_index":185,"time_elapsed":391356,"internal_node_id":"0.0-8.0-2.44","subject":"rrj336zygro6hga","sona":"7399"},{"rt":345.81500000786036,"stimulus":"<p>Welche Sequenz haben Sie als natürlicher empfunden?</p>","key_press":70,"test_part":"response","test_stimulus":{"position":0,"left":"bvh/pass-bottle-training0-lines.txt","right":"bvh/vr_prediction_models/model(vcgpdm)-dataset(pass-bottle)-mode(ELBO)-parts(1)-dyn(10)-lvm(30)-hold(0)/final-lines.txt","att_check":false},"trial_type":"html-keyboard-response","trial_index":186,"time_elapsed":391719,"internal_node_id":"0.0-8.0-3.44","subject":"rrj336zygro6hga","sona":"7399"},{"rt":243.4849999990547,"stimulus":"<p>Bereit?</p>","key_press":32,"trial_type":"html-keyboard-response","trial_index":187,"time_elapsed":391971,"internal_node_id":"0.0-8.0-0.45","subject":"rrj336zygro6hga","sona":"7399"},{"rt":null,"stimulus":"<div style=\"font-size:60px;\">+</div>","key_press":null,"trial_type":"html-keyboard-response","trial_index":188,"time_elapsed":393990,"internal_node_id":"0.0-8.0-1.45","subject":"rrj336zygro6hga","sona":"7399"},{"trial_type":"turing-test","trial_index":189,"time_elapsed":400790,"internal_node_id":"0.0-8.0-2.45","subject":"rrj336zygro6hga","sona":"7399"},{"rt":303.9500000013504,"stimulus":"<p>Welche Sequenz haben Sie als natürlicher empfunden?</p>","key_press":74,"test_part":"response","test_stimulus":{"position":1,"left":"bvh/vr_prediction_models/model(tmp)-dataset(pass-bottle)-numprim(9)-hold(0)/final-lines.txt","right":"bvh/pass-bottle-training0-lines.txt","att_check":false},"trial_type":"html-keyboard-response","trial_index":190,"time_elapsed":401107,"internal_node_id":"0.0-8.0-3.45","subject":"rrj336zygro6hga","sona":"7399"},{"rt":167.3049999953946,"stimulus":"<p>Bereit?</p>","key_press":32,"trial_type":"html-keyboard-response","trial_index":191,"time_elapsed":401285,"internal_node_id":"0.0-8.0-0.46","subject":"rrj336zygro6hga","sona":"7399"},{"rt":null,"stimulus":"<div style=\"font-size:60px;\">+</div>","key_press":null,"trial_type":"html-keyboard-response","trial_index":192,"time_elapsed":403310,"internal_node_id":"0.0-8.0-1.46","subject":"rrj336zygro6hga","sona":"7399"},{"trial_type":"turing-test","trial_index":193,"time_elapsed":409175,"internal_node_id":"0.0-8.0-2.46","subject":"rrj336zygro6hga","sona":"7399"},{"rt":334.62999999755993,"stimulus":"<p>Welche Sequenz haben Sie als natürlicher empfunden?</p>","key_press":70,"test_part":"response","test_stimulus":{"position":0,"left":"bvh/pass-bottle-training4-lines.txt","right":"bvh/vr_prediction_models/model(vcgpdm)-dataset(pass-bottle)-mode(MAP)-parts(3)-hold(4)/final-lines.txt","att_check":false},"trial_type":"html-keyboard-response","trial_index":194,"time_elapsed":409523,"internal_node_id":"0.0-8.0-3.46","subject":"rrj336zygro6hga","sona":"7399"},{"rt":249.0199999883771,"stimulus":"<p>Bereit?</p>","key_press":32,"trial_type":"html-keyboard-response","trial_index":195,"time_elapsed":409787,"internal_node_id":"0.0-8.0-0.47","subject":"rrj336zygro6hga","sona":"7399"},{"rt":null,"stimulus":"<div style=\"font-size:60px;\">+</div>","key_press":null,"trial_type":"html-keyboard-response","trial_index":196,"time_elapsed":411810,"internal_node_id":"0.0-8.0-1.47","subject":"rrj336zygro6hga","sona":"7399"},{"trial_type":"turing-test","trial_index":197,"time_elapsed":415356,"internal_node_id":"0.0-8.0-2.47","subject":"rrj336zygro6hga","sona":"7399"},{"rt":303.99000000033993,"stimulus":"<p>Welche Sequenz haben Sie als natürlicher empfunden?</p>","key_press":74,"test_part":"response","test_stimulus":{"position":1,"left":"bvh/vr_prediction_models/model(dmp)-dataset(return-bottle-hold)-npsi(20)-hold(2)/final-lines.txt","right":"bvh/return-bottle-hold-training2-lines.txt","att_check":false},"trial_type":"html-keyboard-response","trial_index":198,"time_elapsed":415669,"internal_node_id":"0.0-8.0-3.47","subject":"rrj336zygro6hga","sona":"7399"},{"rt":244.86000000615604,"stimulus":"<p>Bereit?</p>","key_press":32,"trial_type":"html-keyboard-response","trial_index":199,"time_elapsed":415922,"internal_node_id":"0.0-8.0-0.48","subject":"rrj336zygro6hga","sona":"7399"},{"rt":null,"stimulus":"<div style=\"font-size:60px;\">+</div>","key_press":null,"trial_type":"html-keyboard-response","trial_index":200,"time_elapsed":417943,"internal_node_id":"0.0-8.0-1.48","subject":"rrj336zygro6hga","sona":"7399"},{"trial_type":"turing-test","trial_index":201,"time_elapsed":423841,"internal_node_id":"0.0-8.0-2.48","subject":"rrj336zygro6hga","sona":"7399"},{"rt":764.2550000018673,"stimulus":"<p>Welche Sequenz haben Sie als natürlicher empfunden?</p>","key_press":74,"test_part":"response","test_stimulus":{"position":1,"left":"bvh/vr_prediction_models/model(vcgpdm)-dataset(return-bottle)-mode(ELBO)-parts(1)-dyn(35)-lvm(30)-hold(3)/final-lines.txt","right":"bvh/return-bottle-training3-lines.txt","att_check":false},"trial_type":"html-keyboard-response","trial_index":202,"time_elapsed":424615,"internal_node_id":"0.0-8.0-3.48","subject":"rrj336zygro6hga","sona":"7399"},{"rt":273.59500000602566,"stimulus":"<p>Bereit?</p>","key_press":32,"trial_type":"html-keyboard-response","trial_index":203,"time_elapsed":424894,"internal_node_id":"0.0-8.0-0.49","subject":"rrj336zygro6hga","sona":"7399"},{"rt":null,"stimulus":"<div style=\"font-size:60px;\">+</div>","key_press":null,"trial_type":"html-keyboard-response","trial_index":204,"time_elapsed":426921,"internal_node_id":"0.0-8.0-1.49","subject":"rrj336zygro6hga","sona":"7399"},{"trial_type":"turing-test","trial_index":205,"time_elapsed":430665,"internal_node_id":"0.0-8.0-2.49","subject":"rrj336zygro6hga","sona":"7399"},{"rt":332.4799999973038,"stimulus":"<p>Welche Sequenz haben Sie als natürlicher empfunden?</p>","key_press":70,"test_part":"response","test_stimulus":{"position":1,"left":"bvh/vr_prediction_models/model(tmp)-dataset(return-bottle-hold)-numprim(6)-hold(4)/final-lines.txt","right":"bvh/return-bottle-hold-training4-lines.txt","att_check":false},"trial_type":"html-keyboard-response","trial_index":206,"time_elapsed":431016,"internal_node_id":"0.0-8.0-3.49","subject":"rrj336zygro6hga","sona":"7399"},{"rt":249.43499999062624,"stimulus":"<p>Bereit?</p>","key_press":32,"trial_type":"html-keyboard-response","trial_index":207,"time_elapsed":431274,"internal_node_id":"0.0-8.0-0.50","subject":"rrj336zygro6hga","sona":"7399"},{"rt":null,"stimulus":"<div style=\"font-size:60px;\">+</div>","key_press":null,"trial_type":"html-keyboard-response","trial_index":208,"time_elapsed":433309,"internal_node_id":"0.0-8.0-1.50","subject":"rrj336zygro6hga","sona":"7399"},{"trial_type":"turing-test","trial_index":209,"time_elapsed":438857,"internal_node_id":"0.0-8.0-2.50","subject":"rrj336zygro6hga","sona":"7399"},{"rt":768.0249999975786,"stimulus":"<p>Welche Sequenz haben Sie als natürlicher empfunden?</p>","key_press":70,"test_part":"response","test_stimulus":{"position":0,"left":"bvh/pass-bottle-training1-lines.txt","right":"bvh/vr_prediction_models/model(vcgpdm)-dataset(pass-bottle)-mode(MAP)-parts(3)-hold(1)/final-lines.txt","att_check":false},"trial_type":"html-keyboard-response","trial_index":210,"time_elapsed":439632,"internal_node_id":"0.0-8.0-3.50","subject":"rrj336zygro6hga","sona":"7399"},{"rt":276.7749999911757,"stimulus":"<p>Bereit?</p>","key_press":32,"trial_type":"html-keyboard-response","trial_index":211,"time_elapsed":439916,"internal_node_id":"0.0-8.0-0.51","subject":"rrj336zygro6hga","sona":"7399"},{"rt":null,"stimulus":"<div style=\"font-size:60px;\">+</div>","key_press":null,"trial_type":"html-keyboard-response","trial_index":212,"time_elapsed":441923,"internal_node_id":"0.0-8.0-1.51","subject":"rrj336zygro6hga","sona":"7399"},{"trial_type":"turing-test","trial_index":213,"time_elapsed":445275,"internal_node_id":"0.0-8.0-2.51","subject":"rrj336zygro6hga","sona":"7399"},{"rt":267.17000000644475,"stimulus":"<p>Welche Sequenz haben Sie als natürlicher empfunden?</p>","key_press":74,"test_part":"response","test_stimulus":{"position":0,"left":"bvh/pass-bottle-hold-training0-lines.txt","right":"bvh/vr_prediction_models/model(dmp)-dataset(pass-bottle-hold)-npsi(60)-hold(0)/final-lines.txt","att_check":false},"trial_type":"html-keyboard-response","trial_index":214,"time_elapsed":445551,"internal_node_id":"0.0-8.0-3.51","subject":"rrj336zygro6hga","sona":"7399"},{"rt":269.9950000096578,"stimulus":"<p>Bereit?</p>","key_press":32,"trial_type":"html-keyboard-response","trial_index":215,"time_elapsed":445829,"internal_node_id":"0.0-8.0-0.52","subject":"rrj336zygro6hga","sona":"7399"},{"rt":null,"stimulus":"<div style=\"font-size:60px;\">+</div>","key_press":null,"trial_type":"html-keyboard-response","trial_index":216,"time_elapsed":447857,"internal_node_id":"0.0-8.0-1.52","subject":"rrj336zygro6hga","sona":"7399"},{"trial_type":"turing-test","trial_index":217,"time_elapsed":453457,"internal_node_id":"0.0-8.0-2.52","subject":"rrj336zygro6hga","sona":"7399"},{"rt":295.57000000204425,"stimulus":"<p>Welche Sequenz haben Sie als natürlicher empfunden?</p>","key_press":74,"test_part":"response","test_stimulus":{"position":1,"left":"bvh/vr_prediction_models/model(vcgpdm)-dataset(pass-bottle)-mode(ELBO)-parts(1)-dyn(10)-lvm(5)-hold(1)/final-lines.txt","right":"bvh/pass-bottle-training1-lines.txt","att_check":false},"trial_type":"html-keyboard-response","trial_index":218,"time_elapsed":453767,"internal_node_id":"0.0-8.0-3.52","subject":"rrj336zygro6hga","sona":"7399"},{"rt":223.44499999599066,"stimulus":"<p>Bereit?</p>","key_press":32,"trial_type":"html-keyboard-response","trial_index":219,"time_elapsed":454001,"internal_node_id":"0.0-8.0-0.53","subject":"rrj336zygro6hga","sona":"7399"},{"rt":null,"stimulus":"<div style=\"font-size:60px;\">+</div>","key_press":null,"trial_type":"html-keyboard-response","trial_index":220,"time_elapsed":456021,"internal_node_id":"0.0-8.0-1.53","subject":"rrj336zygro6hga","sona":"7399"},{"trial_type":"turing-test","trial_index":221,"time_elapsed":459674,"internal_node_id":"0.0-8.0-2.53","subject":"rrj336zygro6hga","sona":"7399"},{"rt":272.42999999725726,"stimulus":"<p>Welche Sequenz haben Sie als natürlicher empfunden?</p>","key_press":74,"test_part":"response","test_stimulus":{"position":1,"left":"bvh/vr_prediction_models/model(tmp)-dataset(return-bottle-hold)-numprim(5)-hold(3)/final-lines.txt","right":"bvh/return-bottle-hold-training3-lines.txt","att_check":false},"trial_type":"html-keyboard-response","trial_index":222,"time_elapsed":459956,"internal_node_id":"0.0-8.0-3.53","subject":"rrj336zygro6hga","sona":"7399"},{"rt":202.10499998938758,"stimulus":"<p>Bereit?</p>","key_press":32,"trial_type":"html-keyboard-response","trial_index":223,"time_elapsed":460171,"internal_node_id":"0.0-8.0-0.54","subject":"rrj336zygro6hga","sona":"7399"},{"rt":null,"stimulus":"<div style=\"font-size:60px;\">+</div>","key_press":null,"trial_type":"html-keyboard-response","trial_index":224,"time_elapsed":462190,"internal_node_id":"0.0-8.0-1.54","subject":"rrj336zygro6hga","sona":"7399"},{"trial_type":"turing-test","trial_index":225,"time_elapsed":465555,"internal_node_id":"0.0-8.0-2.54","subject":"rrj336zygro6hga","sona":"7399"},{"rt":379.2350000003353,"stimulus":"<p>Welche Sequenz haben Sie als natürlicher empfunden?</p>","key_press":70,"test_part":"response","test_stimulus":{"position":0,"left":"bvh/return-bottle-hold-training1-lines.txt","right":"bvh/vr_prediction_models/model(dmp)-dataset(return-bottle-hold)-npsi(100)-hold(1)/final-lines.txt","att_check":false},"trial_type":"html-keyboard-response","trial_index":226,"time_elapsed":465942,"internal_node_id":"0.0-8.0-3.54","subject":"rrj336zygro6hga","sona":"7399"},{"rt":423.7849999917671,"stimulus":"<p>Bereit?</p>","key_press":32,"trial_type":"html-keyboard-response","trial_index":227,"time_elapsed":466374,"internal_node_id":"0.0-8.0-0.55","subject":"rrj336zygro6hga","sona":"7399"},{"rt":null,"stimulus":"<div style=\"font-size:60px;\">+</div>","key_press":null,"trial_type":"html-keyboard-response","trial_index":228,"time_elapsed":468408,"internal_node_id":"0.0-8.0-1.55","subject":"rrj336zygro6hga","sona":"7399"},{"trial_type":"turing-test","trial_index":229,"time_elapsed":474257,"internal_node_id":"0.0-8.0-2.55","subject":"rrj336zygro6hga","sona":"7399"},{"rt":241.9100000115577,"stimulus":"<p>Welche Sequenz haben Sie als natürlicher empfunden?</p>","key_press":70,"test_part":"response","test_stimulus":{"position":0,"left":"bvh/pass-bottle-training3-lines.txt","right":"bvh/vr_prediction_models/model(dmp)-dataset(pass-bottle)-npsi(30)-hold(3)/final-lines.txt","att_check":true},"trial_type":"html-keyboard-response","trial_index":230,"time_elapsed":474513,"internal_node_id":"0.0-8.0-3.55","subject":"rrj336zygro6hga","sona":"7399"},{"rt":217.05000000656582,"stimulus":"<p>Bereit?</p>","key_press":32,"trial_type":"html-keyboard-response","trial_index":231,"time_elapsed":474741,"internal_node_id":"0.0-8.0-0.56","subject":"rrj336zygro6hga","sona":"7399"},{"rt":null,"stimulus":"<div style=\"font-size:60px;\">+</div>","key_press":null,"trial_type":"html-keyboard-response","trial_index":232,"time_elapsed":476775,"internal_node_id":"0.0-8.0-1.56","subject":"rrj336zygro6hga","sona":"7399"},{"trial_type":"turing-test","trial_index":233,"time_elapsed":481872,"internal_node_id":"0.0-8.0-2.56","subject":"rrj336zygro6hga","sona":"7399"},{"rt":249.5749999943655,"stimulus":"<p>Welche Sequenz haben Sie als natürlicher empfunden?</p>","key_press":70,"test_part":"response","test_stimulus":{"position":0,"left":"bvh/return-bottle-hold-training0-lines.txt","right":"bvh/vr_prediction_models/model(dmp)-dataset(return-bottle-hold)-npsi(70)-hold(0)/final-lines.txt","att_check":false},"trial_type":"html-keyboard-response","trial_index":234,"time_elapsed":482135,"internal_node_id":"0.0-8.0-3.56","subject":"rrj336zygro6hga","sona":"7399"},{"rt":246.40499999804888,"stimulus":"<p>Bereit?</p>","key_press":32,"trial_type":"html-keyboard-response","trial_index":235,"time_elapsed":482395,"internal_node_id":"0.0-8.0-0.57","subject":"rrj336zygro6hga","sona":"7399"},{"rt":null,"stimulus":"<div style=\"font-size:60px;\">+</div>","key_press":null,"trial_type":"html-keyboard-response","trial_index":236,"time_elapsed":484409,"internal_node_id":"0.0-8.0-1.57","subject":"rrj336zygro6hga","sona":"7399"},{"trial_type":"turing-test","trial_index":237,"time_elapsed":488155,"internal_node_id":"0.0-8.0-2.57","subject":"rrj336zygro6hga","sona":"7399"},{"rt":260.9800000063842,"stimulus":"<p>Welche Sequenz haben Sie als natürlicher empfunden?</p>","key_press":74,"test_part":"response","test_stimulus":{"position":1,"left":"bvh/vr_prediction_models/model(tmp)-dataset(return-bottle-hold)-numprim(13)-hold(4)/final-lines.txt","right":"bvh/return-bottle-hold-training4-lines.txt","att_check":false},"trial_type":"html-keyboard-response","trial_index":238,"time_elapsed":488434,"internal_node_id":"0.0-8.0-3.57","subject":"rrj336zygro6hga","sona":"7399"},{"rt":246.62499999976717,"stimulus":"<p>Bereit?</p>","key_press":32,"trial_type":"html-keyboard-response","trial_index":239,"time_elapsed":488696,"internal_node_id":"0.0-8.0-0.58","subject":"rrj336zygro6hga","sona":"7399"},{"rt":null,"stimulus":"<div style=\"font-size:60px;\">+</div>","key_press":null,"trial_type":"html-keyboard-response","trial_index":240,"time_elapsed":490714,"internal_node_id":"0.0-8.0-1.58","subject":"rrj336zygro6hga","sona":"7399"},{"trial_type":"turing-test","trial_index":241,"time_elapsed":496174,"internal_node_id":"0.0-8.0-2.58","subject":"rrj336zygro6hga","sona":"7399"},{"rt":351.79000000061933,"stimulus":"<p>Welche Sequenz haben Sie als natürlicher empfunden?</p>","key_press":70,"test_part":"response","test_stimulus":{"position":0,"left":"bvh/return-bottle-training0-lines.txt","right":"bvh/vr_prediction_models/model(dmp)-dataset(return-bottle)-npsi(100)-hold(0)/final-lines.txt","att_check":false},"trial_type":"html-keyboard-response","trial_index":242,"time_elapsed":496539,"internal_node_id":"0.0-8.0-3.58","subject":"rrj336zygro6hga","sona":"7399"},{"rt":216.99500000977423,"stimulus":"<p>Bereit?</p>","key_press":32,"trial_type":"html-keyboard-response","trial_index":243,"time_elapsed":496771,"internal_node_id":"0.0-8.0-0.59","subject":"rrj336zygro6hga","sona":"7399"},{"rt":null,"stimulus":"<div style=\"font-size:60px;\">+</div>","key_press":null,"trial_type":"html-keyboard-response","trial_index":244,"time_elapsed":498790,"internal_node_id":"0.0-8.0-1.59","subject":"rrj336zygro6hga","sona":"7399"},{"trial_type":"turing-test","trial_index":245,"time_elapsed":504322,"internal_node_id":"0.0-8.0-2.59","subject":"rrj336zygro6hga","sona":"7399"},{"rt":545.1549999997951,"stimulus":"<p>Welche Sequenz haben Sie als natürlicher empfunden?</p>","key_press":74,"test_part":"response","test_stimulus":{"position":0,"left":"bvh/return-bottle-training0-lines.txt","right":"bvh/vr_prediction_models/model(vcgpdm)-dataset(return-bottle)-mode(ELBO)-parts(1)-dyn(10)-lvm(5)-hold(0)/final-lines.txt","att_check":false},"trial_type":"html-keyboard-response","trial_index":246,"time_elapsed":504883,"internal_node_id":"0.0-8.0-3.59","subject":"rrj336zygro6hga","sona":"7399"},{"rt":245.79000000085216,"stimulus":"<p>Bereit?</p>","key_press":32,"trial_type":"html-keyboard-response","trial_index":247,"time_elapsed":505135,"internal_node_id":"0.0-8.0-0.60","subject":"rrj336zygro6hga","sona":"7399"},{"rt":null,"stimulus":"<div style=\"font-size:60px;\">+</div>","key_press":null,"trial_type":"html-keyboard-response","trial_index":248,"time_elapsed":507154,"internal_node_id":"0.0-8.0-1.60","subject":"rrj336zygro6hga","sona":"7399"},{"trial_type":"turing-test","trial_index":249,"time_elapsed":510905,"internal_node_id":"0.0-8.0-2.60","subject":"rrj336zygro6hga","sona":"7399"},{"rt":227.72500000428408,"stimulus":"<p>Welche Sequenz haben Sie als natürlicher empfunden?</p>","key_press":74,"test_part":"response","test_stimulus":{"position":0,"left":"bvh/pass-bottle-hold-training4-lines.txt","right":"bvh/vr_prediction_models/model(vcgpdm)-dataset(pass-bottle-hold)-mode(ELBO)-parts(3)-dyn(15)-lvm(30)-hold(4)/final-lines.txt","att_check":false},"trial_type":"html-keyboard-response","trial_index":250,"time_elapsed":511145,"internal_node_id":"0.0-8.0-3.60","subject":"rrj336zygro6hga","sona":"7399"},{"rt":271.0549999901559,"stimulus":"<p>Bereit?</p>","key_press":32,"trial_type":"html-keyboard-response","trial_index":251,"time_elapsed":511422,"internal_node_id":"0.0-8.0-0.61","subject":"rrj336zygro6hga","sona":"7399"},{"rt":null,"stimulus":"<div style=\"font-size:60px;\">+</div>","key_press":null,"trial_type":"html-keyboard-response","trial_index":252,"time_elapsed":513441,"internal_node_id":"0.0-8.0-1.61","subject":"rrj336zygro6hga","sona":"7399"},{"trial_type":"turing-test","trial_index":253,"time_elapsed":520275,"internal_node_id":"0.0-8.0-2.61","subject":"rrj336zygro6hga","sona":"7399"},{"rt":380.7200000010198,"stimulus":"<p>Welche Sequenz haben Sie als natürlicher empfunden?</p>","key_press":70,"test_part":"response","test_stimulus":{"position":0,"left":"bvh/pass-bottle-training0-lines.txt","right":"bvh/vr_prediction_models/model(dmp)-dataset(pass-bottle)-npsi(20)-hold(0)/final-lines.txt","att_check":false},"trial_type":"html-keyboard-response","trial_index":254,"time_elapsed":520684,"internal_node_id":"0.0-8.0-3.61","subject":"rrj336zygro6hga","sona":"7399"},{"rt":311.0199999937322,"stimulus":"<p>Bereit?</p>","key_press":32,"trial_type":"html-keyboard-response","trial_index":255,"time_elapsed":521007,"internal_node_id":"0.0-8.0-0.62","subject":"rrj336zygro6hga","sona":"7399"},{"rt":null,"stimulus":"<div style=\"font-size:60px;\">+</div>","key_press":null,"trial_type":"html-keyboard-response","trial_index":256,"time_elapsed":523041,"internal_node_id":"0.0-8.0-1.62","subject":"rrj336zygro6hga","sona":"7399"},{"trial_type":"turing-test","trial_index":257,"time_elapsed":528923,"internal_node_id":"0.0-8.0-2.62","subject":"rrj336zygro6hga","sona":"7399"},{"rt":360.2699999901233,"stimulus":"<p>Welche Sequenz haben Sie als natürlicher empfunden?</p>","key_press":70,"test_part":"response","test_stimulus":{"position":0,"left":"bvh/pass-bottle-training3-lines.txt","right":"bvh/vr_prediction_models/model(vcgpdm)-dataset(pass-bottle)-mode(ELBO)-parts(1)-dyn(25)-lvm(35)-hold(3)/final-lines.txt","att_check":false},"trial_type":"html-keyboard-response","trial_index":258,"time_elapsed":529295,"internal_node_id":"0.0-8.0-3.62","subject":"rrj336zygro6hga","sona":"7399"},{"rt":232.23500000312924,"stimulus":"<p>Bereit?</p>","key_press":32,"trial_type":"html-keyboard-response","trial_index":259,"time_elapsed":529539,"internal_node_id":"0.0-8.0-0.63","subject":"rrj336zygro6hga","sona":"7399"},{"rt":null,"stimulus":"<div style=\"font-size:60px;\">+</div>","key_press":null,"trial_type":"html-keyboard-response","trial_index":260,"time_elapsed":531554,"internal_node_id":"0.0-8.0-1.63","subject":"rrj336zygro6hga","sona":"7399"},{"trial_type":"turing-test","trial_index":261,"time_elapsed":537784,"internal_node_id":"0.0-8.0-2.63","subject":"rrj336zygro6hga","sona":"7399"},{"rt":521.6899999941234,"stimulus":"<p>Welche Sequenz haben Sie als natürlicher empfunden?</p>","key_press":74,"test_part":"response","test_stimulus":{"position":1,"left":"bvh/vr_prediction_models/model(vcgpdm)-dataset(return-bottle)-mode(ELBO)-parts(1)-dyn(10)-lvm(30)-hold(1)/final-lines.txt","right":"bvh/return-bottle-training1-lines.txt","att_check":false},"trial_type":"html-keyboard-response","trial_index":262,"time_elapsed":538321,"internal_node_id":"0.0-8.0-3.63","subject":"rrj336zygro6hga","sona":"7399"},{"rt":252.88000000000466,"stimulus":"<p>Bereit?</p>","key_press":32,"trial_type":"html-keyboard-response","trial_index":263,"time_elapsed":538583,"internal_node_id":"0.0-8.0-0.64","subject":"rrj336zygro6hga","sona":"7399"},{"rt":null,"stimulus":"<div style=\"font-size:60px;\">+</div>","key_press":null,"trial_type":"html-keyboard-response","trial_index":264,"time_elapsed":540590,"internal_node_id":"0.0-8.0-1.64","subject":"rrj336zygro6hga","sona":"7399"},{"trial_type":"turing-test","trial_index":265,"time_elapsed":546108,"internal_node_id":"0.0-8.0-2.64","subject":"rrj336zygro6hga","sona":"7399"},{"rt":248.39500000234693,"stimulus":"<p>Welche Sequenz haben Sie als natürlicher empfunden?</p>","key_press":70,"test_part":"response","test_stimulus":{"position":0,"left":"bvh/return-bottle-training0-lines.txt","right":"bvh/vr_prediction_models/model(vcgpdm)-dataset(return-bottle)-mode(ELBO)-parts(3)-dyn(25)-lvm(30)-hold(0)/final-lines.txt","att_check":false},"trial_type":"html-keyboard-response","trial_index":266,"time_elapsed":546378,"internal_node_id":"0.0-8.0-3.64","subject":"rrj336zygro6hga","sona":"7399"},{"rt":240.62000001140404,"stimulus":"<p>Bereit?</p>","key_press":32,"trial_type":"html-keyboard-response","trial_index":267,"time_elapsed":546630,"internal_node_id":"0.0-8.0-0.65","subject":"rrj336zygro6hga","sona":"7399"},{"rt":null,"stimulus":"<div style=\"font-size:60px;\">+</div>","key_press":null,"trial_type":"html-keyboard-response","trial_index":268,"time_elapsed":548641,"internal_node_id":"0.0-8.0-1.65","subject":"rrj336zygro6hga","sona":"7399"},{"trial_type":"turing-test","trial_index":269,"time_elapsed":554808,"internal_node_id":"0.0-8.0-2.65","subject":"rrj336zygro6hga","sona":"7399"},{"rt":450.85500000277534,"stimulus":"<p>Welche Sequenz haben Sie als natürlicher empfunden?</p>","key_press":74,"test_part":"response","test_stimulus":{"position":0,"left":"bvh/return-bottle-training1-lines.txt","right":"bvh/vr_prediction_models/model(vcgpdm)-dataset(return-bottle)-mode(ELBO)-parts(1)-dyn(35)-lvm(10)-hold(1)/final-lines.txt","att_check":false},"trial_type":"html-keyboard-response","trial_index":270,"time_elapsed":555275,"internal_node_id":"0.0-8.0-3.65","subject":"rrj336zygro6hga","sona":"7399"},{"rt":223.85000000940636,"stimulus":"<p>Bereit?</p>","key_press":32,"trial_type":"html-keyboard-response","trial_index":271,"time_elapsed":555508,"internal_node_id":"0.0-8.0-0.66","subject":"rrj336zygro6hga","sona":"7399"},{"rt":null,"stimulus":"<div style=\"font-size:60px;\">+</div>","key_press":null,"trial_type":"html-keyboard-response","trial_index":272,"time_elapsed":557523,"internal_node_id":"0.0-8.0-1.66","subject":"rrj336zygro6hga","sona":"7399"},{"trial_type":"turing-test","trial_index":273,"time_elapsed":560773,"internal_node_id":"0.0-8.0-2.66","subject":"rrj336zygro6hga","sona":"7399"},{"rt":326.8450000032317,"stimulus":"<p>Welche Sequenz haben Sie als natürlicher empfunden?</p>","key_press":70,"test_part":"response","test_stimulus":{"position":1,"left":"bvh/vr_prediction_models/model(tmp)-dataset(pass-bottle-hold)-numprim(13)-hold(1)/final-lines.txt","right":"bvh/pass-bottle-hold-training1-lines.txt","att_check":false},"trial_type":"html-keyboard-response","trial_index":274,"time_elapsed":561112,"internal_node_id":"0.0-8.0-3.66","subject":"rrj336zygro6hga","sona":"7399"},{"rt":214.83500000613276,"stimulus":"<p>Bereit?</p>","key_press":32,"trial_type":"html-keyboard-response","trial_index":275,"time_elapsed":561334,"internal_node_id":"0.0-8.0-0.67","subject":"rrj336zygro6hga","sona":"7399"},{"rt":null,"stimulus":"<div style=\"font-size:60px;\">+</div>","key_press":null,"trial_type":"html-keyboard-response","trial_index":276,"time_elapsed":563354,"internal_node_id":"0.0-8.0-1.67","subject":"rrj336zygro6hga","sona":"7399"},{"trial_type":"turing-test","trial_index":277,"time_elapsed":567020,"internal_node_id":"0.0-8.0-2.67","subject":"rrj336zygro6hga","sona":"7399"},{"rt":338.4550000046147,"stimulus":"<p>Welche Sequenz haben Sie als natürlicher empfunden?</p>","key_press":70,"test_part":"response","test_stimulus":{"position":0,"left":"bvh/pass-bottle-hold-training3-lines.txt","right":"bvh/vr_prediction_models/model(vcgpdm)-dataset(pass-bottle-hold)-mode(ELBO)-parts(3)-dyn(30)-lvm(15)-hold(3)/final-lines.txt","att_check":false},"trial_type":"html-keyboard-response","trial_index":278,"time_elapsed":567370,"internal_node_id":"0.0-8.0-3.67","subject":"rrj336zygro6hga","sona":"7399"},{"rt":272.42999999725726,"stimulus":"<p>Bereit?</p>","key_press":32,"trial_type":"html-keyboard-response","trial_index":279,"time_elapsed":567651,"internal_node_id":"0.0-8.0-0.68","subject":"rrj336zygro6hga","sona":"7399"},{"rt":null,"stimulus":"<div style=\"font-size:60px;\">+</div>","key_press":null,"trial_type":"html-keyboard-response","trial_index":280,"time_elapsed":569675,"internal_node_id":"0.0-8.0-1.68","subject":"rrj336zygro6hga","sona":"7399"},{"trial_type":"turing-test","trial_index":281,"time_elapsed":573454,"internal_node_id":"0.0-8.0-2.68","subject":"rrj336zygro6hga","sona":"7399"},{"rt":236.0049999988405,"stimulus":"<p>Welche Sequenz haben Sie als natürlicher empfunden?</p>","key_press":70,"test_part":"response","test_stimulus":{"position":0,"left":"bvh/pass-bottle-hold-training4-lines.txt","right":"bvh/vr_prediction_models/model(vcgpdm)-dataset(pass-bottle-hold)-mode(ELBO)-parts(1)-dyn(20)-lvm(5)-hold(4)/final-lines.txt","att_check":false},"trial_type":"html-keyboard-response","trial_index":282,"time_elapsed":573701,"internal_node_id":"0.0-8.0-3.68","subject":"rrj336zygro6hga","sona":"7399"},{"rt":281.1599999986356,"stimulus":"<p>Bereit?</p>","key_press":32,"trial_type":"html-keyboard-response","trial_index":283,"time_elapsed":573992,"internal_node_id":"0.0-8.0-0.69","subject":"rrj336zygro6hga","sona":"7399"},{"rt":null,"stimulus":"<div style=\"font-size:60px;\">+</div>","key_press":null,"trial_type":"html-keyboard-response","trial_index":284,"time_elapsed":576020,"internal_node_id":"0.0-8.0-1.69","subject":"rrj336zygro6hga","sona":"7399"},{"trial_type":"turing-test","trial_index":285,"time_elapsed":582256,"internal_node_id":"0.0-8.0-2.69","subject":"rrj336zygro6hga","sona":"7399"},{"rt":380.76499999442603,"stimulus":"<p>Welche Sequenz haben Sie als natürlicher empfunden?</p>","key_press":74,"test_part":"response","test_stimulus":{"position":1,"left":"bvh/vr_prediction_models/model(dmp)-dataset(pass-bottle)-npsi(10)-hold(2)/final-lines.txt","right":"bvh/pass-bottle-training2-lines.txt","att_check":false},"trial_type":"html-keyboard-response","trial_index":286,"time_elapsed":582655,"internal_node_id":"0.0-8.0-3.69","subject":"rrj336zygro6hga","sona":"7399"},{"rt":264.1599999915343,"stimulus":"<p>Bereit?</p>","key_press":32,"trial_type":"html-keyboard-response","trial_index":287,"time_elapsed":582929,"internal_node_id":"0.0-8.0-0.70","subject":"rrj336zygro6hga","sona":"7399"},{"rt":null,"stimulus":"<div style=\"font-size:60px;\">+</div>","key_press":null,"trial_type":"html-keyboard-response","trial_index":288,"time_elapsed":584955,"internal_node_id":"0.0-8.0-1.70","subject":"rrj336zygro6hga","sona":"7399"},{"trial_type":"turing-test","trial_index":289,"time_elapsed":591648,"internal_node_id":"0.0-8.0-2.70","subject":"rrj336zygro6hga","sona":"7399"},{"rt":303.1899999914458,"stimulus":"<p>Welche Sequenz haben Sie als natürlicher empfunden?</p>","key_press":70,"test_part":"response","test_stimulus":{"position":1,"left":"bvh/vr_prediction_models/model(vcgpdm)-dataset(return-bottle)-mode(ELBO)-parts(3)-dyn(10)-lvm(25)-hold(2)/final-lines.txt","right":"bvh/return-bottle-training2-lines.txt","att_check":false},"trial_type":"html-keyboard-response","trial_index":290,"time_elapsed":591966,"internal_node_id":"0.0-8.0-3.70","subject":"rrj336zygro6hga","sona":"7399"},{"rt":256.5949999989243,"stimulus":"<p>Bereit?</p>","key_press":32,"trial_type":"html-keyboard-response","trial_index":291,"time_elapsed":592231,"internal_node_id":"0.0-8.0-0.71","subject":"rrj336zygro6hga","sona":"7399"},{"rt":null,"stimulus":"<div style=\"font-size:60px;\">+</div>","key_press":null,"trial_type":"html-keyboard-response","trial_index":292,"time_elapsed":594241,"internal_node_id":"0.0-8.0-1.71","subject":"rrj336zygro6hga","sona":"7399"},{"trial_type":"turing-test","trial_index":293,"time_elapsed":599753,"internal_node_id":"0.0-8.0-2.71","subject":"rrj336zygro6hga","sona":"7399"},{"rt":310.02999999327585,"stimulus":"<p>Welche Sequenz haben Sie als natürlicher empfunden?</p>","key_press":74,"test_part":"response","test_stimulus":{"position":1,"left":"bvh/vr_prediction_models/model(dmp)-dataset(pass-bottle)-npsi(40)-hold(1)/final-lines.txt","right":"bvh/pass-bottle-training1-lines.txt","att_check":true},"trial_type":"html-keyboard-response","trial_index":294,"time_elapsed":600082,"internal_node_id":"0.0-8.0-3.71","subject":"rrj336zygro6hga","sona":"7399"},{"rt":283.4000000002561,"stimulus":"<p>Bereit?</p>","key_press":32,"trial_type":"html-keyboard-response","trial_index":295,"time_elapsed":600371,"internal_node_id":"0.0-8.0-0.72","subject":"rrj336zygro6hga","sona":"7399"},{"rt":null,"stimulus":"<div style=\"font-size:60px;\">+</div>","key_press":null,"trial_type":"html-keyboard-response","trial_index":296,"time_elapsed":602407,"internal_node_id":"0.0-8.0-1.72","subject":"rrj336zygro6hga","sona":"7399"},{"trial_type":"turing-test","trial_index":297,"time_elapsed":609086,"internal_node_id":"0.0-8.0-2.72","subject":"rrj336zygro6hga","sona":"7399"},{"rt":336.8149999878369,"stimulus":"<p>Welche Sequenz haben Sie als natürlicher empfunden?</p>","key_press":74,"test_part":"response","test_stimulus":{"position":1,"left":"bvh/vr_prediction_models/model(vcgpdm)-dataset(return-bottle)-mode(ELBO)-parts(3)-dyn(20)-lvm(20)-hold(2)/final-lines.txt","right":"bvh/return-bottle-training2-lines.txt","att_check":false},"trial_type":"html-keyboard-response","trial_index":298,"time_elapsed":609441,"internal_node_id":"0.0-8.0-3.72","subject":"rrj336zygro6hga","sona":"7399"},{"rt":259.1450000036275,"stimulus":"<p>Bereit?</p>","key_press":32,"trial_type":"html-keyboard-response","trial_index":299,"time_elapsed":609710,"internal_node_id":"0.0-8.0-0.73","subject":"rrj336zygro6hga","sona":"7399"},{"rt":null,"stimulus":"<div style=\"font-size:60px;\">+</div>","key_press":null,"trial_type":"html-keyboard-response","trial_index":300,"time_elapsed":611739,"internal_node_id":"0.0-8.0-1.73","subject":"rrj336zygro6hga","sona":"7399"},{"trial_type":"turing-test","trial_index":301,"time_elapsed":615253,"internal_node_id":"0.0-8.0-2.73","subject":"rrj336zygro6hga","sona":"7399"},{"rt":681.9799999939278,"stimulus":"<p>Welche Sequenz haben Sie als natürlicher empfunden?</p>","key_press":74,"test_part":"response","test_stimulus":{"position":1,"left":"bvh/vr_prediction_models/model(dmp)-dataset(return-bottle-hold)-npsi(100)-hold(2)/final-lines.txt","right":"bvh/return-bottle-hold-training2-lines.txt","att_check":true},"trial_type":"html-keyboard-response","trial_index":302,"time_elapsed":615945,"internal_node_id":"0.0-8.0-3.73","subject":"rrj336zygro6hga","sona":"7399"},{"rt":266.00000000325963,"stimulus":"<p>Bereit?</p>","key_press":32,"trial_type":"html-keyboard-response","trial_index":303,"time_elapsed":616224,"internal_node_id":"0.0-8.0-0.74","subject":"rrj336zygro6hga","sona":"7399"},{"rt":null,"stimulus":"<div style=\"font-size:60px;\">+</div>","key_press":null,"trial_type":"html-keyboard-response","trial_index":304,"time_elapsed":618240,"internal_node_id":"0.0-8.0-1.74","subject":"rrj336zygro6hga","sona":"7399"},{"trial_type":"turing-test","trial_index":305,"time_elapsed":621655,"internal_node_id":"0.0-8.0-2.74","subject":"rrj336zygro6hga","sona":"7399"},{"rt":315.10000000707805,"stimulus":"<p>Welche Sequenz haben Sie als natürlicher empfunden?</p>","key_press":70,"test_part":"response","test_stimulus":{"position":1,"left":"bvh/vr_prediction_models/model(vcgpdm)-dataset(return-bottle-hold)-mode(ELBO)-parts(3)-dyn(35)-lvm(20)-hold(2)/final-lines.txt","right":"bvh/return-bottle-hold-training2-lines.txt","att_check":false},"trial_type":"html-keyboard-response","trial_index":306,"time_elapsed":621980,"internal_node_id":"0.0-8.0-3.74","subject":"rrj336zygro6hga","sona":"7399"},{"rt":208.36000000417698,"stimulus":"<p>Bereit?</p>","key_press":32,"trial_type":"html-keyboard-response","trial_index":307,"time_elapsed":622196,"internal_node_id":"0.0-8.0-0.75","subject":"rrj336zygro6hga","sona":"7399"},{"rt":null,"stimulus":"<div style=\"font-size:60px;\">+</div>","key_press":null,"trial_type":"html-keyboard-response","trial_index":308,"time_elapsed":624222,"internal_node_id":"0.0-8.0-1.75","subject":"rrj336zygro6hga","sona":"7399"},{"trial_type":"turing-test","trial_index":309,"time_elapsed":627883,"internal_node_id":"0.0-8.0-2.75","subject":"rrj336zygro6hga","sona":"7399"},{"rt":301.68000000412576,"stimulus":"<p>Welche Sequenz haben Sie als natürlicher empfunden?</p>","key_press":74,"test_part":"response","test_stimulus":{"position":1,"left":"bvh/vr_prediction_models/model(tmp)-dataset(return-bottle-hold)-numprim(6)-hold(3)/final-lines.txt","right":"bvh/return-bottle-hold-training3-lines.txt","att_check":false},"trial_type":"html-keyboard-response","trial_index":310,"time_elapsed":628198,"internal_node_id":"0.0-8.0-3.75","subject":"rrj336zygro6hga","sona":"7399"},{"rt":265.24999999674037,"stimulus":"<p>Bereit?</p>","key_press":32,"trial_type":"html-keyboard-response","trial_index":311,"time_elapsed":628476,"internal_node_id":"0.0-8.0-0.76","subject":"rrj336zygro6hga","sona":"7399"},{"rt":null,"stimulus":"<div style=\"font-size:60px;\">+</div>","key_press":null,"trial_type":"html-keyboard-response","trial_index":312,"time_elapsed":630506,"internal_node_id":"0.0-8.0-1.76","subject":"rrj336zygro6hga","sona":"7399"},{"trial_type":"turing-test","trial_index":313,"time_elapsed":635673,"internal_node_id":"0.0-8.0-2.76","subject":"rrj336zygro6hga","sona":"7399"},{"rt":303.4099999931641,"stimulus":"<p>Welche Sequenz haben Sie als natürlicher empfunden?</p>","key_press":70,"test_part":"response","test_stimulus":{"position":0,"left":"bvh/return-bottle-hold-training0-lines.txt","right":"bvh/vr_prediction_models/model(dmp)-dataset(return-bottle-hold)-npsi(50)-hold(0)/final-lines.txt","att_check":false},"trial_type":"html-keyboard-response","trial_index":314,"time_elapsed":635991,"internal_node_id":"0.0-8.0-3.76","subject":"rrj336zygro6hga","sona":"7399"},{"rt":257.3150000098394,"stimulus":"<p>Bereit?</p>","key_press":32,"trial_type":"html-keyboard-response","trial_index":315,"time_elapsed":636259,"internal_node_id":"0.0-8.0-0.77","subject":"rrj336zygro6hga","sona":"7399"},{"rt":null,"stimulus":"<div style=\"font-size:60px;\">+</div>","key_press":null,"trial_type":"html-keyboard-response","trial_index":316,"time_elapsed":638286,"internal_node_id":"0.0-8.0-1.77","subject":"rrj336zygro6hga","sona":"7399"},{"trial_type":"turing-test","trial_index":317,"time_elapsed":641681,"internal_node_id":"0.0-8.0-2.77","subject":"rrj336zygro6hga","sona":"7399"},{"rt":394.5499999972526,"stimulus":"<p>Welche Sequenz haben Sie als natürlicher empfunden?</p>","key_press":70,"test_part":"response","test_stimulus":{"position":0,"left":"bvh/pass-bottle-hold-training2-lines.txt","right":"bvh/vr_prediction_models/model(tmp)-dataset(pass-bottle-hold)-numprim(3)-hold(2)/final-lines.txt","att_check":false},"trial_type":"html-keyboard-response","trial_index":318,"time_elapsed":642087,"internal_node_id":"0.0-8.0-3.77","subject":"rrj336zygro6hga","sona":"7399"},{"rt":223.64999999990687,"stimulus":"<p>Bereit?</p>","key_press":32,"trial_type":"html-keyboard-response","trial_index":319,"time_elapsed":642325,"internal_node_id":"0.0-8.0-0.78","subject":"rrj336zygro6hga","sona":"7399"},{"rt":null,"stimulus":"<div style=\"font-size:60px;\">+</div>","key_press":null,"trial_type":"html-keyboard-response","trial_index":320,"time_elapsed":644353,"internal_node_id":"0.0-8.0-1.78","subject":"rrj336zygro6hga","sona":"7399"},{"trial_type":"turing-test","trial_index":321,"time_elapsed":650288,"internal_node_id":"0.0-8.0-2.78","subject":"rrj336zygro6hga","sona":"7399"},{"rt":166.02999999304302,"stimulus":"<p>Welche Sequenz haben Sie als natürlicher empfunden?</p>","key_press":70,"test_part":"response","test_stimulus":{"position":0,"left":"bvh/pass-bottle-training3-lines.txt","right":"bvh/vr_prediction_models/model(vcgpdm)-dataset(pass-bottle)-mode(ELBO)-parts(3)-dyn(25)-lvm(30)-hold(3)/final-lines.txt","att_check":false},"trial_type":"html-keyboard-response","trial_index":322,"time_elapsed":650466,"internal_node_id":"0.0-8.0-3.78","subject":"rrj336zygro6hga","sona":"7399"},{"rt":225.3950000012992,"stimulus":"<p>Bereit?</p>","key_press":32,"trial_type":"html-keyboard-response","trial_index":323,"time_elapsed":650703,"internal_node_id":"0.0-8.0-0.79","subject":"rrj336zygro6hga","sona":"7399"},{"rt":null,"stimulus":"<div style=\"font-size:60px;\">+</div>","key_press":null,"trial_type":"html-keyboard-response","trial_index":324,"time_elapsed":652719,"internal_node_id":"0.0-8.0-1.79","subject":"rrj336zygro6hga","sona":"7399"},{"trial_type":"turing-test","trial_index":325,"time_elapsed":658973,"internal_node_id":"0.0-8.0-2.79","subject":"rrj336zygro6hga","sona":"7399"},{"rt":316.6800000035437,"stimulus":"<p>Welche Sequenz haben Sie als natürlicher empfunden?</p>","key_press":70,"test_part":"response","test_stimulus":{"position":0,"left":"bvh/pass-bottle-training2-lines.txt","right":"bvh/vr_prediction_models/model(vcgpdm)-dataset(pass-bottle)-mode(ELBO)-parts(3)-dyn(35)-lvm(20)-hold(2)/final-lines.txt","att_check":false},"trial_type":"html-keyboard-response","trial_index":326,"time_elapsed":659308,"internal_node_id":"0.0-8.0-3.79","subject":"rrj336zygro6hga","sona":"7399"},{"rt":7376.644999996643,"responses":"{\"age\":\" 21\",\"gender\":\"weiblich\"}","trial_type":"survey-text","trial_index":327,"time_elapsed":666723,"internal_node_id":"0.0-10.0-0.0","subject":"rrj336zygro6hga","sona":"7399"},{"rt":35678.350000001956,"responses":"{\"area\":\"die Arme und den Kopf\",\"Q1\":\"wenn es zu langsam oder staksig war\",\"Q2\":\"eine Drehung oder eine nach unten/oben Bewegung\"}","trial_type":"survey-text","trial_index":328,"time_elapsed":702441,"internal_node_id":"0.0-10.0-1.0","subject":"rrj336zygro6hga","sona":"7399"}]