[{"rt":1853,"stimulus":"<p>Welcome!<br> Please choose your language to start the experiment in the chosen language.</p><p>Willkommen!<br> Bitte wählen Sie eine Sprache, um das Experiment in der ausgewählten Sprache zu starten</p>","button_pressed":"1","trial_type":"html-button-response","trial_index":0,"time_elapsed":1862,"internal_node_id":"0.0-0.0","subject":"rav2830ce9kup6p","sona":"7624"},{"view_history":"[{\"page_index\":0,\"viewing_time\":773},{\"page_index\":1,\"viewing_time\":768},{\"page_index\":2,\"viewing_time\":551},{\"page_index\":3,\"viewing_time\":847},{\"page_index\":4,\"viewing_time\":1411}]","rt":4350,"trial_type":"instructions","trial_index":1,"time_elapsed":6215,"internal_node_id":"0.0-1.0-0.0","subject":"rav2830ce9kup6p","sona":"7624"},{"rt":1253,"stimulus":"<p>Bereit?</p>","key_press":32,"trial_type":"html-keyboard-response","trial_index":2,"time_elapsed":7469,"internal_node_id":"0.0-3.0","subject":"rav2830ce9kup6p","sona":"7624"},{"rt":null,"stimulus":"<div style=\"font-size:60px;\">+</div>","key_press":null,"trial_type":"html-keyboard-response","trial_index":3,"time_elapsed":9475,"internal_node_id":"0.0-4.0","subject":"rav2830ce9kup6p","sona":"7624"},{"trial_type":"training","trial_index":4,"time_elapsed":12721,"internal_node_id":"0.0-5.0","subject":"rav2830ce9kup6p","sona":"7624"},{"rt":427,"stimulus":"<p>Welche Sequenz haben Sie als natürlicher empfunden?</p>","key_press":70,"trial_type":"html-keyboard-response","trial_index":5,"time_elapsed":13150,"internal_node_id":"0.0-6.0","subject":"rav2830ce9kup6p","sona":"7624"},{"rt":2408,"stimulus":"<p>Das Experiment startet nun.</p><p><small>Bitte drücken Sie den Knopf, wenn Sie bereit sind.</small></p>","button_pressed":"0","trial_type":"html-button-response","trial_index":6,"time_elapsed":15558,"internal_node_id":"0.0-7.0","subject":"rav2830ce9kup6p","sona":"7624"},{"rt":711,"stimulus":"<p>Bereit?</p>","key_press":32,"trial_type":"html-keyboard-response","trial_index":7,"time_elapsed":16270,"internal_node_id":"0.0-8.0-0.0","subject":"rav2830ce9kup6p","sona":"7624"},{"rt":null,"stimulus":"<div style=\"font-size:60px;\">+</div>","key_press":null,"trial_type":"html-keyboard-response","trial_index":8,"time_elapsed":18274,"internal_node_id":"0.0-8.0-1.0","subject":"rav2830ce9kup6p","sona":"7624"},{"trial_type":"turing-test","trial_index":9,"time_elapsed":22134,"internal_node_id":"0.0-8.0-2.0","subject":"rav2830ce9kup6p","sona":"7624"},{"rt":285,"stimulus":"<p>Welche Sequenz haben Sie als natürlicher empfunden?</p>","key_press":70,"test_part":"response","test_stimulus":{"position":1,"left":"bvh/vr_prediction_models/model(tmp)-dataset(return-bottle-hold)-numprim(15)-hold(4)/final-lines.txt","right":"bvh/return-bottle-hold-training4-lines.txt","att_check":false},"trial_type":"html-keyboard-response","trial_index":10,"time_elapsed":22421,"internal_node_id":"0.0-8.0-3.0","subject":"rav2830ce9kup6p","sona":"7624"},{"rt":334,"stimulus":"<p>Bereit?</p>","key_press":32,"trial_type":"html-keyboard-response","trial_index":11,"time_elapsed":22756,"internal_node_id":"0.0-8.0-0.1","subject":"rav2830ce9kup6p","sona":"7624"},{"rt":null,"stimulus":"<div style=\"font-size:60px;\">+</div>","key_press":null,"trial_type":"html-keyboard-response","trial_index":12,"time_elapsed":24761,"internal_node_id":"0.0-8.0-1.1","subject":"rav2830ce9kup6p","sona":"7624"},{"trial_type":"turing-test","trial_index":13,"time_elapsed":31105,"internal_node_id":"0.0-8.0-2.1","subject":"rav2830ce9kup6p","sona":"7624"},{"rt":1267,"stimulus":"<p>Welche Sequenz haben Sie als natürlicher empfunden?</p>","key_press":70,"test_part":"response","test_stimulus":{"position":0,"left":"bvh/pass-bottle-training3-lines.txt","right":"bvh/vr_prediction_models/model(vcgpdm)-dataset(pass-bottle)-mode(MAP)-parts(3)-hold(3)/final-lines.txt","att_check":false},"trial_type":"html-keyboard-response","trial_index":14,"time_elapsed":32372,"internal_node_id":"0.0-8.0-3.1","subject":"rav2830ce9kup6p","sona":"7624"},{"rt":342,"stimulus":"<p>Bereit?</p>","key_press":32,"trial_type":"html-keyboard-response","trial_index":15,"time_elapsed":32716,"internal_node_id":"0.0-8.0-0.2","subject":"rav2830ce9kup6p","sona":"7624"},{"rt":null,"stimulus":"<div style=\"font-size:60px;\">+</div>","key_press":null,"trial_type":"html-keyboard-response","trial_index":16,"time_elapsed":34724,"internal_node_id":"0.0-8.0-1.2","subject":"rav2830ce9kup6p","sona":"7624"},{"trial_type":"turing-test","trial_index":17,"time_elapsed":40216,"internal_node_id":"0.0-8.0-2.2","subject":"rav2830ce9kup6p","sona":"7624"},{"rt":533,"stimulus":"<p>Welche Sequenz haben Sie als natürlicher empfunden?</p>","key_press":70,"test_part":"response","test_stimulus":{"position":0,"left":"bvh/return-bottle-hold-training0-lines.txt","right":"bvh/vr_prediction_models/model(vcgpdm)-dataset(return-bottle-hold)-mode(ELBO)-parts(3)-dyn(25)-lvm(15)-hold(0)/final-lines.txt","att_check":false},"trial_type":"html-keyboard-response","trial_index":18,"time_elapsed":40749,"internal_node_id":"0.0-8.0-3.2","subject":"rav2830ce9kup6p","sona":"7624"},{"rt":312,"stimulus":"<p>Bereit?</p>","key_press":32,"trial_type":"html-keyboard-response","trial_index":19,"time_elapsed":41061,"internal_node_id":"0.0-8.0-0.3","subject":"rav2830ce9kup6p","sona":"7624"},{"rt":null,"stimulus":"<div style=\"font-size:60px;\">+</div>","key_press":null,"trial_type":"html-keyboard-response","trial_index":20,"time_elapsed":43063,"internal_node_id":"0.0-8.0-1.3","subject":"rav2830ce9kup6p","sona":"7624"},{"trial_type":"turing-test","trial_index":21,"time_elapsed":46782,"internal_node_id":"0.0-8.0-2.3","subject":"rav2830ce9kup6p","sona":"7624"},{"rt":886,"stimulus":"<p>Welche Sequenz haben Sie als natürlicher empfunden?</p>","key_press":74,"test_part":"response","test_stimulus":{"position":1,"left":"bvh/vr_prediction_models/model(dmp)-dataset(return-bottle-hold)-npsi(30)-hold(4)/final-lines.txt","right":"bvh/return-bottle-hold-training4-lines.txt","att_check":false},"trial_type":"html-keyboard-response","trial_index":22,"time_elapsed":47669,"internal_node_id":"0.0-8.0-3.3","subject":"rav2830ce9kup6p","sona":"7624"},{"rt":1519,"stimulus":"<p>Bereit?</p>","key_press":32,"trial_type":"html-keyboard-response","trial_index":23,"time_elapsed":49189,"internal_node_id":"0.0-8.0-0.4","subject":"rav2830ce9kup6p","sona":"7624"},{"rt":null,"stimulus":"<div style=\"font-size:60px;\">+</div>","key_press":null,"trial_type":"html-keyboard-response","trial_index":24,"time_elapsed":51193,"internal_node_id":"0.0-8.0-1.4","subject":"rav2830ce9kup6p","sona":"7624"},{"trial_type":"turing-test","trial_index":25,"time_elapsed":56150,"internal_node_id":"0.0-8.0-2.4","subject":"rav2830ce9kup6p","sona":"7624"},{"rt":526,"stimulus":"<p>Welche Sequenz haben Sie als natürlicher empfunden?</p>","key_press":70,"test_part":"response","test_stimulus":{"position":0,"left":"bvh/return-bottle-hold-training0-lines.txt","right":"bvh/vr_prediction_models/model(tmp)-dataset(return-bottle-hold)-numprim(5)-hold(0)/final-lines.txt","att_check":false},"trial_type":"html-keyboard-response","trial_index":26,"time_elapsed":56677,"internal_node_id":"0.0-8.0-3.4","subject":"rav2830ce9kup6p","sona":"7624"},{"rt":406,"stimulus":"<p>Bereit?</p>","key_press":32,"trial_type":"html-keyboard-response","trial_index":27,"time_elapsed":57085,"internal_node_id":"0.0-8.0-0.5","subject":"rav2830ce9kup6p","sona":"7624"},{"rt":null,"stimulus":"<div style=\"font-size:60px;\">+</div>","key_press":null,"trial_type":"html-keyboard-response","trial_index":28,"time_elapsed":59093,"internal_node_id":"0.0-8.0-1.5","subject":"rav2830ce9kup6p","sona":"7624"},{"trial_type":"turing-test","trial_index":29,"time_elapsed":65399,"internal_node_id":"0.0-8.0-2.5","subject":"rav2830ce9kup6p","sona":"7624"},{"rt":293,"stimulus":"<p>Welche Sequenz haben Sie als natürlicher empfunden?</p>","key_press":70,"test_part":"response","test_stimulus":{"position":0,"left":"bvh/return-bottle-training1-lines.txt","right":"bvh/vr_prediction_models/model(vcgpdm)-dataset(return-bottle)-mode(ELBO)-parts(1)-dyn(35)-lvm(30)-hold(1)/final-lines.txt","att_check":false},"trial_type":"html-keyboard-response","trial_index":30,"time_elapsed":65693,"internal_node_id":"0.0-8.0-3.5","subject":"rav2830ce9kup6p","sona":"7624"},{"rt":326,"stimulus":"<p>Bereit?</p>","key_press":32,"trial_type":"html-keyboard-response","trial_index":31,"time_elapsed":66021,"internal_node_id":"0.0-8.0-0.6","subject":"rav2830ce9kup6p","sona":"7624"},{"rt":null,"stimulus":"<div style=\"font-size:60px;\">+</div>","key_press":null,"trial_type":"html-keyboard-response","trial_index":32,"time_elapsed":68026,"internal_node_id":"0.0-8.0-1.6","subject":"rav2830ce9kup6p","sona":"7624"},{"trial_type":"turing-test","trial_index":33,"time_elapsed":71269,"internal_node_id":"0.0-8.0-2.6","subject":"rav2830ce9kup6p","sona":"7624"},{"rt":416,"stimulus":"<p>Welche Sequenz haben Sie als natürlicher empfunden?</p>","key_press":70,"test_part":"response","test_stimulus":{"position":1,"left":"bvh/vr_prediction_models/model(vcgpdm)-dataset(return-bottle-hold)-mode(ELBO)-parts(1)-dyn(15)-lvm(35)-hold(1)/final-lines.txt","right":"bvh/return-bottle-hold-training1-lines.txt","att_check":false},"trial_type":"html-keyboard-response","trial_index":34,"time_elapsed":71685,"internal_node_id":"0.0-8.0-3.6","subject":"rav2830ce9kup6p","sona":"7624"},{"rt":283,"stimulus":"<p>Bereit?</p>","key_press":32,"trial_type":"html-keyboard-response","trial_index":35,"time_elapsed":71968,"internal_node_id":"0.0-8.0-0.7","subject":"rav2830ce9kup6p","sona":"7624"},{"rt":null,"stimulus":"<div style=\"font-size:60px;\">+</div>","key_press":null,"trial_type":"html-keyboard-response","trial_index":36,"time_elapsed":73977,"internal_node_id":"0.0-8.0-1.7","subject":"rav2830ce9kup6p","sona":"7624"},{"trial_type":"turing-test","trial_index":37,"time_elapsed":79509,"internal_node_id":"0.0-8.0-2.7","subject":"rav2830ce9kup6p","sona":"7624"},{"rt":600,"stimulus":"<p>Welche Sequenz haben Sie als natürlicher empfunden?</p>","key_press":70,"test_part":"response","test_stimulus":{"position":1,"left":"bvh/vr_prediction_models/model(tmp)-dataset(return-bottle)-numprim(8)-hold(0)/final-lines.txt","right":"bvh/return-bottle-training0-lines.txt","att_check":false},"trial_type":"html-keyboard-response","trial_index":38,"time_elapsed":80109,"internal_node_id":"0.0-8.0-3.7","subject":"rav2830ce9kup6p","sona":"7624"},{"rt":246,"stimulus":"<p>Bereit?</p>","key_press":32,"trial_type":"html-keyboard-response","trial_index":39,"time_elapsed":80357,"internal_node_id":"0.0-8.0-0.8","subject":"rav2830ce9kup6p","sona":"7624"},{"rt":null,"stimulus":"<div style=\"font-size:60px;\">+</div>","key_press":null,"trial_type":"html-keyboard-response","trial_index":40,"time_elapsed":82362,"internal_node_id":"0.0-8.0-1.8","subject":"rav2830ce9kup6p","sona":"7624"},{"trial_type":"turing-test","trial_index":41,"time_elapsed":88965,"internal_node_id":"0.0-8.0-2.8","subject":"rav2830ce9kup6p","sona":"7624"},{"rt":455,"stimulus":"<p>Welche Sequenz haben Sie als natürlicher empfunden?</p>","key_press":74,"test_part":"response","test_stimulus":{"position":1,"left":"bvh/vr_prediction_models/model(tmp)-dataset(pass-bottle)-numprim(4)-hold(0)/final-lines.txt","right":"bvh/pass-bottle-training0-lines.txt","att_check":false},"trial_type":"html-keyboard-response","trial_index":42,"time_elapsed":89421,"internal_node_id":"0.0-8.0-3.8","subject":"rav2830ce9kup6p","sona":"7624"},{"rt":215,"stimulus":"<p>Bereit?</p>","key_press":32,"trial_type":"html-keyboard-response","trial_index":43,"time_elapsed":89637,"internal_node_id":"0.0-8.0-0.9","subject":"rav2830ce9kup6p","sona":"7624"},{"rt":null,"stimulus":"<div style=\"font-size:60px;\">+</div>","key_press":null,"trial_type":"html-keyboard-response","trial_index":44,"time_elapsed":91644,"internal_node_id":"0.0-8.0-1.9","subject":"rav2830ce9kup6p","sona":"7624"},{"trial_type":"turing-test","trial_index":45,"time_elapsed":98226,"internal_node_id":"0.0-8.0-2.9","subject":"rav2830ce9kup6p","sona":"7624"},{"rt":524,"stimulus":"<p>Welche Sequenz haben Sie als natürlicher empfunden?</p>","key_press":70,"test_part":"response","test_stimulus":{"position":0,"left":"bvh/return-bottle-training4-lines.txt","right":"bvh/vr_prediction_models/model(vcgpdm)-dataset(return-bottle)-mode(ELBO)-parts(1)-dyn(10)-lvm(5)-hold(4)/final-lines.txt","att_check":false},"trial_type":"html-keyboard-response","trial_index":46,"time_elapsed":98749,"internal_node_id":"0.0-8.0-3.9","subject":"rav2830ce9kup6p","sona":"7624"},{"rt":357,"stimulus":"<p>Bereit?</p>","key_press":32,"trial_type":"html-keyboard-response","trial_index":47,"time_elapsed":99110,"internal_node_id":"0.0-8.0-0.10","subject":"rav2830ce9kup6p","sona":"7624"},{"rt":null,"stimulus":"<div style=\"font-size:60px;\">+</div>","key_press":null,"trial_type":"html-keyboard-response","trial_index":48,"time_elapsed":101117,"internal_node_id":"0.0-8.0-1.10","subject":"rav2830ce9kup6p","sona":"7624"},{"trial_type":"turing-test","trial_index":49,"time_elapsed":105515,"internal_node_id":"0.0-8.0-2.10","subject":"rav2830ce9kup6p","sona":"7624"},{"rt":74,"stimulus":"<p>Welche Sequenz haben Sie als natürlicher empfunden?</p>","key_press":74,"test_part":"response","test_stimulus":{"position":0,"left":"bvh/return-bottle-hold-training3-lines.txt","right":"bvh/vr_prediction_models/model(vcgpdm)-dataset(return-bottle-hold)-mode(ELBO)-parts(1)-dyn(35)-lvm(10)-hold(3)/final-lines.txt","att_check":false},"trial_type":"html-keyboard-response","trial_index":50,"time_elapsed":105591,"internal_node_id":"0.0-8.0-3.10","subject":"rav2830ce9kup6p","sona":"7624"},{"rt":231,"stimulus":"<p>Bereit?</p>","key_press":32,"trial_type":"html-keyboard-response","trial_index":51,"time_elapsed":105821,"internal_node_id":"0.0-8.0-0.11","subject":"rav2830ce9kup6p","sona":"7624"},{"rt":null,"stimulus":"<div style=\"font-size:60px;\">+</div>","key_press":null,"trial_type":"html-keyboard-response","trial_index":52,"time_elapsed":107825,"internal_node_id":"0.0-8.0-1.11","subject":"rav2830ce9kup6p","sona":"7624"},{"trial_type":"turing-test","trial_index":53,"time_elapsed":111456,"internal_node_id":"0.0-8.0-2.11","subject":"rav2830ce9kup6p","sona":"7624"},{"rt":662,"stimulus":"<p>Welche Sequenz haben Sie als natürlicher empfunden?</p>","key_press":74,"test_part":"response","test_stimulus":{"position":0,"left":"bvh/pass-bottle-hold-training0-lines.txt","right":"bvh/vr_prediction_models/model(dmp)-dataset(pass-bottle-hold)-npsi(30)-hold(0)/final-lines.txt","att_check":false},"trial_type":"html-keyboard-response","trial_index":54,"time_elapsed":112119,"internal_node_id":"0.0-8.0-3.11","subject":"rav2830ce9kup6p","sona":"7624"},{"rt":221,"stimulus":"<p>Bereit?</p>","key_press":32,"trial_type":"html-keyboard-response","trial_index":55,"time_elapsed":112342,"internal_node_id":"0.0-8.0-0.12","subject":"rav2830ce9kup6p","sona":"7624"},{"rt":null,"stimulus":"<div style=\"font-size:60px;\">+</div>","key_press":null,"trial_type":"html-keyboard-response","trial_index":56,"time_elapsed":114345,"internal_node_id":"0.0-8.0-1.12","subject":"rav2830ce9kup6p","sona":"7624"},{"trial_type":"turing-test","trial_index":57,"time_elapsed":120160,"internal_node_id":"0.0-8.0-2.12","subject":"rav2830ce9kup6p","sona":"7624"},{"rt":141,"stimulus":"<p>Welche Sequenz haben Sie als natürlicher empfunden?</p>","key_press":70,"test_part":"response","test_stimulus":{"position":1,"left":"bvh/vr_prediction_models/model(vcgpdm)-dataset(pass-bottle)-mode(ELBO)-parts(1)-dyn(30)-lvm(35)-hold(1)/final-lines.txt","right":"bvh/pass-bottle-training1-lines.txt","att_check":false},"trial_type":"html-keyboard-response","trial_index":58,"time_elapsed":120302,"internal_node_id":"0.0-8.0-3.12","subject":"rav2830ce9kup6p","sona":"7624"},{"rt":343,"stimulus":"<p>Bereit?</p>","key_press":32,"trial_type":"html-keyboard-response","trial_index":59,"time_elapsed":120646,"internal_node_id":"0.0-8.0-0.13","subject":"rav2830ce9kup6p","sona":"7624"},{"rt":null,"stimulus":"<div style=\"font-size:60px;\">+</div>","key_press":null,"trial_type":"html-keyboard-response","trial_index":60,"time_elapsed":122651,"internal_node_id":"0.0-8.0-1.13","subject":"rav2830ce9kup6p","sona":"7624"},{"trial_type":"turing-test","trial_index":61,"time_elapsed":128385,"internal_node_id":"0.0-8.0-2.13","subject":"rav2830ce9kup6p","sona":"7624"},{"rt":292,"stimulus":"<p>Welche Sequenz haben Sie als natürlicher empfunden?</p>","key_press":70,"test_part":"response","test_stimulus":{"position":0,"left":"bvh/return-bottle-training4-lines.txt","right":"bvh/vr_prediction_models/model(tmp)-dataset(return-bottle)-numprim(4)-hold(4)/final-lines.txt","att_check":false},"trial_type":"html-keyboard-response","trial_index":62,"time_elapsed":128679,"internal_node_id":"0.0-8.0-3.13","subject":"rav2830ce9kup6p","sona":"7624"},{"rt":223,"stimulus":"<p>Bereit?</p>","key_press":32,"trial_type":"html-keyboard-response","trial_index":63,"time_elapsed":128902,"internal_node_id":"0.0-8.0-0.14","subject":"rav2830ce9kup6p","sona":"7624"},{"rt":null,"stimulus":"<div style=\"font-size:60px;\">+</div>","key_press":null,"trial_type":"html-keyboard-response","trial_index":64,"time_elapsed":130907,"internal_node_id":"0.0-8.0-1.14","subject":"rav2830ce9kup6p","sona":"7624"},{"trial_type":"turing-test","trial_index":65,"time_elapsed":136796,"internal_node_id":"0.0-8.0-2.14","subject":"rav2830ce9kup6p","sona":"7624"},{"rt":162,"stimulus":"<p>Welche Sequenz haben Sie als natürlicher empfunden?</p>","key_press":70,"test_part":"response","test_stimulus":{"position":1,"left":"bvh/vr_prediction_models/model(vcgpdm)-dataset(return-bottle-hold)-mode(ELBO)-parts(1)-dyn(35)-lvm(30)-hold(0)/final-lines.txt","right":"bvh/return-bottle-hold-training0-lines.txt","att_check":false},"trial_type":"html-keyboard-response","trial_index":66,"time_elapsed":136959,"internal_node_id":"0.0-8.0-3.14","subject":"rav2830ce9kup6p","sona":"7624"},{"rt":278,"stimulus":"<p>Bereit?</p>","key_press":32,"trial_type":"html-keyboard-response","trial_index":67,"time_elapsed":137238,"internal_node_id":"0.0-8.0-0.15","subject":"rav2830ce9kup6p","sona":"7624"},{"rt":null,"stimulus":"<div style=\"font-size:60px;\">+</div>","key_press":null,"trial_type":"html-keyboard-response","trial_index":68,"time_elapsed":139240,"internal_node_id":"0.0-8.0-1.15","subject":"rav2830ce9kup6p","sona":"7624"},{"trial_type":"turing-test","trial_index":69,"time_elapsed":145046,"internal_node_id":"0.0-8.0-2.15","subject":"rav2830ce9kup6p","sona":"7624"},{"rt":1903,"stimulus":"<p>Welche Sequenz haben Sie als natürlicher empfunden?</p>","key_press":70,"test_part":"response","test_stimulus":{"position":0,"left":"bvh/pass-bottle-training3-lines.txt","right":"bvh/vr_prediction_models/model(dmp)-dataset(pass-bottle)-npsi(50)-hold(3)/final-lines.txt","att_check":false},"trial_type":"html-keyboard-response","trial_index":70,"time_elapsed":146950,"internal_node_id":"0.0-8.0-3.15","subject":"rav2830ce9kup6p","sona":"7624"},{"rt":190,"stimulus":"<p>Bereit?</p>","key_press":32,"trial_type":"html-keyboard-response","trial_index":71,"time_elapsed":147143,"internal_node_id":"0.0-8.0-0.16","subject":"rav2830ce9kup6p","sona":"7624"},{"rt":null,"stimulus":"<div style=\"font-size:60px;\">+</div>","key_press":null,"trial_type":"html-keyboard-response","trial_index":72,"time_elapsed":149149,"internal_node_id":"0.0-8.0-1.16","subject":"rav2830ce9kup6p","sona":"7624"},{"trial_type":"turing-test","trial_index":73,"time_elapsed":154918,"internal_node_id":"0.0-8.0-2.16","subject":"rav2830ce9kup6p","sona":"7624"},{"rt":776,"stimulus":"<p>Welche Sequenz haben Sie als natürlicher empfunden?</p>","key_press":74,"test_part":"response","test_stimulus":{"position":1,"left":"bvh/vr_prediction_models/model(dmp)-dataset(return-bottle)-npsi(90)-hold(4)/final-lines.txt","right":"bvh/return-bottle-training4-lines.txt","att_check":true},"trial_type":"html-keyboard-response","trial_index":74,"time_elapsed":155695,"internal_node_id":"0.0-8.0-3.16","subject":"rav2830ce9kup6p","sona":"7624"},{"rt":382,"stimulus":"<p>Bereit?</p>","key_press":32,"trial_type":"html-keyboard-response","trial_index":75,"time_elapsed":156079,"internal_node_id":"0.0-8.0-0.17","subject":"rav2830ce9kup6p","sona":"7624"},{"rt":null,"stimulus":"<div style=\"font-size:60px;\">+</div>","key_press":null,"trial_type":"html-keyboard-response","trial_index":76,"time_elapsed":158084,"internal_node_id":"0.0-8.0-1.17","subject":"rav2830ce9kup6p","sona":"7624"},{"trial_type":"turing-test","trial_index":77,"time_elapsed":163540,"internal_node_id":"0.0-8.0-2.17","subject":"rav2830ce9kup6p","sona":"7624"},{"rt":361,"stimulus":"<p>Welche Sequenz haben Sie als natürlicher empfunden?</p>","key_press":70,"test_part":"response","test_stimulus":{"position":1,"left":"bvh/vr_prediction_models/model(tmp)-dataset(return-bottle)-numprim(3)-hold(0)/final-lines.txt","right":"bvh/return-bottle-training0-lines.txt","att_check":false},"trial_type":"html-keyboard-response","trial_index":78,"time_elapsed":163903,"internal_node_id":"0.0-8.0-3.17","subject":"rav2830ce9kup6p","sona":"7624"},{"rt":270,"stimulus":"<p>Bereit?</p>","key_press":32,"trial_type":"html-keyboard-response","trial_index":79,"time_elapsed":164174,"internal_node_id":"0.0-8.0-0.18","subject":"rav2830ce9kup6p","sona":"7624"},{"rt":null,"stimulus":"<div style=\"font-size:60px;\">+</div>","key_press":null,"trial_type":"html-keyboard-response","trial_index":80,"time_elapsed":166178,"internal_node_id":"0.0-8.0-1.18","subject":"rav2830ce9kup6p","sona":"7624"},{"trial_type":"turing-test","trial_index":81,"time_elapsed":170221,"internal_node_id":"0.0-8.0-2.18","subject":"rav2830ce9kup6p","sona":"7624"},{"rt":720,"stimulus":"<p>Welche Sequenz haben Sie als natürlicher empfunden?</p>","key_press":74,"test_part":"response","test_stimulus":{"position":0,"left":"bvh/return-bottle-hold-training4-lines.txt","right":"bvh/vr_prediction_models/model(vcgpdm)-dataset(return-bottle-hold)-mode(ELBO)-parts(3)-dyn(10)-lvm(10)-hold(4)/final-lines.txt","att_check":false},"trial_type":"html-keyboard-response","trial_index":82,"time_elapsed":170943,"internal_node_id":"0.0-8.0-3.18","subject":"rav2830ce9kup6p","sona":"7624"},{"rt":222,"stimulus":"<p>Bereit?</p>","key_press":32,"trial_type":"html-keyboard-response","trial_index":83,"time_elapsed":171167,"internal_node_id":"0.0-8.0-0.19","subject":"rav2830ce9kup6p","sona":"7624"},{"rt":null,"stimulus":"<div style=\"font-size:60px;\">+</div>","key_press":null,"trial_type":"html-keyboard-response","trial_index":84,"time_elapsed":173170,"internal_node_id":"0.0-8.0-1.19","subject":"rav2830ce9kup6p","sona":"7624"},{"trial_type":"turing-test","trial_index":85,"time_elapsed":176718,"internal_node_id":"0.0-8.0-2.19","subject":"rav2830ce9kup6p","sona":"7624"},{"rt":542,"stimulus":"<p>Welche Sequenz haben Sie als natürlicher empfunden?</p>","key_press":70,"test_part":"response","test_stimulus":{"position":1,"left":"bvh/vr_prediction_models/model(dmp)-dataset(pass-bottle-hold)-npsi(10)-hold(4)/final-lines.txt","right":"bvh/pass-bottle-hold-training4-lines.txt","att_check":false},"trial_type":"html-keyboard-response","trial_index":86,"time_elapsed":177263,"internal_node_id":"0.0-8.0-3.19","subject":"rav2830ce9kup6p","sona":"7624"},{"rt":598,"stimulus":"<p>Bereit?</p>","key_press":32,"trial_type":"html-keyboard-response","trial_index":87,"time_elapsed":177863,"internal_node_id":"0.0-8.0-0.20","subject":"rav2830ce9kup6p","sona":"7624"},{"rt":null,"stimulus":"<div style=\"font-size:60px;\">+</div>","key_press":null,"trial_type":"html-keyboard-response","trial_index":88,"time_elapsed":179871,"internal_node_id":"0.0-8.0-1.20","subject":"rav2830ce9kup6p","sona":"7624"},{"trial_type":"turing-test","trial_index":89,"time_elapsed":185667,"internal_node_id":"0.0-8.0-2.20","subject":"rav2830ce9kup6p","sona":"7624"},{"rt":257,"stimulus":"<p>Welche Sequenz haben Sie als natürlicher empfunden?</p>","key_press":74,"test_part":"response","test_stimulus":{"position":1,"left":"bvh/vr_prediction_models/model(tmp)-dataset(pass-bottle)-numprim(9)-hold(3)/final-lines.txt","right":"bvh/pass-bottle-training3-lines.txt","att_check":false},"trial_type":"html-keyboard-response","trial_index":90,"time_elapsed":185925,"internal_node_id":"0.0-8.0-3.20","subject":"rav2830ce9kup6p","sona":"7624"},{"rt":310,"stimulus":"<p>Bereit?</p>","key_press":32,"trial_type":"html-keyboard-response","trial_index":91,"time_elapsed":186237,"internal_node_id":"0.0-8.0-0.21","subject":"rav2830ce9kup6p","sona":"7624"},{"rt":null,"stimulus":"<div style=\"font-size:60px;\">+</div>","key_press":null,"trial_type":"html-keyboard-response","trial_index":92,"time_elapsed":188240,"internal_node_id":"0.0-8.0-1.21","subject":"rav2830ce9kup6p","sona":"7624"},{"trial_type":"turing-test","trial_index":93,"time_elapsed":192222,"internal_node_id":"0.0-8.0-2.21","subject":"rav2830ce9kup6p","sona":"7624"},{"rt":334,"stimulus":"<p>Welche Sequenz haben Sie als natürlicher empfunden?</p>","key_press":70,"test_part":"response","test_stimulus":{"position":1,"left":"bvh/vr_prediction_models/model(vcgpdm)-dataset(return-bottle-hold)-mode(ELBO)-parts(3)-dyn(20)-lvm(15)-hold(3)/final-lines.txt","right":"bvh/return-bottle-hold-training3-lines.txt","att_check":false},"trial_type":"html-keyboard-response","trial_index":94,"time_elapsed":192558,"internal_node_id":"0.0-8.0-3.21","subject":"rav2830ce9kup6p","sona":"7624"},{"rt":222,"stimulus":"<p>Bereit?</p>","key_press":32,"trial_type":"html-keyboard-response","trial_index":95,"time_elapsed":192781,"internal_node_id":"0.0-8.0-0.22","subject":"rav2830ce9kup6p","sona":"7624"},{"rt":null,"stimulus":"<div style=\"font-size:60px;\">+</div>","key_press":null,"trial_type":"html-keyboard-response","trial_index":96,"time_elapsed":194786,"internal_node_id":"0.0-8.0-1.22","subject":"rav2830ce9kup6p","sona":"7624"},{"trial_type":"turing-test","trial_index":97,"time_elapsed":200542,"internal_node_id":"0.0-8.0-2.22","subject":"rav2830ce9kup6p","sona":"7624"},{"rt":422,"stimulus":"<p>Welche Sequenz haben Sie als natürlicher empfunden?</p>","key_press":74,"test_part":"response","test_stimulus":{"position":0,"left":"bvh/return-bottle-training3-lines.txt","right":"bvh/vr_prediction_models/model(tmp)-dataset(return-bottle)-numprim(11)-hold(3)/final-lines.txt","att_check":false},"trial_type":"html-keyboard-response","trial_index":98,"time_elapsed":200965,"internal_node_id":"0.0-8.0-3.22","subject":"rav2830ce9kup6p","sona":"7624"},{"rt":775,"stimulus":"<p>Bereit?</p>","key_press":32,"trial_type":"html-keyboard-response","trial_index":99,"time_elapsed":201741,"internal_node_id":"0.0-8.0-0.23","subject":"rav2830ce9kup6p","sona":"7624"},{"rt":null,"stimulus":"<div style=\"font-size:60px;\">+</div>","key_press":null,"trial_type":"html-keyboard-response","trial_index":100,"time_elapsed":203743,"internal_node_id":"0.0-8.0-1.23","subject":"rav2830ce9kup6p","sona":"7624"},{"trial_type":"turing-test","trial_index":101,"time_elapsed":207067,"internal_node_id":"0.0-8.0-2.23","subject":"rav2830ce9kup6p","sona":"7624"},{"rt":569,"stimulus":"<p>Welche Sequenz haben Sie als natürlicher empfunden?</p>","key_press":74,"test_part":"response","test_stimulus":{"position":0,"left":"bvh/pass-bottle-hold-training2-lines.txt","right":"bvh/vr_prediction_models/model(dmp)-dataset(pass-bottle-hold)-npsi(50)-hold(2)/final-lines.txt","att_check":false},"trial_type":"html-keyboard-response","trial_index":102,"time_elapsed":207638,"internal_node_id":"0.0-8.0-3.23","subject":"rav2830ce9kup6p","sona":"7624"},{"rt":414,"stimulus":"<p>Bereit?</p>","key_press":32,"trial_type":"html-keyboard-response","trial_index":103,"time_elapsed":208054,"internal_node_id":"0.0-8.0-0.24","subject":"rav2830ce9kup6p","sona":"7624"},{"rt":null,"stimulus":"<div style=\"font-size:60px;\">+</div>","key_press":null,"trial_type":"html-keyboard-response","trial_index":104,"time_elapsed":210056,"internal_node_id":"0.0-8.0-1.24","subject":"rav2830ce9kup6p","sona":"7624"},{"trial_type":"turing-test","trial_index":105,"time_elapsed":215612,"internal_node_id":"0.0-8.0-2.24","subject":"rav2830ce9kup6p","sona":"7624"},{"rt":3753,"stimulus":"<p>Welche Sequenz haben Sie als natürlicher empfunden?</p>","key_press":70,"test_part":"response","test_stimulus":{"position":1,"left":"bvh/vr_prediction_models/model(tmp)-dataset(pass-bottle)-numprim(8)-hold(1)/final-lines.txt","right":"bvh/pass-bottle-training1-lines.txt","att_check":false},"trial_type":"html-keyboard-response","trial_index":106,"time_elapsed":219366,"internal_node_id":"0.0-8.0-3.24","subject":"rav2830ce9kup6p","sona":"7624"},{"rt":1693,"stimulus":"<p>Bereit?</p>","key_press":32,"trial_type":"html-keyboard-response","trial_index":107,"time_elapsed":221062,"internal_node_id":"0.0-8.0-0.25","subject":"rav2830ce9kup6p","sona":"7624"},{"rt":null,"stimulus":"<div style=\"font-size:60px;\">+</div>","key_press":null,"trial_type":"html-keyboard-response","trial_index":108,"time_elapsed":223063,"internal_node_id":"0.0-8.0-1.25","subject":"rav2830ce9kup6p","sona":"7624"},{"trial_type":"turing-test","trial_index":109,"time_elapsed":230086,"internal_node_id":"0.0-8.0-2.25","subject":"rav2830ce9kup6p","sona":"7624"},{"rt":2263,"stimulus":"<p>Welche Sequenz haben Sie als natürlicher empfunden?</p>","key_press":74,"test_part":"response","test_stimulus":{"position":0,"left":"bvh/return-bottle-training2-lines.txt","right":"bvh/vr_prediction_models/model(vcgpdm)-dataset(return-bottle)-mode(ELBO)-parts(1)-dyn(10)-lvm(30)-hold(2)/final-lines.txt","att_check":false},"trial_type":"html-keyboard-response","trial_index":110,"time_elapsed":232350,"internal_node_id":"0.0-8.0-3.25","subject":"rav2830ce9kup6p","sona":"7624"},{"rt":574,"stimulus":"<p>Bereit?</p>","key_press":32,"trial_type":"html-keyboard-response","trial_index":111,"time_elapsed":232926,"internal_node_id":"0.0-8.0-0.26","subject":"rav2830ce9kup6p","sona":"7624"},{"rt":null,"stimulus":"<div style=\"font-size:60px;\">+</div>","key_press":null,"trial_type":"html-keyboard-response","trial_index":112,"time_elapsed":234933,"internal_node_id":"0.0-8.0-1.26","subject":"rav2830ce9kup6p","sona":"7624"},{"trial_type":"turing-test","trial_index":113,"time_elapsed":238615,"internal_node_id":"0.0-8.0-2.26","subject":"rav2830ce9kup6p","sona":"7624"},{"rt":365,"stimulus":"<p>Welche Sequenz haben Sie als natürlicher empfunden?</p>","key_press":74,"test_part":"response","test_stimulus":{"position":0,"left":"bvh/return-bottle-hold-training1-lines.txt","right":"bvh/vr_prediction_models/model(vcgpdm)-dataset(return-bottle-hold)-mode(ELBO)-parts(1)-dyn(20)-lvm(20)-hold(1)/final-lines.txt","att_check":false},"trial_type":"html-keyboard-response","trial_index":114,"time_elapsed":238982,"internal_node_id":"0.0-8.0-3.26","subject":"rav2830ce9kup6p","sona":"7624"},{"rt":342,"stimulus":"<p>Bereit?</p>","key_press":32,"trial_type":"html-keyboard-response","trial_index":115,"time_elapsed":239327,"internal_node_id":"0.0-8.0-0.27","subject":"rav2830ce9kup6p","sona":"7624"},{"rt":null,"stimulus":"<div style=\"font-size:60px;\">+</div>","key_press":null,"trial_type":"html-keyboard-response","trial_index":116,"time_elapsed":241329,"internal_node_id":"0.0-8.0-1.27","subject":"rav2830ce9kup6p","sona":"7624"},{"trial_type":"turing-test","trial_index":117,"time_elapsed":244907,"internal_node_id":"0.0-8.0-2.27","subject":"rav2830ce9kup6p","sona":"7624"},{"rt":650,"stimulus":"<p>Welche Sequenz haben Sie als natürlicher empfunden?</p>","key_press":70,"test_part":"response","test_stimulus":{"position":0,"left":"bvh/pass-bottle-hold-training1-lines.txt","right":"bvh/vr_prediction_models/model(vcgpdm)-dataset(pass-bottle-hold)-mode(ELBO)-parts(3)-dyn(20)-lvm(20)-hold(1)/final-lines.txt","att_check":false},"trial_type":"html-keyboard-response","trial_index":118,"time_elapsed":245558,"internal_node_id":"0.0-8.0-3.27","subject":"rav2830ce9kup6p","sona":"7624"},{"rt":302,"stimulus":"<p>Bereit?</p>","key_press":32,"trial_type":"html-keyboard-response","trial_index":119,"time_elapsed":245862,"internal_node_id":"0.0-8.0-0.28","subject":"rav2830ce9kup6p","sona":"7624"},{"rt":null,"stimulus":"<div style=\"font-size:60px;\">+</div>","key_press":null,"trial_type":"html-keyboard-response","trial_index":120,"time_elapsed":247868,"internal_node_id":"0.0-8.0-1.28","subject":"rav2830ce9kup6p","sona":"7624"},{"trial_type":"turing-test","trial_index":121,"time_elapsed":251332,"internal_node_id":"0.0-8.0-2.28","subject":"rav2830ce9kup6p","sona":"7624"},{"rt":465,"stimulus":"<p>Welche Sequenz haben Sie als natürlicher empfunden?</p>","key_press":74,"test_part":"response","test_stimulus":{"position":0,"left":"bvh/return-bottle-hold-training2-lines.txt","right":"bvh/vr_prediction_models/model(tmp)-dataset(return-bottle-hold)-numprim(4)-hold(2)/final-lines.txt","att_check":false},"trial_type":"html-keyboard-response","trial_index":122,"time_elapsed":251799,"internal_node_id":"0.0-8.0-3.28","subject":"rav2830ce9kup6p","sona":"7624"},{"rt":318,"stimulus":"<p>Bereit?</p>","key_press":32,"trial_type":"html-keyboard-response","trial_index":123,"time_elapsed":252118,"internal_node_id":"0.0-8.0-0.29","subject":"rav2830ce9kup6p","sona":"7624"},{"rt":null,"stimulus":"<div style=\"font-size:60px;\">+</div>","key_press":null,"trial_type":"html-keyboard-response","trial_index":124,"time_elapsed":254124,"internal_node_id":"0.0-8.0-1.29","subject":"rav2830ce9kup6p","sona":"7624"},{"trial_type":"turing-test","trial_index":125,"time_elapsed":260093,"internal_node_id":"0.0-8.0-2.29","subject":"rav2830ce9kup6p","sona":"7624"},{"rt":423,"stimulus":"<p>Welche Sequenz haben Sie als natürlicher empfunden?</p>","key_press":70,"test_part":"response","test_stimulus":{"position":0,"left":"bvh/pass-bottle-training2-lines.txt","right":"bvh/vr_prediction_models/model(dmp)-dataset(pass-bottle)-npsi(40)-hold(2)/final-lines.txt","att_check":false},"trial_type":"html-keyboard-response","trial_index":126,"time_elapsed":260519,"internal_node_id":"0.0-8.0-3.29","subject":"rav2830ce9kup6p","sona":"7624"},{"rt":358,"stimulus":"<p>Bereit?</p>","key_press":32,"trial_type":"html-keyboard-response","trial_index":127,"time_elapsed":260878,"internal_node_id":"0.0-8.0-0.30","subject":"rav2830ce9kup6p","sona":"7624"},{"rt":null,"stimulus":"<div style=\"font-size:60px;\">+</div>","key_press":null,"trial_type":"html-keyboard-response","trial_index":128,"time_elapsed":262883,"internal_node_id":"0.0-8.0-1.30","subject":"rav2830ce9kup6p","sona":"7624"},{"trial_type":"turing-test","trial_index":129,"time_elapsed":268936,"internal_node_id":"0.0-8.0-2.30","subject":"rav2830ce9kup6p","sona":"7624"},{"rt":3585,"stimulus":"<p>Welche Sequenz haben Sie als natürlicher empfunden?</p>","key_press":74,"test_part":"response","test_stimulus":{"position":1,"left":"bvh/vr_prediction_models/model(vcgpdm)-dataset(return-bottle)-mode(ELBO)-parts(3)-dyn(35)-lvm(20)-hold(4)/final-lines.txt","right":"bvh/return-bottle-training4-lines.txt","att_check":false},"trial_type":"html-keyboard-response","trial_index":130,"time_elapsed":272522,"internal_node_id":"0.0-8.0-3.30","subject":"rav2830ce9kup6p","sona":"7624"},{"rt":382,"stimulus":"<p>Bereit?</p>","key_press":32,"trial_type":"html-keyboard-response","trial_index":131,"time_elapsed":272906,"internal_node_id":"0.0-8.0-0.31","subject":"rav2830ce9kup6p","sona":"7624"},{"rt":null,"stimulus":"<div style=\"font-size:60px;\">+</div>","key_press":null,"trial_type":"html-keyboard-response","trial_index":132,"time_elapsed":274910,"internal_node_id":"0.0-8.0-1.31","subject":"rav2830ce9kup6p","sona":"7624"},{"trial_type":"turing-test","trial_index":133,"time_elapsed":281684,"internal_node_id":"0.0-8.0-2.31","subject":"rav2830ce9kup6p","sona":"7624"},{"rt":333,"stimulus":"<p>Welche Sequenz haben Sie als natürlicher empfunden?</p>","key_press":74,"test_part":"response","test_stimulus":{"position":1,"left":"bvh/vr_prediction_models/model(dmp)-dataset(pass-bottle)-npsi(50)-hold(0)/final-lines.txt","right":"bvh/pass-bottle-training0-lines.txt","att_check":false},"trial_type":"html-keyboard-response","trial_index":134,"time_elapsed":282018,"internal_node_id":"0.0-8.0-3.31","subject":"rav2830ce9kup6p","sona":"7624"},{"rt":406,"stimulus":"<p>Bereit?</p>","key_press":32,"trial_type":"html-keyboard-response","trial_index":135,"time_elapsed":282427,"internal_node_id":"0.0-8.0-0.32","subject":"rav2830ce9kup6p","sona":"7624"},{"rt":null,"stimulus":"<div style=\"font-size:60px;\">+</div>","key_press":null,"trial_type":"html-keyboard-response","trial_index":136,"time_elapsed":284430,"internal_node_id":"0.0-8.0-1.32","subject":"rav2830ce9kup6p","sona":"7624"},{"trial_type":"turing-test","trial_index":137,"time_elapsed":290222,"internal_node_id":"0.0-8.0-2.32","subject":"rav2830ce9kup6p","sona":"7624"},{"rt":563,"stimulus":"<p>Welche Sequenz haben Sie als natürlicher empfunden?</p>","key_press":74,"test_part":"response","test_stimulus":{"position":1,"left":"bvh/vr_prediction_models/model(vcgpdm)-dataset(pass-bottle)-mode(ELBO)-parts(3)-dyn(10)-lvm(25)-hold(1)/final-lines.txt","right":"bvh/pass-bottle-training1-lines.txt","att_check":false},"trial_type":"html-keyboard-response","trial_index":138,"time_elapsed":290786,"internal_node_id":"0.0-8.0-3.32","subject":"rav2830ce9kup6p","sona":"7624"},{"rt":351,"stimulus":"<p>Bereit?</p>","key_press":32,"trial_type":"html-keyboard-response","trial_index":139,"time_elapsed":291139,"internal_node_id":"0.0-8.0-0.33","subject":"rav2830ce9kup6p","sona":"7624"},{"rt":null,"stimulus":"<div style=\"font-size:60px;\">+</div>","key_press":null,"trial_type":"html-keyboard-response","trial_index":140,"time_elapsed":293142,"internal_node_id":"0.0-8.0-1.33","subject":"rav2830ce9kup6p","sona":"7624"},{"trial_type":"turing-test","trial_index":141,"time_elapsed":297197,"internal_node_id":"0.0-8.0-2.33","subject":"rav2830ce9kup6p","sona":"7624"},{"rt":355,"stimulus":"<p>Welche Sequenz haben Sie als natürlicher empfunden?</p>","key_press":70,"test_part":"response","test_stimulus":{"position":0,"left":"bvh/return-bottle-hold-training3-lines.txt","right":"bvh/vr_prediction_models/model(vcgpdm)-dataset(return-bottle-hold)-mode(MAP)-parts(1)-hold(3)/final-lines.txt","att_check":false},"trial_type":"html-keyboard-response","trial_index":142,"time_elapsed":297554,"internal_node_id":"0.0-8.0-3.33","subject":"rav2830ce9kup6p","sona":"7624"},{"rt":310,"stimulus":"<p>Bereit?</p>","key_press":32,"trial_type":"html-keyboard-response","trial_index":143,"time_elapsed":297866,"internal_node_id":"0.0-8.0-0.34","subject":"rav2830ce9kup6p","sona":"7624"},{"rt":null,"stimulus":"<div style=\"font-size:60px;\">+</div>","key_press":null,"trial_type":"html-keyboard-response","trial_index":144,"time_elapsed":299868,"internal_node_id":"0.0-8.0-1.34","subject":"rav2830ce9kup6p","sona":"7624"},{"trial_type":"turing-test","trial_index":145,"time_elapsed":306833,"internal_node_id":"0.0-8.0-2.34","subject":"rav2830ce9kup6p","sona":"7624"},{"rt":336,"stimulus":"<p>Welche Sequenz haben Sie als natürlicher empfunden?</p>","key_press":74,"test_part":"response","test_stimulus":{"position":1,"left":"bvh/vr_prediction_models/model(vcgpdm)-dataset(pass-bottle)-mode(ELBO)-parts(1)-dyn(10)-lvm(25)-hold(0)/final-lines.txt","right":"bvh/pass-bottle-training0-lines.txt","att_check":false},"trial_type":"html-keyboard-response","trial_index":146,"time_elapsed":307170,"internal_node_id":"0.0-8.0-3.34","subject":"rav2830ce9kup6p","sona":"7624"},{"rt":373,"stimulus":"<p>Bereit?</p>","key_press":32,"trial_type":"html-keyboard-response","trial_index":147,"time_elapsed":307546,"internal_node_id":"0.0-8.0-0.35","subject":"rav2830ce9kup6p","sona":"7624"},{"rt":null,"stimulus":"<div style=\"font-size:60px;\">+</div>","key_press":null,"trial_type":"html-keyboard-response","trial_index":148,"time_elapsed":309550,"internal_node_id":"0.0-8.0-1.35","subject":"rav2830ce9kup6p","sona":"7624"},{"trial_type":"turing-test","trial_index":149,"time_elapsed":313363,"internal_node_id":"0.0-8.0-2.35","subject":"rav2830ce9kup6p","sona":"7624"},{"rt":279,"stimulus":"<p>Welche Sequenz haben Sie als natürlicher empfunden?</p>","key_press":70,"test_part":"response","test_stimulus":{"position":0,"left":"bvh/pass-bottle-hold-training3-lines.txt","right":"bvh/vr_prediction_models/model(vcgpdm)-dataset(pass-bottle-hold)-mode(ELBO)-parts(3)-dyn(30)-lvm(15)-hold(3)/final-lines.txt","att_check":false},"trial_type":"html-keyboard-response","trial_index":150,"time_elapsed":313643,"internal_node_id":"0.0-8.0-3.35","subject":"rav2830ce9kup6p","sona":"7624"},{"rt":326,"stimulus":"<p>Bereit?</p>","key_press":32,"trial_type":"html-keyboard-response","trial_index":151,"time_elapsed":313972,"internal_node_id":"0.0-8.0-0.36","subject":"rav2830ce9kup6p","sona":"7624"},{"rt":null,"stimulus":"<div style=\"font-size:60px;\">+</div>","key_press":null,"trial_type":"html-keyboard-response","trial_index":152,"time_elapsed":315975,"internal_node_id":"0.0-8.0-1.36","subject":"rav2830ce9kup6p","sona":"7624"},{"trial_type":"turing-test","trial_index":153,"time_elapsed":319325,"internal_node_id":"0.0-8.0-2.36","subject":"rav2830ce9kup6p","sona":"7624"},{"rt":221,"stimulus":"<p>Welche Sequenz haben Sie als natürlicher empfunden?</p>","key_press":70,"test_part":"response","test_stimulus":{"position":0,"left":"bvh/pass-bottle-hold-training0-lines.txt","right":"bvh/vr_prediction_models/model(dmp)-dataset(pass-bottle-hold)-npsi(100)-hold(0)/final-lines.txt","att_check":true},"trial_type":"html-keyboard-response","trial_index":154,"time_elapsed":319547,"internal_node_id":"0.0-8.0-3.36","subject":"rav2830ce9kup6p","sona":"7624"},{"rt":310,"stimulus":"<p>Bereit?</p>","key_press":32,"trial_type":"html-keyboard-response","trial_index":155,"time_elapsed":319859,"internal_node_id":"0.0-8.0-0.37","subject":"rav2830ce9kup6p","sona":"7624"},{"rt":null,"stimulus":"<div style=\"font-size:60px;\">+</div>","key_press":null,"trial_type":"html-keyboard-response","trial_index":156,"time_elapsed":321867,"internal_node_id":"0.0-8.0-1.37","subject":"rav2830ce9kup6p","sona":"7624"},{"trial_type":"turing-test","trial_index":157,"time_elapsed":327560,"internal_node_id":"0.0-8.0-2.37","subject":"rav2830ce9kup6p","sona":"7624"},{"rt":330,"stimulus":"<p>Welche Sequenz haben Sie als natürlicher empfunden?</p>","key_press":70,"test_part":"response","test_stimulus":{"position":0,"left":"bvh/pass-bottle-training1-lines.txt","right":"bvh/vr_prediction_models/model(vcgpdm)-dataset(pass-bottle)-mode(ELBO)-parts(1)-dyn(10)-lvm(30)-hold(1)/final-lines.txt","att_check":false},"trial_type":"html-keyboard-response","trial_index":158,"time_elapsed":327891,"internal_node_id":"0.0-8.0-3.37","subject":"rav2830ce9kup6p","sona":"7624"},{"rt":311,"stimulus":"<p>Bereit?</p>","key_press":32,"trial_type":"html-keyboard-response","trial_index":159,"time_elapsed":328203,"internal_node_id":"0.0-8.0-0.38","subject":"rav2830ce9kup6p","sona":"7624"},{"rt":null,"stimulus":"<div style=\"font-size:60px;\">+</div>","key_press":null,"trial_type":"html-keyboard-response","trial_index":160,"time_elapsed":330207,"internal_node_id":"0.0-8.0-1.38","subject":"rav2830ce9kup6p","sona":"7624"},{"trial_type":"turing-test","trial_index":161,"time_elapsed":336224,"internal_node_id":"0.0-8.0-2.38","subject":"rav2830ce9kup6p","sona":"7624"},{"rt":51,"stimulus":"<p>Welche Sequenz haben Sie als natürlicher empfunden?</p>","key_press":70,"test_part":"response","test_stimulus":{"position":0,"left":"bvh/return-bottle-training3-lines.txt","right":"bvh/vr_prediction_models/model(vcgpdm)-dataset(return-bottle)-mode(ELBO)-parts(3)-dyn(25)-lvm(30)-hold(3)/final-lines.txt","att_check":false},"trial_type":"html-keyboard-response","trial_index":162,"time_elapsed":336275,"internal_node_id":"0.0-8.0-3.38","subject":"rav2830ce9kup6p","sona":"7624"},{"rt":765,"stimulus":"<p>Bereit?</p>","key_press":32,"trial_type":"html-keyboard-response","trial_index":163,"time_elapsed":337044,"internal_node_id":"0.0-8.0-0.39","subject":"rav2830ce9kup6p","sona":"7624"},{"rt":null,"stimulus":"<div style=\"font-size:60px;\">+</div>","key_press":null,"trial_type":"html-keyboard-response","trial_index":164,"time_elapsed":339049,"internal_node_id":"0.0-8.0-1.39","subject":"rav2830ce9kup6p","sona":"7624"},{"trial_type":"turing-test","trial_index":165,"time_elapsed":345397,"internal_node_id":"0.0-8.0-2.39","subject":"rav2830ce9kup6p","sona":"7624"},{"rt":471,"stimulus":"<p>Welche Sequenz haben Sie als natürlicher empfunden?</p>","key_press":74,"test_part":"response","test_stimulus":{"position":0,"left":"bvh/pass-bottle-training2-lines.txt","right":"bvh/vr_prediction_models/model(vcgpdm)-dataset(pass-bottle)-mode(ELBO)-parts(1)-dyn(30)-lvm(30)-hold(2)/final-lines.txt","att_check":false},"trial_type":"html-keyboard-response","trial_index":166,"time_elapsed":345868,"internal_node_id":"0.0-8.0-3.39","subject":"rav2830ce9kup6p","sona":"7624"},{"rt":310,"stimulus":"<p>Bereit?</p>","key_press":32,"trial_type":"html-keyboard-response","trial_index":167,"time_elapsed":346179,"internal_node_id":"0.0-8.0-0.40","subject":"rav2830ce9kup6p","sona":"7624"},{"rt":null,"stimulus":"<div style=\"font-size:60px;\">+</div>","key_press":null,"trial_type":"html-keyboard-response","trial_index":168,"time_elapsed":348183,"internal_node_id":"0.0-8.0-1.40","subject":"rav2830ce9kup6p","sona":"7624"},{"trial_type":"turing-test","trial_index":169,"time_elapsed":354161,"internal_node_id":"0.0-8.0-2.40","subject":"rav2830ce9kup6p","sona":"7624"},{"rt":481,"stimulus":"<p>Welche Sequenz haben Sie als natürlicher empfunden?</p>","key_press":74,"test_part":"response","test_stimulus":{"position":1,"left":"bvh/vr_prediction_models/model(tmp)-dataset(pass-bottle)-numprim(14)-hold(2)/final-lines.txt","right":"bvh/pass-bottle-training2-lines.txt","att_check":false},"trial_type":"html-keyboard-response","trial_index":170,"time_elapsed":354644,"internal_node_id":"0.0-8.0-3.40","subject":"rav2830ce9kup6p","sona":"7624"},{"rt":415,"stimulus":"<p>Bereit?</p>","key_press":32,"trial_type":"html-keyboard-response","trial_index":171,"time_elapsed":355060,"internal_node_id":"0.0-8.0-0.41","subject":"rav2830ce9kup6p","sona":"7624"},{"rt":null,"stimulus":"<div style=\"font-size:60px;\">+</div>","key_press":null,"trial_type":"html-keyboard-response","trial_index":172,"time_elapsed":357063,"internal_node_id":"0.0-8.0-1.41","subject":"rav2830ce9kup6p","sona":"7624"},{"trial_type":"turing-test","trial_index":173,"time_elapsed":363311,"internal_node_id":"0.0-8.0-2.41","subject":"rav2830ce9kup6p","sona":"7624"},{"rt":490,"stimulus":"<p>Welche Sequenz haben Sie als natürlicher empfunden?</p>","key_press":74,"test_part":"response","test_stimulus":{"position":1,"left":"bvh/vr_prediction_models/model(vcgpdm)-dataset(return-bottle)-mode(ELBO)-parts(3)-dyn(30)-lvm(15)-hold(1)/final-lines.txt","right":"bvh/return-bottle-training1-lines.txt","att_check":false},"trial_type":"html-keyboard-response","trial_index":174,"time_elapsed":363803,"internal_node_id":"0.0-8.0-3.41","subject":"rav2830ce9kup6p","sona":"7624"},{"rt":430,"stimulus":"<p>Bereit?</p>","key_press":32,"trial_type":"html-keyboard-response","trial_index":175,"time_elapsed":364236,"internal_node_id":"0.0-8.0-0.42","subject":"rav2830ce9kup6p","sona":"7624"},{"rt":null,"stimulus":"<div style=\"font-size:60px;\">+</div>","key_press":null,"trial_type":"html-keyboard-response","trial_index":176,"time_elapsed":366241,"internal_node_id":"0.0-8.0-1.42","subject":"rav2830ce9kup6p","sona":"7624"},{"trial_type":"turing-test","trial_index":177,"time_elapsed":370108,"internal_node_id":"0.0-8.0-2.42","subject":"rav2830ce9kup6p","sona":"7624"},{"rt":254,"stimulus":"<p>Welche Sequenz haben Sie als natürlicher empfunden?</p>","key_press":74,"test_part":"response","test_stimulus":{"position":1,"left":"bvh/vr_prediction_models/model(vcgpdm)-dataset(pass-bottle-hold)-mode(ELBO)-parts(3)-dyn(10)-lvm(30)-hold(3)/final-lines.txt","right":"bvh/pass-bottle-hold-training3-lines.txt","att_check":false},"trial_type":"html-keyboard-response","trial_index":178,"time_elapsed":370364,"internal_node_id":"0.0-8.0-3.42","subject":"rav2830ce9kup6p","sona":"7624"},{"rt":335,"stimulus":"<p>Bereit?</p>","key_press":32,"trial_type":"html-keyboard-response","trial_index":179,"time_elapsed":370700,"internal_node_id":"0.0-8.0-0.43","subject":"rav2830ce9kup6p","sona":"7624"},{"rt":null,"stimulus":"<div style=\"font-size:60px;\">+</div>","key_press":null,"trial_type":"html-keyboard-response","trial_index":180,"time_elapsed":372706,"internal_node_id":"0.0-8.0-1.43","subject":"rav2830ce9kup6p","sona":"7624"},{"trial_type":"turing-test","trial_index":181,"time_elapsed":376457,"internal_node_id":"0.0-8.0-2.43","subject":"rav2830ce9kup6p","sona":"7624"},{"rt":1298,"stimulus":"<p>Welche Sequenz haben Sie als natürlicher empfunden?</p>","key_press":74,"test_part":"response","test_stimulus":{"position":0,"left":"bvh/return-bottle-hold-training4-lines.txt","right":"bvh/vr_prediction_models/model(dmp)-dataset(return-bottle-hold)-npsi(20)-hold(4)/final-lines.txt","att_check":false},"trial_type":"html-keyboard-response","trial_index":182,"time_elapsed":377756,"internal_node_id":"0.0-8.0-3.43","subject":"rav2830ce9kup6p","sona":"7624"},{"rt":350,"stimulus":"<p>Bereit?</p>","key_press":32,"trial_type":"html-keyboard-response","trial_index":183,"time_elapsed":378109,"internal_node_id":"0.0-8.0-0.44","subject":"rav2830ce9kup6p","sona":"7624"},{"rt":null,"stimulus":"<div style=\"font-size:60px;\">+</div>","key_press":null,"trial_type":"html-keyboard-response","trial_index":184,"time_elapsed":380111,"internal_node_id":"0.0-8.0-1.44","subject":"rav2830ce9kup6p","sona":"7624"},{"trial_type":"turing-test","trial_index":185,"time_elapsed":383445,"internal_node_id":"0.0-8.0-2.44","subject":"rav2830ce9kup6p","sona":"7624"},{"rt":436,"stimulus":"<p>Welche Sequenz haben Sie als natürlicher empfunden?</p>","key_press":70,"test_part":"response","test_stimulus":{"position":0,"left":"bvh/pass-bottle-hold-training0-lines.txt","right":"bvh/vr_prediction_models/model(tmp)-dataset(pass-bottle-hold)-numprim(10)-hold(0)/final-lines.txt","att_check":false},"trial_type":"html-keyboard-response","trial_index":186,"time_elapsed":383884,"internal_node_id":"0.0-8.0-3.44","subject":"rav2830ce9kup6p","sona":"7624"},{"rt":181,"stimulus":"<p>Bereit?</p>","key_press":32,"trial_type":"html-keyboard-response","trial_index":187,"time_elapsed":384068,"internal_node_id":"0.0-8.0-0.45","subject":"rav2830ce9kup6p","sona":"7624"},{"rt":null,"stimulus":"<div style=\"font-size:60px;\">+</div>","key_press":null,"trial_type":"html-keyboard-response","trial_index":188,"time_elapsed":386075,"internal_node_id":"0.0-8.0-1.45","subject":"rav2830ce9kup6p","sona":"7624"},{"trial_type":"turing-test","trial_index":189,"time_elapsed":391823,"internal_node_id":"0.0-8.0-2.45","subject":"rav2830ce9kup6p","sona":"7624"},{"rt":37,"stimulus":"<p>Welche Sequenz haben Sie als natürlicher empfunden?</p>","key_press":70,"test_part":"response","test_stimulus":{"position":0,"left":"bvh/pass-bottle-training4-lines.txt","right":"bvh/vr_prediction_models/model(dmp)-dataset(pass-bottle)-npsi(100)-hold(4)/final-lines.txt","att_check":false},"trial_type":"html-keyboard-response","trial_index":190,"time_elapsed":391862,"internal_node_id":"0.0-8.0-3.45","subject":"rav2830ce9kup6p","sona":"7624"},{"rt":284,"stimulus":"<p>Bereit?</p>","key_press":32,"trial_type":"html-keyboard-response","trial_index":191,"time_elapsed":392149,"internal_node_id":"0.0-8.0-0.46","subject":"rav2830ce9kup6p","sona":"7624"},{"rt":null,"stimulus":"<div style=\"font-size:60px;\">+</div>","key_press":null,"trial_type":"html-keyboard-response","trial_index":192,"time_elapsed":394151,"internal_node_id":"0.0-8.0-1.46","subject":"rav2830ce9kup6p","sona":"7624"},{"trial_type":"turing-test","trial_index":193,"time_elapsed":397816,"internal_node_id":"0.0-8.0-2.46","subject":"rav2830ce9kup6p","sona":"7624"},{"rt":283,"stimulus":"<p>Welche Sequenz haben Sie als natürlicher empfunden?</p>","key_press":74,"test_part":"response","test_stimulus":{"position":1,"left":"bvh/vr_prediction_models/model(tmp)-dataset(return-bottle-hold)-numprim(3)-hold(3)/final-lines.txt","right":"bvh/return-bottle-hold-training3-lines.txt","att_check":false},"trial_type":"html-keyboard-response","trial_index":194,"time_elapsed":398101,"internal_node_id":"0.0-8.0-3.46","subject":"rav2830ce9kup6p","sona":"7624"},{"rt":286,"stimulus":"<p>Bereit?</p>","key_press":32,"trial_type":"html-keyboard-response","trial_index":195,"time_elapsed":398389,"internal_node_id":"0.0-8.0-0.47","subject":"rav2830ce9kup6p","sona":"7624"},{"rt":null,"stimulus":"<div style=\"font-size:60px;\">+</div>","key_press":null,"trial_type":"html-keyboard-response","trial_index":196,"time_elapsed":400393,"internal_node_id":"0.0-8.0-1.47","subject":"rav2830ce9kup6p","sona":"7624"},{"trial_type":"turing-test","trial_index":197,"time_elapsed":404348,"internal_node_id":"0.0-8.0-2.47","subject":"rav2830ce9kup6p","sona":"7624"},{"rt":103,"stimulus":"<p>Welche Sequenz haben Sie als natürlicher empfunden?</p>","key_press":74,"test_part":"response","test_stimulus":{"position":0,"left":"bvh/return-bottle-hold-training3-lines.txt","right":"bvh/vr_prediction_models/model(vcgpdm)-dataset(return-bottle-hold)-mode(ELBO)-parts(3)-dyn(25)-lvm(30)-hold(3)/final-lines.txt","att_check":false},"trial_type":"html-keyboard-response","trial_index":198,"time_elapsed":404453,"internal_node_id":"0.0-8.0-3.47","subject":"rav2830ce9kup6p","sona":"7624"},{"rt":365,"stimulus":"<p>Bereit?</p>","key_press":32,"trial_type":"html-keyboard-response","trial_index":199,"time_elapsed":404821,"internal_node_id":"0.0-8.0-0.48","subject":"rav2830ce9kup6p","sona":"7624"},{"rt":null,"stimulus":"<div style=\"font-size:60px;\">+</div>","key_press":null,"trial_type":"html-keyboard-response","trial_index":200,"time_elapsed":406824,"internal_node_id":"0.0-8.0-1.48","subject":"rav2830ce9kup6p","sona":"7624"},{"trial_type":"turing-test","trial_index":201,"time_elapsed":412617,"internal_node_id":"0.0-8.0-2.48","subject":"rav2830ce9kup6p","sona":"7624"},{"rt":258,"stimulus":"<p>Welche Sequenz haben Sie als natürlicher empfunden?</p>","key_press":70,"test_part":"response","test_stimulus":{"position":0,"left":"bvh/return-bottle-training0-lines.txt","right":"bvh/vr_prediction_models/model(vcgpdm)-dataset(return-bottle)-mode(ELBO)-parts(1)-dyn(20)-lvm(5)-hold(0)/final-lines.txt","att_check":false},"trial_type":"html-keyboard-response","trial_index":202,"time_elapsed":412877,"internal_node_id":"0.0-8.0-3.48","subject":"rav2830ce9kup6p","sona":"7624"},{"rt":319,"stimulus":"<p>Bereit?</p>","key_press":32,"trial_type":"html-keyboard-response","trial_index":203,"time_elapsed":413196,"internal_node_id":"0.0-8.0-0.49","subject":"rav2830ce9kup6p","sona":"7624"},{"rt":null,"stimulus":"<div style=\"font-size:60px;\">+</div>","key_press":null,"trial_type":"html-keyboard-response","trial_index":204,"time_elapsed":415200,"internal_node_id":"0.0-8.0-1.49","subject":"rav2830ce9kup6p","sona":"7624"},{"trial_type":"turing-test","trial_index":205,"time_elapsed":422156,"internal_node_id":"0.0-8.0-2.49","subject":"rav2830ce9kup6p","sona":"7624"},{"rt":8,"stimulus":"<p>Welche Sequenz haben Sie als natürlicher empfunden?</p>","key_press":74,"test_part":"response","test_stimulus":{"position":1,"left":"bvh/vr_prediction_models/model(vcgpdm)-dataset(return-bottle)-mode(ELBO)-parts(1)-dyn(25)-lvm(35)-hold(2)/final-lines.txt","right":"bvh/return-bottle-training2-lines.txt","att_check":false},"trial_type":"html-keyboard-response","trial_index":206,"time_elapsed":422166,"internal_node_id":"0.0-8.0-3.49","subject":"rav2830ce9kup6p","sona":"7624"},{"rt":813,"stimulus":"<p>Bereit?</p>","key_press":32,"trial_type":"html-keyboard-response","trial_index":207,"time_elapsed":422981,"internal_node_id":"0.0-8.0-0.50","subject":"rav2830ce9kup6p","sona":"7624"},{"rt":null,"stimulus":"<div style=\"font-size:60px;\">+</div>","key_press":null,"trial_type":"html-keyboard-response","trial_index":208,"time_elapsed":424982,"internal_node_id":"0.0-8.0-1.50","subject":"rav2830ce9kup6p","sona":"7624"},{"trial_type":"turing-test","trial_index":209,"time_elapsed":431017,"internal_node_id":"0.0-8.0-2.50","subject":"rav2830ce9kup6p","sona":"7624"},{"rt":506,"stimulus":"<p>Welche Sequenz haben Sie als natürlicher empfunden?</p>","key_press":70,"test_part":"response","test_stimulus":{"position":0,"left":"bvh/return-bottle-training1-lines.txt","right":"bvh/vr_prediction_models/model(dmp)-dataset(return-bottle)-npsi(20)-hold(1)/final-lines.txt","att_check":false},"trial_type":"html-keyboard-response","trial_index":210,"time_elapsed":431525,"internal_node_id":"0.0-8.0-3.50","subject":"rav2830ce9kup6p","sona":"7624"},{"rt":285,"stimulus":"<p>Bereit?</p>","key_press":32,"trial_type":"html-keyboard-response","trial_index":211,"time_elapsed":431813,"internal_node_id":"0.0-8.0-0.51","subject":"rav2830ce9kup6p","sona":"7624"},{"rt":null,"stimulus":"<div style=\"font-size:60px;\">+</div>","key_press":null,"trial_type":"html-keyboard-response","trial_index":212,"time_elapsed":433816,"internal_node_id":"0.0-8.0-1.51","subject":"rav2830ce9kup6p","sona":"7624"},{"trial_type":"turing-test","trial_index":213,"time_elapsed":439841,"internal_node_id":"0.0-8.0-2.51","subject":"rav2830ce9kup6p","sona":"7624"},{"rt":331,"stimulus":"<p>Welche Sequenz haben Sie als natürlicher empfunden?</p>","key_press":74,"test_part":"response","test_stimulus":{"position":1,"left":"bvh/vr_prediction_models/model(tmp)-dataset(return-bottle)-numprim(8)-hold(1)/final-lines.txt","right":"bvh/return-bottle-training1-lines.txt","att_check":false},"trial_type":"html-keyboard-response","trial_index":214,"time_elapsed":440173,"internal_node_id":"0.0-8.0-3.51","subject":"rav2830ce9kup6p","sona":"7624"},{"rt":405,"stimulus":"<p>Bereit?</p>","key_press":32,"trial_type":"html-keyboard-response","trial_index":215,"time_elapsed":440581,"internal_node_id":"0.0-8.0-0.52","subject":"rav2830ce9kup6p","sona":"7624"},{"rt":null,"stimulus":"<div style=\"font-size:60px;\">+</div>","key_press":null,"trial_type":"html-keyboard-response","trial_index":216,"time_elapsed":442587,"internal_node_id":"0.0-8.0-1.52","subject":"rav2830ce9kup6p","sona":"7624"},{"trial_type":"turing-test","trial_index":217,"time_elapsed":446641,"internal_node_id":"0.0-8.0-2.52","subject":"rav2830ce9kup6p","sona":"7624"},{"rt":635,"stimulus":"<p>Welche Sequenz haben Sie als natürlicher empfunden?</p>","key_press":74,"test_part":"response","test_stimulus":{"position":1,"left":"bvh/vr_prediction_models/model(vcgpdm)-dataset(return-bottle-hold)-mode(ELBO)-parts(1)-dyn(25)-lvm(35)-hold(4)/final-lines.txt","right":"bvh/return-bottle-hold-training4-lines.txt","att_check":false},"trial_type":"html-keyboard-response","trial_index":218,"time_elapsed":447277,"internal_node_id":"0.0-8.0-3.52","subject":"rav2830ce9kup6p","sona":"7624"},{"rt":358,"stimulus":"<p>Bereit?</p>","key_press":32,"trial_type":"html-keyboard-response","trial_index":219,"time_elapsed":447638,"internal_node_id":"0.0-8.0-0.53","subject":"rav2830ce9kup6p","sona":"7624"},{"rt":null,"stimulus":"<div style=\"font-size:60px;\">+</div>","key_press":null,"trial_type":"html-keyboard-response","trial_index":220,"time_elapsed":449642,"internal_node_id":"0.0-8.0-1.53","subject":"rav2830ce9kup6p","sona":"7624"},{"trial_type":"turing-test","trial_index":221,"time_elapsed":453294,"internal_node_id":"0.0-8.0-2.53","subject":"rav2830ce9kup6p","sona":"7624"},{"rt":406,"stimulus":"<p>Welche Sequenz haben Sie als natürlicher empfunden?</p>","key_press":70,"test_part":"response","test_stimulus":{"position":1,"left":"bvh/vr_prediction_models/model(tmp)-dataset(return-bottle-hold)-numprim(13)-hold(3)/final-lines.txt","right":"bvh/return-bottle-hold-training3-lines.txt","att_check":false},"trial_type":"html-keyboard-response","trial_index":222,"time_elapsed":453702,"internal_node_id":"0.0-8.0-3.53","subject":"rav2830ce9kup6p","sona":"7624"},{"rt":205,"stimulus":"<p>Bereit?</p>","key_press":32,"trial_type":"html-keyboard-response","trial_index":223,"time_elapsed":453910,"internal_node_id":"0.0-8.0-0.54","subject":"rav2830ce9kup6p","sona":"7624"},{"rt":null,"stimulus":"<div style=\"font-size:60px;\">+</div>","key_press":null,"trial_type":"html-keyboard-response","trial_index":224,"time_elapsed":455920,"internal_node_id":"0.0-8.0-1.54","subject":"rav2830ce9kup6p","sona":"7624"},{"trial_type":"turing-test","trial_index":225,"time_elapsed":461901,"internal_node_id":"0.0-8.0-2.54","subject":"rav2830ce9kup6p","sona":"7624"},{"rt":391,"stimulus":"<p>Welche Sequenz haben Sie als natürlicher empfunden?</p>","key_press":74,"test_part":"response","test_stimulus":{"position":1,"left":"bvh/vr_prediction_models/model(vcgpdm)-dataset(pass-bottle)-mode(ELBO)-parts(1)-dyn(20)-lvm(20)-hold(2)/final-lines.txt","right":"bvh/pass-bottle-training2-lines.txt","att_check":false},"trial_type":"html-keyboard-response","trial_index":226,"time_elapsed":462294,"internal_node_id":"0.0-8.0-3.54","subject":"rav2830ce9kup6p","sona":"7624"},{"rt":278,"stimulus":"<p>Bereit?</p>","key_press":32,"trial_type":"html-keyboard-response","trial_index":227,"time_elapsed":462573,"internal_node_id":"0.0-8.0-0.55","subject":"rav2830ce9kup6p","sona":"7624"},{"rt":null,"stimulus":"<div style=\"font-size:60px;\">+</div>","key_press":null,"trial_type":"html-keyboard-response","trial_index":228,"time_elapsed":464579,"internal_node_id":"0.0-8.0-1.55","subject":"rav2830ce9kup6p","sona":"7624"},{"trial_type":"turing-test","trial_index":229,"time_elapsed":506510,"internal_node_id":"0.0-8.0-2.55","subject":"rav2830ce9kup6p","sona":"7624"},{"rt":1572,"stimulus":"<p>Welche Sequenz haben Sie als natürlicher empfunden?</p>","key_press":70,"test_part":"response","test_stimulus":{"position":0,"left":"bvh/pass-bottle-hold-training2-lines.txt","right":"bvh/vr_prediction_models/model(vcgpdm)-dataset(pass-bottle-hold)-mode(ELBO)-parts(3)-dyn(10)-lvm(10)-hold(2)/final-lines.txt","att_check":false},"trial_type":"html-keyboard-response","trial_index":230,"time_elapsed":508084,"internal_node_id":"0.0-8.0-3.55","subject":"rav2830ce9kup6p","sona":"7624"},{"rt":734,"stimulus":"<p>Bereit?</p>","key_press":32,"trial_type":"html-keyboard-response","trial_index":231,"time_elapsed":508820,"internal_node_id":"0.0-8.0-0.56","subject":"rav2830ce9kup6p","sona":"7624"},{"rt":null,"stimulus":"<div style=\"font-size:60px;\">+</div>","key_press":null,"trial_type":"html-keyboard-response","trial_index":232,"time_elapsed":510823,"internal_node_id":"0.0-8.0-1.56","subject":"rav2830ce9kup6p","sona":"7624"},{"trial_type":"turing-test","trial_index":233,"time_elapsed":514445,"internal_node_id":"0.0-8.0-2.56","subject":"rav2830ce9kup6p","sona":"7624"},{"rt":422,"stimulus":"<p>Welche Sequenz haben Sie als natürlicher empfunden?</p>","key_press":74,"test_part":"response","test_stimulus":{"position":0,"left":"bvh/pass-bottle-hold-training4-lines.txt","right":"bvh/vr_prediction_models/model(dmp)-dataset(pass-bottle-hold)-npsi(30)-hold(4)/final-lines.txt","att_check":false},"trial_type":"html-keyboard-response","trial_index":234,"time_elapsed":514869,"internal_node_id":"0.0-8.0-3.56","subject":"rav2830ce9kup6p","sona":"7624"},{"rt":277,"stimulus":"<p>Bereit?</p>","key_press":32,"trial_type":"html-keyboard-response","trial_index":235,"time_elapsed":515148,"internal_node_id":"0.0-8.0-0.57","subject":"rav2830ce9kup6p","sona":"7624"},{"rt":null,"stimulus":"<div style=\"font-size:60px;\">+</div>","key_press":null,"trial_type":"html-keyboard-response","trial_index":236,"time_elapsed":517153,"internal_node_id":"0.0-8.0-1.57","subject":"rav2830ce9kup6p","sona":"7624"},{"trial_type":"turing-test","trial_index":237,"time_elapsed":522930,"internal_node_id":"0.0-8.0-2.57","subject":"rav2830ce9kup6p","sona":"7624"},{"rt":394,"stimulus":"<p>Welche Sequenz haben Sie als natürlicher empfunden?</p>","key_press":70,"test_part":"response","test_stimulus":{"position":0,"left":"bvh/pass-bottle-training4-lines.txt","right":"bvh/vr_prediction_models/model(tmp)-dataset(pass-bottle)-numprim(15)-hold(4)/final-lines.txt","att_check":false},"trial_type":"html-keyboard-response","trial_index":238,"time_elapsed":523325,"internal_node_id":"0.0-8.0-3.57","subject":"rav2830ce9kup6p","sona":"7624"},{"rt":294,"stimulus":"<p>Bereit?</p>","key_press":32,"trial_type":"html-keyboard-response","trial_index":239,"time_elapsed":523621,"internal_node_id":"0.0-8.0-0.58","subject":"rav2830ce9kup6p","sona":"7624"},{"rt":null,"stimulus":"<div style=\"font-size:60px;\">+</div>","key_press":null,"trial_type":"html-keyboard-response","trial_index":240,"time_elapsed":525624,"internal_node_id":"0.0-8.0-1.58","subject":"rav2830ce9kup6p","sona":"7624"},{"trial_type":"turing-test","trial_index":241,"time_elapsed":528834,"internal_node_id":"0.0-8.0-2.58","subject":"rav2830ce9kup6p","sona":"7624"},{"rt":353,"stimulus":"<p>Welche Sequenz haben Sie als natürlicher empfunden?</p>","key_press":74,"test_part":"response","test_stimulus":{"position":1,"left":"bvh/vr_prediction_models/model(dmp)-dataset(return-bottle-hold)-npsi(10)-hold(1)/final-lines.txt","right":"bvh/return-bottle-hold-training1-lines.txt","att_check":false},"trial_type":"html-keyboard-response","trial_index":242,"time_elapsed":529189,"internal_node_id":"0.0-8.0-3.58","subject":"rav2830ce9kup6p","sona":"7624"},{"rt":325,"stimulus":"<p>Bereit?</p>","key_press":32,"trial_type":"html-keyboard-response","trial_index":243,"time_elapsed":529517,"internal_node_id":"0.0-8.0-0.59","subject":"rav2830ce9kup6p","sona":"7624"},{"rt":null,"stimulus":"<div style=\"font-size:60px;\">+</div>","key_press":null,"trial_type":"html-keyboard-response","trial_index":244,"time_elapsed":531522,"internal_node_id":"0.0-8.0-1.59","subject":"rav2830ce9kup6p","sona":"7624"},{"trial_type":"turing-test","trial_index":245,"time_elapsed":537908,"internal_node_id":"0.0-8.0-2.59","subject":"rav2830ce9kup6p","sona":"7624"},{"rt":295,"stimulus":"<p>Welche Sequenz haben Sie als natürlicher empfunden?</p>","key_press":70,"test_part":"response","test_stimulus":{"position":0,"left":"bvh/return-bottle-training1-lines.txt","right":"bvh/vr_prediction_models/model(vcgpdm)-dataset(return-bottle)-mode(ELBO)-parts(1)-dyn(35)-lvm(10)-hold(1)/final-lines.txt","att_check":false},"trial_type":"html-keyboard-response","trial_index":246,"time_elapsed":538205,"internal_node_id":"0.0-8.0-3.59","subject":"rav2830ce9kup6p","sona":"7624"},{"rt":270,"stimulus":"<p>Bereit?</p>","key_press":32,"trial_type":"html-keyboard-response","trial_index":247,"time_elapsed":538477,"internal_node_id":"0.0-8.0-0.60","subject":"rav2830ce9kup6p","sona":"7624"},{"rt":null,"stimulus":"<div style=\"font-size:60px;\">+</div>","key_press":null,"trial_type":"html-keyboard-response","trial_index":248,"time_elapsed":540483,"internal_node_id":"0.0-8.0-1.60","subject":"rav2830ce9kup6p","sona":"7624"},{"trial_type":"turing-test","trial_index":249,"time_elapsed":544528,"internal_node_id":"0.0-8.0-2.60","subject":"rav2830ce9kup6p","sona":"7624"},{"rt":339,"stimulus":"<p>Welche Sequenz haben Sie als natürlicher empfunden?</p>","key_press":70,"test_part":"response","test_stimulus":{"position":1,"left":"bvh/vr_prediction_models/model(vcgpdm)-dataset(pass-bottle-hold)-mode(ELBO)-parts(1)-dyn(35)-lvm(10)-hold(4)/final-lines.txt","right":"bvh/pass-bottle-hold-training4-lines.txt","att_check":false},"trial_type":"html-keyboard-response","trial_index":250,"time_elapsed":544869,"internal_node_id":"0.0-8.0-3.60","subject":"rav2830ce9kup6p","sona":"7624"},{"rt":302,"stimulus":"<p>Bereit?</p>","key_press":32,"trial_type":"html-keyboard-response","trial_index":251,"time_elapsed":545173,"internal_node_id":"0.0-8.0-0.61","subject":"rav2830ce9kup6p","sona":"7624"},{"rt":null,"stimulus":"<div style=\"font-size:60px;\">+</div>","key_press":null,"trial_type":"html-keyboard-response","trial_index":252,"time_elapsed":547176,"internal_node_id":"0.0-8.0-1.61","subject":"rav2830ce9kup6p","sona":"7624"},{"trial_type":"turing-test","trial_index":253,"time_elapsed":552942,"internal_node_id":"0.0-8.0-2.61","subject":"rav2830ce9kup6p","sona":"7624"},{"rt":343,"stimulus":"<p>Welche Sequenz haben Sie als natürlicher empfunden?</p>","key_press":70,"test_part":"response","test_stimulus":{"position":0,"left":"bvh/return-bottle-training3-lines.txt","right":"bvh/vr_prediction_models/model(dmp)-dataset(return-bottle)-npsi(20)-hold(3)/final-lines.txt","att_check":false},"trial_type":"html-keyboard-response","trial_index":254,"time_elapsed":553285,"internal_node_id":"0.0-8.0-3.61","subject":"rav2830ce9kup6p","sona":"7624"},{"rt":398,"stimulus":"<p>Bereit?</p>","key_press":32,"trial_type":"html-keyboard-response","trial_index":255,"time_elapsed":553685,"internal_node_id":"0.0-8.0-0.62","subject":"rav2830ce9kup6p","sona":"7624"},{"rt":null,"stimulus":"<div style=\"font-size:60px;\">+</div>","key_press":null,"trial_type":"html-keyboard-response","trial_index":256,"time_elapsed":555691,"internal_node_id":"0.0-8.0-1.62","subject":"rav2830ce9kup6p","sona":"7624"},{"trial_type":"turing-test","trial_index":257,"time_elapsed":559517,"internal_node_id":"0.0-8.0-2.62","subject":"rav2830ce9kup6p","sona":"7624"},{"rt":415,"stimulus":"<p>Welche Sequenz haben Sie als natürlicher empfunden?</p>","key_press":70,"test_part":"response","test_stimulus":{"position":0,"left":"bvh/return-bottle-hold-training2-lines.txt","right":"bvh/vr_prediction_models/model(vcgpdm)-dataset(return-bottle-hold)-mode(ELBO)-parts(1)-dyn(15)-lvm(35)-hold(2)/final-lines.txt","att_check":false},"trial_type":"html-keyboard-response","trial_index":258,"time_elapsed":559934,"internal_node_id":"0.0-8.0-3.62","subject":"rav2830ce9kup6p","sona":"7624"},{"rt":366,"stimulus":"<p>Bereit?</p>","key_press":32,"trial_type":"html-keyboard-response","trial_index":259,"time_elapsed":560301,"internal_node_id":"0.0-8.0-0.63","subject":"rav2830ce9kup6p","sona":"7624"},{"rt":null,"stimulus":"<div style=\"font-size:60px;\">+</div>","key_press":null,"trial_type":"html-keyboard-response","trial_index":260,"time_elapsed":562305,"internal_node_id":"0.0-8.0-1.63","subject":"rav2830ce9kup6p","sona":"7624"},{"trial_type":"turing-test","trial_index":261,"time_elapsed":565675,"internal_node_id":"0.0-8.0-2.63","subject":"rav2830ce9kup6p","sona":"7624"},{"rt":441,"stimulus":"<p>Welche Sequenz haben Sie als natürlicher empfunden?</p>","key_press":74,"test_part":"response","test_stimulus":{"position":0,"left":"bvh/pass-bottle-hold-training2-lines.txt","right":"bvh/vr_prediction_models/model(dmp)-dataset(pass-bottle-hold)-npsi(80)-hold(2)/final-lines.txt","att_check":false},"trial_type":"html-keyboard-response","trial_index":262,"time_elapsed":566118,"internal_node_id":"0.0-8.0-3.63","subject":"rav2830ce9kup6p","sona":"7624"},{"rt":1206,"stimulus":"<p>Bereit?</p>","key_press":32,"trial_type":"html-keyboard-response","trial_index":263,"time_elapsed":567325,"internal_node_id":"0.0-8.0-0.64","subject":"rav2830ce9kup6p","sona":"7624"},{"rt":null,"stimulus":"<div style=\"font-size:60px;\">+</div>","key_press":null,"trial_type":"html-keyboard-response","trial_index":264,"time_elapsed":569326,"internal_node_id":"0.0-8.0-1.64","subject":"rav2830ce9kup6p","sona":"7624"},{"trial_type":"turing-test","trial_index":265,"time_elapsed":573341,"internal_node_id":"0.0-8.0-2.64","subject":"rav2830ce9kup6p","sona":"7624"},{"rt":646,"stimulus":"<p>Welche Sequenz haben Sie als natürlicher empfunden?</p>","key_press":70,"test_part":"response","test_stimulus":{"position":1,"left":"bvh/vr_prediction_models/model(vcgpdm)-dataset(return-bottle-hold)-mode(ELBO)-parts(3)-dyn(35)-lvm(20)-hold(3)/final-lines.txt","right":"bvh/return-bottle-hold-training3-lines.txt","att_check":false},"trial_type":"html-keyboard-response","trial_index":266,"time_elapsed":573990,"internal_node_id":"0.0-8.0-3.64","subject":"rav2830ce9kup6p","sona":"7624"},{"rt":190,"stimulus":"<p>Bereit?</p>","key_press":32,"trial_type":"html-keyboard-response","trial_index":267,"time_elapsed":574181,"internal_node_id":"0.0-8.0-0.65","subject":"rav2830ce9kup6p","sona":"7624"},{"rt":null,"stimulus":"<div style=\"font-size:60px;\">+</div>","key_press":null,"trial_type":"html-keyboard-response","trial_index":268,"time_elapsed":576186,"internal_node_id":"0.0-8.0-1.65","subject":"rav2830ce9kup6p","sona":"7624"},{"trial_type":"turing-test","trial_index":269,"time_elapsed":579627,"internal_node_id":"0.0-8.0-2.65","subject":"rav2830ce9kup6p","sona":"7624"},{"rt":338,"stimulus":"<p>Welche Sequenz haben Sie als natürlicher empfunden?</p>","key_press":70,"test_part":"response","test_stimulus":{"position":1,"left":"bvh/vr_prediction_models/model(vcgpdm)-dataset(pass-bottle-hold)-mode(ELBO)-parts(1)-dyn(20)-lvm(5)-hold(3)/final-lines.txt","right":"bvh/pass-bottle-hold-training3-lines.txt","att_check":false},"trial_type":"html-keyboard-response","trial_index":270,"time_elapsed":579966,"internal_node_id":"0.0-8.0-3.65","subject":"rav2830ce9kup6p","sona":"7624"},{"rt":317,"stimulus":"<p>Bereit?</p>","key_press":32,"trial_type":"html-keyboard-response","trial_index":271,"time_elapsed":580286,"internal_node_id":"0.0-8.0-0.66","subject":"rav2830ce9kup6p","sona":"7624"},{"rt":null,"stimulus":"<div style=\"font-size:60px;\">+</div>","key_press":null,"trial_type":"html-keyboard-response","trial_index":272,"time_elapsed":582291,"internal_node_id":"0.0-8.0-1.66","subject":"rav2830ce9kup6p","sona":"7624"},{"trial_type":"turing-test","trial_index":273,"time_elapsed":585911,"internal_node_id":"0.0-8.0-2.66","subject":"rav2830ce9kup6p","sona":"7624"},{"rt":237,"stimulus":"<p>Welche Sequenz haben Sie als natürlicher empfunden?</p>","key_press":74,"test_part":"response","test_stimulus":{"position":0,"left":"bvh/pass-bottle-hold-training2-lines.txt","right":"bvh/vr_prediction_models/model(vcgpdm)-dataset(pass-bottle-hold)-mode(ELBO)-parts(3)-dyn(25)-lvm(25)-hold(2)/final-lines.txt","att_check":false},"trial_type":"html-keyboard-response","trial_index":274,"time_elapsed":586150,"internal_node_id":"0.0-8.0-3.66","subject":"rav2830ce9kup6p","sona":"7624"},{"rt":326,"stimulus":"<p>Bereit?</p>","key_press":32,"trial_type":"html-keyboard-response","trial_index":275,"time_elapsed":586478,"internal_node_id":"0.0-8.0-0.67","subject":"rav2830ce9kup6p","sona":"7624"},{"rt":null,"stimulus":"<div style=\"font-size:60px;\">+</div>","key_press":null,"trial_type":"html-keyboard-response","trial_index":276,"time_elapsed":588485,"internal_node_id":"0.0-8.0-1.67","subject":"rav2830ce9kup6p","sona":"7624"},{"trial_type":"turing-test","trial_index":277,"time_elapsed":595106,"internal_node_id":"0.0-8.0-2.67","subject":"rav2830ce9kup6p","sona":"7624"},{"rt":266,"stimulus":"<p>Welche Sequenz haben Sie als natürlicher empfunden?</p>","key_press":70,"test_part":"response","test_stimulus":{"position":0,"left":"bvh/return-bottle-training2-lines.txt","right":"bvh/vr_prediction_models/model(tmp)-dataset(return-bottle)-numprim(10)-hold(2)/final-lines.txt","att_check":false},"trial_type":"html-keyboard-response","trial_index":278,"time_elapsed":595375,"internal_node_id":"0.0-8.0-3.67","subject":"rav2830ce9kup6p","sona":"7624"},{"rt":325,"stimulus":"<p>Bereit?</p>","key_press":32,"trial_type":"html-keyboard-response","trial_index":279,"time_elapsed":595702,"internal_node_id":"0.0-8.0-0.68","subject":"rav2830ce9kup6p","sona":"7624"},{"rt":null,"stimulus":"<div style=\"font-size:60px;\">+</div>","key_press":null,"trial_type":"html-keyboard-response","trial_index":280,"time_elapsed":597707,"internal_node_id":"0.0-8.0-1.68","subject":"rav2830ce9kup6p","sona":"7624"},{"trial_type":"turing-test","trial_index":281,"time_elapsed":601308,"internal_node_id":"0.0-8.0-2.68","subject":"rav2830ce9kup6p","sona":"7624"},{"rt":41,"stimulus":"<p>Welche Sequenz haben Sie als natürlicher empfunden?</p>","key_press":74,"test_part":"response","test_stimulus":{"position":1,"left":"bvh/vr_prediction_models/model(vcgpdm)-dataset(pass-bottle-hold)-mode(ELBO)-parts(3)-dyn(30)-lvm(15)-hold(0)/final-lines.txt","right":"bvh/pass-bottle-hold-training0-lines.txt","att_check":false},"trial_type":"html-keyboard-response","trial_index":282,"time_elapsed":601350,"internal_node_id":"0.0-8.0-3.68","subject":"rav2830ce9kup6p","sona":"7624"},{"rt":302,"stimulus":"<p>Bereit?</p>","key_press":32,"trial_type":"html-keyboard-response","trial_index":283,"time_elapsed":601655,"internal_node_id":"0.0-8.0-0.69","subject":"rav2830ce9kup6p","sona":"7624"},{"rt":null,"stimulus":"<div style=\"font-size:60px;\">+</div>","key_press":null,"trial_type":"html-keyboard-response","trial_index":284,"time_elapsed":603658,"internal_node_id":"0.0-8.0-1.69","subject":"rav2830ce9kup6p","sona":"7624"},{"trial_type":"turing-test","trial_index":285,"time_elapsed":609112,"internal_node_id":"0.0-8.0-2.69","subject":"rav2830ce9kup6p","sona":"7624"},{"rt":396,"stimulus":"<p>Welche Sequenz haben Sie als natürlicher empfunden?</p>","key_press":70,"test_part":"response","test_stimulus":{"position":0,"left":"bvh/return-bottle-hold-training0-lines.txt","right":"bvh/vr_prediction_models/model(vcgpdm)-dataset(return-bottle-hold)-mode(ELBO)-parts(1)-dyn(30)-lvm(30)-hold(0)/final-lines.txt","att_check":false},"trial_type":"html-keyboard-response","trial_index":286,"time_elapsed":609511,"internal_node_id":"0.0-8.0-3.69","subject":"rav2830ce9kup6p","sona":"7624"},{"rt":301,"stimulus":"<p>Bereit?</p>","key_press":32,"trial_type":"html-keyboard-response","trial_index":287,"time_elapsed":609815,"internal_node_id":"0.0-8.0-0.70","subject":"rav2830ce9kup6p","sona":"7624"},{"rt":null,"stimulus":"<div style=\"font-size:60px;\">+</div>","key_press":null,"trial_type":"html-keyboard-response","trial_index":288,"time_elapsed":611817,"internal_node_id":"0.0-8.0-1.70","subject":"rav2830ce9kup6p","sona":"7624"},{"trial_type":"turing-test","trial_index":289,"time_elapsed":616924,"internal_node_id":"0.0-8.0-2.70","subject":"rav2830ce9kup6p","sona":"7624"},{"rt":264,"stimulus":"<p>Welche Sequenz haben Sie als natürlicher empfunden?</p>","key_press":74,"test_part":"response","test_stimulus":{"position":1,"left":"bvh/vr_prediction_models/model(tmp)-dataset(return-bottle-hold)-numprim(3)-hold(0)/final-lines.txt","right":"bvh/return-bottle-hold-training0-lines.txt","att_check":false},"trial_type":"html-keyboard-response","trial_index":290,"time_elapsed":617191,"internal_node_id":"0.0-8.0-3.70","subject":"rav2830ce9kup6p","sona":"7624"},{"rt":374,"stimulus":"<p>Bereit?</p>","key_press":32,"trial_type":"html-keyboard-response","trial_index":291,"time_elapsed":617566,"internal_node_id":"0.0-8.0-0.71","subject":"rav2830ce9kup6p","sona":"7624"},{"rt":null,"stimulus":"<div style=\"font-size:60px;\">+</div>","key_press":null,"trial_type":"html-keyboard-response","trial_index":292,"time_elapsed":619571,"internal_node_id":"0.0-8.0-1.71","subject":"rav2830ce9kup6p","sona":"7624"},{"trial_type":"turing-test","trial_index":293,"time_elapsed":626432,"internal_node_id":"0.0-8.0-2.71","subject":"rav2830ce9kup6p","sona":"7624"},{"rt":269,"stimulus":"<p>Welche Sequenz haben Sie als natürlicher empfunden?</p>","key_press":70,"test_part":"response","test_stimulus":{"position":0,"left":"bvh/return-bottle-training2-lines.txt","right":"bvh/vr_prediction_models/model(vcgpdm)-dataset(return-bottle)-mode(ELBO)-parts(1)-dyn(20)-lvm(30)-hold(2)/final-lines.txt","att_check":false},"trial_type":"html-keyboard-response","trial_index":294,"time_elapsed":626703,"internal_node_id":"0.0-8.0-3.71","subject":"rav2830ce9kup6p","sona":"7624"},{"rt":293,"stimulus":"<p>Bereit?</p>","key_press":32,"trial_type":"html-keyboard-response","trial_index":295,"time_elapsed":626999,"internal_node_id":"0.0-8.0-0.72","subject":"rav2830ce9kup6p","sona":"7624"},{"rt":null,"stimulus":"<div style=\"font-size:60px;\">+</div>","key_press":null,"trial_type":"html-keyboard-response","trial_index":296,"time_elapsed":629008,"internal_node_id":"0.0-8.0-1.72","subject":"rav2830ce9kup6p","sona":"7624"},{"trial_type":"turing-test","trial_index":297,"time_elapsed":632654,"internal_node_id":"0.0-8.0-2.72","subject":"rav2830ce9kup6p","sona":"7624"},{"rt":743,"stimulus":"<p>Welche Sequenz haben Sie als natürlicher empfunden?</p>","key_press":74,"test_part":"response","test_stimulus":{"position":0,"left":"bvh/return-bottle-hold-training4-lines.txt","right":"bvh/vr_prediction_models/model(tmp)-dataset(return-bottle-hold)-numprim(13)-hold(4)/final-lines.txt","att_check":false},"trial_type":"html-keyboard-response","trial_index":298,"time_elapsed":633399,"internal_node_id":"0.0-8.0-3.72","subject":"rav2830ce9kup6p","sona":"7624"},{"rt":510,"stimulus":"<p>Bereit?</p>","key_press":32,"trial_type":"html-keyboard-response","trial_index":299,"time_elapsed":633911,"internal_node_id":"0.0-8.0-0.73","subject":"rav2830ce9kup6p","sona":"7624"},{"rt":null,"stimulus":"<div style=\"font-size:60px;\">+</div>","key_press":null,"trial_type":"html-keyboard-response","trial_index":300,"time_elapsed":635915,"internal_node_id":"0.0-8.0-1.73","subject":"rav2830ce9kup6p","sona":"7624"},{"trial_type":"turing-test","trial_index":301,"time_elapsed":641351,"internal_node_id":"0.0-8.0-2.73","subject":"rav2830ce9kup6p","sona":"7624"},{"rt":286,"stimulus":"<p>Welche Sequenz haben Sie als natürlicher empfunden?</p>","key_press":74,"test_part":"response","test_stimulus":{"position":1,"left":"bvh/vr_prediction_models/model(tmp)-dataset(return-bottle)-numprim(4)-hold(0)/final-lines.txt","right":"bvh/return-bottle-training0-lines.txt","att_check":false},"trial_type":"html-keyboard-response","trial_index":302,"time_elapsed":641639,"internal_node_id":"0.0-8.0-3.73","subject":"rav2830ce9kup6p","sona":"7624"},{"rt":332,"stimulus":"<p>Bereit?</p>","key_press":32,"trial_type":"html-keyboard-response","trial_index":303,"time_elapsed":641975,"internal_node_id":"0.0-8.0-0.74","subject":"rav2830ce9kup6p","sona":"7624"},{"rt":null,"stimulus":"<div style=\"font-size:60px;\">+</div>","key_press":null,"trial_type":"html-keyboard-response","trial_index":304,"time_elapsed":643981,"internal_node_id":"0.0-8.0-1.74","subject":"rav2830ce9kup6p","sona":"7624"},{"trial_type":"turing-test","trial_index":305,"time_elapsed":647232,"internal_node_id":"0.0-8.0-2.74","subject":"rav2830ce9kup6p","sona":"7624"},{"rt":245,"stimulus":"<p>Welche Sequenz haben Sie als natürlicher empfunden?</p>","key_press":74,"test_part":"response","test_stimulus":{"position":0,"left":"bvh/pass-bottle-hold-training1-lines.txt","right":"bvh/vr_prediction_models/model(dmp)-dataset(pass-bottle-hold)-npsi(50)-hold(1)/final-lines.txt","att_check":true},"trial_type":"html-keyboard-response","trial_index":306,"time_elapsed":647479,"internal_node_id":"0.0-8.0-3.74","subject":"rav2830ce9kup6p","sona":"7624"},{"rt":262,"stimulus":"<p>Bereit?</p>","key_press":32,"trial_type":"html-keyboard-response","trial_index":307,"time_elapsed":647743,"internal_node_id":"0.0-8.0-0.75","subject":"rav2830ce9kup6p","sona":"7624"},{"rt":null,"stimulus":"<div style=\"font-size:60px;\">+</div>","key_press":null,"trial_type":"html-keyboard-response","trial_index":308,"time_elapsed":649748,"internal_node_id":"0.0-8.0-1.75","subject":"rav2830ce9kup6p","sona":"7624"},{"trial_type":"turing-test","trial_index":309,"time_elapsed":653736,"internal_node_id":"0.0-8.0-2.75","subject":"rav2830ce9kup6p","sona":"7624"},{"rt":423,"stimulus":"<p>Welche Sequenz haben Sie als natürlicher empfunden?</p>","key_press":74,"test_part":"response","test_stimulus":{"position":0,"left":"bvh/pass-bottle-hold-training4-lines.txt","right":"bvh/vr_prediction_models/model(vcgpdm)-dataset(pass-bottle-hold)-mode(ELBO)-parts(3)-dyn(20)-lvm(35)-hold(4)/final-lines.txt","att_check":false},"trial_type":"html-keyboard-response","trial_index":310,"time_elapsed":654161,"internal_node_id":"0.0-8.0-3.75","subject":"rav2830ce9kup6p","sona":"7624"},{"rt":773,"stimulus":"<p>Bereit?</p>","key_press":32,"trial_type":"html-keyboard-response","trial_index":311,"time_elapsed":654935,"internal_node_id":"0.0-8.0-0.76","subject":"rav2830ce9kup6p","sona":"7624"},{"rt":null,"stimulus":"<div style=\"font-size:60px;\">+</div>","key_press":null,"trial_type":"html-keyboard-response","trial_index":312,"time_elapsed":656937,"internal_node_id":"0.0-8.0-1.76","subject":"rav2830ce9kup6p","sona":"7624"},{"trial_type":"turing-test","trial_index":313,"time_elapsed":662700,"internal_node_id":"0.0-8.0-2.76","subject":"rav2830ce9kup6p","sona":"7624"},{"rt":194,"stimulus":"<p>Welche Sequenz haben Sie als natürlicher empfunden?</p>","key_press":74,"test_part":"response","test_stimulus":{"position":0,"left":"bvh/return-bottle-training3-lines.txt","right":"bvh/vr_prediction_models/model(tmp)-dataset(return-bottle)-numprim(13)-hold(3)/final-lines.txt","att_check":false},"trial_type":"html-keyboard-response","trial_index":314,"time_elapsed":662895,"internal_node_id":"0.0-8.0-3.76","subject":"rav2830ce9kup6p","sona":"7624"},{"rt":421,"stimulus":"<p>Bereit?</p>","key_press":32,"trial_type":"html-keyboard-response","trial_index":315,"time_elapsed":663319,"internal_node_id":"0.0-8.0-0.77","subject":"rav2830ce9kup6p","sona":"7624"},{"rt":null,"stimulus":"<div style=\"font-size:60px;\">+</div>","key_press":null,"trial_type":"html-keyboard-response","trial_index":316,"time_elapsed":665324,"internal_node_id":"0.0-8.0-1.77","subject":"rav2830ce9kup6p","sona":"7624"},{"trial_type":"turing-test","trial_index":317,"time_elapsed":671793,"internal_node_id":"0.0-8.0-2.77","subject":"rav2830ce9kup6p","sona":"7624"},{"rt":68,"stimulus":"<p>Welche Sequenz haben Sie als natürlicher empfunden?</p>","key_press":70,"test_part":"response","test_stimulus":{"position":0,"left":"bvh/return-bottle-training1-lines.txt","right":"bvh/vr_prediction_models/model(dmp)-dataset(return-bottle)-npsi(40)-hold(1)/final-lines.txt","att_check":false},"trial_type":"html-keyboard-response","trial_index":318,"time_elapsed":671863,"internal_node_id":"0.0-8.0-3.77","subject":"rav2830ce9kup6p","sona":"7624"},{"rt":445,"stimulus":"<p>Bereit?</p>","key_press":32,"trial_type":"html-keyboard-response","trial_index":319,"time_elapsed":672312,"internal_node_id":"0.0-8.0-0.78","subject":"rav2830ce9kup6p","sona":"7624"},{"rt":null,"stimulus":"<div style=\"font-size:60px;\">+</div>","key_press":null,"trial_type":"html-keyboard-response","trial_index":320,"time_elapsed":674314,"internal_node_id":"0.0-8.0-1.78","subject":"rav2830ce9kup6p","sona":"7624"},{"trial_type":"turing-test","trial_index":321,"time_elapsed":679464,"internal_node_id":"0.0-8.0-2.78","subject":"rav2830ce9kup6p","sona":"7624"},{"rt":293,"stimulus":"<p>Welche Sequenz haben Sie als natürlicher empfunden?</p>","key_press":74,"test_part":"response","test_stimulus":{"position":1,"left":"bvh/vr_prediction_models/model(tmp)-dataset(return-bottle-hold)-numprim(7)-hold(0)/final-lines.txt","right":"bvh/return-bottle-hold-training0-lines.txt","att_check":false},"trial_type":"html-keyboard-response","trial_index":322,"time_elapsed":679760,"internal_node_id":"0.0-8.0-3.78","subject":"rav2830ce9kup6p","sona":"7624"},{"rt":294,"stimulus":"<p>Bereit?</p>","key_press":32,"trial_type":"html-keyboard-response","trial_index":323,"time_elapsed":680055,"internal_node_id":"0.0-8.0-0.79","subject":"rav2830ce9kup6p","sona":"7624"},{"rt":null,"stimulus":"<div style=\"font-size:60px;\">+</div>","key_press":null,"trial_type":"html-keyboard-response","trial_index":324,"time_elapsed":682060,"internal_node_id":"0.0-8.0-1.79","subject":"rav2830ce9kup6p","sona":"7624"},{"trial_type":"turing-test","trial_index":325,"time_elapsed":687109,"internal_node_id":"0.0-8.0-2.79","subject":"rav2830ce9kup6p","sona":"7624"},{"rt":209,"stimulus":"<p>Welche Sequenz haben Sie als natürlicher empfunden?</p>","key_press":74,"test_part":"response","test_stimulus":{"position":1,"left":"bvh/vr_prediction_models/model(vcgpdm)-dataset(return-bottle-hold)-mode(ELBO)-parts(1)-dyn(35)-lvm(30)-hold(4)/final-lines.txt","right":"bvh/return-bottle-hold-training4-lines.txt","att_check":false},"trial_type":"html-keyboard-response","trial_index":326,"time_elapsed":687320,"internal_node_id":"0.0-8.0-3.79","subject":"rav2830ce9kup6p","sona":"7624"},{"rt":8843,"responses":"{\"age\":\" 19\",\"gender\":\"männlich\"}","trial_type":"survey-text","trial_index":327,"time_elapsed":696170,"internal_node_id":"0.0-10.0-0.0","subject":"rav2830ce9kup6p","sona":"7624"},{"rt":50345,"responses":"{\"area\":\"Arme und Beine\",\"Q1\":\"stockende Bewegungen\",\"Q2\":\"Erwartbarkeit, Geschwindigkeit\"}","trial_type":"survey-text","trial_index":328,"time_elapsed":746537,"internal_node_id":"0.0-10.0-1.0","subject":"rav2830ce9kup6p","sona":"7624"}]