[{"rt":4333.340000011958,"stimulus":"<p>Welcome!<br> Please choose your language to start the experiment in the chosen language.</p><p>Willkommen!<br> Bitte wählen Sie eine Sprache, um das Experiment in der ausgewählten Sprache zu starten</p>","button_pressed":"1","trial_type":"html-button-response","trial_index":0,"time_elapsed":4398,"internal_node_id":"0.0-0.0","subject":"vc7w8qxx5eu066y","sona":"7564"},{"view_history":"[{\"page_index\":0,\"viewing_time\":7230.729999952018},{\"page_index\":1,\"viewing_time\":3523.0699999956414},{\"page_index\":2,\"viewing_time\":5209.410000010394},{\"page_index\":3,\"viewing_time\":3078.529999940656},{\"page_index\":4,\"viewing_time\":20832.940000109375}]","rt":39876.854999922216,"trial_type":"instructions","trial_index":1,"time_elapsed":44278,"internal_node_id":"0.0-1.0-0.0","subject":"vc7w8qxx5eu066y","sona":"7564"},{"rt":2516.8350000167266,"stimulus":"<p>Bereit?</p>","key_press":32,"trial_type":"html-keyboard-response","trial_index":2,"time_elapsed":46797,"internal_node_id":"0.0-3.0","subject":"vc7w8qxx5eu066y","sona":"7564"},{"rt":null,"stimulus":"<div style=\"font-size:60px;\">+</div>","key_press":null,"trial_type":"html-keyboard-response","trial_index":3,"time_elapsed":48813,"internal_node_id":"0.0-4.0","subject":"vc7w8qxx5eu066y","sona":"7564"},{"trial_type":"training","trial_index":4,"time_elapsed":52354,"internal_node_id":"0.0-5.0","subject":"vc7w8qxx5eu066y","sona":"7564"},{"rt":2026.2050000019372,"stimulus":"<p>Welche Sequenz haben Sie als natürlicher empfunden?</p>","key_press":70,"trial_type":"html-keyboard-response","trial_index":5,"time_elapsed":54382,"internal_node_id":"0.0-6.0","subject":"vc7w8qxx5eu066y","sona":"7564"},{"rt":8286.764999968,"stimulus":"<p>Das Experiment startet nun.</p><p><small>Bitte drücken Sie den Knopf, wenn Sie bereit sind.</small></p>","button_pressed":"0","trial_type":"html-button-response","trial_index":6,"time_elapsed":62671,"internal_node_id":"0.0-7.0","subject":"vc7w8qxx5eu066y","sona":"7564"},{"rt":1477.4449999677017,"stimulus":"<p>Bereit?</p>","key_press":32,"trial_type":"html-keyboard-response","trial_index":7,"time_elapsed":64151,"internal_node_id":"0.0-8.0-0.0","subject":"vc7w8qxx5eu066y","sona":"7564"},{"rt":null,"stimulus":"<div style=\"font-size:60px;\">+</div>","key_press":null,"trial_type":"html-keyboard-response","trial_index":8,"time_elapsed":66173,"internal_node_id":"0.0-8.0-1.0","subject":"vc7w8qxx5eu066y","sona":"7564"},{"trial_type":"turing-test","trial_index":9,"time_elapsed":73262,"internal_node_id":"0.0-8.0-2.0","subject":"vc7w8qxx5eu066y","sona":"7564"},{"rt":4391.145000001416,"stimulus":"<p>Welche Sequenz haben Sie als natürlicher empfunden?</p>","key_press":70,"test_part":"response","test_stimulus":{"position":1,"left":"bvh/vr_prediction_models/model(vcgpdm)-dataset(pass-bottle)-mode(ELBO)-parts(3)-dyn(20)-lvm(20)-hold(0)/final-lines.txt","right":"bvh/pass-bottle-training0-lines.txt","att_check":false},"trial_type":"html-keyboard-response","trial_index":10,"time_elapsed":77657,"internal_node_id":"0.0-8.0-3.0","subject":"vc7w8qxx5eu066y","sona":"7564"},{"rt":1637.3399998992682,"stimulus":"<p>Bereit?</p>","key_press":32,"trial_type":"html-keyboard-response","trial_index":11,"time_elapsed":79299,"internal_node_id":"0.0-8.0-0.1","subject":"vc7w8qxx5eu066y","sona":"7564"},{"rt":null,"stimulus":"<div style=\"font-size:60px;\">+</div>","key_press":null,"trial_type":"html-keyboard-response","trial_index":12,"time_elapsed":81324,"internal_node_id":"0.0-8.0-1.1","subject":"vc7w8qxx5eu066y","sona":"7564"},{"trial_type":"turing-test","trial_index":13,"time_elapsed":86964,"internal_node_id":"0.0-8.0-2.1","subject":"vc7w8qxx5eu066y","sona":"7564"},{"rt":1184.4800000544637,"stimulus":"<p>Welche Sequenz haben Sie als natürlicher empfunden?</p>","key_press":70,"test_part":"response","test_stimulus":{"position":1,"left":"bvh/vr_prediction_models/model(dmp)-dataset(return-bottle)-npsi(50)-hold(0)/final-lines.txt","right":"bvh/return-bottle-training0-lines.txt","att_check":false},"trial_type":"html-keyboard-response","trial_index":14,"time_elapsed":88155,"internal_node_id":"0.0-8.0-3.1","subject":"vc7w8qxx5eu066y","sona":"7564"},{"rt":1292.0600000070408,"stimulus":"<p>Bereit?</p>","key_press":32,"trial_type":"html-keyboard-response","trial_index":15,"time_elapsed":89450,"internal_node_id":"0.0-8.0-0.2","subject":"vc7w8qxx5eu066y","sona":"7564"},{"rt":null,"stimulus":"<div style=\"font-size:60px;\">+</div>","key_press":null,"trial_type":"html-keyboard-response","trial_index":16,"time_elapsed":91461,"internal_node_id":"0.0-8.0-1.2","subject":"vc7w8qxx5eu066y","sona":"7564"},{"trial_type":"turing-test","trial_index":17,"time_elapsed":95131,"internal_node_id":"0.0-8.0-2.2","subject":"vc7w8qxx5eu066y","sona":"7564"},{"rt":2953.375000040978,"stimulus":"<p>Welche Sequenz haben Sie als natürlicher empfunden?</p>","key_press":74,"test_part":"response","test_stimulus":{"position":0,"left":"bvh/pass-bottle-hold-training3-lines.txt","right":"bvh/vr_prediction_models/model(dmp)-dataset(pass-bottle-hold)-npsi(20)-hold(3)/final-lines.txt","att_check":false},"trial_type":"html-keyboard-response","trial_index":18,"time_elapsed":98088,"internal_node_id":"0.0-8.0-3.2","subject":"vc7w8qxx5eu066y","sona":"7564"},{"rt":1095.1050000730902,"stimulus":"<p>Bereit?</p>","key_press":32,"trial_type":"html-keyboard-response","trial_index":19,"time_elapsed":99187,"internal_node_id":"0.0-8.0-0.3","subject":"vc7w8qxx5eu066y","sona":"7564"},{"rt":null,"stimulus":"<div style=\"font-size:60px;\">+</div>","key_press":null,"trial_type":"html-keyboard-response","trial_index":20,"time_elapsed":101206,"internal_node_id":"0.0-8.0-1.3","subject":"vc7w8qxx5eu066y","sona":"7564"},{"trial_type":"turing-test","trial_index":21,"time_elapsed":107398,"internal_node_id":"0.0-8.0-2.3","subject":"vc7w8qxx5eu066y","sona":"7564"},{"rt":1435.5300000170246,"stimulus":"<p>Welche Sequenz haben Sie als natürlicher empfunden?</p>","key_press":70,"test_part":"response","test_stimulus":{"position":0,"left":"bvh/return-bottle-training1-lines.txt","right":"bvh/vr_prediction_models/model(tmp)-dataset(return-bottle)-numprim(8)-hold(1)/final-lines.txt","att_check":false},"trial_type":"html-keyboard-response","trial_index":22,"time_elapsed":108838,"internal_node_id":"0.0-8.0-3.3","subject":"vc7w8qxx5eu066y","sona":"7564"},{"rt":997.6249999599531,"stimulus":"<p>Bereit?</p>","key_press":32,"trial_type":"html-keyboard-response","trial_index":23,"time_elapsed":109840,"internal_node_id":"0.0-8.0-0.4","subject":"vc7w8qxx5eu066y","sona":"7564"},{"rt":null,"stimulus":"<div style=\"font-size:60px;\">+</div>","key_press":null,"trial_type":"html-keyboard-response","trial_index":24,"time_elapsed":111863,"internal_node_id":"0.0-8.0-1.4","subject":"vc7w8qxx5eu066y","sona":"7564"},{"trial_type":"turing-test","trial_index":25,"time_elapsed":115910,"internal_node_id":"0.0-8.0-2.4","subject":"vc7w8qxx5eu066y","sona":"7564"},{"rt":2602.06000006292,"stimulus":"<p>Welche Sequenz haben Sie als natürlicher empfunden?</p>","key_press":70,"test_part":"response","test_stimulus":{"position":1,"left":"bvh/vr_prediction_models/model(vcgpdm)-dataset(return-bottle-hold)-mode(ELBO)-parts(1)-dyn(25)-lvm(35)-hold(2)/final-lines.txt","right":"bvh/return-bottle-hold-training2-lines.txt","att_check":false},"trial_type":"html-keyboard-response","trial_index":26,"time_elapsed":118517,"internal_node_id":"0.0-8.0-3.4","subject":"vc7w8qxx5eu066y","sona":"7564"},{"rt":875.3250000299886,"stimulus":"<p>Bereit?</p>","key_press":32,"trial_type":"html-keyboard-response","trial_index":27,"time_elapsed":119396,"internal_node_id":"0.0-8.0-0.5","subject":"vc7w8qxx5eu066y","sona":"7564"},{"rt":null,"stimulus":"<div style=\"font-size:60px;\">+</div>","key_press":null,"trial_type":"html-keyboard-response","trial_index":28,"time_elapsed":121405,"internal_node_id":"0.0-8.0-1.5","subject":"vc7w8qxx5eu066y","sona":"7564"},{"trial_type":"turing-test","trial_index":29,"time_elapsed":124982,"internal_node_id":"0.0-8.0-2.5","subject":"vc7w8qxx5eu066y","sona":"7564"},{"rt":475.25999997742474,"stimulus":"<p>Welche Sequenz haben Sie als natürlicher empfunden?</p>","key_press":74,"test_part":"response","test_stimulus":{"position":1,"left":"bvh/vr_prediction_models/model(dmp)-dataset(return-bottle-hold)-npsi(30)-hold(2)/final-lines.txt","right":"bvh/return-bottle-hold-training2-lines.txt","att_check":false},"trial_type":"html-keyboard-response","trial_index":30,"time_elapsed":125463,"internal_node_id":"0.0-8.0-3.5","subject":"vc7w8qxx5eu066y","sona":"7564"},{"rt":874.0149999503046,"stimulus":"<p>Bereit?</p>","key_press":32,"trial_type":"html-keyboard-response","trial_index":31,"time_elapsed":126341,"internal_node_id":"0.0-8.0-0.6","subject":"vc7w8qxx5eu066y","sona":"7564"},{"rt":null,"stimulus":"<div style=\"font-size:60px;\">+</div>","key_press":null,"trial_type":"html-keyboard-response","trial_index":32,"time_elapsed":128355,"internal_node_id":"0.0-8.0-1.6","subject":"vc7w8qxx5eu066y","sona":"7564"},{"trial_type":"turing-test","trial_index":33,"time_elapsed":134557,"internal_node_id":"0.0-8.0-2.6","subject":"vc7w8qxx5eu066y","sona":"7564"},{"rt":431.5199999837205,"stimulus":"<p>Welche Sequenz haben Sie als natürlicher empfunden?</p>","key_press":74,"test_part":"response","test_stimulus":{"position":1,"left":"bvh/vr_prediction_models/model(vcgpdm)-dataset(return-bottle)-mode(ELBO)-parts(1)-dyn(10)-lvm(25)-hold(3)/final-lines.txt","right":"bvh/return-bottle-training3-lines.txt","att_check":false},"trial_type":"html-keyboard-response","trial_index":34,"time_elapsed":134994,"internal_node_id":"0.0-8.0-3.6","subject":"vc7w8qxx5eu066y","sona":"7564"},{"rt":575.9749999269843,"stimulus":"<p>Bereit?</p>","key_press":32,"trial_type":"html-keyboard-response","trial_index":35,"time_elapsed":135573,"internal_node_id":"0.0-8.0-0.7","subject":"vc7w8qxx5eu066y","sona":"7564"},{"rt":null,"stimulus":"<div style=\"font-size:60px;\">+</div>","key_press":null,"trial_type":"html-keyboard-response","trial_index":36,"time_elapsed":137582,"internal_node_id":"0.0-8.0-1.7","subject":"vc7w8qxx5eu066y","sona":"7564"},{"trial_type":"turing-test","trial_index":37,"time_elapsed":141367,"internal_node_id":"0.0-8.0-2.7","subject":"vc7w8qxx5eu066y","sona":"7564"},{"rt":478.6800000583753,"stimulus":"<p>Welche Sequenz haben Sie als natürlicher empfunden?</p>","key_press":74,"test_part":"response","test_stimulus":{"position":0,"left":"bvh/return-bottle-hold-training3-lines.txt","right":"bvh/vr_prediction_models/model(dmp)-dataset(return-bottle-hold)-npsi(100)-hold(3)/final-lines.txt","att_check":false},"trial_type":"html-keyboard-response","trial_index":38,"time_elapsed":141850,"internal_node_id":"0.0-8.0-3.7","subject":"vc7w8qxx5eu066y","sona":"7564"},{"rt":1194.1349999979138,"stimulus":"<p>Bereit?</p>","key_press":32,"trial_type":"html-keyboard-response","trial_index":39,"time_elapsed":143051,"internal_node_id":"0.0-8.0-0.8","subject":"vc7w8qxx5eu066y","sona":"7564"},{"rt":null,"stimulus":"<div style=\"font-size:60px;\">+</div>","key_press":null,"trial_type":"html-keyboard-response","trial_index":40,"time_elapsed":145055,"internal_node_id":"0.0-8.0-1.8","subject":"vc7w8qxx5eu066y","sona":"7564"},{"trial_type":"turing-test","trial_index":41,"time_elapsed":149065,"internal_node_id":"0.0-8.0-2.8","subject":"vc7w8qxx5eu066y","sona":"7564"},{"rt":1200.2799999900162,"stimulus":"<p>Welche Sequenz haben Sie als natürlicher empfunden?</p>","key_press":74,"test_part":"response","test_stimulus":{"position":0,"left":"bvh/return-bottle-hold-training3-lines.txt","right":"bvh/vr_prediction_models/model(vcgpdm)-dataset(return-bottle-hold)-mode(ELBO)-parts(1)-dyn(20)-lvm(5)-hold(3)/final-lines.txt","att_check":false},"trial_type":"html-keyboard-response","trial_index":42,"time_elapsed":150269,"internal_node_id":"0.0-8.0-3.8","subject":"vc7w8qxx5eu066y","sona":"7564"},{"rt":753.2549999887124,"stimulus":"<p>Bereit?</p>","key_press":32,"trial_type":"html-keyboard-response","trial_index":43,"time_elapsed":151027,"internal_node_id":"0.0-8.0-0.9","subject":"vc7w8qxx5eu066y","sona":"7564"},{"rt":null,"stimulus":"<div style=\"font-size:60px;\">+</div>","key_press":null,"trial_type":"html-keyboard-response","trial_index":44,"time_elapsed":153038,"internal_node_id":"0.0-8.0-1.9","subject":"vc7w8qxx5eu066y","sona":"7564"},{"trial_type":"turing-test","trial_index":45,"time_elapsed":156678,"internal_node_id":"0.0-8.0-2.9","subject":"vc7w8qxx5eu066y","sona":"7564"},{"rt":668.3600000105798,"stimulus":"<p>Welche Sequenz haben Sie als natürlicher empfunden?</p>","key_press":70,"test_part":"response","test_stimulus":{"position":1,"left":"bvh/vr_prediction_models/model(vcgpdm)-dataset(pass-bottle-hold)-mode(ELBO)-parts(1)-dyn(30)-lvm(30)-hold(1)/final-lines.txt","right":"bvh/pass-bottle-hold-training1-lines.txt","att_check":false},"trial_type":"html-keyboard-response","trial_index":46,"time_elapsed":157352,"internal_node_id":"0.0-8.0-3.9","subject":"vc7w8qxx5eu066y","sona":"7564"},{"rt":764.6250000689179,"stimulus":"<p>Bereit?</p>","key_press":32,"trial_type":"html-keyboard-response","trial_index":47,"time_elapsed":158120,"internal_node_id":"0.0-8.0-0.10","subject":"vc7w8qxx5eu066y","sona":"7564"},{"rt":null,"stimulus":"<div style=\"font-size:60px;\">+</div>","key_press":null,"trial_type":"html-keyboard-response","trial_index":48,"time_elapsed":160127,"internal_node_id":"0.0-8.0-1.10","subject":"vc7w8qxx5eu066y","sona":"7564"},{"trial_type":"turing-test","trial_index":49,"time_elapsed":164088,"internal_node_id":"0.0-8.0-2.10","subject":"vc7w8qxx5eu066y","sona":"7564"},{"rt":807.2650000685826,"stimulus":"<p>Welche Sequenz haben Sie als natürlicher empfunden?</p>","key_press":74,"test_part":"response","test_stimulus":{"position":1,"left":"bvh/vr_prediction_models/model(vcgpdm)-dataset(pass-bottle-hold)-mode(MAP)-parts(3)-hold(3)/final-lines.txt","right":"bvh/pass-bottle-hold-training3-lines.txt","att_check":false},"trial_type":"html-keyboard-response","trial_index":50,"time_elapsed":164901,"internal_node_id":"0.0-8.0-3.10","subject":"vc7w8qxx5eu066y","sona":"7564"},{"rt":1198.6699999542907,"stimulus":"<p>Bereit?</p>","key_press":32,"trial_type":"html-keyboard-response","trial_index":51,"time_elapsed":166103,"internal_node_id":"0.0-8.0-0.11","subject":"vc7w8qxx5eu066y","sona":"7564"},{"rt":null,"stimulus":"<div style=\"font-size:60px;\">+</div>","key_press":null,"trial_type":"html-keyboard-response","trial_index":52,"time_elapsed":168131,"internal_node_id":"0.0-8.0-1.11","subject":"vc7w8qxx5eu066y","sona":"7564"}]