[{"rt":2587.4849999090657,"stimulus":"<p>Welcome!<br> Please choose your language to start the experiment in the chosen language.</p><p>Willkommen!<br> Bitte wählen Sie eine Sprache, um das Experiment in der ausgewählten Sprache zu starten</p>","button_pressed":"1","trial_type":"html-button-response","trial_index":0,"time_elapsed":2658,"internal_node_id":"0.0-0.0","subject":"7695e35h8gy0kg4","sona":"8698"},{"view_history":"[{\"page_index\":0,\"viewing_time\":1066.5899999439716},{\"page_index\":1,\"viewing_time\":1820.850000018254},{\"page_index\":2,\"viewing_time\":2045.920000062324},{\"page_index\":3,\"viewing_time\":1262.3550000134856},{\"page_index\":4,\"viewing_time\":2634.265000000596}]","rt":8831.065000034869,"trial_type":"instructions","trial_index":1,"time_elapsed":11490,"internal_node_id":"0.0-1.0-0.0","subject":"7695e35h8gy0kg4","sona":"8698"},{"rt":953.3999999985099,"stimulus":"<p>Bereit?</p>","key_press":32,"trial_type":"html-keyboard-response","trial_index":2,"time_elapsed":12447,"internal_node_id":"0.0-3.0","subject":"7695e35h8gy0kg4","sona":"8698"},{"rt":null,"stimulus":"<div style=\"font-size:60px;\">+</div>","key_press":null,"trial_type":"html-keyboard-response","trial_index":3,"time_elapsed":14464,"internal_node_id":"0.0-4.0","subject":"7695e35h8gy0kg4","sona":"8698"},{"trial_type":"training","trial_index":4,"time_elapsed":17800,"internal_node_id":"0.0-5.0","subject":"7695e35h8gy0kg4","sona":"8698"},{"rt":284.3649999704212,"stimulus":"<p>Welche Sequenz haben Sie als natürlicher empfunden?</p>","key_press":70,"trial_type":"html-keyboard-response","trial_index":5,"time_elapsed":18087,"internal_node_id":"0.0-6.0","subject":"7695e35h8gy0kg4","sona":"8698"},{"rt":2263.6200000997633,"stimulus":"<p>Das Experiment startet nun.</p><p><small>Bitte drücken Sie den Knopf, wenn Sie bereit sind.</small></p>","button_pressed":"0","trial_type":"html-button-response","trial_index":6,"time_elapsed":20353,"internal_node_id":"0.0-7.0","subject":"7695e35h8gy0kg4","sona":"8698"},{"rt":916.8699999572709,"stimulus":"<p>Bereit?</p>","key_press":32,"trial_type":"html-keyboard-response","trial_index":7,"time_elapsed":21272,"internal_node_id":"0.0-8.0-0.0","subject":"7695e35h8gy0kg4","sona":"8698"},{"rt":null,"stimulus":"<div style=\"font-size:60px;\">+</div>","key_press":null,"trial_type":"html-keyboard-response","trial_index":8,"time_elapsed":23283,"internal_node_id":"0.0-8.0-1.0","subject":"7695e35h8gy0kg4","sona":"8698"},{"trial_type":"turing-test","trial_index":9,"time_elapsed":27116,"internal_node_id":"0.0-8.0-2.0","subject":"7695e35h8gy0kg4","sona":"8698"},{"rt":603.4699999727309,"stimulus":"<p>Welche Sequenz haben Sie als natürlicher empfunden?</p>","key_press":74,"test_part":"response","test_stimulus":{"position":1,"left":"bvh/vr_prediction_models/model(dmp)-dataset(return-bottle-hold)-npsi(50)-hold(4)/final-lines.txt","right":"bvh/return-bottle-hold-training4-lines.txt","att_check":false},"trial_type":"html-keyboard-response","trial_index":10,"time_elapsed":27726,"internal_node_id":"0.0-8.0-3.0","subject":"7695e35h8gy0kg4","sona":"8698"},{"rt":59804.29999995977,"stimulus":"<p>Bereit?</p>","key_press":32,"trial_type":"html-keyboard-response","trial_index":11,"time_elapsed":87536,"internal_node_id":"0.0-8.0-0.1","subject":"7695e35h8gy0kg4","sona":"8698"},{"rt":null,"stimulus":"<div style=\"font-size:60px;\">+</div>","key_press":null,"trial_type":"html-keyboard-response","trial_index":12,"time_elapsed":89545,"internal_node_id":"0.0-8.0-1.1","subject":"7695e35h8gy0kg4","sona":"8698"},{"trial_type":"turing-test","trial_index":13,"time_elapsed":96268,"internal_node_id":"0.0-8.0-2.1","subject":"7695e35h8gy0kg4","sona":"8698"},{"rt":453.8250000914559,"stimulus":"<p>Welche Sequenz haben Sie als natürlicher empfunden?</p>","key_press":70,"test_part":"response","test_stimulus":{"position":0,"left":"bvh/return-bottle-training4-lines.txt","right":"bvh/vr_prediction_models/model(vcgpdm)-dataset(return-bottle)-mode(ELBO)-parts(1)-dyn(25)-lvm(35)-hold(4)/final-lines.txt","att_check":false},"trial_type":"html-keyboard-response","trial_index":14,"time_elapsed":96727,"internal_node_id":"0.0-8.0-3.1","subject":"7695e35h8gy0kg4","sona":"8698"},{"rt":283.1100000767037,"stimulus":"<p>Bereit?</p>","key_press":32,"trial_type":"html-keyboard-response","trial_index":15,"time_elapsed":97014,"internal_node_id":"0.0-8.0-0.2","subject":"7695e35h8gy0kg4","sona":"8698"},{"rt":null,"stimulus":"<div style=\"font-size:60px;\">+</div>","key_press":null,"trial_type":"html-keyboard-response","trial_index":16,"time_elapsed":99029,"internal_node_id":"0.0-8.0-1.2","subject":"7695e35h8gy0kg4","sona":"8698"},{"trial_type":"turing-test","trial_index":17,"time_elapsed":105273,"internal_node_id":"0.0-8.0-2.2","subject":"7695e35h8gy0kg4","sona":"8698"},{"rt":427.6850000023842,"stimulus":"<p>Welche Sequenz haben Sie als natürlicher empfunden?</p>","key_press":70,"test_part":"response","test_stimulus":{"position":0,"left":"bvh/return-bottle-training4-lines.txt","right":"bvh/vr_prediction_models/model(vcgpdm)-dataset(return-bottle)-mode(ELBO)-parts(3)-dyn(30)-lvm(15)-hold(4)/final-lines.txt","att_check":false},"trial_type":"html-keyboard-response","trial_index":18,"time_elapsed":105708,"internal_node_id":"0.0-8.0-3.2","subject":"7695e35h8gy0kg4","sona":"8698"},{"rt":220.88000003714114,"stimulus":"<p>Bereit?</p>","key_press":32,"trial_type":"html-keyboard-response","trial_index":19,"time_elapsed":105931,"internal_node_id":"0.0-8.0-0.3","subject":"7695e35h8gy0kg4","sona":"8698"},{"rt":null,"stimulus":"<div style=\"font-size:60px;\">+</div>","key_press":null,"trial_type":"html-keyboard-response","trial_index":20,"time_elapsed":107937,"internal_node_id":"0.0-8.0-1.3","subject":"7695e35h8gy0kg4","sona":"8698"},{"trial_type":"turing-test","trial_index":21,"time_elapsed":111680,"internal_node_id":"0.0-8.0-2.3","subject":"7695e35h8gy0kg4","sona":"8698"},{"rt":370.2100000809878,"stimulus":"<p>Welche Sequenz haben Sie als natürlicher empfunden?</p>","key_press":74,"test_part":"response","test_stimulus":{"position":1,"left":"bvh/vr_prediction_models/model(vcgpdm)-dataset(pass-bottle-hold)-mode(MAP)-parts(1)-hold(1)/final-lines.txt","right":"bvh/pass-bottle-hold-training1-lines.txt","att_check":false},"trial_type":"html-keyboard-response","trial_index":22,"time_elapsed":112057,"internal_node_id":"0.0-8.0-3.3","subject":"7695e35h8gy0kg4","sona":"8698"},{"rt":241.9949999311939,"stimulus":"<p>Bereit?</p>","key_press":32,"trial_type":"html-keyboard-response","trial_index":23,"time_elapsed":112303,"internal_node_id":"0.0-8.0-0.4","subject":"7695e35h8gy0kg4","sona":"8698"},{"rt":null,"stimulus":"<div style=\"font-size:60px;\">+</div>","key_press":null,"trial_type":"html-keyboard-response","trial_index":24,"time_elapsed":114314,"internal_node_id":"0.0-8.0-1.4","subject":"7695e35h8gy0kg4","sona":"8698"},{"trial_type":"turing-test","trial_index":25,"time_elapsed":117754,"internal_node_id":"0.0-8.0-2.4","subject":"7695e35h8gy0kg4","sona":"8698"},{"rt":412.46500005945563,"stimulus":"<p>Welche Sequenz haben Sie als natürlicher empfunden?</p>","key_press":74,"test_part":"response","test_stimulus":{"position":1,"left":"bvh/vr_prediction_models/model(tmp)-dataset(pass-bottle-hold)-numprim(5)-hold(1)/final-lines.txt","right":"bvh/pass-bottle-hold-training1-lines.txt","att_check":false},"trial_type":"html-keyboard-response","trial_index":26,"time_elapsed":118173,"internal_node_id":"0.0-8.0-3.4","subject":"7695e35h8gy0kg4","sona":"8698"},{"rt":167.04000008758157,"stimulus":"<p>Bereit?</p>","key_press":32,"trial_type":"html-keyboard-response","trial_index":27,"time_elapsed":118344,"internal_node_id":"0.0-8.0-0.5","subject":"7695e35h8gy0kg4","sona":"8698"},{"rt":null,"stimulus":"<div style=\"font-size:60px;\">+</div>","key_press":null,"trial_type":"html-keyboard-response","trial_index":28,"time_elapsed":120359,"internal_node_id":"0.0-8.0-1.5","subject":"7695e35h8gy0kg4","sona":"8698"},{"trial_type":"turing-test","trial_index":29,"time_elapsed":124248,"internal_node_id":"0.0-8.0-2.5","subject":"7695e35h8gy0kg4","sona":"8698"},{"rt":351.63499996997416,"stimulus":"<p>Welche Sequenz haben Sie als natürlicher empfunden?</p>","key_press":74,"test_part":"response","test_stimulus":{"position":1,"left":"bvh/vr_prediction_models/model(tmp)-dataset(return-bottle-hold)-numprim(11)-hold(4)/final-lines.txt","right":"bvh/return-bottle-hold-training4-lines.txt","att_check":false},"trial_type":"html-keyboard-response","trial_index":30,"time_elapsed":124605,"internal_node_id":"0.0-8.0-3.5","subject":"7695e35h8gy0kg4","sona":"8698"},{"rt":187.1900000842288,"stimulus":"<p>Bereit?</p>","key_press":32,"trial_type":"html-keyboard-response","trial_index":31,"time_elapsed":124797,"internal_node_id":"0.0-8.0-0.6","subject":"7695e35h8gy0kg4","sona":"8698"},{"rt":null,"stimulus":"<div style=\"font-size:60px;\">+</div>","key_press":null,"trial_type":"html-keyboard-response","trial_index":32,"time_elapsed":126818,"internal_node_id":"0.0-8.0-1.6","subject":"7695e35h8gy0kg4","sona":"8698"},{"trial_type":"turing-test","trial_index":33,"time_elapsed":133795,"internal_node_id":"0.0-8.0-2.6","subject":"7695e35h8gy0kg4","sona":"8698"},{"rt":343.2899999897927,"stimulus":"<p>Welche Sequenz haben Sie als natürlicher empfunden?</p>","key_press":74,"test_part":"response","test_stimulus":{"position":1,"left":"bvh/vr_prediction_models/model(tmp)-dataset(return-bottle)-numprim(12)-hold(1)/final-lines.txt","right":"bvh/return-bottle-training1-lines.txt","att_check":false},"trial_type":"html-keyboard-response","trial_index":34,"time_elapsed":134144,"internal_node_id":"0.0-8.0-3.6","subject":"7695e35h8gy0kg4","sona":"8698"},{"rt":239.88999996799976,"stimulus":"<p>Bereit?</p>","key_press":32,"trial_type":"html-keyboard-response","trial_index":35,"time_elapsed":134388,"internal_node_id":"0.0-8.0-0.7","subject":"7695e35h8gy0kg4","sona":"8698"},{"rt":null,"stimulus":"<div style=\"font-size:60px;\">+</div>","key_press":null,"trial_type":"html-keyboard-response","trial_index":36,"time_elapsed":136412,"internal_node_id":"0.0-8.0-1.7","subject":"7695e35h8gy0kg4","sona":"8698"},{"trial_type":"turing-test","trial_index":37,"time_elapsed":140361,"internal_node_id":"0.0-8.0-2.7","subject":"7695e35h8gy0kg4","sona":"8698"},{"rt":315.1399999624118,"stimulus":"<p>Welche Sequenz haben Sie als natürlicher empfunden?</p>","key_press":74,"test_part":"response","test_stimulus":{"position":1,"left":"bvh/vr_prediction_models/model(vcgpdm)-dataset(pass-bottle-hold)-mode(ELBO)-parts(1)-dyn(5)-lvm(5)-hold(0)/final-lines.txt","right":"bvh/pass-bottle-hold-training0-lines.txt","att_check":false},"trial_type":"html-keyboard-response","trial_index":38,"time_elapsed":140683,"internal_node_id":"0.0-8.0-3.7","subject":"7695e35h8gy0kg4","sona":"8698"},{"rt":235.31499993987381,"stimulus":"<p>Bereit?</p>","key_press":32,"trial_type":"html-keyboard-response","trial_index":39,"time_elapsed":140923,"internal_node_id":"0.0-8.0-0.8","subject":"7695e35h8gy0kg4","sona":"8698"},{"rt":null,"stimulus":"<div style=\"font-size:60px;\">+</div>","key_press":null,"trial_type":"html-keyboard-response","trial_index":40,"time_elapsed":142942,"internal_node_id":"0.0-8.0-1.8","subject":"7695e35h8gy0kg4","sona":"8698"},{"trial_type":"turing-test","trial_index":41,"time_elapsed":146194,"internal_node_id":"0.0-8.0-2.8","subject":"7695e35h8gy0kg4","sona":"8698"},{"rt":390.1299999561161,"stimulus":"<p>Welche Sequenz haben Sie als natürlicher empfunden?</p>","key_press":74,"test_part":"response","test_stimulus":{"position":0,"left":"bvh/pass-bottle-hold-training1-lines.txt","right":"bvh/vr_prediction_models/model(dmp)-dataset(pass-bottle-hold)-npsi(50)-hold(1)/final-lines.txt","att_check":false},"trial_type":"html-keyboard-response","trial_index":42,"time_elapsed":146592,"internal_node_id":"0.0-8.0-3.8","subject":"7695e35h8gy0kg4","sona":"8698"},{"rt":304.050000035204,"stimulus":"<p>Bereit?</p>","key_press":32,"trial_type":"html-keyboard-response","trial_index":43,"time_elapsed":146900,"internal_node_id":"0.0-8.0-0.9","subject":"7695e35h8gy0kg4","sona":"8698"},{"rt":null,"stimulus":"<div style=\"font-size:60px;\">+</div>","key_press":null,"trial_type":"html-keyboard-response","trial_index":44,"time_elapsed":148917,"internal_node_id":"0.0-8.0-1.9","subject":"7695e35h8gy0kg4","sona":"8698"},{"trial_type":"turing-test","trial_index":45,"time_elapsed":154830,"internal_node_id":"0.0-8.0-2.9","subject":"7695e35h8gy0kg4","sona":"8698"},{"rt":1155.7299999985844,"stimulus":"<p>Welche Sequenz haben Sie als natürlicher empfunden?</p>","key_press":74,"test_part":"response","test_stimulus":{"position":1,"left":"bvh/vr_prediction_models/model(vcgpdm)-dataset(pass-bottle)-mode(ELBO)-parts(3)-dyn(20)-lvm(20)-hold(4)/final-lines.txt","right":"bvh/pass-bottle-training4-lines.txt","att_check":false},"trial_type":"html-keyboard-response","trial_index":46,"time_elapsed":155993,"internal_node_id":"0.0-8.0-3.9","subject":"7695e35h8gy0kg4","sona":"8698"},{"rt":238.09500003699213,"stimulus":"<p>Bereit?</p>","key_press":32,"trial_type":"html-keyboard-response","trial_index":47,"time_elapsed":156235,"internal_node_id":"0.0-8.0-0.10","subject":"7695e35h8gy0kg4","sona":"8698"},{"rt":null,"stimulus":"<div style=\"font-size:60px;\">+</div>","key_press":null,"trial_type":"html-keyboard-response","trial_index":48,"time_elapsed":158253,"internal_node_id":"0.0-8.0-1.10","subject":"7695e35h8gy0kg4","sona":"8698"},{"trial_type":"turing-test","trial_index":49,"time_elapsed":162077,"internal_node_id":"0.0-8.0-2.10","subject":"7695e35h8gy0kg4","sona":"8698"},{"rt":281.734999967739,"stimulus":"<p>Welche Sequenz haben Sie als natürlicher empfunden?</p>","key_press":70,"test_part":"response","test_stimulus":{"position":0,"left":"bvh/pass-bottle-hold-training0-lines.txt","right":"bvh/vr_prediction_models/model(vcgpdm)-dataset(pass-bottle-hold)-mode(MAP)-parts(3)-hold(0)/final-lines.txt","att_check":false},"trial_type":"html-keyboard-response","trial_index":50,"time_elapsed":162365,"internal_node_id":"0.0-8.0-3.10","subject":"7695e35h8gy0kg4","sona":"8698"},{"rt":164.59499998018146,"stimulus":"<p>Bereit?</p>","key_press":32,"trial_type":"html-keyboard-response","trial_index":51,"time_elapsed":162533,"internal_node_id":"0.0-8.0-0.11","subject":"7695e35h8gy0kg4","sona":"8698"},{"rt":null,"stimulus":"<div style=\"font-size:60px;\">+</div>","key_press":null,"trial_type":"html-keyboard-response","trial_index":52,"time_elapsed":164550,"internal_node_id":"0.0-8.0-1.11","subject":"7695e35h8gy0kg4","sona":"8698"},{"trial_type":"turing-test","trial_index":53,"time_elapsed":170392,"internal_node_id":"0.0-8.0-2.11","subject":"7695e35h8gy0kg4","sona":"8698"},{"rt":279.92999996058643,"stimulus":"<p>Welche Sequenz haben Sie als natürlicher empfunden?</p>","key_press":70,"test_part":"response","test_stimulus":{"position":0,"left":"bvh/return-bottle-training3-lines.txt","right":"bvh/vr_prediction_models/model(dmp)-dataset(return-bottle)-npsi(70)-hold(3)/final-lines.txt","att_check":false},"trial_type":"html-keyboard-response","trial_index":54,"time_elapsed":170678,"internal_node_id":"0.0-8.0-3.11","subject":"7695e35h8gy0kg4","sona":"8698"},{"rt":171.32999992463738,"stimulus":"<p>Bereit?</p>","key_press":32,"trial_type":"html-keyboard-response","trial_index":55,"time_elapsed":170854,"internal_node_id":"0.0-8.0-0.12","subject":"7695e35h8gy0kg4","sona":"8698"},{"rt":null,"stimulus":"<div style=\"font-size:60px;\">+</div>","key_press":null,"trial_type":"html-keyboard-response","trial_index":56,"time_elapsed":172866,"internal_node_id":"0.0-8.0-1.12","subject":"7695e35h8gy0kg4","sona":"8698"},{"trial_type":"turing-test","trial_index":57,"time_elapsed":178839,"internal_node_id":"0.0-8.0-2.12","subject":"7695e35h8gy0kg4","sona":"8698"},{"rt":303.97999996785074,"stimulus":"<p>Welche Sequenz haben Sie als natürlicher empfunden?</p>","key_press":74,"test_part":"response","test_stimulus":{"position":1,"left":"bvh/vr_prediction_models/model(dmp)-dataset(return-bottle)-npsi(20)-hold(3)/final-lines.txt","right":"bvh/return-bottle-training3-lines.txt","att_check":false},"trial_type":"html-keyboard-response","trial_index":58,"time_elapsed":179150,"internal_node_id":"0.0-8.0-3.12","subject":"7695e35h8gy0kg4","sona":"8698"},{"rt":237.4400000553578,"stimulus":"<p>Bereit?</p>","key_press":32,"trial_type":"html-keyboard-response","trial_index":59,"time_elapsed":179392,"internal_node_id":"0.0-8.0-0.13","subject":"7695e35h8gy0kg4","sona":"8698"},{"rt":null,"stimulus":"<div style=\"font-size:60px;\">+</div>","key_press":null,"trial_type":"html-keyboard-response","trial_index":60,"time_elapsed":181409,"internal_node_id":"0.0-8.0-1.13","subject":"7695e35h8gy0kg4","sona":"8698"},{"trial_type":"turing-test","trial_index":61,"time_elapsed":184746,"internal_node_id":"0.0-8.0-2.13","subject":"7695e35h8gy0kg4","sona":"8698"},{"rt":289.4749999977648,"stimulus":"<p>Welche Sequenz haben Sie als natürlicher empfunden?</p>","key_press":74,"test_part":"response","test_stimulus":{"position":1,"left":"bvh/vr_prediction_models/model(tmp)-dataset(return-bottle-hold)-numprim(15)-hold(1)/final-lines.txt","right":"bvh/return-bottle-hold-training1-lines.txt","att_check":false},"trial_type":"html-keyboard-response","trial_index":62,"time_elapsed":185041,"internal_node_id":"0.0-8.0-3.13","subject":"7695e35h8gy0kg4","sona":"8698"},{"rt":205.09499998297542,"stimulus":"<p>Bereit?</p>","key_press":32,"trial_type":"html-keyboard-response","trial_index":63,"time_elapsed":185251,"internal_node_id":"0.0-8.0-0.14","subject":"7695e35h8gy0kg4","sona":"8698"},{"rt":null,"stimulus":"<div style=\"font-size:60px;\">+</div>","key_press":null,"trial_type":"html-keyboard-response","trial_index":64,"time_elapsed":187260,"internal_node_id":"0.0-8.0-1.14","subject":"7695e35h8gy0kg4","sona":"8698"},{"trial_type":"turing-test","trial_index":65,"time_elapsed":193001,"internal_node_id":"0.0-8.0-2.14","subject":"7695e35h8gy0kg4","sona":"8698"},{"rt":296.3549999985844,"stimulus":"<p>Welche Sequenz haben Sie als natürlicher empfunden?</p>","key_press":70,"test_part":"response","test_stimulus":{"position":0,"left":"bvh/return-bottle-training0-lines.txt","right":"bvh/vr_prediction_models/model(vcgpdm)-dataset(return-bottle)-mode(ELBO)-parts(3)-dyn(30)-lvm(15)-hold(0)/final-lines.txt","att_check":false},"trial_type":"html-keyboard-response","trial_index":66,"time_elapsed":193305,"internal_node_id":"0.0-8.0-3.14","subject":"7695e35h8gy0kg4","sona":"8698"},{"rt":161.22999996878207,"stimulus":"<p>Bereit?</p>","key_press":32,"trial_type":"html-keyboard-response","trial_index":67,"time_elapsed":193472,"internal_node_id":"0.0-8.0-0.15","subject":"7695e35h8gy0kg4","sona":"8698"},{"rt":null,"stimulus":"<div style=\"font-size:60px;\">+</div>","key_press":null,"trial_type":"html-keyboard-response","trial_index":68,"time_elapsed":195484,"internal_node_id":"0.0-8.0-1.15","subject":"7695e35h8gy0kg4","sona":"8698"},{"trial_type":"turing-test","trial_index":69,"time_elapsed":198751,"internal_node_id":"0.0-8.0-2.15","subject":"7695e35h8gy0kg4","sona":"8698"},{"rt":251.76999997347593,"stimulus":"<p>Welche Sequenz haben Sie als natürlicher empfunden?</p>","key_press":74,"test_part":"response","test_stimulus":{"position":0,"left":"bvh/pass-bottle-hold-training1-lines.txt","right":"bvh/vr_prediction_models/model(dmp)-dataset(pass-bottle-hold)-npsi(90)-hold(1)/final-lines.txt","att_check":true},"trial_type":"html-keyboard-response","trial_index":70,"time_elapsed":199009,"internal_node_id":"0.0-8.0-3.15","subject":"7695e35h8gy0kg4","sona":"8698"},{"rt":210.12999990489334,"stimulus":"<p>Bereit?</p>","key_press":32,"trial_type":"html-keyboard-response","trial_index":71,"time_elapsed":199224,"internal_node_id":"0.0-8.0-0.16","subject":"7695e35h8gy0kg4","sona":"8698"},{"rt":null,"stimulus":"<div style=\"font-size:60px;\">+</div>","key_press":null,"trial_type":"html-keyboard-response","trial_index":72,"time_elapsed":201232,"internal_node_id":"0.0-8.0-1.16","subject":"7695e35h8gy0kg4","sona":"8698"},{"trial_type":"turing-test","trial_index":73,"time_elapsed":205059,"internal_node_id":"0.0-8.0-2.16","subject":"7695e35h8gy0kg4","sona":"8698"},{"rt":275.8349999785423,"stimulus":"<p>Welche Sequenz haben Sie als natürlicher empfunden?</p>","key_press":74,"test_part":"response","test_stimulus":{"position":1,"left":"bvh/vr_prediction_models/model(vcgpdm)-dataset(pass-bottle-hold)-mode(ELBO)-parts(1)-dyn(30)-lvm(20)-hold(3)/final-lines.txt","right":"bvh/pass-bottle-hold-training3-lines.txt","att_check":false},"trial_type":"html-keyboard-response","trial_index":74,"time_elapsed":205341,"internal_node_id":"0.0-8.0-3.16","subject":"7695e35h8gy0kg4","sona":"8698"},{"rt":193.81500000599772,"stimulus":"<p>Bereit?</p>","key_press":32,"trial_type":"html-keyboard-response","trial_index":75,"time_elapsed":205539,"internal_node_id":"0.0-8.0-0.17","subject":"7695e35h8gy0kg4","sona":"8698"},{"rt":null,"stimulus":"<div style=\"font-size:60px;\">+</div>","key_press":null,"trial_type":"html-keyboard-response","trial_index":76,"time_elapsed":207552,"internal_node_id":"0.0-8.0-1.17","subject":"7695e35h8gy0kg4","sona":"8698"},{"trial_type":"turing-test","trial_index":77,"time_elapsed":210962,"internal_node_id":"0.0-8.0-2.17","subject":"7695e35h8gy0kg4","sona":"8698"},{"rt":286.82999999728054,"stimulus":"<p>Welche Sequenz haben Sie als natürlicher empfunden?</p>","key_press":70,"test_part":"response","test_stimulus":{"position":0,"left":"bvh/pass-bottle-hold-training0-lines.txt","right":"bvh/vr_prediction_models/model(tmp)-dataset(pass-bottle-hold)-numprim(6)-hold(0)/final-lines.txt","att_check":false},"trial_type":"html-keyboard-response","trial_index":78,"time_elapsed":211255,"internal_node_id":"0.0-8.0-3.17","subject":"7695e35h8gy0kg4","sona":"8698"},{"rt":195.35499997437,"stimulus":"<p>Bereit?</p>","key_press":32,"trial_type":"html-keyboard-response","trial_index":79,"time_elapsed":211457,"internal_node_id":"0.0-8.0-0.18","subject":"7695e35h8gy0kg4","sona":"8698"},{"rt":null,"stimulus":"<div style=\"font-size:60px;\">+</div>","key_press":null,"trial_type":"html-keyboard-response","trial_index":80,"time_elapsed":213480,"internal_node_id":"0.0-8.0-1.18","subject":"7695e35h8gy0kg4","sona":"8698"},{"trial_type":"turing-test","trial_index":81,"time_elapsed":217933,"internal_node_id":"0.0-8.0-2.18","subject":"7695e35h8gy0kg4","sona":"8698"},{"rt":272.7500000037253,"stimulus":"<p>Welche Sequenz haben Sie als natürlicher empfunden?</p>","key_press":74,"test_part":"response","test_stimulus":{"position":1,"left":"bvh/vr_prediction_models/model(vcgpdm)-dataset(return-bottle-hold)-mode(ELBO)-parts(1)-dyn(35)-lvm(30)-hold(4)/final-lines.txt","right":"bvh/return-bottle-hold-training4-lines.txt","att_check":false},"trial_type":"html-keyboard-response","trial_index":82,"time_elapsed":218213,"internal_node_id":"0.0-8.0-3.18","subject":"7695e35h8gy0kg4","sona":"8698"},{"rt":177.40500008221716,"stimulus":"<p>Bereit?</p>","key_press":32,"trial_type":"html-keyboard-response","trial_index":83,"time_elapsed":218395,"internal_node_id":"0.0-8.0-0.19","subject":"7695e35h8gy0kg4","sona":"8698"},{"rt":null,"stimulus":"<div style=\"font-size:60px;\">+</div>","key_press":null,"trial_type":"html-keyboard-response","trial_index":84,"time_elapsed":220412,"internal_node_id":"0.0-8.0-1.19","subject":"7695e35h8gy0kg4","sona":"8698"},{"trial_type":"turing-test","trial_index":85,"time_elapsed":223715,"internal_node_id":"0.0-8.0-2.19","subject":"7695e35h8gy0kg4","sona":"8698"},{"rt":302.50500002875924,"stimulus":"<p>Welche Sequenz haben Sie als natürlicher empfunden?</p>","key_press":70,"test_part":"response","test_stimulus":{"position":0,"left":"bvh/pass-bottle-hold-training0-lines.txt","right":"bvh/vr_prediction_models/model(dmp)-dataset(pass-bottle-hold)-npsi(100)-hold(0)/final-lines.txt","att_check":true},"trial_type":"html-keyboard-response","trial_index":86,"time_elapsed":224023,"internal_node_id":"0.0-8.0-3.19","subject":"7695e35h8gy0kg4","sona":"8698"},{"rt":211.68999990914017,"stimulus":"<p>Bereit?</p>","key_press":32,"trial_type":"html-keyboard-response","trial_index":87,"time_elapsed":224241,"internal_node_id":"0.0-8.0-0.20","subject":"7695e35h8gy0kg4","sona":"8698"},{"rt":null,"stimulus":"<div style=\"font-size:60px;\">+</div>","key_press":null,"trial_type":"html-keyboard-response","trial_index":88,"time_elapsed":226257,"internal_node_id":"0.0-8.0-1.20","subject":"7695e35h8gy0kg4","sona":"8698"},{"trial_type":"turing-test","trial_index":89,"time_elapsed":232059,"internal_node_id":"0.0-8.0-2.20","subject":"7695e35h8gy0kg4","sona":"8698"},{"rt":919.5250000339001,"stimulus":"<p>Welche Sequenz haben Sie als natürlicher empfunden?</p>","key_press":74,"test_part":"response","test_stimulus":{"position":0,"left":"bvh/pass-bottle-training1-lines.txt","right":"bvh/vr_prediction_models/model(vcgpdm)-dataset(pass-bottle)-mode(ELBO)-parts(1)-dyn(35)-lvm(10)-hold(1)/final-lines.txt","att_check":false},"trial_type":"html-keyboard-response","trial_index":90,"time_elapsed":232985,"internal_node_id":"0.0-8.0-3.20","subject":"7695e35h8gy0kg4","sona":"8698"},{"rt":320.8050000248477,"stimulus":"<p>Bereit?</p>","key_press":32,"trial_type":"html-keyboard-response","trial_index":91,"time_elapsed":233310,"internal_node_id":"0.0-8.0-0.21","subject":"7695e35h8gy0kg4","sona":"8698"},{"rt":null,"stimulus":"<div style=\"font-size:60px;\">+</div>","key_press":null,"trial_type":"html-keyboard-response","trial_index":92,"time_elapsed":235329,"internal_node_id":"0.0-8.0-1.21","subject":"7695e35h8gy0kg4","sona":"8698"},{"trial_type":"turing-test","trial_index":93,"time_elapsed":238915,"internal_node_id":"0.0-8.0-2.21","subject":"7695e35h8gy0kg4","sona":"8698"},{"rt":418.2999999029562,"stimulus":"<p>Welche Sequenz haben Sie als natürlicher empfunden?</p>","key_press":74,"test_part":"response","test_stimulus":{"position":1,"left":"bvh/vr_prediction_models/model(vcgpdm)-dataset(pass-bottle-hold)-mode(ELBO)-parts(3)-dyn(30)-lvm(15)-hold(0)/final-lines.txt","right":"bvh/pass-bottle-hold-training0-lines.txt","att_check":false},"trial_type":"html-keyboard-response","trial_index":94,"time_elapsed":239340,"internal_node_id":"0.0-8.0-3.21","subject":"7695e35h8gy0kg4","sona":"8698"},{"rt":3633.3200000226498,"stimulus":"<p>Bereit?</p>","key_press":32,"trial_type":"html-keyboard-response","trial_index":95,"time_elapsed":242979,"internal_node_id":"0.0-8.0-0.22","subject":"7695e35h8gy0kg4","sona":"8698"},{"rt":null,"stimulus":"<div style=\"font-size:60px;\">+</div>","key_press":null,"trial_type":"html-keyboard-response","trial_index":96,"time_elapsed":245004,"internal_node_id":"0.0-8.0-1.22","subject":"7695e35h8gy0kg4","sona":"8698"},{"trial_type":"turing-test","trial_index":97,"time_elapsed":251343,"internal_node_id":"0.0-8.0-2.22","subject":"7695e35h8gy0kg4","sona":"8698"},{"rt":427.84000001847744,"stimulus":"<p>Welche Sequenz haben Sie als natürlicher empfunden?</p>","key_press":70,"test_part":"response","test_stimulus":{"position":0,"left":"bvh/pass-bottle-training1-lines.txt","right":"bvh/vr_prediction_models/model(vcgpdm)-dataset(pass-bottle)-mode(ELBO)-parts(3)-dyn(10)-lvm(10)-hold(1)/final-lines.txt","att_check":false},"trial_type":"html-keyboard-response","trial_index":98,"time_elapsed":251777,"internal_node_id":"0.0-8.0-3.22","subject":"7695e35h8gy0kg4","sona":"8698"},{"rt":171.21499998029321,"stimulus":"<p>Bereit?</p>","key_press":32,"trial_type":"html-keyboard-response","trial_index":99,"time_elapsed":251955,"internal_node_id":"0.0-8.0-0.23","subject":"7695e35h8gy0kg4","sona":"8698"},{"rt":null,"stimulus":"<div style=\"font-size:60px;\">+</div>","key_press":null,"trial_type":"html-keyboard-response","trial_index":100,"time_elapsed":253970,"internal_node_id":"0.0-8.0-1.23","subject":"7695e35h8gy0kg4","sona":"8698"},{"trial_type":"turing-test","trial_index":101,"time_elapsed":260141,"internal_node_id":"0.0-8.0-2.23","subject":"7695e35h8gy0kg4","sona":"8698"},{"rt":292.03000001143664,"stimulus":"<p>Welche Sequenz haben Sie als natürlicher empfunden?</p>","key_press":70,"test_part":"response","test_stimulus":{"position":0,"left":"bvh/pass-bottle-training3-lines.txt","right":"bvh/vr_prediction_models/model(vcgpdm)-dataset(pass-bottle)-mode(ELBO)-parts(1)-dyn(30)-lvm(30)-hold(3)/final-lines.txt","att_check":false},"trial_type":"html-keyboard-response","trial_index":102,"time_elapsed":260441,"internal_node_id":"0.0-8.0-3.23","subject":"7695e35h8gy0kg4","sona":"8698"},{"rt":139.85000003594905,"stimulus":"<p>Bereit?</p>","key_press":32,"trial_type":"html-keyboard-response","trial_index":103,"time_elapsed":260587,"internal_node_id":"0.0-8.0-0.24","subject":"7695e35h8gy0kg4","sona":"8698"},{"rt":null,"stimulus":"<div style=\"font-size:60px;\">+</div>","key_press":null,"trial_type":"html-keyboard-response","trial_index":104,"time_elapsed":262591,"internal_node_id":"0.0-8.0-1.24","subject":"7695e35h8gy0kg4","sona":"8698"},{"trial_type":"turing-test","trial_index":105,"time_elapsed":268672,"internal_node_id":"0.0-8.0-2.24","subject":"7695e35h8gy0kg4","sona":"8698"},{"rt":438.7400000123307,"stimulus":"<p>Welche Sequenz haben Sie als natürlicher empfunden?</p>","key_press":70,"test_part":"response","test_stimulus":{"position":0,"left":"bvh/pass-bottle-training4-lines.txt","right":"bvh/vr_prediction_models/model(vcgpdm)-dataset(pass-bottle)-mode(ELBO)-parts(1)-dyn(15)-lvm(35)-hold(4)/final-lines.txt","att_check":false},"trial_type":"html-keyboard-response","trial_index":106,"time_elapsed":269115,"internal_node_id":"0.0-8.0-3.24","subject":"7695e35h8gy0kg4","sona":"8698"},{"rt":219.10500002559274,"stimulus":"<p>Bereit?</p>","key_press":32,"trial_type":"html-keyboard-response","trial_index":107,"time_elapsed":269340,"internal_node_id":"0.0-8.0-0.25","subject":"7695e35h8gy0kg4","sona":"8698"},{"rt":null,"stimulus":"<div style=\"font-size:60px;\">+</div>","key_press":null,"trial_type":"html-keyboard-response","trial_index":108,"time_elapsed":271372,"internal_node_id":"0.0-8.0-1.25","subject":"7695e35h8gy0kg4","sona":"8698"},{"trial_type":"turing-test","trial_index":109,"time_elapsed":276734,"internal_node_id":"0.0-8.0-2.25","subject":"7695e35h8gy0kg4","sona":"8698"},{"rt":440.6849999213591,"stimulus":"<p>Welche Sequenz haben Sie als natürlicher empfunden?</p>","key_press":74,"test_part":"response","test_stimulus":{"position":1,"left":"bvh/vr_prediction_models/model(dmp)-dataset(return-bottle)-npsi(40)-hold(0)/final-lines.txt","right":"bvh/return-bottle-training0-lines.txt","att_check":false},"trial_type":"html-keyboard-response","trial_index":110,"time_elapsed":277180,"internal_node_id":"0.0-8.0-3.25","subject":"7695e35h8gy0kg4","sona":"8698"},{"rt":289.7249999223277,"stimulus":"<p>Bereit?</p>","key_press":32,"trial_type":"html-keyboard-response","trial_index":111,"time_elapsed":277474,"internal_node_id":"0.0-8.0-0.26","subject":"7695e35h8gy0kg4","sona":"8698"},{"rt":null,"stimulus":"<div style=\"font-size:60px;\">+</div>","key_press":null,"trial_type":"html-keyboard-response","trial_index":112,"time_elapsed":279500,"internal_node_id":"0.0-8.0-1.26","subject":"7695e35h8gy0kg4","sona":"8698"},{"trial_type":"turing-test","trial_index":113,"time_elapsed":284855,"internal_node_id":"0.0-8.0-2.26","subject":"7695e35h8gy0kg4","sona":"8698"},{"rt":352.45499992743134,"stimulus":"<p>Welche Sequenz haben Sie als natürlicher empfunden?</p>","key_press":70,"test_part":"response","test_stimulus":{"position":0,"left":"bvh/pass-bottle-training1-lines.txt","right":"bvh/vr_prediction_models/model(vcgpdm)-dataset(pass-bottle)-mode(ELBO)-parts(3)-dyn(10)-lvm(10)-hold(1)/final-lines.txt","att_check":false},"trial_type":"html-keyboard-response","trial_index":114,"time_elapsed":285210,"internal_node_id":"0.0-8.0-3.26","subject":"7695e35h8gy0kg4","sona":"8698"},{"rt":199.72999999299645,"stimulus":"<p>Bereit?</p>","key_press":32,"trial_type":"html-keyboard-response","trial_index":115,"time_elapsed":285413,"internal_node_id":"0.0-8.0-0.27","subject":"7695e35h8gy0kg4","sona":"8698"},{"rt":null,"stimulus":"<div style=\"font-size:60px;\">+</div>","key_press":null,"trial_type":"html-keyboard-response","trial_index":116,"time_elapsed":287416,"internal_node_id":"0.0-8.0-1.27","subject":"7695e35h8gy0kg4","sona":"8698"},{"trial_type":"turing-test","trial_index":117,"time_elapsed":291114,"internal_node_id":"0.0-8.0-2.27","subject":"7695e35h8gy0kg4","sona":"8698"},{"rt":285.96000000834465,"stimulus":"<p>Welche Sequenz haben Sie als natürlicher empfunden?</p>","key_press":74,"test_part":"response","test_stimulus":{"position":1,"left":"bvh/vr_prediction_models/model(vcgpdm)-dataset(pass-bottle-hold)-mode(ELBO)-parts(3)-dyn(10)-lvm(25)-hold(4)/final-lines.txt","right":"bvh/pass-bottle-hold-training4-lines.txt","att_check":false},"trial_type":"html-keyboard-response","trial_index":118,"time_elapsed":291403,"internal_node_id":"0.0-8.0-3.27","subject":"7695e35h8gy0kg4","sona":"8698"},{"rt":235.03500001970679,"stimulus":"<p>Bereit?</p>","key_press":32,"trial_type":"html-keyboard-response","trial_index":119,"time_elapsed":291640,"internal_node_id":"0.0-8.0-0.28","subject":"7695e35h8gy0kg4","sona":"8698"},{"rt":null,"stimulus":"<div style=\"font-size:60px;\">+</div>","key_press":null,"trial_type":"html-keyboard-response","trial_index":120,"time_elapsed":293668,"internal_node_id":"0.0-8.0-1.28","subject":"7695e35h8gy0kg4","sona":"8698"},{"trial_type":"turing-test","trial_index":121,"time_elapsed":297200,"internal_node_id":"0.0-8.0-2.28","subject":"7695e35h8gy0kg4","sona":"8698"},{"rt":582.2700000135228,"stimulus":"<p>Welche Sequenz haben Sie als natürlicher empfunden?</p>","key_press":74,"test_part":"response","test_stimulus":{"position":1,"left":"bvh/vr_prediction_models/model(vcgpdm)-dataset(return-bottle-hold)-mode(ELBO)-parts(3)-dyn(25)-lvm(15)-hold(1)/final-lines.txt","right":"bvh/return-bottle-hold-training1-lines.txt","att_check":false},"trial_type":"html-keyboard-response","trial_index":122,"time_elapsed":297785,"internal_node_id":"0.0-8.0-3.28","subject":"7695e35h8gy0kg4","sona":"8698"},{"rt":208.1499999621883,"stimulus":"<p>Bereit?</p>","key_press":32,"trial_type":"html-keyboard-response","trial_index":123,"time_elapsed":297996,"internal_node_id":"0.0-8.0-0.29","subject":"7695e35h8gy0kg4","sona":"8698"},{"rt":null,"stimulus":"<div style=\"font-size:60px;\">+</div>","key_press":null,"trial_type":"html-keyboard-response","trial_index":124,"time_elapsed":300022,"internal_node_id":"0.0-8.0-1.29","subject":"7695e35h8gy0kg4","sona":"8698"},{"trial_type":"turing-test","trial_index":125,"time_elapsed":305908,"internal_node_id":"0.0-8.0-2.29","subject":"7695e35h8gy0kg4","sona":"8698"},{"rt":361.4949999609962,"stimulus":"<p>Welche Sequenz haben Sie als natürlicher empfunden?</p>","key_press":70,"test_part":"response","test_stimulus":{"position":1,"left":"bvh/vr_prediction_models/model(vcgpdm)-dataset(return-bottle)-mode(ELBO)-parts(1)-dyn(35)-lvm(30)-hold(4)/final-lines.txt","right":"bvh/return-bottle-training4-lines.txt","att_check":false},"trial_type":"html-keyboard-response","trial_index":126,"time_elapsed":306278,"internal_node_id":"0.0-8.0-3.29","subject":"7695e35h8gy0kg4","sona":"8698"},{"rt":209.7399999620393,"stimulus":"<p>Bereit?</p>","key_press":32,"trial_type":"html-keyboard-response","trial_index":127,"time_elapsed":306494,"internal_node_id":"0.0-8.0-0.30","subject":"7695e35h8gy0kg4","sona":"8698"},{"rt":null,"stimulus":"<div style=\"font-size:60px;\">+</div>","key_press":null,"trial_type":"html-keyboard-response","trial_index":128,"time_elapsed":308520,"internal_node_id":"0.0-8.0-1.30","subject":"7695e35h8gy0kg4","sona":"8698"},{"trial_type":"turing-test","trial_index":129,"time_elapsed":314041,"internal_node_id":"0.0-8.0-2.30","subject":"7695e35h8gy0kg4","sona":"8698"},{"rt":419.92000001482666,"stimulus":"<p>Welche Sequenz haben Sie als natürlicher empfunden?</p>","key_press":74,"test_part":"response","test_stimulus":{"position":1,"left":"bvh/vr_prediction_models/model(tmp)-dataset(pass-bottle)-numprim(14)-hold(1)/final-lines.txt","right":"bvh/pass-bottle-training1-lines.txt","att_check":false},"trial_type":"html-keyboard-response","trial_index":130,"time_elapsed":314469,"internal_node_id":"0.0-8.0-3.30","subject":"7695e35h8gy0kg4","sona":"8698"},{"rt":227.5349999545142,"stimulus":"<p>Bereit?</p>","key_press":32,"trial_type":"html-keyboard-response","trial_index":131,"time_elapsed":314703,"internal_node_id":"0.0-8.0-0.31","subject":"7695e35h8gy0kg4","sona":"8698"},{"rt":null,"stimulus":"<div style=\"font-size:60px;\">+</div>","key_press":null,"trial_type":"html-keyboard-response","trial_index":132,"time_elapsed":316714,"internal_node_id":"0.0-8.0-1.31","subject":"7695e35h8gy0kg4","sona":"8698"},{"trial_type":"turing-test","trial_index":133,"time_elapsed":321829,"internal_node_id":"0.0-8.0-2.31","subject":"7695e35h8gy0kg4","sona":"8698"},{"rt":335.96500009298325,"stimulus":"<p>Welche Sequenz haben Sie als natürlicher empfunden?</p>","key_press":70,"test_part":"response","test_stimulus":{"position":0,"left":"bvh/return-bottle-hold-training0-lines.txt","right":"bvh/vr_prediction_models/model(dmp)-dataset(return-bottle-hold)-npsi(20)-hold(0)/final-lines.txt","att_check":false},"trial_type":"html-keyboard-response","trial_index":134,"time_elapsed":322173,"internal_node_id":"0.0-8.0-3.31","subject":"7695e35h8gy0kg4","sona":"8698"},{"rt":271.100000012666,"stimulus":"<p>Bereit?</p>","key_press":32,"trial_type":"html-keyboard-response","trial_index":135,"time_elapsed":322450,"internal_node_id":"0.0-8.0-0.32","subject":"7695e35h8gy0kg4","sona":"8698"},{"rt":null,"stimulus":"<div style=\"font-size:60px;\">+</div>","key_press":null,"trial_type":"html-keyboard-response","trial_index":136,"time_elapsed":324471,"internal_node_id":"0.0-8.0-1.32","subject":"7695e35h8gy0kg4","sona":"8698"},{"trial_type":"turing-test","trial_index":137,"time_elapsed":332653,"internal_node_id":"0.0-8.0-2.32","subject":"7695e35h8gy0kg4","sona":"8698"},{"rt":421.10000003594905,"stimulus":"<p>Welche Sequenz haben Sie als natürlicher empfunden?</p>","key_press":70,"test_part":"response","test_stimulus":{"position":0,"left":"bvh/pass-bottle-training2-lines.txt","right":"bvh/vr_prediction_models/model(vcgpdm)-dataset(pass-bottle)-mode(ELBO)-parts(1)-dyn(30)-lvm(20)-hold(2)/final-lines.txt","att_check":false},"trial_type":"html-keyboard-response","trial_index":138,"time_elapsed":333081,"internal_node_id":"0.0-8.0-3.32","subject":"7695e35h8gy0kg4","sona":"8698"},{"rt":169.84499990940094,"stimulus":"<p>Bereit?</p>","key_press":32,"trial_type":"html-keyboard-response","trial_index":139,"time_elapsed":333257,"internal_node_id":"0.0-8.0-0.33","subject":"7695e35h8gy0kg4","sona":"8698"},{"rt":null,"stimulus":"<div style=\"font-size:60px;\">+</div>","key_press":null,"trial_type":"html-keyboard-response","trial_index":140,"time_elapsed":335270,"internal_node_id":"0.0-8.0-1.33","subject":"7695e35h8gy0kg4","sona":"8698"},{"trial_type":"turing-test","trial_index":141,"time_elapsed":341683,"internal_node_id":"0.0-8.0-2.33","subject":"7695e35h8gy0kg4","sona":"8698"},{"rt":337.47499994933605,"stimulus":"<p>Welche Sequenz haben Sie als natürlicher empfunden?</p>","key_press":74,"test_part":"response","test_stimulus":{"position":1,"left":"bvh/vr_prediction_models/model(vcgpdm)-dataset(pass-bottle)-mode(ELBO)-parts(3)-dyn(35)-lvm(20)-hold(2)/final-lines.txt","right":"bvh/pass-bottle-training2-lines.txt","att_check":false},"trial_type":"html-keyboard-response","trial_index":142,"time_elapsed":342030,"internal_node_id":"0.0-8.0-3.33","subject":"7695e35h8gy0kg4","sona":"8698"},{"rt":222.28500002529472,"stimulus":"<p>Bereit?</p>","key_press":32,"trial_type":"html-keyboard-response","trial_index":143,"time_elapsed":342257,"internal_node_id":"0.0-8.0-0.34","subject":"7695e35h8gy0kg4","sona":"8698"},{"rt":null,"stimulus":"<div style=\"font-size:60px;\">+</div>","key_press":null,"trial_type":"html-keyboard-response","trial_index":144,"time_elapsed":344267,"internal_node_id":"0.0-8.0-1.34","subject":"7695e35h8gy0kg4","sona":"8698"},{"trial_type":"turing-test","trial_index":145,"time_elapsed":350099,"internal_node_id":"0.0-8.0-2.34","subject":"7695e35h8gy0kg4","sona":"8698"},{"rt":325.79999999143183,"stimulus":"<p>Welche Sequenz haben Sie als natürlicher empfunden?</p>","key_press":70,"test_part":"response","test_stimulus":{"position":0,"left":"bvh/pass-bottle-training3-lines.txt","right":"bvh/vr_prediction_models/model(tmp)-dataset(pass-bottle)-numprim(15)-hold(3)/final-lines.txt","att_check":false},"trial_type":"html-keyboard-response","trial_index":146,"time_elapsed":350433,"internal_node_id":"0.0-8.0-3.34","subject":"7695e35h8gy0kg4","sona":"8698"},{"rt":190.43499999679625,"stimulus":"<p>Bereit?</p>","key_press":32,"trial_type":"html-keyboard-response","trial_index":147,"time_elapsed":350633,"internal_node_id":"0.0-8.0-0.35","subject":"7695e35h8gy0kg4","sona":"8698"},{"rt":null,"stimulus":"<div style=\"font-size:60px;\">+</div>","key_press":null,"trial_type":"html-keyboard-response","trial_index":148,"time_elapsed":352647,"internal_node_id":"0.0-8.0-1.35","subject":"7695e35h8gy0kg4","sona":"8698"},{"trial_type":"turing-test","trial_index":149,"time_elapsed":358915,"internal_node_id":"0.0-8.0-2.35","subject":"7695e35h8gy0kg4","sona":"8698"},{"rt":407.950000022538,"stimulus":"<p>Welche Sequenz haben Sie als natürlicher empfunden?</p>","key_press":74,"test_part":"response","test_stimulus":{"position":1,"left":"bvh/vr_prediction_models/model(tmp)-dataset(pass-bottle)-numprim(13)-hold(2)/final-lines.txt","right":"bvh/pass-bottle-training2-lines.txt","att_check":false},"trial_type":"html-keyboard-response","trial_index":150,"time_elapsed":359331,"internal_node_id":"0.0-8.0-3.35","subject":"7695e35h8gy0kg4","sona":"8698"},{"rt":344.1699999384582,"stimulus":"<p>Bereit?</p>","key_press":32,"trial_type":"html-keyboard-response","trial_index":151,"time_elapsed":359681,"internal_node_id":"0.0-8.0-0.36","subject":"7695e35h8gy0kg4","sona":"8698"},{"rt":null,"stimulus":"<div style=\"font-size:60px;\">+</div>","key_press":null,"trial_type":"html-keyboard-response","trial_index":152,"time_elapsed":361690,"internal_node_id":"0.0-8.0-1.36","subject":"7695e35h8gy0kg4","sona":"8698"},{"trial_type":"turing-test","trial_index":153,"time_elapsed":365022,"internal_node_id":"0.0-8.0-2.36","subject":"7695e35h8gy0kg4","sona":"8698"},{"rt":455.61499998439103,"stimulus":"<p>Welche Sequenz haben Sie als natürlicher empfunden?</p>","key_press":74,"test_part":"response","test_stimulus":{"position":1,"left":"bvh/vr_prediction_models/model(dmp)-dataset(pass-bottle-hold)-npsi(50)-hold(2)/final-lines.txt","right":"bvh/pass-bottle-hold-training2-lines.txt","att_check":false},"trial_type":"html-keyboard-response","trial_index":154,"time_elapsed":365485,"internal_node_id":"0.0-8.0-3.36","subject":"7695e35h8gy0kg4","sona":"8698"},{"rt":202.06499996129423,"stimulus":"<p>Bereit?</p>","key_press":32,"trial_type":"html-keyboard-response","trial_index":155,"time_elapsed":365695,"internal_node_id":"0.0-8.0-0.37","subject":"7695e35h8gy0kg4","sona":"8698"},{"rt":null,"stimulus":"<div style=\"font-size:60px;\">+</div>","key_press":null,"trial_type":"html-keyboard-response","trial_index":156,"time_elapsed":367711,"internal_node_id":"0.0-8.0-1.37","subject":"7695e35h8gy0kg4","sona":"8698"},{"trial_type":"turing-test","trial_index":157,"time_elapsed":372862,"internal_node_id":"0.0-8.0-2.37","subject":"7695e35h8gy0kg4","sona":"8698"},{"rt":296.1350000696257,"stimulus":"<p>Welche Sequenz haben Sie als natürlicher empfunden?</p>","key_press":74,"test_part":"response","test_stimulus":{"position":1,"left":"bvh/vr_prediction_models/model(tmp)-dataset(return-bottle-hold)-numprim(15)-hold(0)/final-lines.txt","right":"bvh/return-bottle-hold-training0-lines.txt","att_check":false},"trial_type":"html-keyboard-response","trial_index":158,"time_elapsed":373166,"internal_node_id":"0.0-8.0-3.37","subject":"7695e35h8gy0kg4","sona":"8698"},{"rt":214.53999995719641,"stimulus":"<p>Bereit?</p>","key_press":32,"trial_type":"html-keyboard-response","trial_index":159,"time_elapsed":373392,"internal_node_id":"0.0-8.0-0.38","subject":"7695e35h8gy0kg4","sona":"8698"},{"rt":null,"stimulus":"<div style=\"font-size:60px;\">+</div>","key_press":null,"trial_type":"html-keyboard-response","trial_index":160,"time_elapsed":375421,"internal_node_id":"0.0-8.0-1.38","subject":"7695e35h8gy0kg4","sona":"8698"},{"trial_type":"turing-test","trial_index":161,"time_elapsed":379020,"internal_node_id":"0.0-8.0-2.38","subject":"7695e35h8gy0kg4","sona":"8698"},{"rt":254.85999998636544,"stimulus":"<p>Welche Sequenz haben Sie als natürlicher empfunden?</p>","key_press":74,"test_part":"response","test_stimulus":{"position":1,"left":"bvh/vr_prediction_models/model(tmp)-dataset(pass-bottle-hold)-numprim(3)-hold(4)/final-lines.txt","right":"bvh/pass-bottle-hold-training4-lines.txt","att_check":false},"trial_type":"html-keyboard-response","trial_index":162,"time_elapsed":379283,"internal_node_id":"0.0-8.0-3.38","subject":"7695e35h8gy0kg4","sona":"8698"},{"rt":204.204999958165,"stimulus":"<p>Bereit?</p>","key_press":32,"trial_type":"html-keyboard-response","trial_index":163,"time_elapsed":379494,"internal_node_id":"0.0-8.0-0.39","subject":"7695e35h8gy0kg4","sona":"8698"},{"rt":null,"stimulus":"<div style=\"font-size:60px;\">+</div>","key_press":null,"trial_type":"html-keyboard-response","trial_index":164,"time_elapsed":381516,"internal_node_id":"0.0-8.0-1.39","subject":"7695e35h8gy0kg4","sona":"8698"},{"trial_type":"turing-test","trial_index":165,"time_elapsed":385326,"internal_node_id":"0.0-8.0-2.39","subject":"7695e35h8gy0kg4","sona":"8698"},{"rt":365.529999951832,"stimulus":"<p>Welche Sequenz haben Sie als natürlicher empfunden?</p>","key_press":74,"test_part":"response","test_stimulus":{"position":1,"left":"bvh/vr_prediction_models/model(vcgpdm)-dataset(pass-bottle-hold)-mode(ELBO)-parts(3)-dyn(10)-lvm(10)-hold(4)/final-lines.txt","right":"bvh/pass-bottle-hold-training4-lines.txt","att_check":false},"trial_type":"html-keyboard-response","trial_index":166,"time_elapsed":385699,"internal_node_id":"0.0-8.0-3.39","subject":"7695e35h8gy0kg4","sona":"8698"},{"rt":205.4950000019744,"stimulus":"<p>Bereit?</p>","key_press":32,"trial_type":"html-keyboard-response","trial_index":167,"time_elapsed":385914,"internal_node_id":"0.0-8.0-0.40","subject":"7695e35h8gy0kg4","sona":"8698"},{"rt":null,"stimulus":"<div style=\"font-size:60px;\">+</div>","key_press":null,"trial_type":"html-keyboard-response","trial_index":168,"time_elapsed":387932,"internal_node_id":"0.0-8.0-1.40","subject":"7695e35h8gy0kg4","sona":"8698"},{"trial_type":"turing-test","trial_index":169,"time_elapsed":394896,"internal_node_id":"0.0-8.0-2.40","subject":"7695e35h8gy0kg4","sona":"8698"},{"rt":326.1649999767542,"stimulus":"<p>Welche Sequenz haben Sie als natürlicher empfunden?</p>","key_press":70,"test_part":"response","test_stimulus":{"position":0,"left":"bvh/return-bottle-training2-lines.txt","right":"bvh/vr_prediction_models/model(vcgpdm)-dataset(return-bottle)-mode(ELBO)-parts(1)-dyn(20)-lvm(5)-hold(2)/final-lines.txt","att_check":false},"trial_type":"html-keyboard-response","trial_index":170,"time_elapsed":395231,"internal_node_id":"0.0-8.0-3.40","subject":"7695e35h8gy0kg4","sona":"8698"},{"rt":201.88000006601214,"stimulus":"<p>Bereit?</p>","key_press":32,"trial_type":"html-keyboard-response","trial_index":171,"time_elapsed":395439,"internal_node_id":"0.0-8.0-0.41","subject":"7695e35h8gy0kg4","sona":"8698"},{"rt":null,"stimulus":"<div style=\"font-size:60px;\">+</div>","key_press":null,"trial_type":"html-keyboard-response","trial_index":172,"time_elapsed":397450,"internal_node_id":"0.0-8.0-1.41","subject":"7695e35h8gy0kg4","sona":"8698"},{"trial_type":"turing-test","trial_index":173,"time_elapsed":402844,"internal_node_id":"0.0-8.0-2.41","subject":"7695e35h8gy0kg4","sona":"8698"},{"rt":463.0900000920519,"stimulus":"<p>Welche Sequenz haben Sie als natürlicher empfunden?</p>","key_press":74,"test_part":"response","test_stimulus":{"position":1,"left":"bvh/vr_prediction_models/model(vcgpdm)-dataset(return-bottle-hold)-mode(ELBO)-parts(3)-dyn(20)-lvm(20)-hold(0)/final-lines.txt","right":"bvh/return-bottle-hold-training0-lines.txt","att_check":false},"trial_type":"html-keyboard-response","trial_index":174,"time_elapsed":403320,"internal_node_id":"0.0-8.0-3.41","subject":"7695e35h8gy0kg4","sona":"8698"},{"rt":227772.27499999572,"stimulus":"<p>Bereit?</p>","key_press":32,"trial_type":"html-keyboard-response","trial_index":175,"time_elapsed":631098,"internal_node_id":"0.0-8.0-0.42","subject":"7695e35h8gy0kg4","sona":"8698"},{"rt":null,"stimulus":"<div style=\"font-size:60px;\">+</div>","key_press":null,"trial_type":"html-keyboard-response","trial_index":176,"time_elapsed":633107,"internal_node_id":"0.0-8.0-1.42","subject":"7695e35h8gy0kg4","sona":"8698"},{"trial_type":"turing-test","trial_index":177,"time_elapsed":639255,"internal_node_id":"0.0-8.0-2.42","subject":"7695e35h8gy0kg4","sona":"8698"},{"rt":319.43000003229827,"stimulus":"<p>Welche Sequenz haben Sie als natürlicher empfunden?</p>","key_press":70,"test_part":"response","test_stimulus":{"position":0,"left":"bvh/pass-bottle-training2-lines.txt","right":"bvh/vr_prediction_models/model(dmp)-dataset(pass-bottle)-npsi(20)-hold(2)/final-lines.txt","att_check":false},"trial_type":"html-keyboard-response","trial_index":178,"time_elapsed":639586,"internal_node_id":"0.0-8.0-3.42","subject":"7695e35h8gy0kg4","sona":"8698"},{"rt":205.2699999185279,"stimulus":"<p>Bereit?</p>","key_press":32,"trial_type":"html-keyboard-response","trial_index":179,"time_elapsed":639798,"internal_node_id":"0.0-8.0-0.43","subject":"7695e35h8gy0kg4","sona":"8698"},{"rt":null,"stimulus":"<div style=\"font-size:60px;\">+</div>","key_press":null,"trial_type":"html-keyboard-response","trial_index":180,"time_elapsed":641821,"internal_node_id":"0.0-8.0-1.43","subject":"7695e35h8gy0kg4","sona":"8698"},{"trial_type":"turing-test","trial_index":181,"time_elapsed":645320,"internal_node_id":"0.0-8.0-2.43","subject":"7695e35h8gy0kg4","sona":"8698"},{"rt":411.9700000155717,"stimulus":"<p>Welche Sequenz haben Sie als natürlicher empfunden?</p>","key_press":74,"test_part":"response","test_stimulus":{"position":1,"left":"bvh/vr_prediction_models/model(dmp)-dataset(return-bottle-hold)-npsi(100)-hold(2)/final-lines.txt","right":"bvh/return-bottle-hold-training2-lines.txt","att_check":false},"trial_type":"html-keyboard-response","trial_index":182,"time_elapsed":645740,"internal_node_id":"0.0-8.0-3.43","subject":"7695e35h8gy0kg4","sona":"8698"},{"rt":320.43999992311,"stimulus":"<p>Bereit?</p>","key_press":32,"trial_type":"html-keyboard-response","trial_index":183,"time_elapsed":646067,"internal_node_id":"0.0-8.0-0.44","subject":"7695e35h8gy0kg4","sona":"8698"},{"rt":null,"stimulus":"<div style=\"font-size:60px;\">+</div>","key_press":null,"trial_type":"html-keyboard-response","trial_index":184,"time_elapsed":648077,"internal_node_id":"0.0-8.0-1.44","subject":"7695e35h8gy0kg4","sona":"8698"},{"trial_type":"turing-test","trial_index":185,"time_elapsed":653893,"internal_node_id":"0.0-8.0-2.44","subject":"7695e35h8gy0kg4","sona":"8698"},{"rt":237.54500003997236,"stimulus":"<p>Welche Sequenz haben Sie als natürlicher empfunden?</p>","key_press":74,"test_part":"response","test_stimulus":{"position":0,"left":"bvh/return-bottle-training4-lines.txt","right":"bvh/vr_prediction_models/model(vcgpdm)-dataset(return-bottle)-mode(ELBO)-parts(3)-dyn(30)-lvm(15)-hold(4)/final-lines.txt","att_check":false},"trial_type":"html-keyboard-response","trial_index":186,"time_elapsed":654141,"internal_node_id":"0.0-8.0-3.44","subject":"7695e35h8gy0kg4","sona":"8698"},{"rt":162.89499995764345,"stimulus":"<p>Bereit?</p>","key_press":32,"trial_type":"html-keyboard-response","trial_index":187,"time_elapsed":654311,"internal_node_id":"0.0-8.0-0.45","subject":"7695e35h8gy0kg4","sona":"8698"},{"rt":null,"stimulus":"<div style=\"font-size:60px;\">+</div>","key_press":null,"trial_type":"html-keyboard-response","trial_index":188,"time_elapsed":656340,"internal_node_id":"0.0-8.0-1.45","subject":"7695e35h8gy0kg4","sona":"8698"},{"trial_type":"turing-test","trial_index":189,"time_elapsed":659932,"internal_node_id":"0.0-8.0-2.45","subject":"7695e35h8gy0kg4","sona":"8698"},{"rt":69.51000005938113,"stimulus":"<p>Welche Sequenz haben Sie als natürlicher empfunden?</p>","key_press":74,"test_part":"response","test_stimulus":{"position":1,"left":"bvh/vr_prediction_models/model(vcgpdm)-dataset(pass-bottle-hold)-mode(ELBO)-parts(1)-dyn(10)-lvm(5)-hold(2)/final-lines.txt","right":"bvh/pass-bottle-hold-training2-lines.txt","att_check":false},"trial_type":"html-keyboard-response","trial_index":190,"time_elapsed":660009,"internal_node_id":"0.0-8.0-3.45","subject":"7695e35h8gy0kg4","sona":"8698"},{"rt":185.79000001773238,"stimulus":"<p>Bereit?</p>","key_press":32,"trial_type":"html-keyboard-response","trial_index":191,"time_elapsed":660201,"internal_node_id":"0.0-8.0-0.46","subject":"7695e35h8gy0kg4","sona":"8698"},{"rt":null,"stimulus":"<div style=\"font-size:60px;\">+</div>","key_press":null,"trial_type":"html-keyboard-response","trial_index":192,"time_elapsed":662221,"internal_node_id":"0.0-8.0-1.46","subject":"7695e35h8gy0kg4","sona":"8698"},{"trial_type":"turing-test","trial_index":193,"time_elapsed":668362,"internal_node_id":"0.0-8.0-2.46","subject":"7695e35h8gy0kg4","sona":"8698"},{"rt":209.789999993518,"stimulus":"<p>Welche Sequenz haben Sie als natürlicher empfunden?</p>","key_press":70,"test_part":"response","test_stimulus":{"position":0,"left":"bvh/pass-bottle-training2-lines.txt","right":"bvh/vr_prediction_models/model(dmp)-dataset(pass-bottle)-npsi(100)-hold(2)/final-lines.txt","att_check":false},"trial_type":"html-keyboard-response","trial_index":194,"time_elapsed":668583,"internal_node_id":"0.0-8.0-3.46","subject":"7695e35h8gy0kg4","sona":"8698"},{"rt":218.37000001687557,"stimulus":"<p>Bereit?</p>","key_press":32,"trial_type":"html-keyboard-response","trial_index":195,"time_elapsed":668808,"internal_node_id":"0.0-8.0-0.47","subject":"7695e35h8gy0kg4","sona":"8698"},{"rt":null,"stimulus":"<div style=\"font-size:60px;\">+</div>","key_press":null,"trial_type":"html-keyboard-response","trial_index":196,"time_elapsed":670835,"internal_node_id":"0.0-8.0-1.47","subject":"7695e35h8gy0kg4","sona":"8698"},{"trial_type":"turing-test","trial_index":197,"time_elapsed":674100,"internal_node_id":"0.0-8.0-2.47","subject":"7695e35h8gy0kg4","sona":"8698"},{"rt":214.67000001575798,"stimulus":"<p>Welche Sequenz haben Sie als natürlicher empfunden?</p>","key_press":70,"test_part":"response","test_stimulus":{"position":0,"left":"bvh/pass-bottle-hold-training1-lines.txt","right":"bvh/vr_prediction_models/model(vcgpdm)-dataset(pass-bottle-hold)-mode(ELBO)-parts(1)-dyn(30)-lvm(35)-hold(1)/final-lines.txt","att_check":false},"trial_type":"html-keyboard-response","trial_index":198,"time_elapsed":674323,"internal_node_id":"0.0-8.0-3.47","subject":"7695e35h8gy0kg4","sona":"8698"},{"rt":129.0350001072511,"stimulus":"<p>Bereit?</p>","key_press":32,"trial_type":"html-keyboard-response","trial_index":199,"time_elapsed":674459,"internal_node_id":"0.0-8.0-0.48","subject":"7695e35h8gy0kg4","sona":"8698"},{"rt":null,"stimulus":"<div style=\"font-size:60px;\">+</div>","key_press":null,"trial_type":"html-keyboard-response","trial_index":200,"time_elapsed":676476,"internal_node_id":"0.0-8.0-1.48","subject":"7695e35h8gy0kg4","sona":"8698"},{"trial_type":"turing-test","trial_index":201,"time_elapsed":683078,"internal_node_id":"0.0-8.0-2.48","subject":"7695e35h8gy0kg4","sona":"8698"},{"rt":194.4249999942258,"stimulus":"<p>Welche Sequenz haben Sie als natürlicher empfunden?</p>","key_press":70,"test_part":"response","test_stimulus":{"position":0,"left":"bvh/return-bottle-training2-lines.txt","right":"bvh/vr_prediction_models/model(vcgpdm)-dataset(return-bottle)-mode(ELBO)-parts(3)-dyn(25)-lvm(25)-hold(2)/final-lines.txt","att_check":false},"trial_type":"html-keyboard-response","trial_index":202,"time_elapsed":683282,"internal_node_id":"0.0-8.0-3.48","subject":"7695e35h8gy0kg4","sona":"8698"},{"rt":199.29999997839332,"stimulus":"<p>Bereit?</p>","key_press":32,"trial_type":"html-keyboard-response","trial_index":203,"time_elapsed":683488,"internal_node_id":"0.0-8.0-0.49","subject":"7695e35h8gy0kg4","sona":"8698"},{"rt":null,"stimulus":"<div style=\"font-size:60px;\">+</div>","key_press":null,"trial_type":"html-keyboard-response","trial_index":204,"time_elapsed":685507,"internal_node_id":"0.0-8.0-1.49","subject":"7695e35h8gy0kg4","sona":"8698"},{"trial_type":"turing-test","trial_index":205,"time_elapsed":688810,"internal_node_id":"0.0-8.0-2.49","subject":"7695e35h8gy0kg4","sona":"8698"},{"rt":207.0349999703467,"stimulus":"<p>Welche Sequenz haben Sie als natürlicher empfunden?</p>","key_press":74,"test_part":"response","test_stimulus":{"position":1,"left":"bvh/vr_prediction_models/model(tmp)-dataset(pass-bottle-hold)-numprim(9)-hold(0)/final-lines.txt","right":"bvh/pass-bottle-hold-training0-lines.txt","att_check":false},"trial_type":"html-keyboard-response","trial_index":206,"time_elapsed":689026,"internal_node_id":"0.0-8.0-3.49","subject":"7695e35h8gy0kg4","sona":"8698"},{"rt":207.76000001933426,"stimulus":"<p>Bereit?</p>","key_press":32,"trial_type":"html-keyboard-response","trial_index":207,"time_elapsed":689243,"internal_node_id":"0.0-8.0-0.50","subject":"7695e35h8gy0kg4","sona":"8698"},{"rt":null,"stimulus":"<div style=\"font-size:60px;\">+</div>","key_press":null,"trial_type":"html-keyboard-response","trial_index":208,"time_elapsed":691247,"internal_node_id":"0.0-8.0-1.50","subject":"7695e35h8gy0kg4","sona":"8698"},{"trial_type":"turing-test","trial_index":209,"time_elapsed":696377,"internal_node_id":"0.0-8.0-2.50","subject":"7695e35h8gy0kg4","sona":"8698"},{"rt":419.39000005368143,"stimulus":"<p>Welche Sequenz haben Sie als natürlicher empfunden?</p>","key_press":74,"test_part":"response","test_stimulus":{"position":1,"left":"bvh/vr_prediction_models/model(tmp)-dataset(return-bottle-hold)-numprim(8)-hold(0)/final-lines.txt","right":"bvh/return-bottle-hold-training0-lines.txt","att_check":false},"trial_type":"html-keyboard-response","trial_index":210,"time_elapsed":696805,"internal_node_id":"0.0-8.0-3.50","subject":"7695e35h8gy0kg4","sona":"8698"},{"rt":241.24000000301749,"stimulus":"<p>Bereit?</p>","key_press":32,"trial_type":"html-keyboard-response","trial_index":211,"time_elapsed":697053,"internal_node_id":"0.0-8.0-0.51","subject":"7695e35h8gy0kg4","sona":"8698"},{"rt":null,"stimulus":"<div style=\"font-size:60px;\">+</div>","key_press":null,"trial_type":"html-keyboard-response","trial_index":212,"time_elapsed":699080,"internal_node_id":"0.0-8.0-1.51","subject":"7695e35h8gy0kg4","sona":"8698"},{"trial_type":"turing-test","trial_index":213,"time_elapsed":702432,"internal_node_id":"0.0-8.0-2.51","subject":"7695e35h8gy0kg4","sona":"8698"},{"rt":606.3399999402463,"stimulus":"<p>Welche Sequenz haben Sie als natürlicher empfunden?</p>","key_press":74,"test_part":"response","test_stimulus":{"position":1,"left":"bvh/vr_prediction_models/model(dmp)-dataset(pass-bottle-hold)-npsi(80)-hold(2)/final-lines.txt","right":"bvh/pass-bottle-hold-training2-lines.txt","att_check":false},"trial_type":"html-keyboard-response","trial_index":214,"time_elapsed":703046,"internal_node_id":"0.0-8.0-3.51","subject":"7695e35h8gy0kg4","sona":"8698"},{"rt":194.71500010695308,"stimulus":"<p>Bereit?</p>","key_press":32,"trial_type":"html-keyboard-response","trial_index":215,"time_elapsed":703249,"internal_node_id":"0.0-8.0-0.52","subject":"7695e35h8gy0kg4","sona":"8698"},{"rt":null,"stimulus":"<div style=\"font-size:60px;\">+</div>","key_press":null,"trial_type":"html-keyboard-response","trial_index":216,"time_elapsed":705275,"internal_node_id":"0.0-8.0-1.52","subject":"7695e35h8gy0kg4","sona":"8698"},{"trial_type":"turing-test","trial_index":217,"time_elapsed":712120,"internal_node_id":"0.0-8.0-2.52","subject":"7695e35h8gy0kg4","sona":"8698"},{"rt":324.2999999783933,"stimulus":"<p>Welche Sequenz haben Sie als natürlicher empfunden?</p>","key_press":70,"test_part":"response","test_stimulus":{"position":0,"left":"bvh/pass-bottle-training0-lines.txt","right":"bvh/vr_prediction_models/model(dmp)-dataset(pass-bottle)-npsi(30)-hold(0)/final-lines.txt","att_check":false},"trial_type":"html-keyboard-response","trial_index":218,"time_elapsed":712457,"internal_node_id":"0.0-8.0-3.52","subject":"7695e35h8gy0kg4","sona":"8698"},{"rt":148.5049999319017,"stimulus":"<p>Bereit?</p>","key_press":32,"trial_type":"html-keyboard-response","trial_index":219,"time_elapsed":712614,"internal_node_id":"0.0-8.0-0.53","subject":"7695e35h8gy0kg4","sona":"8698"},{"rt":null,"stimulus":"<div style=\"font-size:60px;\">+</div>","key_press":null,"trial_type":"html-keyboard-response","trial_index":220,"time_elapsed":714636,"internal_node_id":"0.0-8.0-1.53","subject":"7695e35h8gy0kg4","sona":"8698"},{"trial_type":"turing-test","trial_index":221,"time_elapsed":718579,"internal_node_id":"0.0-8.0-2.53","subject":"7695e35h8gy0kg4","sona":"8698"},{"rt":114.93999999947846,"stimulus":"<p>Welche Sequenz haben Sie als natürlicher empfunden?</p>","key_press":74,"test_part":"response","test_stimulus":{"position":1,"left":"bvh/vr_prediction_models/model(vcgpdm)-dataset(return-bottle-hold)-mode(ELBO)-parts(1)-dyn(20)-lvm(30)-hold(4)/final-lines.txt","right":"bvh/return-bottle-hold-training4-lines.txt","att_check":false},"trial_type":"html-keyboard-response","trial_index":222,"time_elapsed":718705,"internal_node_id":"0.0-8.0-3.53","subject":"7695e35h8gy0kg4","sona":"8698"},{"rt":230.37000000476837,"stimulus":"<p>Bereit?</p>","key_press":32,"trial_type":"html-keyboard-response","trial_index":223,"time_elapsed":718942,"internal_node_id":"0.0-8.0-0.54","subject":"7695e35h8gy0kg4","sona":"8698"},{"rt":null,"stimulus":"<div style=\"font-size:60px;\">+</div>","key_press":null,"trial_type":"html-keyboard-response","trial_index":224,"time_elapsed":720966,"internal_node_id":"0.0-8.0-1.54","subject":"7695e35h8gy0kg4","sona":"8698"},{"trial_type":"turing-test","trial_index":225,"time_elapsed":726680,"internal_node_id":"0.0-8.0-2.54","subject":"7695e35h8gy0kg4","sona":"8698"},{"rt":402.26999996230006,"stimulus":"<p>Welche Sequenz haben Sie als natürlicher empfunden?</p>","key_press":70,"test_part":"response","test_stimulus":{"position":0,"left":"bvh/return-bottle-training3-lines.txt","right":"bvh/vr_prediction_models/model(dmp)-dataset(return-bottle)-npsi(90)-hold(3)/final-lines.txt","att_check":false},"trial_type":"html-keyboard-response","trial_index":226,"time_elapsed":727092,"internal_node_id":"0.0-8.0-3.54","subject":"7695e35h8gy0kg4","sona":"8698"},{"rt":179.1850000154227,"stimulus":"<p>Bereit?</p>","key_press":32,"trial_type":"html-keyboard-response","trial_index":227,"time_elapsed":727281,"internal_node_id":"0.0-8.0-0.55","subject":"7695e35h8gy0kg4","sona":"8698"},{"rt":null,"stimulus":"<div style=\"font-size:60px;\">+</div>","key_press":null,"trial_type":"html-keyboard-response","trial_index":228,"time_elapsed":729303,"internal_node_id":"0.0-8.0-1.55","subject":"7695e35h8gy0kg4","sona":"8698"},{"trial_type":"turing-test","trial_index":229,"time_elapsed":733119,"internal_node_id":"0.0-8.0-2.55","subject":"7695e35h8gy0kg4","sona":"8698"},{"rt":280.7549999561161,"stimulus":"<p>Welche Sequenz haben Sie als natürlicher empfunden?</p>","key_press":70,"test_part":"response","test_stimulus":{"position":0,"left":"bvh/return-bottle-hold-training3-lines.txt","right":"bvh/vr_prediction_models/model(vcgpdm)-dataset(return-bottle-hold)-mode(ELBO)-parts(3)-dyn(10)-lvm(30)-hold(3)/final-lines.txt","att_check":false},"trial_type":"html-keyboard-response","trial_index":230,"time_elapsed":733410,"internal_node_id":"0.0-8.0-3.55","subject":"7695e35h8gy0kg4","sona":"8698"},{"rt":10331.984999938868,"stimulus":"<p>Bereit?</p>","key_press":32,"trial_type":"html-keyboard-response","trial_index":231,"time_elapsed":743751,"internal_node_id":"0.0-8.0-0.56","subject":"7695e35h8gy0kg4","sona":"8698"},{"rt":null,"stimulus":"<div style=\"font-size:60px;\">+</div>","key_press":null,"trial_type":"html-keyboard-response","trial_index":232,"time_elapsed":745772,"internal_node_id":"0.0-8.0-1.56","subject":"7695e35h8gy0kg4","sona":"8698"},{"trial_type":"turing-test","trial_index":233,"time_elapsed":751776,"internal_node_id":"0.0-8.0-2.56","subject":"7695e35h8gy0kg4","sona":"8698"},{"rt":429.05500007327646,"stimulus":"<p>Welche Sequenz haben Sie als natürlicher empfunden?</p>","key_press":70,"test_part":"response","test_stimulus":{"position":0,"left":"bvh/return-bottle-training0-lines.txt","right":"bvh/vr_prediction_models/model(vcgpdm)-dataset(return-bottle)-mode(ELBO)-parts(1)-dyn(35)-lvm(10)-hold(0)/final-lines.txt","att_check":false},"trial_type":"html-keyboard-response","trial_index":234,"time_elapsed":752215,"internal_node_id":"0.0-8.0-3.56","subject":"7695e35h8gy0kg4","sona":"8698"},{"rt":307.1149999741465,"stimulus":"<p>Bereit?</p>","key_press":32,"trial_type":"html-keyboard-response","trial_index":235,"time_elapsed":752532,"internal_node_id":"0.0-8.0-0.57","subject":"7695e35h8gy0kg4","sona":"8698"},{"rt":null,"stimulus":"<div style=\"font-size:60px;\">+</div>","key_press":null,"trial_type":"html-keyboard-response","trial_index":236,"time_elapsed":754555,"internal_node_id":"0.0-8.0-1.57","subject":"7695e35h8gy0kg4","sona":"8698"},{"trial_type":"turing-test","trial_index":237,"time_elapsed":758632,"internal_node_id":"0.0-8.0-2.57","subject":"7695e35h8gy0kg4","sona":"8698"},{"rt":590.1750000193715,"stimulus":"<p>Welche Sequenz haben Sie als natürlicher empfunden?</p>","key_press":74,"test_part":"response","test_stimulus":{"position":0,"left":"bvh/pass-bottle-hold-training2-lines.txt","right":"bvh/vr_prediction_models/model(vcgpdm)-dataset(pass-bottle-hold)-mode(ELBO)-parts(1)-dyn(5)-lvm(5)-hold(2)/final-lines.txt","att_check":false},"trial_type":"html-keyboard-response","trial_index":238,"time_elapsed":759236,"internal_node_id":"0.0-8.0-3.57","subject":"7695e35h8gy0kg4","sona":"8698"},{"rt":310.26000005658716,"stimulus":"<p>Bereit?</p>","key_press":32,"trial_type":"html-keyboard-response","trial_index":239,"time_elapsed":759554,"internal_node_id":"0.0-8.0-0.58","subject":"7695e35h8gy0kg4","sona":"8698"},{"rt":null,"stimulus":"<div style=\"font-size:60px;\">+</div>","key_press":null,"trial_type":"html-keyboard-response","trial_index":240,"time_elapsed":761573,"internal_node_id":"0.0-8.0-1.58","subject":"7695e35h8gy0kg4","sona":"8698"},{"trial_type":"turing-test","trial_index":241,"time_elapsed":764882,"internal_node_id":"0.0-8.0-2.58","subject":"7695e35h8gy0kg4","sona":"8698"},{"rt":305.4149999516085,"stimulus":"<p>Welche Sequenz haben Sie als natürlicher empfunden?</p>","key_press":70,"test_part":"response","test_stimulus":{"position":0,"left":"bvh/pass-bottle-hold-training2-lines.txt","right":"bvh/vr_prediction_models/model(dmp)-dataset(pass-bottle-hold)-npsi(100)-hold(2)/final-lines.txt","att_check":true},"trial_type":"html-keyboard-response","trial_index":242,"time_elapsed":765195,"internal_node_id":"0.0-8.0-3.58","subject":"7695e35h8gy0kg4","sona":"8698"},{"rt":152.12500002235174,"stimulus":"<p>Bereit?</p>","key_press":32,"trial_type":"html-keyboard-response","trial_index":243,"time_elapsed":765353,"internal_node_id":"0.0-8.0-0.59","subject":"7695e35h8gy0kg4","sona":"8698"},{"rt":null,"stimulus":"<div style=\"font-size:60px;\">+</div>","key_press":null,"trial_type":"html-keyboard-response","trial_index":244,"time_elapsed":767376,"internal_node_id":"0.0-8.0-1.59","subject":"7695e35h8gy0kg4","sona":"8698"},{"trial_type":"turing-test","trial_index":245,"time_elapsed":771539,"internal_node_id":"0.0-8.0-2.59","subject":"7695e35h8gy0kg4","sona":"8698"},{"rt":333.88000004924834,"stimulus":"<p>Welche Sequenz haben Sie als natürlicher empfunden?</p>","key_press":70,"test_part":"response","test_stimulus":{"position":0,"left":"bvh/pass-bottle-hold-training3-lines.txt","right":"bvh/vr_prediction_models/model(vcgpdm)-dataset(pass-bottle-hold)-mode(ELBO)-parts(3)-dyn(10)-lvm(25)-hold(3)/final-lines.txt","att_check":false},"trial_type":"html-keyboard-response","trial_index":246,"time_elapsed":771883,"internal_node_id":"0.0-8.0-3.59","subject":"7695e35h8gy0kg4","sona":"8698"},{"rt":175.7949999300763,"stimulus":"<p>Bereit?</p>","key_press":32,"trial_type":"html-keyboard-response","trial_index":247,"time_elapsed":772066,"internal_node_id":"0.0-8.0-0.60","subject":"7695e35h8gy0kg4","sona":"8698"},{"rt":null,"stimulus":"<div style=\"font-size:60px;\">+</div>","key_press":null,"trial_type":"html-keyboard-response","trial_index":248,"time_elapsed":774090,"internal_node_id":"0.0-8.0-1.60","subject":"7695e35h8gy0kg4","sona":"8698"},{"trial_type":"turing-test","trial_index":249,"time_elapsed":777647,"internal_node_id":"0.0-8.0-2.60","subject":"7695e35h8gy0kg4","sona":"8698"},{"rt":340.3999999864027,"stimulus":"<p>Welche Sequenz haben Sie als natürlicher empfunden?</p>","key_press":70,"test_part":"response","test_stimulus":{"position":0,"left":"bvh/pass-bottle-hold-training2-lines.txt","right":"bvh/vr_prediction_models/model(vcgpdm)-dataset(pass-bottle-hold)-mode(ELBO)-parts(3)-dyn(25)-lvm(25)-hold(2)/final-lines.txt","att_check":false},"trial_type":"html-keyboard-response","trial_index":250,"time_elapsed":777999,"internal_node_id":"0.0-8.0-3.60","subject":"7695e35h8gy0kg4","sona":"8698"},{"rt":206.56500000040978,"stimulus":"<p>Bereit?</p>","key_press":32,"trial_type":"html-keyboard-response","trial_index":251,"time_elapsed":778213,"internal_node_id":"0.0-8.0-0.61","subject":"7695e35h8gy0kg4","sona":"8698"},{"rt":null,"stimulus":"<div style=\"font-size:60px;\">+</div>","key_press":null,"trial_type":"html-keyboard-response","trial_index":252,"time_elapsed":780242,"internal_node_id":"0.0-8.0-1.61","subject":"7695e35h8gy0kg4","sona":"8698"},{"trial_type":"turing-test","trial_index":253,"time_elapsed":786166,"internal_node_id":"0.0-8.0-2.61","subject":"7695e35h8gy0kg4","sona":"8698"},{"rt":301.15000007208437,"stimulus":"<p>Welche Sequenz haben Sie als natürlicher empfunden?</p>","key_press":70,"test_part":"response","test_stimulus":{"position":0,"left":"bvh/pass-bottle-training4-lines.txt","right":"bvh/vr_prediction_models/model(vcgpdm)-dataset(pass-bottle)-mode(ELBO)-parts(3)-dyn(10)-lvm(25)-hold(4)/final-lines.txt","att_check":false},"trial_type":"html-keyboard-response","trial_index":254,"time_elapsed":786483,"internal_node_id":"0.0-8.0-3.61","subject":"7695e35h8gy0kg4","sona":"8698"},{"rt":180.14000006951392,"stimulus":"<p>Bereit?</p>","key_press":32,"trial_type":"html-keyboard-response","trial_index":255,"time_elapsed":786671,"internal_node_id":"0.0-8.0-0.62","subject":"7695e35h8gy0kg4","sona":"8698"},{"rt":null,"stimulus":"<div style=\"font-size:60px;\">+</div>","key_press":null,"trial_type":"html-keyboard-response","trial_index":256,"time_elapsed":788698,"internal_node_id":"0.0-8.0-1.62","subject":"7695e35h8gy0kg4","sona":"8698"},{"trial_type":"turing-test","trial_index":257,"time_elapsed":792325,"internal_node_id":"0.0-8.0-2.62","subject":"7695e35h8gy0kg4","sona":"8698"},{"rt":367.0050000073388,"stimulus":"<p>Welche Sequenz haben Sie als natürlicher empfunden?</p>","key_press":74,"test_part":"response","test_stimulus":{"position":1,"left":"bvh/vr_prediction_models/model(dmp)-dataset(return-bottle-hold)-npsi(70)-hold(3)/final-lines.txt","right":"bvh/return-bottle-hold-training3-lines.txt","att_check":false},"trial_type":"html-keyboard-response","trial_index":258,"time_elapsed":792703,"internal_node_id":"0.0-8.0-3.62","subject":"7695e35h8gy0kg4","sona":"8698"},{"rt":312.0050000725314,"stimulus":"<p>Bereit?</p>","key_press":32,"trial_type":"html-keyboard-response","trial_index":259,"time_elapsed":793022,"internal_node_id":"0.0-8.0-0.63","subject":"7695e35h8gy0kg4","sona":"8698"},{"rt":null,"stimulus":"<div style=\"font-size:60px;\">+</div>","key_press":null,"trial_type":"html-keyboard-response","trial_index":260,"time_elapsed":795054,"internal_node_id":"0.0-8.0-1.63","subject":"7695e35h8gy0kg4","sona":"8698"},{"trial_type":"turing-test","trial_index":261,"time_elapsed":799144,"internal_node_id":"0.0-8.0-2.63","subject":"7695e35h8gy0kg4","sona":"8698"},{"rt":339.2949999542907,"stimulus":"<p>Welche Sequenz haben Sie als natürlicher empfunden?</p>","key_press":70,"test_part":"response","test_stimulus":{"position":0,"left":"bvh/return-bottle-hold-training4-lines.txt","right":"bvh/vr_prediction_models/model(dmp)-dataset(return-bottle-hold)-npsi(100)-hold(4)/final-lines.txt","att_check":false},"trial_type":"html-keyboard-response","trial_index":262,"time_elapsed":799493,"internal_node_id":"0.0-8.0-3.63","subject":"7695e35h8gy0kg4","sona":"8698"},{"rt":192.46499997098,"stimulus":"<p>Bereit?</p>","key_press":32,"trial_type":"html-keyboard-response","trial_index":263,"time_elapsed":799694,"internal_node_id":"0.0-8.0-0.64","subject":"7695e35h8gy0kg4","sona":"8698"},{"rt":null,"stimulus":"<div style=\"font-size:60px;\">+</div>","key_press":null,"trial_type":"html-keyboard-response","trial_index":264,"time_elapsed":801725,"internal_node_id":"0.0-8.0-1.64","subject":"7695e35h8gy0kg4","sona":"8698"},{"trial_type":"turing-test","trial_index":265,"time_elapsed":805071,"internal_node_id":"0.0-8.0-2.64","subject":"7695e35h8gy0kg4","sona":"8698"},{"rt":959.8600000608712,"stimulus":"<p>Welche Sequenz haben Sie als natürlicher empfunden?</p>","key_press":74,"test_part":"response","test_stimulus":{"position":0,"left":"bvh/pass-bottle-hold-training1-lines.txt","right":"bvh/vr_prediction_models/model(vcgpdm)-dataset(pass-bottle-hold)-mode(MAP)-parts(3)-hold(1)/final-lines.txt","att_check":false},"trial_type":"html-keyboard-response","trial_index":266,"time_elapsed":806040,"internal_node_id":"0.0-8.0-3.64","subject":"7695e35h8gy0kg4","sona":"8698"},{"rt":247.37500003539026,"stimulus":"<p>Bereit?</p>","key_press":32,"trial_type":"html-keyboard-response","trial_index":267,"time_elapsed":806294,"internal_node_id":"0.0-8.0-0.65","subject":"7695e35h8gy0kg4","sona":"8698"},{"rt":null,"stimulus":"<div style=\"font-size:60px;\">+</div>","key_press":null,"trial_type":"html-keyboard-response","trial_index":268,"time_elapsed":808313,"internal_node_id":"0.0-8.0-1.65","subject":"7695e35h8gy0kg4","sona":"8698"},{"trial_type":"turing-test","trial_index":269,"time_elapsed":815068,"internal_node_id":"0.0-8.0-2.65","subject":"7695e35h8gy0kg4","sona":"8698"},{"rt":361.23000003863126,"stimulus":"<p>Welche Sequenz haben Sie als natürlicher empfunden?</p>","key_press":74,"test_part":"response","test_stimulus":{"position":1,"left":"bvh/vr_prediction_models/model(dmp)-dataset(pass-bottle)-npsi(40)-hold(0)/final-lines.txt","right":"bvh/pass-bottle-training0-lines.txt","att_check":false},"trial_type":"html-keyboard-response","trial_index":270,"time_elapsed":815440,"internal_node_id":"0.0-8.0-3.65","subject":"7695e35h8gy0kg4","sona":"8698"},{"rt":219.27999996114522,"stimulus":"<p>Bereit?</p>","key_press":32,"trial_type":"html-keyboard-response","trial_index":271,"time_elapsed":815669,"internal_node_id":"0.0-8.0-0.66","subject":"7695e35h8gy0kg4","sona":"8698"},{"rt":null,"stimulus":"<div style=\"font-size:60px;\">+</div>","key_press":null,"trial_type":"html-keyboard-response","trial_index":272,"time_elapsed":817689,"internal_node_id":"0.0-8.0-1.66","subject":"7695e35h8gy0kg4","sona":"8698"},{"trial_type":"turing-test","trial_index":273,"time_elapsed":823467,"internal_node_id":"0.0-8.0-2.66","subject":"7695e35h8gy0kg4","sona":"8698"},{"rt":301.13999999593943,"stimulus":"<p>Welche Sequenz haben Sie als natürlicher empfunden?</p>","key_press":74,"test_part":"response","test_stimulus":{"position":1,"left":"bvh/vr_prediction_models/model(dmp)-dataset(pass-bottle)-npsi(70)-hold(3)/final-lines.txt","right":"bvh/pass-bottle-training3-lines.txt","att_check":false},"trial_type":"html-keyboard-response","trial_index":274,"time_elapsed":823780,"internal_node_id":"0.0-8.0-3.66","subject":"7695e35h8gy0kg4","sona":"8698"},{"rt":210.76499996706843,"stimulus":"<p>Bereit?</p>","key_press":32,"trial_type":"html-keyboard-response","trial_index":275,"time_elapsed":824002,"internal_node_id":"0.0-8.0-0.67","subject":"7695e35h8gy0kg4","sona":"8698"},{"rt":null,"stimulus":"<div style=\"font-size:60px;\">+</div>","key_press":null,"trial_type":"html-keyboard-response","trial_index":276,"time_elapsed":826017,"internal_node_id":"0.0-8.0-1.67","subject":"7695e35h8gy0kg4","sona":"8698"},{"trial_type":"turing-test","trial_index":277,"time_elapsed":832795,"internal_node_id":"0.0-8.0-2.67","subject":"7695e35h8gy0kg4","sona":"8698"},{"rt":252.49999994412065,"stimulus":"<p>Welche Sequenz haben Sie als natürlicher empfunden?</p>","key_press":74,"test_part":"response","test_stimulus":{"position":0,"left":"bvh/pass-bottle-training0-lines.txt","right":"bvh/vr_prediction_models/model(tmp)-dataset(pass-bottle)-numprim(6)-hold(0)/final-lines.txt","att_check":false},"trial_type":"html-keyboard-response","trial_index":278,"time_elapsed":833060,"internal_node_id":"0.0-8.0-3.67","subject":"7695e35h8gy0kg4","sona":"8698"},{"rt":200.79499995335937,"stimulus":"<p>Bereit?</p>","key_press":32,"trial_type":"html-keyboard-response","trial_index":279,"time_elapsed":833269,"internal_node_id":"0.0-8.0-0.68","subject":"7695e35h8gy0kg4","sona":"8698"},{"rt":null,"stimulus":"<div style=\"font-size:60px;\">+</div>","key_press":null,"trial_type":"html-keyboard-response","trial_index":280,"time_elapsed":835290,"internal_node_id":"0.0-8.0-1.68","subject":"7695e35h8gy0kg4","sona":"8698"},{"trial_type":"turing-test","trial_index":281,"time_elapsed":841541,"internal_node_id":"0.0-8.0-2.68","subject":"7695e35h8gy0kg4","sona":"8698"},{"rt":259.30000003427267,"stimulus":"<p>Welche Sequenz haben Sie als natürlicher empfunden?</p>","key_press":74,"test_part":"response","test_stimulus":{"position":1,"left":"bvh/vr_prediction_models/model(vcgpdm)-dataset(return-bottle)-mode(ELBO)-parts(3)-dyn(20)-lvm(35)-hold(1)/final-lines.txt","right":"bvh/return-bottle-training1-lines.txt","att_check":false},"trial_type":"html-keyboard-response","trial_index":282,"time_elapsed":841812,"internal_node_id":"0.0-8.0-3.68","subject":"7695e35h8gy0kg4","sona":"8698"},{"rt":197.99499993678182,"stimulus":"<p>Bereit?</p>","key_press":32,"trial_type":"html-keyboard-response","trial_index":283,"time_elapsed":842018,"internal_node_id":"0.0-8.0-0.69","subject":"7695e35h8gy0kg4","sona":"8698"},{"rt":null,"stimulus":"<div style=\"font-size:60px;\">+</div>","key_press":null,"trial_type":"html-keyboard-response","trial_index":284,"time_elapsed":844026,"internal_node_id":"0.0-8.0-1.69","subject":"7695e35h8gy0kg4","sona":"8698"},{"trial_type":"turing-test","trial_index":285,"time_elapsed":849832,"internal_node_id":"0.0-8.0-2.69","subject":"7695e35h8gy0kg4","sona":"8698"},{"rt":311.4049999276176,"stimulus":"<p>Welche Sequenz haben Sie als natürlicher empfunden?</p>","key_press":74,"test_part":"response","test_stimulus":{"position":1,"left":"bvh/vr_prediction_models/model(dmp)-dataset(pass-bottle)-npsi(30)-hold(3)/final-lines.txt","right":"bvh/pass-bottle-training3-lines.txt","att_check":false},"trial_type":"html-keyboard-response","trial_index":286,"time_elapsed":850157,"internal_node_id":"0.0-8.0-3.69","subject":"7695e35h8gy0kg4","sona":"8698"},{"rt":223.4300000127405,"stimulus":"<p>Bereit?</p>","key_press":32,"trial_type":"html-keyboard-response","trial_index":287,"time_elapsed":850392,"internal_node_id":"0.0-8.0-0.70","subject":"7695e35h8gy0kg4","sona":"8698"},{"rt":null,"stimulus":"<div style=\"font-size:60px;\">+</div>","key_press":null,"trial_type":"html-keyboard-response","trial_index":288,"time_elapsed":852397,"internal_node_id":"0.0-8.0-1.70","subject":"7695e35h8gy0kg4","sona":"8698"},{"trial_type":"turing-test","trial_index":289,"time_elapsed":858363,"internal_node_id":"0.0-8.0-2.70","subject":"7695e35h8gy0kg4","sona":"8698"},{"rt":382.41500000003725,"stimulus":"<p>Welche Sequenz haben Sie als natürlicher empfunden?</p>","key_press":70,"test_part":"response","test_stimulus":{"position":0,"left":"bvh/pass-bottle-training4-lines.txt","right":"bvh/vr_prediction_models/model(vcgpdm)-dataset(pass-bottle)-mode(ELBO)-parts(3)-dyn(10)-lvm(30)-hold(4)/final-lines.txt","att_check":false},"trial_type":"html-keyboard-response","trial_index":290,"time_elapsed":858757,"internal_node_id":"0.0-8.0-3.70","subject":"7695e35h8gy0kg4","sona":"8698"},{"rt":189.69000002834946,"stimulus":"<p>Bereit?</p>","key_press":32,"trial_type":"html-keyboard-response","trial_index":291,"time_elapsed":858956,"internal_node_id":"0.0-8.0-0.71","subject":"7695e35h8gy0kg4","sona":"8698"},{"rt":null,"stimulus":"<div style=\"font-size:60px;\">+</div>","key_press":null,"trial_type":"html-keyboard-response","trial_index":292,"time_elapsed":860972,"internal_node_id":"0.0-8.0-1.71","subject":"7695e35h8gy0kg4","sona":"8698"},{"trial_type":"turing-test","trial_index":293,"time_elapsed":867559,"internal_node_id":"0.0-8.0-2.71","subject":"7695e35h8gy0kg4","sona":"8698"},{"rt":336.18500002194196,"stimulus":"<p>Welche Sequenz haben Sie als natürlicher empfunden?</p>","key_press":70,"test_part":"response","test_stimulus":{"position":0,"left":"bvh/return-bottle-training2-lines.txt","right":"bvh/vr_prediction_models/model(dmp)-dataset(return-bottle)-npsi(70)-hold(2)/final-lines.txt","att_check":false},"trial_type":"html-keyboard-response","trial_index":294,"time_elapsed":867905,"internal_node_id":"0.0-8.0-3.71","subject":"7695e35h8gy0kg4","sona":"8698"},{"rt":152.51000004354864,"stimulus":"<p>Bereit?</p>","key_press":32,"trial_type":"html-keyboard-response","trial_index":295,"time_elapsed":868068,"internal_node_id":"0.0-8.0-0.72","subject":"7695e35h8gy0kg4","sona":"8698"},{"rt":null,"stimulus":"<div style=\"font-size:60px;\">+</div>","key_press":null,"trial_type":"html-keyboard-response","trial_index":296,"time_elapsed":870090,"internal_node_id":"0.0-8.0-1.72","subject":"7695e35h8gy0kg4","sona":"8698"},{"trial_type":"turing-test","trial_index":297,"time_elapsed":875866,"internal_node_id":"0.0-8.0-2.72","subject":"7695e35h8gy0kg4","sona":"8698"},{"rt":223.42000005301088,"stimulus":"<p>Welche Sequenz haben Sie als natürlicher empfunden?</p>","key_press":70,"test_part":"response","test_stimulus":{"position":0,"left":"bvh/pass-bottle-training4-lines.txt","right":"bvh/vr_prediction_models/model(dmp)-dataset(pass-bottle)-npsi(100)-hold(4)/final-lines.txt","att_check":false},"trial_type":"html-keyboard-response","trial_index":298,"time_elapsed":876103,"internal_node_id":"0.0-8.0-3.72","subject":"7695e35h8gy0kg4","sona":"8698"},{"rt":217.8700000513345,"stimulus":"<p>Bereit?</p>","key_press":32,"trial_type":"html-keyboard-response","trial_index":299,"time_elapsed":876328,"internal_node_id":"0.0-8.0-0.73","subject":"7695e35h8gy0kg4","sona":"8698"},{"rt":null,"stimulus":"<div style=\"font-size:60px;\">+</div>","key_press":null,"trial_type":"html-keyboard-response","trial_index":300,"time_elapsed":878334,"internal_node_id":"0.0-8.0-1.73","subject":"7695e35h8gy0kg4","sona":"8698"},{"trial_type":"turing-test","trial_index":301,"time_elapsed":884000,"internal_node_id":"0.0-8.0-2.73","subject":"7695e35h8gy0kg4","sona":"8698"},{"rt":313.0299999611452,"stimulus":"<p>Welche Sequenz haben Sie als natürlicher empfunden?</p>","key_press":74,"test_part":"response","test_stimulus":{"position":1,"left":"bvh/vr_prediction_models/model(vcgpdm)-dataset(return-bottle)-mode(ELBO)-parts(1)-dyn(25)-lvm(35)-hold(0)/final-lines.txt","right":"bvh/return-bottle-training0-lines.txt","att_check":false},"trial_type":"html-keyboard-response","trial_index":302,"time_elapsed":884324,"internal_node_id":"0.0-8.0-3.73","subject":"7695e35h8gy0kg4","sona":"8698"},{"rt":2361.920000053942,"stimulus":"<p>Bereit?</p>","key_press":32,"trial_type":"html-keyboard-response","trial_index":303,"time_elapsed":886694,"internal_node_id":"0.0-8.0-0.74","subject":"7695e35h8gy0kg4","sona":"8698"},{"rt":null,"stimulus":"<div style=\"font-size:60px;\">+</div>","key_press":null,"trial_type":"html-keyboard-response","trial_index":304,"time_elapsed":888701,"internal_node_id":"0.0-8.0-1.74","subject":"7695e35h8gy0kg4","sona":"8698"},{"trial_type":"turing-test","trial_index":305,"time_elapsed":894678,"internal_node_id":"0.0-8.0-2.74","subject":"7695e35h8gy0kg4","sona":"8698"},{"rt":246.59500003326684,"stimulus":"<p>Welche Sequenz haben Sie als natürlicher empfunden?</p>","key_press":74,"test_part":"response","test_stimulus":{"position":1,"left":"bvh/vr_prediction_models/model(vcgpdm)-dataset(return-bottle)-mode(ELBO)-parts(1)-dyn(15)-lvm(35)-hold(3)/final-lines.txt","right":"bvh/return-bottle-training3-lines.txt","att_check":false},"trial_type":"html-keyboard-response","trial_index":306,"time_elapsed":894939,"internal_node_id":"0.0-8.0-3.74","subject":"7695e35h8gy0kg4","sona":"8698"},{"rt":179.1250000242144,"stimulus":"<p>Bereit?</p>","key_press":32,"trial_type":"html-keyboard-response","trial_index":307,"time_elapsed":895129,"internal_node_id":"0.0-8.0-0.75","subject":"7695e35h8gy0kg4","sona":"8698"},{"rt":null,"stimulus":"<div style=\"font-size:60px;\">+</div>","key_press":null,"trial_type":"html-keyboard-response","trial_index":308,"time_elapsed":897152,"internal_node_id":"0.0-8.0-1.75","subject":"7695e35h8gy0kg4","sona":"8698"},{"trial_type":"turing-test","trial_index":309,"time_elapsed":903183,"internal_node_id":"0.0-8.0-2.75","subject":"7695e35h8gy0kg4","sona":"8698"},{"rt":313.19999997504056,"stimulus":"<p>Welche Sequenz haben Sie als natürlicher empfunden?</p>","key_press":74,"test_part":"response","test_stimulus":{"position":1,"left":"bvh/vr_prediction_models/model(vcgpdm)-dataset(return-bottle)-mode(ELBO)-parts(1)-dyn(30)-lvm(20)-hold(1)/final-lines.txt","right":"bvh/return-bottle-training1-lines.txt","att_check":false},"trial_type":"html-keyboard-response","trial_index":310,"time_elapsed":903506,"internal_node_id":"0.0-8.0-3.75","subject":"7695e35h8gy0kg4","sona":"8698"},{"rt":254.19000000692904,"stimulus":"<p>Bereit?</p>","key_press":32,"trial_type":"html-keyboard-response","trial_index":311,"time_elapsed":903766,"internal_node_id":"0.0-8.0-0.76","subject":"7695e35h8gy0kg4","sona":"8698"},{"rt":null,"stimulus":"<div style=\"font-size:60px;\">+</div>","key_press":null,"trial_type":"html-keyboard-response","trial_index":312,"time_elapsed":905776,"internal_node_id":"0.0-8.0-1.76","subject":"7695e35h8gy0kg4","sona":"8698"},{"trial_type":"turing-test","trial_index":313,"time_elapsed":911534,"internal_node_id":"0.0-8.0-2.76","subject":"7695e35h8gy0kg4","sona":"8698"},{"rt":306.52500002179295,"stimulus":"<p>Welche Sequenz haben Sie als natürlicher empfunden?</p>","key_press":74,"test_part":"response","test_stimulus":{"position":1,"left":"bvh/vr_prediction_models/model(vcgpdm)-dataset(return-bottle)-mode(ELBO)-parts(3)-dyn(10)-lvm(25)-hold(4)/final-lines.txt","right":"bvh/return-bottle-training4-lines.txt","att_check":false},"trial_type":"html-keyboard-response","trial_index":314,"time_elapsed":911854,"internal_node_id":"0.0-8.0-3.76","subject":"7695e35h8gy0kg4","sona":"8698"},{"rt":221.83499997481704,"stimulus":"<p>Bereit?</p>","key_press":32,"trial_type":"html-keyboard-response","trial_index":315,"time_elapsed":912087,"internal_node_id":"0.0-8.0-0.77","subject":"7695e35h8gy0kg4","sona":"8698"},{"rt":null,"stimulus":"<div style=\"font-size:60px;\">+</div>","key_press":null,"trial_type":"html-keyboard-response","trial_index":316,"time_elapsed":914103,"internal_node_id":"0.0-8.0-1.77","subject":"7695e35h8gy0kg4","sona":"8698"},{"trial_type":"turing-test","trial_index":317,"time_elapsed":920400,"internal_node_id":"0.0-8.0-2.77","subject":"7695e35h8gy0kg4","sona":"8698"},{"rt":205.30499995220453,"stimulus":"<p>Welche Sequenz haben Sie als natürlicher empfunden?</p>","key_press":74,"test_part":"response","test_stimulus":{"position":1,"left":"bvh/vr_prediction_models/model(vcgpdm)-dataset(pass-bottle)-mode(ELBO)-parts(3)-dyn(10)-lvm(25)-hold(2)/final-lines.txt","right":"bvh/pass-bottle-training2-lines.txt","att_check":false},"trial_type":"html-keyboard-response","trial_index":318,"time_elapsed":920615,"internal_node_id":"0.0-8.0-3.77","subject":"7695e35h8gy0kg4","sona":"8698"},{"rt":177.69500007852912,"stimulus":"<p>Bereit?</p>","key_press":32,"trial_type":"html-keyboard-response","trial_index":319,"time_elapsed":920802,"internal_node_id":"0.0-8.0-0.78","subject":"7695e35h8gy0kg4","sona":"8698"},{"rt":null,"stimulus":"<div style=\"font-size:60px;\">+</div>","key_press":null,"trial_type":"html-keyboard-response","trial_index":320,"time_elapsed":922808,"internal_node_id":"0.0-8.0-1.78","subject":"7695e35h8gy0kg4","sona":"8698"},{"trial_type":"turing-test","trial_index":321,"time_elapsed":927898,"internal_node_id":"0.0-8.0-2.78","subject":"7695e35h8gy0kg4","sona":"8698"},{"rt":330.6950000114739,"stimulus":"<p>Welche Sequenz haben Sie als natürlicher empfunden?</p>","key_press":70,"test_part":"response","test_stimulus":{"position":0,"left":"bvh/return-bottle-hold-training0-lines.txt","right":"bvh/vr_prediction_models/model(tmp)-dataset(return-bottle-hold)-numprim(15)-hold(0)/final-lines.txt","att_check":false},"trial_type":"html-keyboard-response","trial_index":322,"time_elapsed":928239,"internal_node_id":"0.0-8.0-3.78","subject":"7695e35h8gy0kg4","sona":"8698"},{"rt":244.53000002540648,"stimulus":"<p>Bereit?</p>","key_press":32,"trial_type":"html-keyboard-response","trial_index":323,"time_elapsed":928494,"internal_node_id":"0.0-8.0-0.79","subject":"7695e35h8gy0kg4","sona":"8698"},{"rt":null,"stimulus":"<div style=\"font-size:60px;\">+</div>","key_press":null,"trial_type":"html-keyboard-response","trial_index":324,"time_elapsed":930523,"internal_node_id":"0.0-8.0-1.79","subject":"7695e35h8gy0kg4","sona":"8698"},{"trial_type":"turing-test","trial_index":325,"time_elapsed":936458,"internal_node_id":"0.0-8.0-2.79","subject":"7695e35h8gy0kg4","sona":"8698"},{"rt":317.23500008229166,"stimulus":"<p>Welche Sequenz haben Sie als natürlicher empfunden?</p>","key_press":74,"test_part":"response","test_stimulus":{"position":1,"left":"bvh/vr_prediction_models/model(vcgpdm)-dataset(pass-bottle)-mode(ELBO)-parts(3)-dyn(20)-lvm(15)-hold(3)/final-lines.txt","right":"bvh/pass-bottle-training3-lines.txt","att_check":false},"trial_type":"html-keyboard-response","trial_index":326,"time_elapsed":936786,"internal_node_id":"0.0-8.0-3.79","subject":"7695e35h8gy0kg4","sona":"8698"},{"rt":4759.814999997616,"responses":"{\"age\":\" 26\",\"gender\":\"weiblich\"}","trial_type":"survey-text","trial_index":327,"time_elapsed":941571,"internal_node_id":"0.0-10.0-0.0","subject":"7695e35h8gy0kg4","sona":"8698"},{"rt":133798.7499999581,"responses":"{\"area\":\"Unterschenkel, Hals und Unterarme\",\"Q1\":\"Wenn die Bewegungen nicht flüssig waren, der restliche Körper sich nicht mitbewegte, die Bewegungen des Halses. Jedoch war es bei einigen Figuren nicht allzu eindeutig zuzuordnen. \",\"Q2\":\"Drehungen, abgehackte Bewegungen \"}","trial_type":"survey-text","trial_index":328,"time_elapsed":1075384,"internal_node_id":"0.0-10.0-1.0","subject":"7695e35h8gy0kg4","sona":"8698"}]