[{"rt":1582.8650000039488,"stimulus":"<p>Welcome!<br> Please choose your language to start the experiment in the chosen language.</p><p>Willkommen!<br> Bitte wählen Sie eine Sprache, um das Experiment in der ausgewählten Sprache zu starten</p>","button_pressed":"1","trial_type":"html-button-response","trial_index":0,"time_elapsed":1630,"internal_node_id":"0.0-0.0","subject":"e0wzhk3d61ggaxy","sona":"8719"},{"view_history":"[{\"page_index\":0,\"viewing_time\":1006.3500000396743},{\"page_index\":1,\"viewing_time\":1135.9800000209361},{\"page_index\":2,\"viewing_time\":791.8799999170005},{\"page_index\":3,\"viewing_time\":1495.8700001006946},{\"page_index\":4,\"viewing_time\":2127.9249999206513}]","rt":6558.78500000108,"trial_type":"instructions","trial_index":1,"time_elapsed":8190,"internal_node_id":"0.0-1.0-0.0","subject":"e0wzhk3d61ggaxy","sona":"8719"},{"rt":1664.8049999494106,"stimulus":"<p>Bereit?</p>","key_press":32,"trial_type":"html-keyboard-response","trial_index":2,"time_elapsed":9857,"internal_node_id":"0.0-3.0","subject":"e0wzhk3d61ggaxy","sona":"8719"},{"rt":null,"stimulus":"<div style=\"font-size:60px;\">+</div>","key_press":null,"trial_type":"html-keyboard-response","trial_index":3,"time_elapsed":11887,"internal_node_id":"0.0-4.0","subject":"e0wzhk3d61ggaxy","sona":"8719"},{"trial_type":"training","trial_index":4,"time_elapsed":15616,"internal_node_id":"0.0-5.0","subject":"e0wzhk3d61ggaxy","sona":"8719"},{"rt":1129.5000000391155,"stimulus":"<p>Welche Sequenz haben Sie als natürlicher empfunden?</p>","key_press":70,"trial_type":"html-keyboard-response","trial_index":5,"time_elapsed":16748,"internal_node_id":"0.0-6.0","subject":"e0wzhk3d61ggaxy","sona":"8719"},{"rt":1902.9800000134856,"stimulus":"<p>Das Experiment startet nun.</p><p><small>Bitte drücken Sie den Knopf, wenn Sie bereit sind.</small></p>","button_pressed":"0","trial_type":"html-button-response","trial_index":6,"time_elapsed":18653,"internal_node_id":"0.0-7.0","subject":"e0wzhk3d61ggaxy","sona":"8719"},{"rt":1252.710000029765,"stimulus":"<p>Bereit?</p>","key_press":32,"trial_type":"html-keyboard-response","trial_index":7,"time_elapsed":19907,"internal_node_id":"0.0-8.0-0.0","subject":"e0wzhk3d61ggaxy","sona":"8719"},{"rt":null,"stimulus":"<div style=\"font-size:60px;\">+</div>","key_press":null,"trial_type":"html-keyboard-response","trial_index":8,"time_elapsed":21930,"internal_node_id":"0.0-8.0-1.0","subject":"e0wzhk3d61ggaxy","sona":"8719"},{"trial_type":"turing-test","trial_index":9,"time_elapsed":27807,"internal_node_id":"0.0-8.0-2.0","subject":"e0wzhk3d61ggaxy","sona":"8719"},{"rt":1084.9249999737367,"stimulus":"<p>Welche Sequenz haben Sie als natürlicher empfunden?</p>","key_press":74,"test_part":"response","test_stimulus":{"position":1,"left":"bvh/vr_prediction_models/model(dmp)-dataset(pass-bottle)-npsi(20)-hold(1)/final-lines.txt","right":"bvh/pass-bottle-training1-lines.txt","att_check":false},"trial_type":"html-keyboard-response","trial_index":10,"time_elapsed":28899,"internal_node_id":"0.0-8.0-3.0","subject":"e0wzhk3d61ggaxy","sona":"8719"},{"rt":358.95999998319894,"stimulus":"<p>Bereit?</p>","key_press":32,"trial_type":"html-keyboard-response","trial_index":11,"time_elapsed":29263,"internal_node_id":"0.0-8.0-0.1","subject":"e0wzhk3d61ggaxy","sona":"8719"},{"rt":null,"stimulus":"<div style=\"font-size:60px;\">+</div>","key_press":null,"trial_type":"html-keyboard-response","trial_index":12,"time_elapsed":31278,"internal_node_id":"0.0-8.0-1.1","subject":"e0wzhk3d61ggaxy","sona":"8719"},{"trial_type":"turing-test","trial_index":13,"time_elapsed":35460,"internal_node_id":"0.0-8.0-2.1","subject":"e0wzhk3d61ggaxy","sona":"8719"},{"rt":895.8049999782816,"stimulus":"<p>Welche Sequenz haben Sie als natürlicher empfunden?</p>","key_press":70,"test_part":"response","test_stimulus":{"position":1,"left":"bvh/vr_prediction_models/model(dmp)-dataset(pass-bottle-hold)-npsi(30)-hold(4)/final-lines.txt","right":"bvh/pass-bottle-hold-training4-lines.txt","att_check":true},"trial_type":"html-keyboard-response","trial_index":14,"time_elapsed":36361,"internal_node_id":"0.0-8.0-3.1","subject":"e0wzhk3d61ggaxy","sona":"8719"},{"rt":437.04500002786517,"stimulus":"<p>Bereit?</p>","key_press":32,"trial_type":"html-keyboard-response","trial_index":15,"time_elapsed":36801,"internal_node_id":"0.0-8.0-0.2","subject":"e0wzhk3d61ggaxy","sona":"8719"},{"rt":null,"stimulus":"<div style=\"font-size:60px;\">+</div>","key_press":null,"trial_type":"html-keyboard-response","trial_index":16,"time_elapsed":38815,"internal_node_id":"0.0-8.0-1.2","subject":"e0wzhk3d61ggaxy","sona":"8719"},{"trial_type":"turing-test","trial_index":17,"time_elapsed":46594,"internal_node_id":"0.0-8.0-2.2","subject":"e0wzhk3d61ggaxy","sona":"8719"},{"rt":485.56999990250915,"stimulus":"<p>Welche Sequenz haben Sie als natürlicher empfunden?</p>","key_press":70,"test_part":"response","test_stimulus":{"position":0,"left":"bvh/return-bottle-training3-lines.txt","right":"bvh/vr_prediction_models/model(vcgpdm)-dataset(return-bottle)-mode(ELBO)-parts(1)-dyn(20)-lvm(20)-hold(3)/final-lines.txt","att_check":false},"trial_type":"html-keyboard-response","trial_index":18,"time_elapsed":47086,"internal_node_id":"0.0-8.0-3.2","subject":"e0wzhk3d61ggaxy","sona":"8719"},{"rt":572.1050000283867,"stimulus":"<p>Bereit?</p>","key_press":32,"trial_type":"html-keyboard-response","trial_index":19,"time_elapsed":47662,"internal_node_id":"0.0-8.0-0.3","subject":"e0wzhk3d61ggaxy","sona":"8719"},{"rt":null,"stimulus":"<div style=\"font-size:60px;\">+</div>","key_press":null,"trial_type":"html-keyboard-response","trial_index":20,"time_elapsed":49685,"internal_node_id":"0.0-8.0-1.3","subject":"e0wzhk3d61ggaxy","sona":"8719"},{"trial_type":"turing-test","trial_index":21,"time_elapsed":55034,"internal_node_id":"0.0-8.0-2.3","subject":"e0wzhk3d61ggaxy","sona":"8719"},{"rt":572.844999958761,"stimulus":"<p>Welche Sequenz haben Sie als natürlicher empfunden?</p>","key_press":74,"test_part":"response","test_stimulus":{"position":0,"left":"bvh/pass-bottle-hold-training4-lines.txt","right":"bvh/vr_prediction_models/model(vcgpdm)-dataset(pass-bottle-hold)-mode(ELBO)-parts(1)-dyn(30)-lvm(20)-hold(4)/final-lines.txt","att_check":false},"trial_type":"html-keyboard-response","trial_index":22,"time_elapsed":55612,"internal_node_id":"0.0-8.0-3.3","subject":"e0wzhk3d61ggaxy","sona":"8719"},{"rt":343.80500006955117,"stimulus":"<p>Bereit?</p>","key_press":32,"trial_type":"html-keyboard-response","trial_index":23,"time_elapsed":55960,"internal_node_id":"0.0-8.0-0.4","subject":"e0wzhk3d61ggaxy","sona":"8719"},{"rt":null,"stimulus":"<div style=\"font-size:60px;\">+</div>","key_press":null,"trial_type":"html-keyboard-response","trial_index":24,"time_elapsed":57973,"internal_node_id":"0.0-8.0-1.4","subject":"e0wzhk3d61ggaxy","sona":"8719"},{"trial_type":"turing-test","trial_index":25,"time_elapsed":65786,"internal_node_id":"0.0-8.0-2.4","subject":"e0wzhk3d61ggaxy","sona":"8719"},{"rt":663.4999999077991,"stimulus":"<p>Welche Sequenz haben Sie als natürlicher empfunden?</p>","key_press":74,"test_part":"response","test_stimulus":{"position":1,"left":"bvh/vr_prediction_models/model(vcgpdm)-dataset(pass-bottle)-mode(ELBO)-parts(3)-dyn(10)-lvm(10)-hold(4)/final-lines.txt","right":"bvh/pass-bottle-training4-lines.txt","att_check":false},"trial_type":"html-keyboard-response","trial_index":26,"time_elapsed":66457,"internal_node_id":"0.0-8.0-3.4","subject":"e0wzhk3d61ggaxy","sona":"8719"},{"rt":563.1150000263005,"stimulus":"<p>Bereit?</p>","key_press":32,"trial_type":"html-keyboard-response","trial_index":27,"time_elapsed":67025,"internal_node_id":"0.0-8.0-0.5","subject":"e0wzhk3d61ggaxy","sona":"8719"},{"rt":null,"stimulus":"<div style=\"font-size:60px;\">+</div>","key_press":null,"trial_type":"html-keyboard-response","trial_index":28,"time_elapsed":69044,"internal_node_id":"0.0-8.0-1.5","subject":"e0wzhk3d61ggaxy","sona":"8719"},{"trial_type":"turing-test","trial_index":29,"time_elapsed":75563,"internal_node_id":"0.0-8.0-2.5","subject":"e0wzhk3d61ggaxy","sona":"8719"},{"rt":1111.2250000005588,"stimulus":"<p>Welche Sequenz haben Sie als natürlicher empfunden?</p>","key_press":74,"test_part":"response","test_stimulus":{"position":1,"left":"bvh/vr_prediction_models/model(tmp)-dataset(return-bottle)-numprim(15)-hold(1)/final-lines.txt","right":"bvh/return-bottle-training1-lines.txt","att_check":false},"trial_type":"html-keyboard-response","trial_index":30,"time_elapsed":76680,"internal_node_id":"0.0-8.0-3.5","subject":"e0wzhk3d61ggaxy","sona":"8719"},{"rt":673.4850000357255,"stimulus":"<p>Bereit?</p>","key_press":32,"trial_type":"html-keyboard-response","trial_index":31,"time_elapsed":77358,"internal_node_id":"0.0-8.0-0.6","subject":"e0wzhk3d61ggaxy","sona":"8719"},{"rt":null,"stimulus":"<div style=\"font-size:60px;\">+</div>","key_press":null,"trial_type":"html-keyboard-response","trial_index":32,"time_elapsed":79375,"internal_node_id":"0.0-8.0-1.6","subject":"e0wzhk3d61ggaxy","sona":"8719"},{"trial_type":"turing-test","trial_index":33,"time_elapsed":84984,"internal_node_id":"0.0-8.0-2.6","subject":"e0wzhk3d61ggaxy","sona":"8719"},{"rt":1151.1549999704584,"stimulus":"<p>Welche Sequenz haben Sie als natürlicher empfunden?</p>","key_press":74,"test_part":"response","test_stimulus":{"position":0,"left":"bvh/return-bottle-hold-training4-lines.txt","right":"bvh/vr_prediction_models/model(vcgpdm)-dataset(return-bottle-hold)-mode(ELBO)-parts(1)-dyn(10)-lvm(5)-hold(4)/final-lines.txt","att_check":false},"trial_type":"html-keyboard-response","trial_index":34,"time_elapsed":86140,"internal_node_id":"0.0-8.0-3.6","subject":"e0wzhk3d61ggaxy","sona":"8719"},{"rt":521.7800000682473,"stimulus":"<p>Bereit?</p>","key_press":32,"trial_type":"html-keyboard-response","trial_index":35,"time_elapsed":86667,"internal_node_id":"0.0-8.0-0.7","subject":"e0wzhk3d61ggaxy","sona":"8719"},{"rt":null,"stimulus":"<div style=\"font-size:60px;\">+</div>","key_press":null,"trial_type":"html-keyboard-response","trial_index":36,"time_elapsed":88690,"internal_node_id":"0.0-8.0-1.7","subject":"e0wzhk3d61ggaxy","sona":"8719"},{"trial_type":"turing-test","trial_index":37,"time_elapsed":96113,"internal_node_id":"0.0-8.0-2.7","subject":"e0wzhk3d61ggaxy","sona":"8719"},{"rt":456.54499996453524,"stimulus":"<p>Welche Sequenz haben Sie als natürlicher empfunden?</p>","key_press":74,"test_part":"response","test_stimulus":{"position":1,"left":"bvh/vr_prediction_models/model(vcgpdm)-dataset(pass-bottle)-mode(ELBO)-parts(3)-dyn(10)-lvm(10)-hold(1)/final-lines.txt","right":"bvh/pass-bottle-training1-lines.txt","att_check":false},"trial_type":"html-keyboard-response","trial_index":38,"time_elapsed":96576,"internal_node_id":"0.0-8.0-3.7","subject":"e0wzhk3d61ggaxy","sona":"8719"},{"rt":584.3750000931323,"stimulus":"<p>Bereit?</p>","key_press":32,"trial_type":"html-keyboard-response","trial_index":39,"time_elapsed":97170,"internal_node_id":"0.0-8.0-0.8","subject":"e0wzhk3d61ggaxy","sona":"8719"},{"rt":null,"stimulus":"<div style=\"font-size:60px;\">+</div>","key_press":null,"trial_type":"html-keyboard-response","trial_index":40,"time_elapsed":99194,"internal_node_id":"0.0-8.0-1.8","subject":"e0wzhk3d61ggaxy","sona":"8719"},{"trial_type":"turing-test","trial_index":41,"time_elapsed":105126,"internal_node_id":"0.0-8.0-2.8","subject":"e0wzhk3d61ggaxy","sona":"8719"},{"rt":1201.6800000565127,"stimulus":"<p>Welche Sequenz haben Sie als natürlicher empfunden?</p>","key_press":70,"test_part":"response","test_stimulus":{"position":1,"left":"bvh/vr_prediction_models/model(tmp)-dataset(pass-bottle)-numprim(12)-hold(4)/final-lines.txt","right":"bvh/pass-bottle-training4-lines.txt","att_check":false},"trial_type":"html-keyboard-response","trial_index":42,"time_elapsed":106334,"internal_node_id":"0.0-8.0-3.8","subject":"e0wzhk3d61ggaxy","sona":"8719"},{"rt":406.56499995384365,"stimulus":"<p>Bereit?</p>","key_press":32,"trial_type":"html-keyboard-response","trial_index":43,"time_elapsed":106745,"internal_node_id":"0.0-8.0-0.9","subject":"e0wzhk3d61ggaxy","sona":"8719"},{"rt":null,"stimulus":"<div style=\"font-size:60px;\">+</div>","key_press":null,"trial_type":"html-keyboard-response","trial_index":44,"time_elapsed":108769,"internal_node_id":"0.0-8.0-1.9","subject":"e0wzhk3d61ggaxy","sona":"8719"},{"trial_type":"turing-test","trial_index":45,"time_elapsed":113939,"internal_node_id":"0.0-8.0-2.9","subject":"e0wzhk3d61ggaxy","sona":"8719"}]