[{"rt":1585.1550000006682,"stimulus":"<p>Welcome!<br> Please choose your language to start the experiment in the chosen language.</p><p>Willkommen!<br> Bitte wählen Sie eine Sprache, um das Experiment in der ausgewählten Sprache zu starten</p>","button_pressed":"1","trial_type":"html-button-response","trial_index":0,"time_elapsed":1632,"internal_node_id":"0.0-0.0","subject":"qzycvpa0qkcvoup","sona":"7813"},{"view_history":"[{\"page_index\":0,\"viewing_time\":3584.2849999971804},{\"page_index\":1,\"viewing_time\":1956.3100000013947},{\"page_index\":2,\"viewing_time\":1304.8350000026403},{\"page_index\":3,\"viewing_time\":4295.350000000326},{\"page_index\":4,\"viewing_time\":2038.4749999939231}]","rt":13180.329999995593,"trial_type":"instructions","trial_index":1,"time_elapsed":14813,"internal_node_id":"0.0-1.0-0.0","subject":"qzycvpa0qkcvoup","sona":"7813"},{"rt":1068.8800000061747,"stimulus":"<p>Bereit?</p>","key_press":32,"trial_type":"html-keyboard-response","trial_index":2,"time_elapsed":15884,"internal_node_id":"0.0-3.0","subject":"qzycvpa0qkcvoup","sona":"7813"},{"rt":null,"stimulus":"<div style=\"font-size:60px;\">+</div>","key_press":null,"trial_type":"html-keyboard-response","trial_index":3,"time_elapsed":17894,"internal_node_id":"0.0-4.0","subject":"qzycvpa0qkcvoup","sona":"7813"},{"trial_type":"training","trial_index":4,"time_elapsed":21198,"internal_node_id":"0.0-5.0","subject":"qzycvpa0qkcvoup","sona":"7813"},{"rt":486.4649999944959,"stimulus":"<p>Welche Sequenz haben Sie als natürlicher empfunden?</p>","key_press":70,"trial_type":"html-keyboard-response","trial_index":5,"time_elapsed":21685,"internal_node_id":"0.0-6.0","subject":"qzycvpa0qkcvoup","sona":"7813"},{"rt":1914.2400000055204,"stimulus":"<p>Das Experiment startet nun.</p><p><small>Bitte drücken Sie den Knopf, wenn Sie bereit sind.</small></p>","button_pressed":"0","trial_type":"html-button-response","trial_index":6,"time_elapsed":23600,"internal_node_id":"0.0-7.0","subject":"qzycvpa0qkcvoup","sona":"7813"},{"rt":1131.9399999993038,"stimulus":"<p>Bereit?</p>","key_press":32,"trial_type":"html-keyboard-response","trial_index":7,"time_elapsed":24733,"internal_node_id":"0.0-8.0-0.0","subject":"qzycvpa0qkcvoup","sona":"7813"},{"rt":null,"stimulus":"<div style=\"font-size:60px;\">+</div>","key_press":null,"trial_type":"html-keyboard-response","trial_index":8,"time_elapsed":26744,"internal_node_id":"0.0-8.0-1.0","subject":"qzycvpa0qkcvoup","sona":"7813"},{"trial_type":"turing-test","trial_index":9,"time_elapsed":32495,"internal_node_id":"0.0-8.0-2.0","subject":"qzycvpa0qkcvoup","sona":"7813"},{"rt":524.5749999958207,"stimulus":"<p>Welche Sequenz haben Sie als natürlicher empfunden?</p>","key_press":70,"test_part":"response","test_stimulus":{"position":1,"left":"bvh/vr_prediction_models/model(dmp)-dataset(return-bottle)-npsi(50)-hold(4)/final-lines.txt","right":"bvh/return-bottle-training4-lines.txt","att_check":false},"trial_type":"html-keyboard-response","trial_index":10,"time_elapsed":33022,"internal_node_id":"0.0-8.0-3.0","subject":"qzycvpa0qkcvoup","sona":"7813"},{"rt":621.9550000023446,"stimulus":"<p>Bereit?</p>","key_press":32,"trial_type":"html-keyboard-response","trial_index":11,"time_elapsed":33646,"internal_node_id":"0.0-8.0-0.1","subject":"qzycvpa0qkcvoup","sona":"7813"},{"rt":null,"stimulus":"<div style=\"font-size:60px;\">+</div>","key_press":null,"trial_type":"html-keyboard-response","trial_index":12,"time_elapsed":35652,"internal_node_id":"0.0-8.0-1.1","subject":"qzycvpa0qkcvoup","sona":"7813"},{"trial_type":"turing-test","trial_index":13,"time_elapsed":39161,"internal_node_id":"0.0-8.0-2.1","subject":"qzycvpa0qkcvoup","sona":"7813"},{"rt":2428.220000001602,"stimulus":"<p>Welche Sequenz haben Sie als natürlicher empfunden?</p>","key_press":74,"test_part":"response","test_stimulus":{"position":1,"left":"bvh/vr_prediction_models/model(dmp)-dataset(pass-bottle-hold)-npsi(90)-hold(3)/final-lines.txt","right":"bvh/pass-bottle-hold-training3-lines.txt","att_check":false},"trial_type":"html-keyboard-response","trial_index":14,"time_elapsed":41591,"internal_node_id":"0.0-8.0-3.1","subject":"qzycvpa0qkcvoup","sona":"7813"},{"rt":539.4599999999627,"stimulus":"<p>Bereit?</p>","key_press":32,"trial_type":"html-keyboard-response","trial_index":15,"time_elapsed":42132,"internal_node_id":"0.0-8.0-0.2","subject":"qzycvpa0qkcvoup","sona":"7813"},{"rt":null,"stimulus":"<div style=\"font-size:60px;\">+</div>","key_press":null,"trial_type":"html-keyboard-response","trial_index":16,"time_elapsed":44140,"internal_node_id":"0.0-8.0-1.2","subject":"qzycvpa0qkcvoup","sona":"7813"},{"trial_type":"turing-test","trial_index":17,"time_elapsed":47897,"internal_node_id":"0.0-8.0-2.2","subject":"qzycvpa0qkcvoup","sona":"7813"},{"rt":655.7800000009593,"stimulus":"<p>Welche Sequenz haben Sie als natürlicher empfunden?</p>","key_press":74,"test_part":"response","test_stimulus":{"position":1,"left":"bvh/vr_prediction_models/model(vcgpdm)-dataset(return-bottle-hold)-mode(ELBO)-parts(1)-dyn(10)-lvm(25)-hold(4)/final-lines.txt","right":"bvh/return-bottle-hold-training4-lines.txt","att_check":false},"trial_type":"html-keyboard-response","trial_index":18,"time_elapsed":48555,"internal_node_id":"0.0-8.0-3.2","subject":"qzycvpa0qkcvoup","sona":"7813"},{"rt":342.33499999390915,"stimulus":"<p>Bereit?</p>","key_press":32,"trial_type":"html-keyboard-response","trial_index":19,"time_elapsed":48900,"internal_node_id":"0.0-8.0-0.3","subject":"qzycvpa0qkcvoup","sona":"7813"},{"rt":null,"stimulus":"<div style=\"font-size:60px;\">+</div>","key_press":null,"trial_type":"html-keyboard-response","trial_index":20,"time_elapsed":50910,"internal_node_id":"0.0-8.0-1.3","subject":"qzycvpa0qkcvoup","sona":"7813"},{"trial_type":"turing-test","trial_index":21,"time_elapsed":56032,"internal_node_id":"0.0-8.0-2.3","subject":"qzycvpa0qkcvoup","sona":"7813"},{"rt":594.7149999992689,"stimulus":"<p>Welche Sequenz haben Sie als natürlicher empfunden?</p>","key_press":70,"test_part":"response","test_stimulus":{"position":0,"left":"bvh/return-bottle-hold-training0-lines.txt","right":"bvh/vr_prediction_models/model(vcgpdm)-dataset(return-bottle-hold)-mode(ELBO)-parts(1)-dyn(25)-lvm(35)-hold(0)/final-lines.txt","att_check":false},"trial_type":"html-keyboard-response","trial_index":22,"time_elapsed":56629,"internal_node_id":"0.0-8.0-3.3","subject":"qzycvpa0qkcvoup","sona":"7813"},{"rt":269.86500000202795,"stimulus":"<p>Bereit?</p>","key_press":32,"trial_type":"html-keyboard-response","trial_index":23,"time_elapsed":56901,"internal_node_id":"0.0-8.0-0.4","subject":"qzycvpa0qkcvoup","sona":"7813"},{"rt":null,"stimulus":"<div style=\"font-size:60px;\">+</div>","key_press":null,"trial_type":"html-keyboard-response","trial_index":24,"time_elapsed":58908,"internal_node_id":"0.0-8.0-1.4","subject":"qzycvpa0qkcvoup","sona":"7813"},{"trial_type":"turing-test","trial_index":25,"time_elapsed":62570,"internal_node_id":"0.0-8.0-2.4","subject":"qzycvpa0qkcvoup","sona":"7813"},{"rt":753.7750000046799,"stimulus":"<p>Welche Sequenz haben Sie als natürlicher empfunden?</p>","key_press":74,"test_part":"response","test_stimulus":{"position":1,"left":"bvh/vr_prediction_models/model(vcgpdm)-dataset(pass-bottle-hold)-mode(ELBO)-parts(1)-dyn(20)-lvm(20)-hold(4)/final-lines.txt","right":"bvh/pass-bottle-hold-training4-lines.txt","att_check":false},"trial_type":"html-keyboard-response","trial_index":26,"time_elapsed":63326,"internal_node_id":"0.0-8.0-3.4","subject":"qzycvpa0qkcvoup","sona":"7813"},{"rt":380.61500000185333,"stimulus":"<p>Bereit?</p>","key_press":32,"trial_type":"html-keyboard-response","trial_index":27,"time_elapsed":63708,"internal_node_id":"0.0-8.0-0.5","subject":"qzycvpa0qkcvoup","sona":"7813"},{"rt":null,"stimulus":"<div style=\"font-size:60px;\">+</div>","key_press":null,"trial_type":"html-keyboard-response","trial_index":28,"time_elapsed":65714,"internal_node_id":"0.0-8.0-1.5","subject":"qzycvpa0qkcvoup","sona":"7813"},{"trial_type":"turing-test","trial_index":29,"time_elapsed":69014,"internal_node_id":"0.0-8.0-2.5","subject":"qzycvpa0qkcvoup","sona":"7813"},{"rt":451.26499999605585,"stimulus":"<p>Welche Sequenz haben Sie als natürlicher empfunden?</p>","key_press":70,"test_part":"response","test_stimulus":{"position":0,"left":"bvh/return-bottle-hold-training1-lines.txt","right":"bvh/vr_prediction_models/model(tmp)-dataset(return-bottle-hold)-numprim(8)-hold(1)/final-lines.txt","att_check":false},"trial_type":"html-keyboard-response","trial_index":30,"time_elapsed":69468,"internal_node_id":"0.0-8.0-3.5","subject":"qzycvpa0qkcvoup","sona":"7813"},{"rt":325.1799999998184,"stimulus":"<p>Bereit?</p>","key_press":32,"trial_type":"html-keyboard-response","trial_index":31,"time_elapsed":69794,"internal_node_id":"0.0-8.0-0.6","subject":"qzycvpa0qkcvoup","sona":"7813"},{"rt":null,"stimulus":"<div style=\"font-size:60px;\">+</div>","key_press":null,"trial_type":"html-keyboard-response","trial_index":32,"time_elapsed":71804,"internal_node_id":"0.0-8.0-1.6","subject":"qzycvpa0qkcvoup","sona":"7813"},{"trial_type":"turing-test","trial_index":33,"time_elapsed":75081,"internal_node_id":"0.0-8.0-2.6","subject":"qzycvpa0qkcvoup","sona":"7813"},{"rt":455.5450000043493,"stimulus":"<p>Welche Sequenz haben Sie als natürlicher empfunden?</p>","key_press":74,"test_part":"response","test_stimulus":{"position":1,"left":"bvh/vr_prediction_models/model(tmp)-dataset(pass-bottle-hold)-numprim(7)-hold(2)/final-lines.txt","right":"bvh/pass-bottle-hold-training2-lines.txt","att_check":false},"trial_type":"html-keyboard-response","trial_index":34,"time_elapsed":75539,"internal_node_id":"0.0-8.0-3.6","subject":"qzycvpa0qkcvoup","sona":"7813"},{"rt":295.6149999954505,"stimulus":"<p>Bereit?</p>","key_press":32,"trial_type":"html-keyboard-response","trial_index":35,"time_elapsed":75836,"internal_node_id":"0.0-8.0-0.7","subject":"qzycvpa0qkcvoup","sona":"7813"},{"rt":null,"stimulus":"<div style=\"font-size:60px;\">+</div>","key_press":null,"trial_type":"html-keyboard-response","trial_index":36,"time_elapsed":77845,"internal_node_id":"0.0-8.0-1.7","subject":"qzycvpa0qkcvoup","sona":"7813"},{"trial_type":"turing-test","trial_index":37,"time_elapsed":83257,"internal_node_id":"0.0-8.0-2.7","subject":"qzycvpa0qkcvoup","sona":"7813"},{"rt":557.9250000009779,"stimulus":"<p>Welche Sequenz haben Sie als natürlicher empfunden?</p>","key_press":74,"test_part":"response","test_stimulus":{"position":1,"left":"bvh/vr_prediction_models/model(dmp)-dataset(pass-bottle)-npsi(70)-hold(1)/final-lines.txt","right":"bvh/pass-bottle-training1-lines.txt","att_check":false},"trial_type":"html-keyboard-response","trial_index":38,"time_elapsed":83818,"internal_node_id":"0.0-8.0-3.7","subject":"qzycvpa0qkcvoup","sona":"7813"},{"rt":314.555000004475,"stimulus":"<p>Bereit?</p>","key_press":32,"trial_type":"html-keyboard-response","trial_index":39,"time_elapsed":84135,"internal_node_id":"0.0-8.0-0.8","subject":"qzycvpa0qkcvoup","sona":"7813"},{"rt":null,"stimulus":"<div style=\"font-size:60px;\">+</div>","key_press":null,"trial_type":"html-keyboard-response","trial_index":40,"time_elapsed":86142,"internal_node_id":"0.0-8.0-1.8","subject":"qzycvpa0qkcvoup","sona":"7813"},{"trial_type":"turing-test","trial_index":41,"time_elapsed":89717,"internal_node_id":"0.0-8.0-2.8","subject":"qzycvpa0qkcvoup","sona":"7813"},{"rt":1005.8500000013737,"stimulus":"<p>Welche Sequenz haben Sie als natürlicher empfunden?</p>","key_press":74,"test_part":"response","test_stimulus":{"position":1,"left":"bvh/vr_prediction_models/model(vcgpdm)-dataset(pass-bottle-hold)-mode(ELBO)-parts(3)-dyn(20)-lvm(15)-hold(3)/final-lines.txt","right":"bvh/pass-bottle-hold-training3-lines.txt","att_check":false},"trial_type":"html-keyboard-response","trial_index":42,"time_elapsed":90725,"internal_node_id":"0.0-8.0-3.8","subject":"qzycvpa0qkcvoup","sona":"7813"},{"rt":207.6999999990221,"stimulus":"<p>Bereit?</p>","key_press":32,"trial_type":"html-keyboard-response","trial_index":43,"time_elapsed":90935,"internal_node_id":"0.0-8.0-0.9","subject":"qzycvpa0qkcvoup","sona":"7813"},{"rt":null,"stimulus":"<div style=\"font-size:60px;\">+</div>","key_press":null,"trial_type":"html-keyboard-response","trial_index":44,"time_elapsed":92944,"internal_node_id":"0.0-8.0-1.9","subject":"qzycvpa0qkcvoup","sona":"7813"},{"trial_type":"turing-test","trial_index":45,"time_elapsed":96439,"internal_node_id":"0.0-8.0-2.9","subject":"qzycvpa0qkcvoup","sona":"7813"},{"rt":1239.065000001574,"stimulus":"<p>Welche Sequenz haben Sie als natürlicher empfunden?</p>","key_press":70,"test_part":"response","test_stimulus":{"position":0,"left":"bvh/return-bottle-hold-training2-lines.txt","right":"bvh/vr_prediction_models/model(vcgpdm)-dataset(return-bottle-hold)-mode(MAP)-parts(3)-hold(2)/final-lines.txt","att_check":false},"trial_type":"html-keyboard-response","trial_index":46,"time_elapsed":97681,"internal_node_id":"0.0-8.0-3.9","subject":"qzycvpa0qkcvoup","sona":"7813"},{"rt":1253.550000001269,"stimulus":"<p>Bereit?</p>","key_press":32,"trial_type":"html-keyboard-response","trial_index":47,"time_elapsed":98936,"internal_node_id":"0.0-8.0-0.10","subject":"qzycvpa0qkcvoup","sona":"7813"},{"rt":null,"stimulus":"<div style=\"font-size:60px;\">+</div>","key_press":null,"trial_type":"html-keyboard-response","trial_index":48,"time_elapsed":100947,"internal_node_id":"0.0-8.0-1.10","subject":"qzycvpa0qkcvoup","sona":"7813"},{"trial_type":"turing-test","trial_index":49,"time_elapsed":106435,"internal_node_id":"0.0-8.0-2.10","subject":"qzycvpa0qkcvoup","sona":"7813"},{"rt":964.6799999973155,"stimulus":"<p>Welche Sequenz haben Sie als natürlicher empfunden?</p>","key_press":70,"test_part":"response","test_stimulus":{"position":0,"left":"bvh/pass-bottle-training1-lines.txt","right":"bvh/vr_prediction_models/model(tmp)-dataset(pass-bottle)-numprim(12)-hold(1)/final-lines.txt","att_check":false},"trial_type":"html-keyboard-response","trial_index":50,"time_elapsed":107402,"internal_node_id":"0.0-8.0-3.10","subject":"qzycvpa0qkcvoup","sona":"7813"},{"rt":204.56500000000233,"stimulus":"<p>Bereit?</p>","key_press":32,"trial_type":"html-keyboard-response","trial_index":51,"time_elapsed":107609,"internal_node_id":"0.0-8.0-0.11","subject":"qzycvpa0qkcvoup","sona":"7813"},{"rt":null,"stimulus":"<div style=\"font-size:60px;\">+</div>","key_press":null,"trial_type":"html-keyboard-response","trial_index":52,"time_elapsed":109618,"internal_node_id":"0.0-8.0-1.11","subject":"qzycvpa0qkcvoup","sona":"7813"}]