[{"rt":2031.6349999047816,"stimulus":"<p>Welcome!<br> Please choose your language to start the experiment in the chosen language.</p><p>Willkommen!<br> Bitte wählen Sie eine Sprache, um das Experiment in der ausgewählten Sprache zu starten</p>","button_pressed":"1","trial_type":"html-button-response","trial_index":0,"time_elapsed":2100,"internal_node_id":"0.0-0.0","subject":"ybdw4qpul9ym72n","sona":"8794"},{"view_history":"[{\"page_index\":0,\"viewing_time\":994.9099998921156},{\"page_index\":1,\"viewing_time\":1368.2650001719594},{\"page_index\":2,\"viewing_time\":1660.490000154823},{\"page_index\":3,\"viewing_time\":2542.905000038445},{\"page_index\":4,\"viewing_time\":1419.3499996326864}]","rt":7988.675000146031,"trial_type":"instructions","trial_index":1,"time_elapsed":10092,"internal_node_id":"0.0-1.0-0.0","subject":"ybdw4qpul9ym72n","sona":"8794"},{"rt":1199.4599997997284,"stimulus":"<p>Bereit?</p>","key_press":32,"trial_type":"html-keyboard-response","trial_index":2,"time_elapsed":11297,"internal_node_id":"0.0-3.0","subject":"ybdw4qpul9ym72n","sona":"8794"},{"rt":null,"stimulus":"<div style=\"font-size:60px;\">+</div>","key_press":null,"trial_type":"html-keyboard-response","trial_index":3,"time_elapsed":13314,"internal_node_id":"0.0-4.0","subject":"ybdw4qpul9ym72n","sona":"8794"},{"trial_type":"training","trial_index":4,"time_elapsed":16754,"internal_node_id":"0.0-5.0","subject":"ybdw4qpul9ym72n","sona":"8794"},{"rt":55.794999934732914,"stimulus":"<p>Welche Sequenz haben Sie als natürlicher empfunden?</p>","key_press":70,"trial_type":"html-keyboard-response","trial_index":5,"time_elapsed":16813,"internal_node_id":"0.0-6.0","subject":"ybdw4qpul9ym72n","sona":"8794"},{"rt":4782.3600000701845,"stimulus":"<p>Das Experiment startet nun.</p><p><small>Bitte drücken Sie den Knopf, wenn Sie bereit sind.</small></p>","button_pressed":"0","trial_type":"html-button-response","trial_index":6,"time_elapsed":21598,"internal_node_id":"0.0-7.0","subject":"ybdw4qpul9ym72n","sona":"8794"},{"rt":2631.254999898374,"stimulus":"<p>Bereit?</p>","key_press":32,"trial_type":"html-keyboard-response","trial_index":7,"time_elapsed":24232,"internal_node_id":"0.0-8.0-0.0","subject":"ybdw4qpul9ym72n","sona":"8794"},{"rt":null,"stimulus":"<div style=\"font-size:60px;\">+</div>","key_press":null,"trial_type":"html-keyboard-response","trial_index":8,"time_elapsed":26254,"internal_node_id":"0.0-8.0-1.0","subject":"ybdw4qpul9ym72n","sona":"8794"},{"trial_type":"turing-test","trial_index":9,"time_elapsed":33206,"internal_node_id":"0.0-8.0-2.0","subject":"ybdw4qpul9ym72n","sona":"8794"},{"rt":346.10999980941415,"stimulus":"<p>Welche Sequenz haben Sie als natürlicher empfunden?</p>","key_press":70,"test_part":"response","test_stimulus":{"position":0,"left":"bvh/pass-bottle-training0-lines.txt","right":"bvh/vr_prediction_models/model(vcgpdm)-dataset(pass-bottle)-mode(ELBO)-parts(3)-dyn(20)-lvm(15)-hold(0)/final-lines.txt","att_check":false},"trial_type":"html-keyboard-response","trial_index":10,"time_elapsed":33558,"internal_node_id":"0.0-8.0-3.0","subject":"ybdw4qpul9ym72n","sona":"8794"},{"rt":1091.5149999782443,"stimulus":"<p>Bereit?</p>","key_press":32,"trial_type":"html-keyboard-response","trial_index":11,"time_elapsed":34654,"internal_node_id":"0.0-8.0-0.1","subject":"ybdw4qpul9ym72n","sona":"8794"},{"rt":null,"stimulus":"<div style=\"font-size:60px;\">+</div>","key_press":null,"trial_type":"html-keyboard-response","trial_index":12,"time_elapsed":36666,"internal_node_id":"0.0-8.0-1.1","subject":"ybdw4qpul9ym72n","sona":"8794"},{"trial_type":"turing-test","trial_index":13,"time_elapsed":42641,"internal_node_id":"0.0-8.0-2.1","subject":"ybdw4qpul9ym72n","sona":"8794"},{"rt":319.22499975189567,"stimulus":"<p>Welche Sequenz haben Sie als natürlicher empfunden?</p>","key_press":70,"test_part":"response","test_stimulus":{"position":1,"left":"bvh/vr_prediction_models/model(vcgpdm)-dataset(pass-bottle)-mode(ELBO)-parts(1)-dyn(10)-lvm(25)-hold(4)/final-lines.txt","right":"bvh/pass-bottle-training4-lines.txt","att_check":false},"trial_type":"html-keyboard-response","trial_index":14,"time_elapsed":42964,"internal_node_id":"0.0-8.0-3.1","subject":"ybdw4qpul9ym72n","sona":"8794"},{"rt":639.3550001084805,"stimulus":"<p>Bereit?</p>","key_press":32,"trial_type":"html-keyboard-response","trial_index":15,"time_elapsed":43608,"internal_node_id":"0.0-8.0-0.2","subject":"ybdw4qpul9ym72n","sona":"8794"},{"rt":null,"stimulus":"<div style=\"font-size:60px;\">+</div>","key_press":null,"trial_type":"html-keyboard-response","trial_index":16,"time_elapsed":45625,"internal_node_id":"0.0-8.0-1.2","subject":"ybdw4qpul9ym72n","sona":"8794"},{"trial_type":"turing-test","trial_index":17,"time_elapsed":49319,"internal_node_id":"0.0-8.0-2.2","subject":"ybdw4qpul9ym72n","sona":"8794"},{"rt":628.3599999733269,"stimulus":"<p>Welche Sequenz haben Sie als natürlicher empfunden?</p>","key_press":74,"test_part":"response","test_stimulus":{"position":1,"left":"bvh/vr_prediction_models/model(dmp)-dataset(return-bottle-hold)-npsi(80)-hold(3)/final-lines.txt","right":"bvh/return-bottle-hold-training3-lines.txt","att_check":false},"trial_type":"html-keyboard-response","trial_index":18,"time_elapsed":49953,"internal_node_id":"0.0-8.0-3.2","subject":"ybdw4qpul9ym72n","sona":"8794"},{"rt":6191.820000298321,"stimulus":"<p>Bereit?</p>","key_press":32,"trial_type":"html-keyboard-response","trial_index":19,"time_elapsed":56149,"internal_node_id":"0.0-8.0-0.3","subject":"ybdw4qpul9ym72n","sona":"8794"},{"rt":null,"stimulus":"<div style=\"font-size:60px;\">+</div>","key_press":null,"trial_type":"html-keyboard-response","trial_index":20,"time_elapsed":58162,"internal_node_id":"0.0-8.0-1.3","subject":"ybdw4qpul9ym72n","sona":"8794"},{"trial_type":"turing-test","trial_index":21,"time_elapsed":64136,"internal_node_id":"0.0-8.0-2.3","subject":"ybdw4qpul9ym72n","sona":"8794"},{"rt":394.26499977707863,"stimulus":"<p>Welche Sequenz haben Sie als natürlicher empfunden?</p>","key_press":74,"test_part":"response","test_stimulus":{"position":1,"left":"bvh/vr_prediction_models/model(vcgpdm)-dataset(pass-bottle)-mode(ELBO)-parts(1)-dyn(20)-lvm(20)-hold(4)/final-lines.txt","right":"bvh/pass-bottle-training4-lines.txt","att_check":false},"trial_type":"html-keyboard-response","trial_index":22,"time_elapsed":64535,"internal_node_id":"0.0-8.0-3.3","subject":"ybdw4qpul9ym72n","sona":"8794"},{"rt":366.0600003786385,"stimulus":"<p>Bereit?</p>","key_press":32,"trial_type":"html-keyboard-response","trial_index":23,"time_elapsed":64905,"internal_node_id":"0.0-8.0-0.4","subject":"ybdw4qpul9ym72n","sona":"8794"},{"rt":null,"stimulus":"<div style=\"font-size:60px;\">+</div>","key_press":null,"trial_type":"html-keyboard-response","trial_index":24,"time_elapsed":66920,"internal_node_id":"0.0-8.0-1.4","subject":"ybdw4qpul9ym72n","sona":"8794"},{"trial_type":"turing-test","trial_index":25,"time_elapsed":72408,"internal_node_id":"0.0-8.0-2.4","subject":"ybdw4qpul9ym72n","sona":"8794"},{"rt":323.04999977350235,"stimulus":"<p>Welche Sequenz haben Sie als natürlicher empfunden?</p>","key_press":70,"test_part":"response","test_stimulus":{"position":0,"left":"bvh/return-bottle-training0-lines.txt","right":"bvh/vr_prediction_models/model(tmp)-dataset(return-bottle)-numprim(8)-hold(0)/final-lines.txt","att_check":false},"trial_type":"html-keyboard-response","trial_index":26,"time_elapsed":72737,"internal_node_id":"0.0-8.0-3.4","subject":"ybdw4qpul9ym72n","sona":"8794"},{"rt":302.3799997754395,"stimulus":"<p>Bereit?</p>","key_press":32,"trial_type":"html-keyboard-response","trial_index":27,"time_elapsed":73043,"internal_node_id":"0.0-8.0-0.5","subject":"ybdw4qpul9ym72n","sona":"8794"},{"rt":null,"stimulus":"<div style=\"font-size:60px;\">+</div>","key_press":null,"trial_type":"html-keyboard-response","trial_index":28,"time_elapsed":75054,"internal_node_id":"0.0-8.0-1.5","subject":"ybdw4qpul9ym72n","sona":"8794"},{"trial_type":"turing-test","trial_index":29,"time_elapsed":81699,"internal_node_id":"0.0-8.0-2.5","subject":"ybdw4qpul9ym72n","sona":"8794"},{"rt":2748.4800000675023,"stimulus":"<p>Welche Sequenz haben Sie als natürlicher empfunden?</p>","key_press":74,"test_part":"response","test_stimulus":{"position":1,"left":"bvh/vr_prediction_models/model(dmp)-dataset(return-bottle)-npsi(70)-hold(2)/final-lines.txt","right":"bvh/return-bottle-training2-lines.txt","att_check":false},"trial_type":"html-keyboard-response","trial_index":30,"time_elapsed":84454,"internal_node_id":"0.0-8.0-3.5","subject":"ybdw4qpul9ym72n","sona":"8794"},{"rt":1825.4300002008677,"stimulus":"<p>Bereit?</p>","key_press":32,"trial_type":"html-keyboard-response","trial_index":31,"time_elapsed":86284,"internal_node_id":"0.0-8.0-0.6","subject":"ybdw4qpul9ym72n","sona":"8794"},{"rt":null,"stimulus":"<div style=\"font-size:60px;\">+</div>","key_press":null,"trial_type":"html-keyboard-response","trial_index":32,"time_elapsed":88310,"internal_node_id":"0.0-8.0-1.6","subject":"ybdw4qpul9ym72n","sona":"8794"},{"trial_type":"turing-test","trial_index":33,"time_elapsed":91951,"internal_node_id":"0.0-8.0-2.6","subject":"ybdw4qpul9ym72n","sona":"8794"},{"rt":2187.945000361651,"stimulus":"<p>Welche Sequenz haben Sie als natürlicher empfunden?</p>","key_press":74,"test_part":"response","test_stimulus":{"position":0,"left":"bvh/return-bottle-hold-training1-lines.txt","right":"bvh/vr_prediction_models/model(vcgpdm)-dataset(return-bottle-hold)-mode(MAP)-parts(3)-hold(1)/final-lines.txt","att_check":false},"trial_type":"html-keyboard-response","trial_index":34,"time_elapsed":94150,"internal_node_id":"0.0-8.0-3.6","subject":"ybdw4qpul9ym72n","sona":"8794"},{"rt":6592.694999650121,"stimulus":"<p>Bereit?</p>","key_press":32,"trial_type":"html-keyboard-response","trial_index":35,"time_elapsed":100754,"internal_node_id":"0.0-8.0-0.7","subject":"ybdw4qpul9ym72n","sona":"8794"},{"rt":null,"stimulus":"<div style=\"font-size:60px;\">+</div>","key_press":null,"trial_type":"html-keyboard-response","trial_index":36,"time_elapsed":102768,"internal_node_id":"0.0-8.0-1.7","subject":"ybdw4qpul9ym72n","sona":"8794"},{"trial_type":"turing-test","trial_index":37,"time_elapsed":106573,"internal_node_id":"0.0-8.0-2.7","subject":"ybdw4qpul9ym72n","sona":"8794"},{"rt":787.149999756366,"stimulus":"<p>Welche Sequenz haben Sie als natürlicher empfunden?</p>","key_press":74,"test_part":"response","test_stimulus":{"position":0,"left":"bvh/pass-bottle-hold-training4-lines.txt","right":"bvh/vr_prediction_models/model(vcgpdm)-dataset(pass-bottle-hold)-mode(ELBO)-parts(3)-dyn(10)-lvm(30)-hold(4)/final-lines.txt","att_check":false},"trial_type":"html-keyboard-response","trial_index":38,"time_elapsed":107378,"internal_node_id":"0.0-8.0-3.7","subject":"ybdw4qpul9ym72n","sona":"8794"},{"rt":213.4650000371039,"stimulus":"<p>Bereit?</p>","key_press":32,"trial_type":"html-keyboard-response","trial_index":39,"time_elapsed":107614,"internal_node_id":"0.0-8.0-0.8","subject":"ybdw4qpul9ym72n","sona":"8794"},{"rt":null,"stimulus":"<div style=\"font-size:60px;\">+</div>","key_press":null,"trial_type":"html-keyboard-response","trial_index":40,"time_elapsed":109629,"internal_node_id":"0.0-8.0-1.8","subject":"ybdw4qpul9ym72n","sona":"8794"},{"trial_type":"turing-test","trial_index":41,"time_elapsed":115394,"internal_node_id":"0.0-8.0-2.8","subject":"ybdw4qpul9ym72n","sona":"8794"},{"rt":2813.8000001199543,"stimulus":"<p>Welche Sequenz haben Sie als natürlicher empfunden?</p>","key_press":70,"test_part":"response","test_stimulus":{"position":0,"left":"bvh/pass-bottle-training4-lines.txt","right":"bvh/vr_prediction_models/model(dmp)-dataset(pass-bottle)-npsi(90)-hold(4)/final-lines.txt","att_check":false},"trial_type":"html-keyboard-response","trial_index":42,"time_elapsed":118224,"internal_node_id":"0.0-8.0-3.8","subject":"ybdw4qpul9ym72n","sona":"8794"},{"rt":308.5350003093481,"stimulus":"<p>Bereit?</p>","key_press":32,"trial_type":"html-keyboard-response","trial_index":43,"time_elapsed":118553,"internal_node_id":"0.0-8.0-0.9","subject":"ybdw4qpul9ym72n","sona":"8794"},{"rt":null,"stimulus":"<div style=\"font-size:60px;\">+</div>","key_press":null,"trial_type":"html-keyboard-response","trial_index":44,"time_elapsed":120580,"internal_node_id":"0.0-8.0-1.9","subject":"ybdw4qpul9ym72n","sona":"8794"},{"trial_type":"turing-test","trial_index":45,"time_elapsed":124183,"internal_node_id":"0.0-8.0-2.9","subject":"ybdw4qpul9ym72n","sona":"8794"},{"rt":2081.6999999806285,"stimulus":"<p>Welche Sequenz haben Sie als natürlicher empfunden?</p>","key_press":74,"test_part":"response","test_stimulus":{"position":0,"left":"bvh/pass-bottle-hold-training2-lines.txt","right":"bvh/vr_prediction_models/model(vcgpdm)-dataset(pass-bottle-hold)-mode(ELBO)-parts(3)-dyn(10)-lvm(25)-hold(2)/final-lines.txt","att_check":false},"trial_type":"html-keyboard-response","trial_index":46,"time_elapsed":126276,"internal_node_id":"0.0-8.0-3.9","subject":"ybdw4qpul9ym72n","sona":"8794"},{"rt":366.7199998162687,"stimulus":"<p>Bereit?</p>","key_press":32,"trial_type":"html-keyboard-response","trial_index":47,"time_elapsed":126664,"internal_node_id":"0.0-8.0-0.10","subject":"ybdw4qpul9ym72n","sona":"8794"},{"rt":null,"stimulus":"<div style=\"font-size:60px;\">+</div>","key_press":null,"trial_type":"html-keyboard-response","trial_index":48,"time_elapsed":128683,"internal_node_id":"0.0-8.0-1.10","subject":"ybdw4qpul9ym72n","sona":"8794"},{"trial_type":"turing-test","trial_index":49,"time_elapsed":135087,"internal_node_id":"0.0-8.0-2.10","subject":"ybdw4qpul9ym72n","sona":"8794"},{"rt":568.3850003406405,"stimulus":"<p>Welche Sequenz haben Sie als natürlicher empfunden?</p>","key_press":74,"test_part":"response","test_stimulus":{"position":1,"left":"bvh/vr_prediction_models/model(vcgpdm)-dataset(pass-bottle)-mode(ELBO)-parts(1)-dyn(10)-lvm(30)-hold(2)/final-lines.txt","right":"bvh/pass-bottle-training2-lines.txt","att_check":false},"trial_type":"html-keyboard-response","trial_index":50,"time_elapsed":135667,"internal_node_id":"0.0-8.0-3.10","subject":"ybdw4qpul9ym72n","sona":"8794"},{"rt":194.03500016778708,"stimulus":"<p>Bereit?</p>","key_press":32,"trial_type":"html-keyboard-response","trial_index":51,"time_elapsed":135867,"internal_node_id":"0.0-8.0-0.11","subject":"ybdw4qpul9ym72n","sona":"8794"},{"rt":null,"stimulus":"<div style=\"font-size:60px;\">+</div>","key_press":null,"trial_type":"html-keyboard-response","trial_index":52,"time_elapsed":137887,"internal_node_id":"0.0-8.0-1.11","subject":"ybdw4qpul9ym72n","sona":"8794"}]