[{"rt":1984,"stimulus":"<p>Welcome!<br> Please choose your language to start the experiment in the chosen language.</p><p>Willkommen!<br> Bitte wählen Sie eine Sprache, um das Experiment in der ausgewählten Sprache zu starten</p>","button_pressed":"1","trial_type":"html-button-response","trial_index":0,"time_elapsed":2021,"internal_node_id":"0.0-0.0","subject":"b5zhr0yuq9mpq8g","sona":"5572"},{"view_history":"[{\"page_index\":0,\"viewing_time\":565},{\"page_index\":1,\"viewing_time\":1312.0000000000005},{\"page_index\":2,\"viewing_time\":535.9999999999995},{\"page_index\":3,\"viewing_time\":864},{\"page_index\":4,\"viewing_time\":992}]","rt":4270,"trial_type":"instructions","trial_index":1,"time_elapsed":6292,"internal_node_id":"0.0-1.0-0.0","subject":"b5zhr0yuq9mpq8g","sona":"5572"},{"rt":1304.999999999999,"stimulus":"<p>Bereit?</p>","key_press":32,"trial_type":"html-keyboard-response","trial_index":2,"time_elapsed":7599,"internal_node_id":"0.0-3.0","subject":"b5zhr0yuq9mpq8g","sona":"5572"},{"rt":null,"stimulus":"<div style=\"font-size:60px;\">+</div>","key_press":null,"trial_type":"html-keyboard-response","trial_index":3,"time_elapsed":9602,"internal_node_id":"0.0-4.0","subject":"b5zhr0yuq9mpq8g","sona":"5572"},{"trial_type":"training","trial_index":4,"time_elapsed":12889,"internal_node_id":"0.0-5.0","subject":"b5zhr0yuq9mpq8g","sona":"5572"},{"rt":2176.999999999998,"stimulus":"<p>Welche Sequenz haben Sie als natürlicher empfunden?</p>","key_press":74,"trial_type":"html-keyboard-response","trial_index":5,"time_elapsed":15067,"internal_node_id":"0.0-6.0","subject":"b5zhr0yuq9mpq8g","sona":"5572"},{"rt":2263,"stimulus":"<p>Das Experiment startet nun.</p><p><small>Bitte drücken Sie den Knopf, wenn Sie bereit sind.</small></p>","button_pressed":"0","trial_type":"html-button-response","trial_index":6,"time_elapsed":17331,"internal_node_id":"0.0-7.0","subject":"b5zhr0yuq9mpq8g","sona":"5572"},{"rt":19033.000000000007,"stimulus":"<p>Bereit?</p>","key_press":32,"trial_type":"html-keyboard-response","trial_index":7,"time_elapsed":36364,"internal_node_id":"0.0-8.0-0.0","subject":"b5zhr0yuq9mpq8g","sona":"5572"},{"rt":null,"stimulus":"<div style=\"font-size:60px;\">+</div>","key_press":null,"trial_type":"html-keyboard-response","trial_index":8,"time_elapsed":38368,"internal_node_id":"0.0-8.0-1.0","subject":"b5zhr0yuq9mpq8g","sona":"5572"},{"trial_type":"turing-test","trial_index":9,"time_elapsed":41685,"internal_node_id":"0.0-8.0-2.0","subject":"b5zhr0yuq9mpq8g","sona":"5572"},{"rt":5387,"stimulus":"<p>Welche Sequenz haben Sie als natürlicher empfunden?</p>","key_press":74,"test_part":"response","test_stimulus":{"position":0,"left":"bvh/pass-bottle-hold-training0-lines.txt","right":"bvh/vr_prediction_models/model(dmp)-dataset(pass-bottle-hold)-npsi(10)-hold(0)/final-lines.txt","att_check":true},"trial_type":"html-keyboard-response","trial_index":10,"time_elapsed":47073,"internal_node_id":"0.0-8.0-3.0","subject":"b5zhr0yuq9mpq8g","sona":"5572"},{"rt":150,"stimulus":"<p>Bereit?</p>","key_press":32,"trial_type":"html-keyboard-response","trial_index":11,"time_elapsed":47224,"internal_node_id":"0.0-8.0-0.1","subject":"b5zhr0yuq9mpq8g","sona":"5572"},{"rt":null,"stimulus":"<div style=\"font-size:60px;\">+</div>","key_press":null,"trial_type":"html-keyboard-response","trial_index":12,"time_elapsed":49227,"internal_node_id":"0.0-8.0-1.1","subject":"b5zhr0yuq9mpq8g","sona":"5572"},{"trial_type":"turing-test","trial_index":13,"time_elapsed":55100,"internal_node_id":"0.0-8.0-2.1","subject":"b5zhr0yuq9mpq8g","sona":"5572"},{"rt":2049.9999999999927,"stimulus":"<p>Welche Sequenz haben Sie als natürlicher empfunden?</p>","key_press":70,"test_part":"response","test_stimulus":{"position":1,"left":"bvh/vr_prediction_models/model(vcgpdm)-dataset(return-bottle)-mode(ELBO)-parts(1)-dyn(20)-lvm(20)-hold(4)/final-lines.txt","right":"bvh/return-bottle-training4-lines.txt","att_check":false},"trial_type":"html-keyboard-response","trial_index":14,"time_elapsed":57153,"internal_node_id":"0.0-8.0-3.1","subject":"b5zhr0yuq9mpq8g","sona":"5572"},{"rt":94.00000000000728,"stimulus":"<p>Bereit?</p>","key_press":32,"trial_type":"html-keyboard-response","trial_index":15,"time_elapsed":57248,"internal_node_id":"0.0-8.0-0.2","subject":"b5zhr0yuq9mpq8g","sona":"5572"},{"rt":null,"stimulus":"<div style=\"font-size:60px;\">+</div>","key_press":null,"trial_type":"html-keyboard-response","trial_index":16,"time_elapsed":59250,"internal_node_id":"0.0-8.0-1.2","subject":"b5zhr0yuq9mpq8g","sona":"5572"},{"trial_type":"turing-test","trial_index":17,"time_elapsed":62841,"internal_node_id":"0.0-8.0-2.2","subject":"b5zhr0yuq9mpq8g","sona":"5572"},{"rt":1936,"stimulus":"<p>Welche Sequenz haben Sie als natürlicher empfunden?</p>","key_press":70,"test_part":"response","test_stimulus":{"position":0,"left":"bvh/return-bottle-hold-training2-lines.txt","right":"bvh/vr_prediction_models/model(vcgpdm)-dataset(return-bottle-hold)-mode(ELBO)-parts(1)-dyn(15)-lvm(35)-hold(2)/final-lines.txt","att_check":false},"trial_type":"html-keyboard-response","trial_index":18,"time_elapsed":64779,"internal_node_id":"0.0-8.0-3.2","subject":"b5zhr0yuq9mpq8g","sona":"5572"},{"rt":119,"stimulus":"<p>Bereit?</p>","key_press":32,"trial_type":"html-keyboard-response","trial_index":19,"time_elapsed":64899,"internal_node_id":"0.0-8.0-0.3","subject":"b5zhr0yuq9mpq8g","sona":"5572"},{"rt":null,"stimulus":"<div style=\"font-size:60px;\">+</div>","key_press":null,"trial_type":"html-keyboard-response","trial_index":20,"time_elapsed":66902,"internal_node_id":"0.0-8.0-1.3","subject":"b5zhr0yuq9mpq8g","sona":"5572"},{"trial_type":"turing-test","trial_index":21,"time_elapsed":72345,"internal_node_id":"0.0-8.0-2.3","subject":"b5zhr0yuq9mpq8g","sona":"5572"},{"rt":3123,"stimulus":"<p>Welche Sequenz haben Sie als natürlicher empfunden?</p>","key_press":74,"test_part":"response","test_stimulus":{"position":0,"left":"bvh/return-bottle-training0-lines.txt","right":"bvh/vr_prediction_models/model(dmp)-dataset(return-bottle)-npsi(30)-hold(0)/final-lines.txt","att_check":false},"trial_type":"html-keyboard-response","trial_index":22,"time_elapsed":75470,"internal_node_id":"0.0-8.0-3.3","subject":"b5zhr0yuq9mpq8g","sona":"5572"},{"rt":166,"stimulus":"<p>Bereit?</p>","key_press":32,"trial_type":"html-keyboard-response","trial_index":23,"time_elapsed":75637,"internal_node_id":"0.0-8.0-0.4","subject":"b5zhr0yuq9mpq8g","sona":"5572"},{"rt":null,"stimulus":"<div style=\"font-size:60px;\">+</div>","key_press":null,"trial_type":"html-keyboard-response","trial_index":24,"time_elapsed":77640,"internal_node_id":"0.0-8.0-1.4","subject":"b5zhr0yuq9mpq8g","sona":"5572"},{"trial_type":"turing-test","trial_index":25,"time_elapsed":81124,"internal_node_id":"0.0-8.0-2.4","subject":"b5zhr0yuq9mpq8g","sona":"5572"},{"rt":1251,"stimulus":"<p>Welche Sequenz haben Sie als natürlicher empfunden?</p>","key_press":70,"test_part":"response","test_stimulus":{"position":1,"left":"bvh/vr_prediction_models/model(vcgpdm)-dataset(pass-bottle-hold)-mode(ELBO)-parts(3)-dyn(25)-lvm(15)-hold(0)/final-lines.txt","right":"bvh/pass-bottle-hold-training0-lines.txt","att_check":false},"trial_type":"html-keyboard-response","trial_index":26,"time_elapsed":82376,"internal_node_id":"0.0-8.0-3.4","subject":"b5zhr0yuq9mpq8g","sona":"5572"},{"rt":182,"stimulus":"<p>Bereit?</p>","key_press":32,"trial_type":"html-keyboard-response","trial_index":27,"time_elapsed":82560,"internal_node_id":"0.0-8.0-0.5","subject":"b5zhr0yuq9mpq8g","sona":"5572"},{"rt":null,"stimulus":"<div style=\"font-size:60px;\">+</div>","key_press":null,"trial_type":"html-keyboard-response","trial_index":28,"time_elapsed":84562,"internal_node_id":"0.0-8.0-1.5","subject":"b5zhr0yuq9mpq8g","sona":"5572"},{"trial_type":"turing-test","trial_index":29,"time_elapsed":90300,"internal_node_id":"0.0-8.0-2.5","subject":"b5zhr0yuq9mpq8g","sona":"5572"},{"rt":960.0000000000146,"stimulus":"<p>Welche Sequenz haben Sie als natürlicher empfunden?</p>","key_press":74,"test_part":"response","test_stimulus":{"position":1,"left":"bvh/vr_prediction_models/model(dmp)-dataset(pass-bottle)-npsi(30)-hold(4)/final-lines.txt","right":"bvh/pass-bottle-training4-lines.txt","att_check":false},"trial_type":"html-keyboard-response","trial_index":30,"time_elapsed":91262,"internal_node_id":"0.0-8.0-3.5","subject":"b5zhr0yuq9mpq8g","sona":"5572"},{"rt":116,"stimulus":"<p>Bereit?</p>","key_press":32,"trial_type":"html-keyboard-response","trial_index":31,"time_elapsed":91379,"internal_node_id":"0.0-8.0-0.6","subject":"b5zhr0yuq9mpq8g","sona":"5572"},{"rt":null,"stimulus":"<div style=\"font-size:60px;\">+</div>","key_press":null,"trial_type":"html-keyboard-response","trial_index":32,"time_elapsed":93383,"internal_node_id":"0.0-8.0-1.6","subject":"b5zhr0yuq9mpq8g","sona":"5572"},{"trial_type":"turing-test","trial_index":33,"time_elapsed":97155,"internal_node_id":"0.0-8.0-2.6","subject":"b5zhr0yuq9mpq8g","sona":"5572"},{"rt":1479.9999999999854,"stimulus":"<p>Welche Sequenz haben Sie als natürlicher empfunden?</p>","key_press":70,"test_part":"response","test_stimulus":{"position":0,"left":"bvh/return-bottle-hold-training3-lines.txt","right":"bvh/vr_prediction_models/model(vcgpdm)-dataset(return-bottle-hold)-mode(ELBO)-parts(3)-dyn(20)-lvm(15)-hold(3)/final-lines.txt","att_check":false},"trial_type":"html-keyboard-response","trial_index":34,"time_elapsed":98638,"internal_node_id":"0.0-8.0-3.6","subject":"b5zhr0yuq9mpq8g","sona":"5572"},{"rt":125.99999999998545,"stimulus":"<p>Bereit?</p>","key_press":32,"trial_type":"html-keyboard-response","trial_index":35,"time_elapsed":98765,"internal_node_id":"0.0-8.0-0.7","subject":"b5zhr0yuq9mpq8g","sona":"5572"},{"rt":null,"stimulus":"<div style=\"font-size:60px;\">+</div>","key_press":null,"trial_type":"html-keyboard-response","trial_index":36,"time_elapsed":100768,"internal_node_id":"0.0-8.0-1.7","subject":"b5zhr0yuq9mpq8g","sona":"5572"},{"trial_type":"turing-test","trial_index":37,"time_elapsed":104326,"internal_node_id":"0.0-8.0-2.7","subject":"b5zhr0yuq9mpq8g","sona":"5572"},{"rt":2057,"stimulus":"<p>Welche Sequenz haben Sie als natürlicher empfunden?</p>","key_press":74,"test_part":"response","test_stimulus":{"position":1,"left":"bvh/vr_prediction_models/model(vcgpdm)-dataset(pass-bottle-hold)-mode(ELBO)-parts(1)-dyn(10)-lvm(5)-hold(2)/final-lines.txt","right":"bvh/pass-bottle-hold-training2-lines.txt","att_check":false},"trial_type":"html-keyboard-response","trial_index":38,"time_elapsed":106385,"internal_node_id":"0.0-8.0-3.7","subject":"b5zhr0yuq9mpq8g","sona":"5572"},{"rt":117.99999999998545,"stimulus":"<p>Bereit?</p>","key_press":32,"trial_type":"html-keyboard-response","trial_index":39,"time_elapsed":106504,"internal_node_id":"0.0-8.0-0.8","subject":"b5zhr0yuq9mpq8g","sona":"5572"},{"rt":null,"stimulus":"<div style=\"font-size:60px;\">+</div>","key_press":null,"trial_type":"html-keyboard-response","trial_index":40,"time_elapsed":108507,"internal_node_id":"0.0-8.0-1.8","subject":"b5zhr0yuq9mpq8g","sona":"5572"},{"trial_type":"turing-test","trial_index":41,"time_elapsed":111679,"internal_node_id":"0.0-8.0-2.8","subject":"b5zhr0yuq9mpq8g","sona":"5572"},{"rt":1391.9999999999854,"stimulus":"<p>Welche Sequenz haben Sie als natürlicher empfunden?</p>","key_press":70,"test_part":"response","test_stimulus":{"position":1,"left":"bvh/vr_prediction_models/model(tmp)-dataset(pass-bottle-hold)-numprim(3)-hold(1)/final-lines.txt","right":"bvh/pass-bottle-hold-training1-lines.txt","att_check":false},"trial_type":"html-keyboard-response","trial_index":42,"time_elapsed":113073,"internal_node_id":"0.0-8.0-3.8","subject":"b5zhr0yuq9mpq8g","sona":"5572"},{"rt":150,"stimulus":"<p>Bereit?</p>","key_press":32,"trial_type":"html-keyboard-response","trial_index":43,"time_elapsed":113224,"internal_node_id":"0.0-8.0-0.9","subject":"b5zhr0yuq9mpq8g","sona":"5572"},{"rt":null,"stimulus":"<div style=\"font-size:60px;\">+</div>","key_press":null,"trial_type":"html-keyboard-response","trial_index":44,"time_elapsed":115229,"internal_node_id":"0.0-8.0-1.9","subject":"b5zhr0yuq9mpq8g","sona":"5572"},{"trial_type":"turing-test","trial_index":45,"time_elapsed":121943,"internal_node_id":"0.0-8.0-2.9","subject":"b5zhr0yuq9mpq8g","sona":"5572"},{"rt":1287,"stimulus":"<p>Welche Sequenz haben Sie als natürlicher empfunden?</p>","key_press":70,"test_part":"response","test_stimulus":{"position":1,"left":"bvh/vr_prediction_models/model(tmp)-dataset(pass-bottle)-numprim(14)-hold(0)/final-lines.txt","right":"bvh/pass-bottle-training0-lines.txt","att_check":false},"trial_type":"html-keyboard-response","trial_index":46,"time_elapsed":123231,"internal_node_id":"0.0-8.0-3.9","subject":"b5zhr0yuq9mpq8g","sona":"5572"},{"rt":158,"stimulus":"<p>Bereit?</p>","key_press":32,"trial_type":"html-keyboard-response","trial_index":47,"time_elapsed":123390,"internal_node_id":"0.0-8.0-0.10","subject":"b5zhr0yuq9mpq8g","sona":"5572"},{"rt":null,"stimulus":"<div style=\"font-size:60px;\">+</div>","key_press":null,"trial_type":"html-keyboard-response","trial_index":48,"time_elapsed":125393,"internal_node_id":"0.0-8.0-1.10","subject":"b5zhr0yuq9mpq8g","sona":"5572"},{"trial_type":"turing-test","trial_index":49,"time_elapsed":128882,"internal_node_id":"0.0-8.0-2.10","subject":"b5zhr0yuq9mpq8g","sona":"5572"},{"rt":1533.9999999999854,"stimulus":"<p>Welche Sequenz haben Sie als natürlicher empfunden?</p>","key_press":74,"test_part":"response","test_stimulus":{"position":1,"left":"bvh/vr_prediction_models/model(vcgpdm)-dataset(return-bottle-hold)-mode(ELBO)-parts(3)-dyn(20)-lvm(15)-hold(1)/final-lines.txt","right":"bvh/return-bottle-hold-training1-lines.txt","att_check":false},"trial_type":"html-keyboard-response","trial_index":50,"time_elapsed":130417,"internal_node_id":"0.0-8.0-3.10","subject":"b5zhr0yuq9mpq8g","sona":"5572"},{"rt":143,"stimulus":"<p>Bereit?</p>","key_press":32,"trial_type":"html-keyboard-response","trial_index":51,"time_elapsed":130561,"internal_node_id":"0.0-8.0-0.11","subject":"b5zhr0yuq9mpq8g","sona":"5572"},{"rt":null,"stimulus":"<div style=\"font-size:60px;\">+</div>","key_press":null,"trial_type":"html-keyboard-response","trial_index":52,"time_elapsed":132564,"internal_node_id":"0.0-8.0-1.11","subject":"b5zhr0yuq9mpq8g","sona":"5572"},{"trial_type":"turing-test","trial_index":53,"time_elapsed":136064,"internal_node_id":"0.0-8.0-2.11","subject":"b5zhr0yuq9mpq8g","sona":"5572"}]