[{"rt":1731,"stimulus":"<p>Welcome!<br> Please choose your language to start the experiment in the chosen language.</p><p>Willkommen!<br> Bitte wählen Sie eine Sprache, um das Experiment in der ausgewählten Sprache zu starten</p>","button_pressed":"1","trial_type":"html-button-response","trial_index":0,"time_elapsed":1740,"internal_node_id":"0.0-0.0","subject":"togqhfs21r9y9v4","sona":"THNS"},{"rt":12633,"responses":"{\"Q0\":\"49\",\"Q1\":\"männlich\"}","trial_type":"survey-text","trial_index":1,"time_elapsed":14381,"internal_node_id":"0.0-2.0-0.0","subject":"togqhfs21r9y9v4","sona":"THNS"},{"rt":6339,"responses":"{\"Q0\":\"\",\"Q1\":\"\",\"Q2\":\"\"}","trial_type":"survey-text","trial_index":2,"time_elapsed":20731,"internal_node_id":"0.0-2.0-1.0","subject":"togqhfs21r9y9v4","sona":"THNS"},{"view_history":"[{\"page_index\":0,\"viewing_time\":1436},{\"page_index\":1,\"viewing_time\":1625},{\"page_index\":2,\"viewing_time\":2943},{\"page_index\":1,\"viewing_time\":1663},{\"page_index\":2,\"viewing_time\":4291},{\"page_index\":3,\"viewing_time\":3754},{\"page_index\":4,\"viewing_time\":2060}]","rt":17772,"trial_type":"instructions","trial_index":3,"time_elapsed":38506,"internal_node_id":"0.0-3.0-0.0","subject":"togqhfs21r9y9v4","sona":"THNS"},{"rt":3245,"stimulus":"<p>Bereit?</p>","key_press":32,"trial_type":"html-keyboard-response","trial_index":4,"time_elapsed":41753,"internal_node_id":"0.0-5.0","subject":"togqhfs21r9y9v4","sona":"THNS"},{"rt":null,"stimulus":"<div style=\"font-size:60px;\">+</div>","key_press":null,"trial_type":"html-keyboard-response","trial_index":5,"time_elapsed":43755,"internal_node_id":"0.0-6.0","subject":"togqhfs21r9y9v4","sona":"THNS"},{"trial_type":"training","trial_index":6,"time_elapsed":47093,"internal_node_id":"0.0-7.0","subject":"togqhfs21r9y9v4","sona":"THNS"},{"rt":1468,"stimulus":"<p>Welche Sequenz haben Sie als natürlicher empfunden?</p>","key_press":70,"trial_type":"html-keyboard-response","trial_index":7,"time_elapsed":48563,"internal_node_id":"0.0-8.0","subject":"togqhfs21r9y9v4","sona":"THNS"},{"rt":3576,"stimulus":"<p>Das Experiment startet nun.</p><p><small>Bitte drücken Sie den Knopf, wenn Sie bereit sind.</small></p>","button_pressed":"0","trial_type":"html-button-response","trial_index":8,"time_elapsed":52141,"internal_node_id":"0.0-9.0","subject":"togqhfs21r9y9v4","sona":"THNS"},{"rt":1756,"stimulus":"<p>Bereit?</p>","key_press":32,"trial_type":"html-keyboard-response","trial_index":9,"time_elapsed":53900,"internal_node_id":"0.0-10.0-0.0","subject":"togqhfs21r9y9v4","sona":"THNS"},{"rt":null,"stimulus":"<div style=\"font-size:60px;\">+</div>","key_press":null,"trial_type":"html-keyboard-response","trial_index":10,"time_elapsed":55903,"internal_node_id":"0.0-10.0-1.0","subject":"togqhfs21r9y9v4","sona":"THNS"},{"trial_type":"turing-test","trial_index":11,"time_elapsed":62185,"internal_node_id":"0.0-10.0-2.0","subject":"togqhfs21r9y9v4","sona":"THNS"},{"rt":967,"stimulus":"<p>Welche Sequenz haben Sie als natürlicher empfunden?</p>","key_press":74,"test_part":"response","test_stimulus":{"position":1,"left":"bvh/vr_prediction_models/model(vcgpdm)-dataset(return-bottle)-mode(ELBO)-parts(3)-dyn(20)-lvm(15)-hold(1)/final-lines.txt","right":"bvh/return-bottle-training1-lines.txt","att_check":false},"trial_type":"html-keyboard-response","trial_index":12,"time_elapsed":63155,"internal_node_id":"0.0-10.0-3.0","subject":"togqhfs21r9y9v4","sona":"THNS"},{"rt":799,"stimulus":"<p>Bereit?</p>","key_press":32,"trial_type":"html-keyboard-response","trial_index":13,"time_elapsed":63956,"internal_node_id":"0.0-10.0-0.1","subject":"togqhfs21r9y9v4","sona":"THNS"},{"rt":null,"stimulus":"<div style=\"font-size:60px;\">+</div>","key_press":null,"trial_type":"html-keyboard-response","trial_index":14,"time_elapsed":65957,"internal_node_id":"0.0-10.0-1.1","subject":"togqhfs21r9y9v4","sona":"THNS"},{"trial_type":"turing-test","trial_index":15,"time_elapsed":72500,"internal_node_id":"0.0-10.0-2.1","subject":"togqhfs21r9y9v4","sona":"THNS"},{"rt":836,"stimulus":"<p>Welche Sequenz haben Sie als natürlicher empfunden?</p>","key_press":70,"test_part":"response","test_stimulus":{"position":1,"left":"bvh/vr_prediction_models/model(tmp)-dataset(return-bottle)-numprim(13)-hold(2)/final-lines.txt","right":"bvh/return-bottle-training2-lines.txt","att_check":false},"trial_type":"html-keyboard-response","trial_index":16,"time_elapsed":73338,"internal_node_id":"0.0-10.0-3.1","subject":"togqhfs21r9y9v4","sona":"THNS"},{"rt":767,"stimulus":"<p>Bereit?</p>","key_press":32,"trial_type":"html-keyboard-response","trial_index":17,"time_elapsed":74107,"internal_node_id":"0.0-10.0-0.2","subject":"togqhfs21r9y9v4","sona":"THNS"},{"rt":null,"stimulus":"<div style=\"font-size:60px;\">+</div>","key_press":null,"trial_type":"html-keyboard-response","trial_index":18,"time_elapsed":76108,"internal_node_id":"0.0-10.0-1.2","subject":"togqhfs21r9y9v4","sona":"THNS"},{"trial_type":"turing-test","trial_index":19,"time_elapsed":82001,"internal_node_id":"0.0-10.0-2.2","subject":"togqhfs21r9y9v4","sona":"THNS"},{"rt":860,"stimulus":"<p>Welche Sequenz haben Sie als natürlicher empfunden?</p>","key_press":70,"test_part":"response","test_stimulus":{"position":1,"left":"bvh/vr_prediction_models/model(vcgpdm)-dataset(pass-bottle)-mode(ELBO)-parts(1)-dyn(35)-lvm(30)-hold(3)/final-lines.txt","right":"bvh/pass-bottle-training3-lines.txt","att_check":false},"trial_type":"html-keyboard-response","trial_index":20,"time_elapsed":82863,"internal_node_id":"0.0-10.0-3.2","subject":"togqhfs21r9y9v4","sona":"THNS"},{"rt":644,"stimulus":"<p>Bereit?</p>","key_press":32,"trial_type":"html-keyboard-response","trial_index":21,"time_elapsed":83510,"internal_node_id":"0.0-10.0-0.3","subject":"togqhfs21r9y9v4","sona":"THNS"},{"rt":null,"stimulus":"<div style=\"font-size:60px;\">+</div>","key_press":null,"trial_type":"html-keyboard-response","trial_index":22,"time_elapsed":85512,"internal_node_id":"0.0-10.0-1.3","subject":"togqhfs21r9y9v4","sona":"THNS"},{"trial_type":"turing-test","trial_index":23,"time_elapsed":91227,"internal_node_id":"0.0-10.0-2.3","subject":"togqhfs21r9y9v4","sona":"THNS"},{"rt":783,"stimulus":"<p>Welche Sequenz haben Sie als natürlicher empfunden?</p>","key_press":74,"test_part":"response","test_stimulus":{"position":1,"left":"bvh/vr_prediction_models/model(tmp)-dataset(pass-bottle)-numprim(4)-hold(4)/final-lines.txt","right":"bvh/pass-bottle-training4-lines.txt","att_check":false},"trial_type":"html-keyboard-response","trial_index":24,"time_elapsed":92013,"internal_node_id":"0.0-10.0-3.3","subject":"togqhfs21r9y9v4","sona":"THNS"},{"rt":529,"stimulus":"<p>Bereit?</p>","key_press":32,"trial_type":"html-keyboard-response","trial_index":25,"time_elapsed":92544,"internal_node_id":"0.0-10.0-0.4","subject":"togqhfs21r9y9v4","sona":"THNS"},{"rt":null,"stimulus":"<div style=\"font-size:60px;\">+</div>","key_press":null,"trial_type":"html-keyboard-response","trial_index":26,"time_elapsed":94546,"internal_node_id":"0.0-10.0-1.4","subject":"togqhfs21r9y9v4","sona":"THNS"},{"trial_type":"turing-test","trial_index":27,"time_elapsed":97711,"internal_node_id":"0.0-10.0-2.4","subject":"togqhfs21r9y9v4","sona":"THNS"},{"rt":998,"stimulus":"<p>Welche Sequenz haben Sie als natürlicher empfunden?</p>","key_press":70,"test_part":"response","test_stimulus":{"position":1,"left":"bvh/vr_prediction_models/model(tmp)-dataset(pass-bottle-hold)-numprim(5)-hold(1)/final-lines.txt","right":"bvh/pass-bottle-hold-training1-lines.txt","att_check":false},"trial_type":"html-keyboard-response","trial_index":28,"time_elapsed":98713,"internal_node_id":"0.0-10.0-3.4","subject":"togqhfs21r9y9v4","sona":"THNS"},{"rt":526,"stimulus":"<p>Bereit?</p>","key_press":32,"trial_type":"html-keyboard-response","trial_index":29,"time_elapsed":99241,"internal_node_id":"0.0-10.0-0.5","subject":"togqhfs21r9y9v4","sona":"THNS"},{"rt":null,"stimulus":"<div style=\"font-size:60px;\">+</div>","key_press":null,"trial_type":"html-keyboard-response","trial_index":30,"time_elapsed":101243,"internal_node_id":"0.0-10.0-1.5","subject":"togqhfs21r9y9v4","sona":"THNS"},{"trial_type":"turing-test","trial_index":31,"time_elapsed":104637,"internal_node_id":"0.0-10.0-2.5","subject":"togqhfs21r9y9v4","sona":"THNS"},{"rt":709,"stimulus":"<p>Welche Sequenz haben Sie als natürlicher empfunden?</p>","key_press":74,"test_part":"response","test_stimulus":{"position":0,"left":"bvh/return-bottle-hold-training2-lines.txt","right":"bvh/vr_prediction_models/model(tmp)-dataset(return-bottle-hold)-numprim(12)-hold(2)/final-lines.txt","att_check":false},"trial_type":"html-keyboard-response","trial_index":32,"time_elapsed":105349,"internal_node_id":"0.0-10.0-3.5","subject":"togqhfs21r9y9v4","sona":"THNS"},{"rt":502,"stimulus":"<p>Bereit?</p>","key_press":32,"trial_type":"html-keyboard-response","trial_index":33,"time_elapsed":105853,"internal_node_id":"0.0-10.0-0.6","subject":"togqhfs21r9y9v4","sona":"THNS"},{"rt":null,"stimulus":"<div style=\"font-size:60px;\">+</div>","key_press":null,"trial_type":"html-keyboard-response","trial_index":34,"time_elapsed":107855,"internal_node_id":"0.0-10.0-1.6","subject":"togqhfs21r9y9v4","sona":"THNS"},{"trial_type":"turing-test","trial_index":35,"time_elapsed":113716,"internal_node_id":"0.0-10.0-2.6","subject":"togqhfs21r9y9v4","sona":"THNS"},{"rt":593,"stimulus":"<p>Welche Sequenz haben Sie als natürlicher empfunden?</p>","key_press":74,"test_part":"response","test_stimulus":{"position":1,"left":"bvh/vr_prediction_models/model(vcgpdm)-dataset(return-bottle)-mode(ELBO)-parts(1)-dyn(10)-lvm(5)-hold(4)/final-lines.txt","right":"bvh/return-bottle-training4-lines.txt","att_check":false},"trial_type":"html-keyboard-response","trial_index":36,"time_elapsed":114314,"internal_node_id":"0.0-10.0-3.6","subject":"togqhfs21r9y9v4","sona":"THNS"},{"rt":510,"stimulus":"<p>Bereit?</p>","key_press":32,"trial_type":"html-keyboard-response","trial_index":37,"time_elapsed":114826,"internal_node_id":"0.0-10.0-0.7","subject":"togqhfs21r9y9v4","sona":"THNS"},{"rt":null,"stimulus":"<div style=\"font-size:60px;\">+</div>","key_press":null,"trial_type":"html-keyboard-response","trial_index":38,"time_elapsed":116828,"internal_node_id":"0.0-10.0-1.7","subject":"togqhfs21r9y9v4","sona":"THNS"},{"trial_type":"turing-test","trial_index":39,"time_elapsed":120416,"internal_node_id":"0.0-10.0-2.7","subject":"togqhfs21r9y9v4","sona":"THNS"},{"rt":640,"stimulus":"<p>Welche Sequenz haben Sie als natürlicher empfunden?</p>","key_press":74,"test_part":"response","test_stimulus":{"position":1,"left":"bvh/vr_prediction_models/model(tmp)-dataset(return-bottle-hold)-numprim(12)-hold(3)/final-lines.txt","right":"bvh/return-bottle-hold-training3-lines.txt","att_check":false},"trial_type":"html-keyboard-response","trial_index":40,"time_elapsed":121058,"internal_node_id":"0.0-10.0-3.7","subject":"togqhfs21r9y9v4","sona":"THNS"},{"rt":373,"stimulus":"<p>Bereit?</p>","key_press":32,"trial_type":"html-keyboard-response","trial_index":41,"time_elapsed":121434,"internal_node_id":"0.0-10.0-0.8","subject":"togqhfs21r9y9v4","sona":"THNS"},{"rt":null,"stimulus":"<div style=\"font-size:60px;\">+</div>","key_press":null,"trial_type":"html-keyboard-response","trial_index":42,"time_elapsed":123436,"internal_node_id":"0.0-10.0-1.8","subject":"togqhfs21r9y9v4","sona":"THNS"},{"trial_type":"turing-test","trial_index":43,"time_elapsed":128788,"internal_node_id":"0.0-10.0-2.8","subject":"togqhfs21r9y9v4","sona":"THNS"},{"rt":1137,"stimulus":"<p>Welche Sequenz haben Sie als natürlicher empfunden?</p>","key_press":74,"test_part":"response","test_stimulus":{"position":1,"left":"bvh/vr_prediction_models/model(dmp)-dataset(return-bottle)-npsi(100)-hold(0)/final-lines.txt","right":"bvh/return-bottle-training0-lines.txt","att_check":false},"trial_type":"html-keyboard-response","trial_index":44,"time_elapsed":129929,"internal_node_id":"0.0-10.0-3.8","subject":"togqhfs21r9y9v4","sona":"THNS"},{"rt":541,"stimulus":"<p>Bereit?</p>","key_press":32,"trial_type":"html-keyboard-response","trial_index":45,"time_elapsed":130470,"internal_node_id":"0.0-10.0-0.9","subject":"togqhfs21r9y9v4","sona":"THNS"},{"rt":null,"stimulus":"<div style=\"font-size:60px;\">+</div>","key_press":null,"trial_type":"html-keyboard-response","trial_index":46,"time_elapsed":132472,"internal_node_id":"0.0-10.0-1.9","subject":"togqhfs21r9y9v4","sona":"THNS"},{"trial_type":"turing-test","trial_index":47,"time_elapsed":136139,"internal_node_id":"0.0-10.0-2.9","subject":"togqhfs21r9y9v4","sona":"THNS"},{"rt":1454,"stimulus":"<p>Welche Sequenz haben Sie als natürlicher empfunden?</p>","key_press":70,"test_part":"response","test_stimulus":{"position":0,"left":"bvh/return-bottle-hold-training4-lines.txt","right":"bvh/vr_prediction_models/model(dmp)-dataset(return-bottle-hold)-npsi(30)-hold(4)/final-lines.txt","att_check":false},"trial_type":"html-keyboard-response","trial_index":48,"time_elapsed":137596,"internal_node_id":"0.0-10.0-3.9","subject":"togqhfs21r9y9v4","sona":"THNS"},{"rt":490,"stimulus":"<p>Bereit?</p>","key_press":32,"trial_type":"html-keyboard-response","trial_index":49,"time_elapsed":138088,"internal_node_id":"0.0-10.0-0.10","subject":"togqhfs21r9y9v4","sona":"THNS"},{"rt":null,"stimulus":"<div style=\"font-size:60px;\">+</div>","key_press":null,"trial_type":"html-keyboard-response","trial_index":50,"time_elapsed":140089,"internal_node_id":"0.0-10.0-1.10","subject":"togqhfs21r9y9v4","sona":"THNS"},{"trial_type":"turing-test","trial_index":51,"time_elapsed":143838,"internal_node_id":"0.0-10.0-2.10","subject":"togqhfs21r9y9v4","sona":"THNS"},{"rt":807,"stimulus":"<p>Welche Sequenz haben Sie als natürlicher empfunden?</p>","key_press":74,"test_part":"response","test_stimulus":{"position":0,"left":"bvh/return-bottle-hold-training4-lines.txt","right":"bvh/vr_prediction_models/model(vcgpdm)-dataset(return-bottle-hold)-mode(ELBO)-parts(1)-dyn(20)-lvm(5)-hold(4)/final-lines.txt","att_check":false},"trial_type":"html-keyboard-response","trial_index":52,"time_elapsed":144645,"internal_node_id":"0.0-10.0-3.10","subject":"togqhfs21r9y9v4","sona":"THNS"},{"rt":442,"stimulus":"<p>Bereit?</p>","key_press":32,"trial_type":"html-keyboard-response","trial_index":53,"time_elapsed":145090,"internal_node_id":"0.0-10.0-0.11","subject":"togqhfs21r9y9v4","sona":"THNS"},{"rt":null,"stimulus":"<div style=\"font-size:60px;\">+</div>","key_press":null,"trial_type":"html-keyboard-response","trial_index":54,"time_elapsed":147091,"internal_node_id":"0.0-10.0-1.11","subject":"togqhfs21r9y9v4","sona":"THNS"},{"trial_type":"turing-test","trial_index":55,"time_elapsed":152887,"internal_node_id":"0.0-10.0-2.11","subject":"togqhfs21r9y9v4","sona":"THNS"},{"rt":1259,"stimulus":"<p>Welche Sequenz haben Sie als natürlicher empfunden?</p>","key_press":70,"test_part":"response","test_stimulus":{"position":0,"left":"bvh/return-bottle-training3-lines.txt","right":"bvh/vr_prediction_models/model(vcgpdm)-dataset(return-bottle)-mode(ELBO)-parts(3)-dyn(20)-lvm(15)-hold(3)/final-lines.txt","att_check":false},"trial_type":"html-keyboard-response","trial_index":56,"time_elapsed":154150,"internal_node_id":"0.0-10.0-3.11","subject":"togqhfs21r9y9v4","sona":"THNS"},{"rt":464,"stimulus":"<p>Bereit?</p>","key_press":32,"trial_type":"html-keyboard-response","trial_index":57,"time_elapsed":154616,"internal_node_id":"0.0-10.0-0.12","subject":"togqhfs21r9y9v4","sona":"THNS"},{"rt":null,"stimulus":"<div style=\"font-size:60px;\">+</div>","key_press":null,"trial_type":"html-keyboard-response","trial_index":58,"time_elapsed":156617,"internal_node_id":"0.0-10.0-1.12","subject":"togqhfs21r9y9v4","sona":"THNS"},{"trial_type":"turing-test","trial_index":59,"time_elapsed":162027,"internal_node_id":"0.0-10.0-2.12","subject":"togqhfs21r9y9v4","sona":"THNS"},{"rt":969,"stimulus":"<p>Welche Sequenz haben Sie als natürlicher empfunden?</p>","key_press":74,"test_part":"response","test_stimulus":{"position":1,"left":"bvh/vr_prediction_models/model(vcgpdm)-dataset(return-bottle)-mode(ELBO)-parts(3)-dyn(15)-lvm(30)-hold(0)/final-lines.txt","right":"bvh/return-bottle-training0-lines.txt","att_check":false},"trial_type":"html-keyboard-response","trial_index":60,"time_elapsed":162998,"internal_node_id":"0.0-10.0-3.12","subject":"togqhfs21r9y9v4","sona":"THNS"},{"rt":334,"stimulus":"<p>Bereit?</p>","key_press":32,"trial_type":"html-keyboard-response","trial_index":61,"time_elapsed":163335,"internal_node_id":"0.0-10.0-0.13","subject":"togqhfs21r9y9v4","sona":"THNS"},{"rt":null,"stimulus":"<div style=\"font-size:60px;\">+</div>","key_press":null,"trial_type":"html-keyboard-response","trial_index":62,"time_elapsed":165337,"internal_node_id":"0.0-10.0-1.13","subject":"togqhfs21r9y9v4","sona":"THNS"},{"trial_type":"turing-test","trial_index":63,"time_elapsed":171331,"internal_node_id":"0.0-10.0-2.13","subject":"togqhfs21r9y9v4","sona":"THNS"},{"rt":782,"stimulus":"<p>Welche Sequenz haben Sie als natürlicher empfunden?</p>","key_press":74,"test_part":"response","test_stimulus":{"position":0,"left":"bvh/return-bottle-training1-lines.txt","right":"bvh/vr_prediction_models/model(tmp)-dataset(return-bottle)-numprim(4)-hold(1)/final-lines.txt","att_check":false},"trial_type":"html-keyboard-response","trial_index":64,"time_elapsed":172116,"internal_node_id":"0.0-10.0-3.13","subject":"togqhfs21r9y9v4","sona":"THNS"},{"rt":484,"stimulus":"<p>Bereit?</p>","key_press":32,"trial_type":"html-keyboard-response","trial_index":65,"time_elapsed":172602,"internal_node_id":"0.0-10.0-0.14","subject":"togqhfs21r9y9v4","sona":"THNS"},{"rt":null,"stimulus":"<div style=\"font-size:60px;\">+</div>","key_press":null,"trial_type":"html-keyboard-response","trial_index":66,"time_elapsed":174603,"internal_node_id":"0.0-10.0-1.14","subject":"togqhfs21r9y9v4","sona":"THNS"},{"trial_type":"turing-test","trial_index":67,"time_elapsed":178164,"internal_node_id":"0.0-10.0-2.14","subject":"togqhfs21r9y9v4","sona":"THNS"},{"rt":678,"stimulus":"<p>Welche Sequenz haben Sie als natürlicher empfunden?</p>","key_press":74,"test_part":"response","test_stimulus":{"position":0,"left":"bvh/return-bottle-hold-training3-lines.txt","right":"bvh/vr_prediction_models/model(tmp)-dataset(return-bottle-hold)-numprim(3)-hold(3)/final-lines.txt","att_check":false},"trial_type":"html-keyboard-response","trial_index":68,"time_elapsed":178845,"internal_node_id":"0.0-10.0-3.14","subject":"togqhfs21r9y9v4","sona":"THNS"},{"rt":402,"stimulus":"<p>Bereit?</p>","key_press":32,"trial_type":"html-keyboard-response","trial_index":69,"time_elapsed":179249,"internal_node_id":"0.0-10.0-0.15","subject":"togqhfs21r9y9v4","sona":"THNS"},{"rt":null,"stimulus":"<div style=\"font-size:60px;\">+</div>","key_press":null,"trial_type":"html-keyboard-response","trial_index":70,"time_elapsed":181251,"internal_node_id":"0.0-10.0-1.15","subject":"togqhfs21r9y9v4","sona":"THNS"},{"trial_type":"turing-test","trial_index":71,"time_elapsed":186953,"internal_node_id":"0.0-10.0-2.15","subject":"togqhfs21r9y9v4","sona":"THNS"},{"rt":850,"stimulus":"<p>Welche Sequenz haben Sie als natürlicher empfunden?</p>","key_press":70,"test_part":"response","test_stimulus":{"position":0,"left":"bvh/return-bottle-training4-lines.txt","right":"bvh/vr_prediction_models/model(dmp)-dataset(return-bottle)-npsi(90)-hold(4)/final-lines.txt","att_check":false},"trial_type":"html-keyboard-response","trial_index":72,"time_elapsed":187803,"internal_node_id":"0.0-10.0-3.15","subject":"togqhfs21r9y9v4","sona":"THNS"},{"rt":1446,"stimulus":"<p>Bereit?</p>","key_press":32,"trial_type":"html-keyboard-response","trial_index":73,"time_elapsed":189251,"internal_node_id":"0.0-10.0-0.16","subject":"togqhfs21r9y9v4","sona":"THNS"},{"rt":null,"stimulus":"<div style=\"font-size:60px;\">+</div>","key_press":null,"trial_type":"html-keyboard-response","trial_index":74,"time_elapsed":191252,"internal_node_id":"0.0-10.0-1.16","subject":"togqhfs21r9y9v4","sona":"THNS"}]