[{"rt":2734.3050000199582,"stimulus":"<p>Welcome!<br> Please choose your language to start the experiment in the chosen language.</p><p>Willkommen!<br> Bitte wählen Sie eine Sprache, um das Experiment in der ausgewählten Sprache zu starten</p>","button_pressed":"1","trial_type":"html-button-response","trial_index":0,"time_elapsed":2752,"internal_node_id":"0.0-0.0","subject":"q0vlnxzhw6la6qs","sona":"7324"},{"view_history":"[{\"page_index\":0,\"viewing_time\":3223.629999993136},{\"page_index\":1,\"viewing_time\":2061.7199999978766},{\"page_index\":2,\"viewing_time\":4802.079999994021},{\"page_index\":3,\"viewing_time\":3517.3399999912363},{\"page_index\":4,\"viewing_time\":1550.7400000060443}]","rt":15156.479999976,"trial_type":"instructions","trial_index":1,"time_elapsed":17909,"internal_node_id":"0.0-1.0-0.0","subject":"q0vlnxzhw6la6qs","sona":"7324"},{"rt":1354.7149999940302,"stimulus":"<p>Bereit?</p>","key_press":32,"trial_type":"html-keyboard-response","trial_index":2,"time_elapsed":19266,"internal_node_id":"0.0-3.0","subject":"q0vlnxzhw6la6qs","sona":"7324"},{"rt":null,"stimulus":"<div style=\"font-size:60px;\">+</div>","key_press":null,"trial_type":"html-keyboard-response","trial_index":3,"time_elapsed":21269,"internal_node_id":"0.0-4.0","subject":"q0vlnxzhw6la6qs","sona":"7324"},{"trial_type":"training","trial_index":4,"time_elapsed":24617,"internal_node_id":"0.0-5.0","subject":"q0vlnxzhw6la6qs","sona":"7324"},{"rt":1867.4250000040047,"stimulus":"<p>Welche Sequenz haben Sie als natürlicher empfunden?</p>","key_press":70,"trial_type":"html-keyboard-response","trial_index":5,"time_elapsed":26487,"internal_node_id":"0.0-6.0","subject":"q0vlnxzhw6la6qs","sona":"7324"},{"rt":3995.710000017425,"stimulus":"<p>Das Experiment startet nun.</p><p><small>Bitte drücken Sie den Knopf, wenn Sie bereit sind.</small></p>","button_pressed":"0","trial_type":"html-button-response","trial_index":6,"time_elapsed":30485,"internal_node_id":"0.0-7.0","subject":"q0vlnxzhw6la6qs","sona":"7324"},{"rt":1960.655000002589,"stimulus":"<p>Bereit?</p>","key_press":32,"trial_type":"html-keyboard-response","trial_index":7,"time_elapsed":32447,"internal_node_id":"0.0-8.0-0.0","subject":"q0vlnxzhw6la6qs","sona":"7324"},{"rt":null,"stimulus":"<div style=\"font-size:60px;\">+</div>","key_press":null,"trial_type":"html-keyboard-response","trial_index":8,"time_elapsed":34451,"internal_node_id":"0.0-8.0-1.0","subject":"q0vlnxzhw6la6qs","sona":"7324"},{"trial_type":"turing-test","trial_index":9,"time_elapsed":40212,"internal_node_id":"0.0-8.0-2.0","subject":"q0vlnxzhw6la6qs","sona":"7324"},{"rt":604.4899999978952,"stimulus":"<p>Welche Sequenz haben Sie als natürlicher empfunden?</p>","key_press":70,"test_part":"response","test_stimulus":{"position":0,"left":"bvh/pass-bottle-training4-lines.txt","right":"bvh/vr_prediction_models/model(dmp)-dataset(pass-bottle)-npsi(20)-hold(4)/final-lines.txt","att_check":true},"trial_type":"html-keyboard-response","trial_index":10,"time_elapsed":40823,"internal_node_id":"0.0-8.0-3.0","subject":"q0vlnxzhw6la6qs","sona":"7324"},{"rt":1401.8550000037067,"stimulus":"<p>Bereit?</p>","key_press":32,"trial_type":"html-keyboard-response","trial_index":11,"time_elapsed":42230,"internal_node_id":"0.0-8.0-0.1","subject":"q0vlnxzhw6la6qs","sona":"7324"},{"rt":null,"stimulus":"<div style=\"font-size:60px;\">+</div>","key_press":null,"trial_type":"html-keyboard-response","trial_index":12,"time_elapsed":44233,"internal_node_id":"0.0-8.0-1.1","subject":"q0vlnxzhw6la6qs","sona":"7324"},{"trial_type":"turing-test","trial_index":13,"time_elapsed":47979,"internal_node_id":"0.0-8.0-2.1","subject":"q0vlnxzhw6la6qs","sona":"7324"},{"rt":910.8899999991991,"stimulus":"<p>Welche Sequenz haben Sie als natürlicher empfunden?</p>","key_press":74,"test_part":"response","test_stimulus":{"position":0,"left":"bvh/return-bottle-hold-training3-lines.txt","right":"bvh/vr_prediction_models/model(vcgpdm)-dataset(return-bottle-hold)-mode(ELBO)-parts(3)-dyn(25)-lvm(15)-hold(3)/final-lines.txt","att_check":false},"trial_type":"html-keyboard-response","trial_index":14,"time_elapsed":48895,"internal_node_id":"0.0-8.0-3.1","subject":"q0vlnxzhw6la6qs","sona":"7324"},{"rt":568.4600000095088,"stimulus":"<p>Bereit?</p>","key_press":32,"trial_type":"html-keyboard-response","trial_index":15,"time_elapsed":49465,"internal_node_id":"0.0-8.0-0.2","subject":"q0vlnxzhw6la6qs","sona":"7324"},{"rt":null,"stimulus":"<div style=\"font-size:60px;\">+</div>","key_press":null,"trial_type":"html-keyboard-response","trial_index":16,"time_elapsed":51467,"internal_node_id":"0.0-8.0-1.2","subject":"q0vlnxzhw6la6qs","sona":"7324"},{"trial_type":"turing-test","trial_index":17,"time_elapsed":57210,"internal_node_id":"0.0-8.0-2.2","subject":"q0vlnxzhw6la6qs","sona":"7324"},{"rt":431.49499999708496,"stimulus":"<p>Welche Sequenz haben Sie als natürlicher empfunden?</p>","key_press":74,"test_part":"response","test_stimulus":{"position":0,"left":"bvh/return-bottle-training3-lines.txt","right":"bvh/vr_prediction_models/model(tmp)-dataset(return-bottle)-numprim(13)-hold(3)/final-lines.txt","att_check":false},"trial_type":"html-keyboard-response","trial_index":18,"time_elapsed":57646,"internal_node_id":"0.0-8.0-3.2","subject":"q0vlnxzhw6la6qs","sona":"7324"},{"rt":1288.37999998359,"stimulus":"<p>Bereit?</p>","key_press":32,"trial_type":"html-keyboard-response","trial_index":19,"time_elapsed":58938,"internal_node_id":"0.0-8.0-0.3","subject":"q0vlnxzhw6la6qs","sona":"7324"},{"rt":null,"stimulus":"<div style=\"font-size:60px;\">+</div>","key_press":null,"trial_type":"html-keyboard-response","trial_index":20,"time_elapsed":60942,"internal_node_id":"0.0-8.0-1.3","subject":"q0vlnxzhw6la6qs","sona":"7324"},{"trial_type":"turing-test","trial_index":21,"time_elapsed":64393,"internal_node_id":"0.0-8.0-2.3","subject":"q0vlnxzhw6la6qs","sona":"7324"},{"rt":576.2199999880977,"stimulus":"<p>Welche Sequenz haben Sie als natürlicher empfunden?</p>","key_press":70,"test_part":"response","test_stimulus":{"position":0,"left":"bvh/pass-bottle-hold-training2-lines.txt","right":"bvh/vr_prediction_models/model(vcgpdm)-dataset(pass-bottle-hold)-mode(ELBO)-parts(3)-dyn(20)-lvm(35)-hold(2)/final-lines.txt","att_check":false},"trial_type":"html-keyboard-response","trial_index":22,"time_elapsed":64975,"internal_node_id":"0.0-8.0-3.3","subject":"q0vlnxzhw6la6qs","sona":"7324"},{"rt":94000.07999999798,"stimulus":"<p>Bereit?</p>","key_press":32,"trial_type":"html-keyboard-response","trial_index":23,"time_elapsed":158979,"internal_node_id":"0.0-8.0-0.4","subject":"q0vlnxzhw6la6qs","sona":"7324"},{"rt":null,"stimulus":"<div style=\"font-size:60px;\">+</div>","key_press":null,"trial_type":"html-keyboard-response","trial_index":24,"time_elapsed":160983,"internal_node_id":"0.0-8.0-1.4","subject":"q0vlnxzhw6la6qs","sona":"7324"},{"trial_type":"turing-test","trial_index":25,"time_elapsed":164662,"internal_node_id":"0.0-8.0-2.4","subject":"q0vlnxzhw6la6qs","sona":"7324"},{"rt":350.40500000468455,"stimulus":"<p>Welche Sequenz haben Sie als natürlicher empfunden?</p>","key_press":74,"test_part":"response","test_stimulus":{"position":0,"left":"bvh/pass-bottle-hold-training4-lines.txt","right":"bvh/vr_prediction_models/model(vcgpdm)-dataset(pass-bottle-hold)-mode(ELBO)-parts(3)-dyn(20)-lvm(15)-hold(4)/final-lines.txt","att_check":false},"trial_type":"html-keyboard-response","trial_index":26,"time_elapsed":165018,"internal_node_id":"0.0-8.0-3.4","subject":"q0vlnxzhw6la6qs","sona":"7324"},{"rt":1539.5349999889731,"stimulus":"<p>Bereit?</p>","key_press":32,"trial_type":"html-keyboard-response","trial_index":27,"time_elapsed":166561,"internal_node_id":"0.0-8.0-0.5","subject":"q0vlnxzhw6la6qs","sona":"7324"},{"rt":null,"stimulus":"<div style=\"font-size:60px;\">+</div>","key_press":null,"trial_type":"html-keyboard-response","trial_index":28,"time_elapsed":168563,"internal_node_id":"0.0-8.0-1.5","subject":"q0vlnxzhw6la6qs","sona":"7324"},{"trial_type":"turing-test","trial_index":29,"time_elapsed":173982,"internal_node_id":"0.0-8.0-2.5","subject":"q0vlnxzhw6la6qs","sona":"7324"},{"rt":584.7250000224449,"stimulus":"<p>Welche Sequenz haben Sie als natürlicher empfunden?</p>","key_press":70,"test_part":"response","test_stimulus":{"position":0,"left":"bvh/return-bottle-training0-lines.txt","right":"bvh/vr_prediction_models/model(dmp)-dataset(return-bottle)-npsi(10)-hold(0)/final-lines.txt","att_check":false},"trial_type":"html-keyboard-response","trial_index":30,"time_elapsed":174572,"internal_node_id":"0.0-8.0-3.5","subject":"q0vlnxzhw6la6qs","sona":"7324"},{"rt":2077.8599999903236,"stimulus":"<p>Bereit?</p>","key_press":32,"trial_type":"html-keyboard-response","trial_index":31,"time_elapsed":176653,"internal_node_id":"0.0-8.0-0.6","subject":"q0vlnxzhw6la6qs","sona":"7324"},{"rt":null,"stimulus":"<div style=\"font-size:60px;\">+</div>","key_press":null,"trial_type":"html-keyboard-response","trial_index":32,"time_elapsed":178657,"internal_node_id":"0.0-8.0-1.6","subject":"q0vlnxzhw6la6qs","sona":"7324"}]