[{"rt":6760.114999982761,"stimulus":"<p>Welcome!<br> Please choose your language to start the experiment in the chosen language.</p><p>Willkommen!<br> Bitte wählen Sie eine Sprache, um das Experiment in der ausgewählten Sprache zu starten</p>","button_pressed":"1","trial_type":"html-button-response","trial_index":0,"time_elapsed":6781,"internal_node_id":"0.0-0.0","subject":"slo9r46hrrsn9lc","sona":"7324"},{"view_history":"[{\"page_index\":0,\"viewing_time\":3771.2899999751244},{\"page_index\":1,\"viewing_time\":715.5950000160374},{\"page_index\":2,\"viewing_time\":618.7400000053458},{\"page_index\":3,\"viewing_time\":909.1499999922235},{\"page_index\":4,\"viewing_time\":846.1749999842141}]","rt":6861.849999986589,"trial_type":"instructions","trial_index":1,"time_elapsed":13644,"internal_node_id":"0.0-1.0-0.0","subject":"slo9r46hrrsn9lc","sona":"7324"},{"rt":1098.1299999984913,"stimulus":"<p>Bereit?</p>","key_press":32,"trial_type":"html-keyboard-response","trial_index":2,"time_elapsed":14744,"internal_node_id":"0.0-3.0","subject":"slo9r46hrrsn9lc","sona":"7324"},{"rt":null,"stimulus":"<div style=\"font-size:60px;\">+</div>","key_press":null,"trial_type":"html-keyboard-response","trial_index":3,"time_elapsed":16749,"internal_node_id":"0.0-4.0","subject":"slo9r46hrrsn9lc","sona":"7324"},{"trial_type":"training","trial_index":4,"time_elapsed":19976,"internal_node_id":"0.0-5.0","subject":"slo9r46hrrsn9lc","sona":"7324"},{"rt":343.38999999454245,"stimulus":"<p>Welche Sequenz haben Sie als natürlicher empfunden?</p>","key_press":70,"trial_type":"html-keyboard-response","trial_index":5,"time_elapsed":20321,"internal_node_id":"0.0-6.0","subject":"slo9r46hrrsn9lc","sona":"7324"},{"rt":3529.164999985369,"stimulus":"<p>Das Experiment startet nun.</p><p><small>Bitte drücken Sie den Knopf, wenn Sie bereit sind.</small></p>","button_pressed":"0","trial_type":"html-button-response","trial_index":6,"time_elapsed":23853,"internal_node_id":"0.0-7.0","subject":"slo9r46hrrsn9lc","sona":"7324"},{"rt":1380.105000018375,"stimulus":"<p>Bereit?</p>","key_press":32,"trial_type":"html-keyboard-response","trial_index":7,"time_elapsed":25234,"internal_node_id":"0.0-8.0-0.0","subject":"slo9r46hrrsn9lc","sona":"7324"},{"rt":null,"stimulus":"<div style=\"font-size:60px;\">+</div>","key_press":null,"trial_type":"html-keyboard-response","trial_index":8,"time_elapsed":27238,"internal_node_id":"0.0-8.0-1.0","subject":"slo9r46hrrsn9lc","sona":"7324"},{"trial_type":"turing-test","trial_index":9,"time_elapsed":32990,"internal_node_id":"0.0-8.0-2.0","subject":"slo9r46hrrsn9lc","sona":"7324"},{"rt":244.87500000395812,"stimulus":"<p>Welche Sequenz haben Sie als natürlicher empfunden?</p>","key_press":74,"test_part":"response","test_stimulus":{"position":0,"left":"bvh/return-bottle-training4-lines.txt","right":"bvh/vr_prediction_models/model(tmp)-dataset(return-bottle)-numprim(14)-hold(4)/final-lines.txt","att_check":false},"trial_type":"html-keyboard-response","trial_index":10,"time_elapsed":33241,"internal_node_id":"0.0-8.0-3.0","subject":"slo9r46hrrsn9lc","sona":"7324"},{"rt":593.6100000108127,"stimulus":"<p>Bereit?</p>","key_press":32,"trial_type":"html-keyboard-response","trial_index":11,"time_elapsed":33837,"internal_node_id":"0.0-8.0-0.1","subject":"slo9r46hrrsn9lc","sona":"7324"},{"rt":null,"stimulus":"<div style=\"font-size:60px;\">+</div>","key_press":null,"trial_type":"html-keyboard-response","trial_index":12,"time_elapsed":35841,"internal_node_id":"0.0-8.0-1.1","subject":"slo9r46hrrsn9lc","sona":"7324"},{"trial_type":"turing-test","trial_index":13,"time_elapsed":39430,"internal_node_id":"0.0-8.0-2.1","subject":"slo9r46hrrsn9lc","sona":"7324"},{"rt":310.9450000047218,"stimulus":"<p>Welche Sequenz haben Sie als natürlicher empfunden?</p>","key_press":74,"test_part":"response","test_stimulus":{"position":1,"left":"bvh/vr_prediction_models/model(tmp)-dataset(return-bottle-hold)-numprim(15)-hold(3)/final-lines.txt","right":"bvh/return-bottle-hold-training3-lines.txt","att_check":false},"trial_type":"html-keyboard-response","trial_index":14,"time_elapsed":39746,"internal_node_id":"0.0-8.0-3.1","subject":"slo9r46hrrsn9lc","sona":"7324"},{"rt":455.2949999924749,"stimulus":"<p>Bereit?</p>","key_press":32,"trial_type":"html-keyboard-response","trial_index":15,"time_elapsed":40202,"internal_node_id":"0.0-8.0-0.2","subject":"slo9r46hrrsn9lc","sona":"7324"},{"rt":null,"stimulus":"<div style=\"font-size:60px;\">+</div>","key_press":null,"trial_type":"html-keyboard-response","trial_index":16,"time_elapsed":42205,"internal_node_id":"0.0-8.0-1.2","subject":"slo9r46hrrsn9lc","sona":"7324"},{"trial_type":"turing-test","trial_index":17,"time_elapsed":49073,"internal_node_id":"0.0-8.0-2.2","subject":"slo9r46hrrsn9lc","sona":"7324"},{"rt":692.2750000085216,"stimulus":"<p>Welche Sequenz haben Sie als natürlicher empfunden?</p>","key_press":74,"test_part":"response","test_stimulus":{"position":0,"left":"bvh/pass-bottle-training0-lines.txt","right":"bvh/vr_prediction_models/model(vcgpdm)-dataset(pass-bottle)-mode(ELBO)-parts(3)-dyn(35)-lvm(20)-hold(0)/final-lines.txt","att_check":false},"trial_type":"html-keyboard-response","trial_index":18,"time_elapsed":49770,"internal_node_id":"0.0-8.0-3.2","subject":"slo9r46hrrsn9lc","sona":"7324"},{"rt":310.4449999809731,"stimulus":"<p>Bereit?</p>","key_press":32,"trial_type":"html-keyboard-response","trial_index":19,"time_elapsed":50082,"internal_node_id":"0.0-8.0-0.3","subject":"slo9r46hrrsn9lc","sona":"7324"},{"rt":null,"stimulus":"<div style=\"font-size:60px;\">+</div>","key_press":null,"trial_type":"html-keyboard-response","trial_index":20,"time_elapsed":52085,"internal_node_id":"0.0-8.0-1.3","subject":"slo9r46hrrsn9lc","sona":"7324"},{"trial_type":"turing-test","trial_index":21,"time_elapsed":55291,"internal_node_id":"0.0-8.0-2.3","subject":"slo9r46hrrsn9lc","sona":"7324"},{"rt":1132.6349999872036,"stimulus":"<p>Welche Sequenz haben Sie als natürlicher empfunden?</p>","key_press":70,"test_part":"response","test_stimulus":{"position":0,"left":"bvh/pass-bottle-hold-training2-lines.txt","right":"bvh/vr_prediction_models/model(tmp)-dataset(pass-bottle-hold)-numprim(12)-hold(2)/final-lines.txt","att_check":false},"trial_type":"html-keyboard-response","trial_index":22,"time_elapsed":56429,"internal_node_id":"0.0-8.0-3.3","subject":"slo9r46hrrsn9lc","sona":"7324"},{"rt":592.0299999997951,"stimulus":"<p>Bereit?</p>","key_press":32,"trial_type":"html-keyboard-response","trial_index":23,"time_elapsed":57025,"internal_node_id":"0.0-8.0-0.4","subject":"slo9r46hrrsn9lc","sona":"7324"},{"rt":null,"stimulus":"<div style=\"font-size:60px;\">+</div>","key_press":null,"trial_type":"html-keyboard-response","trial_index":24,"time_elapsed":59027,"internal_node_id":"0.0-8.0-1.4","subject":"slo9r46hrrsn9lc","sona":"7324"},{"trial_type":"turing-test","trial_index":25,"time_elapsed":65747,"internal_node_id":"0.0-8.0-2.4","subject":"slo9r46hrrsn9lc","sona":"7324"},{"rt":895.9350000077393,"stimulus":"<p>Welche Sequenz haben Sie als natürlicher empfunden?</p>","key_press":70,"test_part":"response","test_stimulus":{"position":0,"left":"bvh/pass-bottle-training0-lines.txt","right":"bvh/vr_prediction_models/model(dmp)-dataset(pass-bottle)-npsi(30)-hold(0)/final-lines.txt","att_check":false},"trial_type":"html-keyboard-response","trial_index":26,"time_elapsed":66649,"internal_node_id":"0.0-8.0-3.4","subject":"slo9r46hrrsn9lc","sona":"7324"},{"rt":300.054999999702,"stimulus":"<p>Bereit?</p>","key_press":32,"trial_type":"html-keyboard-response","trial_index":27,"time_elapsed":66952,"internal_node_id":"0.0-8.0-0.5","subject":"slo9r46hrrsn9lc","sona":"7324"},{"rt":null,"stimulus":"<div style=\"font-size:60px;\">+</div>","key_press":null,"trial_type":"html-keyboard-response","trial_index":28,"time_elapsed":68956,"internal_node_id":"0.0-8.0-1.5","subject":"slo9r46hrrsn9lc","sona":"7324"},{"trial_type":"turing-test","trial_index":29,"time_elapsed":72406,"internal_node_id":"0.0-8.0-2.5","subject":"slo9r46hrrsn9lc","sona":"7324"},{"rt":1125.1500000071246,"stimulus":"<p>Welche Sequenz haben Sie als natürlicher empfunden?</p>","key_press":70,"test_part":"response","test_stimulus":{"position":1,"left":"bvh/vr_prediction_models/model(vcgpdm)-dataset(return-bottle-hold)-mode(ELBO)-parts(3)-dyn(25)-lvm(15)-hold(1)/final-lines.txt","right":"bvh/return-bottle-hold-training1-lines.txt","att_check":false},"trial_type":"html-keyboard-response","trial_index":30,"time_elapsed":73536,"internal_node_id":"0.0-8.0-3.5","subject":"slo9r46hrrsn9lc","sona":"7324"},{"rt":226.81500000180677,"stimulus":"<p>Bereit?</p>","key_press":32,"trial_type":"html-keyboard-response","trial_index":31,"time_elapsed":73767,"internal_node_id":"0.0-8.0-0.6","subject":"slo9r46hrrsn9lc","sona":"7324"},{"rt":null,"stimulus":"<div style=\"font-size:60px;\">+</div>","key_press":null,"trial_type":"html-keyboard-response","trial_index":32,"time_elapsed":75770,"internal_node_id":"0.0-8.0-1.6","subject":"slo9r46hrrsn9lc","sona":"7324"},{"trial_type":"turing-test","trial_index":33,"time_elapsed":81523,"internal_node_id":"0.0-8.0-2.6","subject":"slo9r46hrrsn9lc","sona":"7324"},{"rt":1752.730000007432,"stimulus":"<p>Welche Sequenz haben Sie als natürlicher empfunden?</p>","key_press":70,"test_part":"response","test_stimulus":{"position":1,"left":"bvh/vr_prediction_models/model(dmp)-dataset(return-bottle)-npsi(30)-hold(4)/final-lines.txt","right":"bvh/return-bottle-training4-lines.txt","att_check":false},"trial_type":"html-keyboard-response","trial_index":34,"time_elapsed":83282,"internal_node_id":"0.0-8.0-3.6","subject":"slo9r46hrrsn9lc","sona":"7324"},{"rt":268.07999997981824,"stimulus":"<p>Bereit?</p>","key_press":32,"trial_type":"html-keyboard-response","trial_index":35,"time_elapsed":83553,"internal_node_id":"0.0-8.0-0.7","subject":"slo9r46hrrsn9lc","sona":"7324"},{"rt":null,"stimulus":"<div style=\"font-size:60px;\">+</div>","key_press":null,"trial_type":"html-keyboard-response","trial_index":36,"time_elapsed":85557,"internal_node_id":"0.0-8.0-1.7","subject":"slo9r46hrrsn9lc","sona":"7324"},{"trial_type":"turing-test","trial_index":37,"time_elapsed":90536,"internal_node_id":"0.0-8.0-2.7","subject":"slo9r46hrrsn9lc","sona":"7324"},{"rt":1647.7350000059232,"stimulus":"<p>Welche Sequenz haben Sie als natürlicher empfunden?</p>","key_press":74,"test_part":"response","test_stimulus":{"position":0,"left":"bvh/return-bottle-hold-training0-lines.txt","right":"bvh/vr_prediction_models/model(tmp)-dataset(return-bottle-hold)-numprim(10)-hold(0)/final-lines.txt","att_check":false},"trial_type":"html-keyboard-response","trial_index":38,"time_elapsed":92189,"internal_node_id":"0.0-8.0-3.7","subject":"slo9r46hrrsn9lc","sona":"7324"},{"rt":125.1300000003539,"stimulus":"<p>Bereit?</p>","key_press":32,"trial_type":"html-keyboard-response","trial_index":39,"time_elapsed":92315,"internal_node_id":"0.0-8.0-0.8","subject":"slo9r46hrrsn9lc","sona":"7324"},{"rt":null,"stimulus":"<div style=\"font-size:60px;\">+</div>","key_press":null,"trial_type":"html-keyboard-response","trial_index":40,"time_elapsed":94317,"internal_node_id":"0.0-8.0-1.8","subject":"slo9r46hrrsn9lc","sona":"7324"},{"trial_type":"turing-test","trial_index":41,"time_elapsed":98686,"internal_node_id":"0.0-8.0-2.8","subject":"slo9r46hrrsn9lc","sona":"7324"},{"rt":3502.8499999898486,"stimulus":"<p>Welche Sequenz haben Sie als natürlicher empfunden?</p>","key_press":74,"test_part":"response","test_stimulus":{"position":1,"left":"bvh/vr_prediction_models/model(vcgpdm)-dataset(return-bottle-hold)-mode(ELBO)-parts(3)-dyn(25)-lvm(25)-hold(1)/final-lines.txt","right":"bvh/return-bottle-hold-training1-lines.txt","att_check":false},"trial_type":"html-keyboard-response","trial_index":42,"time_elapsed":102192,"internal_node_id":"0.0-8.0-3.8","subject":"slo9r46hrrsn9lc","sona":"7324"},{"rt":205.55500002228655,"stimulus":"<p>Bereit?</p>","key_press":32,"trial_type":"html-keyboard-response","trial_index":43,"time_elapsed":102402,"internal_node_id":"0.0-8.0-0.9","subject":"slo9r46hrrsn9lc","sona":"7324"},{"rt":null,"stimulus":"<div style=\"font-size:60px;\">+</div>","key_press":null,"trial_type":"html-keyboard-response","trial_index":44,"time_elapsed":104687,"internal_node_id":"0.0-8.0-1.9","subject":"slo9r46hrrsn9lc","sona":"7324"},{"trial_type":"turing-test","trial_index":45,"time_elapsed":109685,"internal_node_id":"0.0-8.0-2.9","subject":"slo9r46hrrsn9lc","sona":"7324"},{"rt":5315.964999987045,"stimulus":"<p>Welche Sequenz haben Sie als natürlicher empfunden?</p>","key_press":70,"test_part":"response","test_stimulus":{"position":0,"left":"bvh/return-bottle-hold-training0-lines.txt","right":"bvh/vr_prediction_models/model(tmp)-dataset(return-bottle-hold)-numprim(4)-hold(0)/final-lines.txt","att_check":false},"trial_type":"html-keyboard-response","trial_index":46,"time_elapsed":115004,"internal_node_id":"0.0-8.0-3.9","subject":"slo9r46hrrsn9lc","sona":"7324"},{"rt":155.10500001255423,"stimulus":"<p>Bereit?</p>","key_press":32,"trial_type":"html-keyboard-response","trial_index":47,"time_elapsed":115162,"internal_node_id":"0.0-8.0-0.10","subject":"slo9r46hrrsn9lc","sona":"7324"},{"rt":null,"stimulus":"<div style=\"font-size:60px;\">+</div>","key_press":null,"trial_type":"html-keyboard-response","trial_index":48,"time_elapsed":117689,"internal_node_id":"0.0-8.0-1.10","subject":"slo9r46hrrsn9lc","sona":"7324"},{"trial_type":"turing-test","trial_index":49,"time_elapsed":124687,"internal_node_id":"0.0-8.0-2.10","subject":"slo9r46hrrsn9lc","sona":"7324"},{"rt":6801.470000005793,"stimulus":"<p>Welche Sequenz haben Sie als natürlicher empfunden?</p>","key_press":74,"test_part":"response","test_stimulus":{"position":0,"left":"bvh/pass-bottle-training2-lines.txt","right":"bvh/vr_prediction_models/model(tmp)-dataset(pass-bottle)-numprim(14)-hold(2)/final-lines.txt","att_check":false},"trial_type":"html-keyboard-response","trial_index":50,"time_elapsed":131490,"internal_node_id":"0.0-8.0-3.10","subject":"slo9r46hrrsn9lc","sona":"7324"},{"rt":174.28999999538064,"stimulus":"<p>Bereit?</p>","key_press":32,"trial_type":"html-keyboard-response","trial_index":51,"time_elapsed":131668,"internal_node_id":"0.0-8.0-0.11","subject":"slo9r46hrrsn9lc","sona":"7324"},{"rt":null,"stimulus":"<div style=\"font-size:60px;\">+</div>","key_press":null,"trial_type":"html-keyboard-response","trial_index":52,"time_elapsed":133688,"internal_node_id":"0.0-8.0-1.11","subject":"slo9r46hrrsn9lc","sona":"7324"}]