[{"rt":1474,"stimulus":"<p>Welcome!<br> Please choose your language to start the experiment in the chosen language.</p><p>Willkommen!<br> Bitte wählen Sie eine Sprache, um das Experiment in der ausgewählten Sprache zu starten</p>","button_pressed":"1","trial_type":"html-button-response","trial_index":0,"time_elapsed":1504,"internal_node_id":"0.0-0.0","subject":"8jvl58zps0hg9dy","sona":"5572"},{"view_history":"[{\"page_index\":0,\"viewing_time\":759},{\"page_index\":1,\"viewing_time\":948},{\"page_index\":2,\"viewing_time\":1278},{\"page_index\":3,\"viewing_time\":1248},{\"page_index\":4,\"viewing_time\":1246.000000000001}]","rt":5480,"trial_type":"instructions","trial_index":1,"time_elapsed":6985,"internal_node_id":"0.0-1.0-0.0","subject":"8jvl58zps0hg9dy","sona":"5572"},{"rt":1173,"stimulus":"<p>Bereit?</p>","key_press":32,"trial_type":"html-keyboard-response","trial_index":2,"time_elapsed":8160,"internal_node_id":"0.0-3.0","subject":"8jvl58zps0hg9dy","sona":"5572"},{"rt":null,"stimulus":"<div style=\"font-size:60px;\">+</div>","key_press":null,"trial_type":"html-keyboard-response","trial_index":3,"time_elapsed":10163,"internal_node_id":"0.0-4.0","subject":"8jvl58zps0hg9dy","sona":"5572"},{"trial_type":"training","trial_index":4,"time_elapsed":13476,"internal_node_id":"0.0-5.0","subject":"8jvl58zps0hg9dy","sona":"5572"},{"rt":1225,"stimulus":"<p>Welche Sequenz haben Sie als natürlicher empfunden?</p>","key_press":74,"trial_type":"html-keyboard-response","trial_index":5,"time_elapsed":14702,"internal_node_id":"0.0-6.0","subject":"8jvl58zps0hg9dy","sona":"5572"},{"rt":5219,"stimulus":"<p>Das Experiment startet nun.</p><p><small>Bitte drücken Sie den Knopf, wenn Sie bereit sind.</small></p>","button_pressed":"0","trial_type":"html-button-response","trial_index":6,"time_elapsed":19922,"internal_node_id":"0.0-7.0","subject":"8jvl58zps0hg9dy","sona":"5572"},{"rt":1211,"stimulus":"<p>Bereit?</p>","key_press":32,"trial_type":"html-keyboard-response","trial_index":7,"time_elapsed":21134,"internal_node_id":"0.0-8.0-0.0","subject":"8jvl58zps0hg9dy","sona":"5572"},{"rt":null,"stimulus":"<div style=\"font-size:60px;\">+</div>","key_press":null,"trial_type":"html-keyboard-response","trial_index":8,"time_elapsed":23137,"internal_node_id":"0.0-8.0-1.0","subject":"8jvl58zps0hg9dy","sona":"5572"},{"trial_type":"turing-test","trial_index":9,"time_elapsed":26512,"internal_node_id":"0.0-8.0-2.0","subject":"8jvl58zps0hg9dy","sona":"5572"},{"rt":1501,"stimulus":"<p>Welche Sequenz haben Sie als natürlicher empfunden?</p>","key_press":70,"test_part":"response","test_stimulus":{"position":1,"left":"bvh/vr_prediction_models/model(vcgpdm)-dataset(pass-bottle-hold)-mode(MAP)-parts(1)-hold(2)/final-lines.txt","right":"bvh/pass-bottle-hold-training2-lines.txt","att_check":false},"trial_type":"html-keyboard-response","trial_index":10,"time_elapsed":28014,"internal_node_id":"0.0-8.0-3.0","subject":"8jvl58zps0hg9dy","sona":"5572"},{"rt":334,"stimulus":"<p>Bereit?</p>","key_press":32,"trial_type":"html-keyboard-response","trial_index":11,"time_elapsed":28350,"internal_node_id":"0.0-8.0-0.1","subject":"8jvl58zps0hg9dy","sona":"5572"},{"rt":null,"stimulus":"<div style=\"font-size:60px;\">+</div>","key_press":null,"trial_type":"html-keyboard-response","trial_index":12,"time_elapsed":30353,"internal_node_id":"0.0-8.0-1.1","subject":"8jvl58zps0hg9dy","sona":"5572"},{"trial_type":"turing-test","trial_index":13,"time_elapsed":36143,"internal_node_id":"0.0-8.0-2.1","subject":"8jvl58zps0hg9dy","sona":"5572"},{"rt":619.9999999999927,"stimulus":"<p>Welche Sequenz haben Sie als natürlicher empfunden?</p>","key_press":74,"test_part":"response","test_stimulus":{"position":1,"left":"bvh/vr_prediction_models/model(vcgpdm)-dataset(return-bottle)-mode(ELBO)-parts(1)-dyn(35)-lvm(30)-hold(3)/final-lines.txt","right":"bvh/return-bottle-training3-lines.txt","att_check":false},"trial_type":"html-keyboard-response","trial_index":14,"time_elapsed":36766,"internal_node_id":"0.0-8.0-3.1","subject":"8jvl58zps0hg9dy","sona":"5572"},{"rt":525.9999999999927,"stimulus":"<p>Bereit?</p>","key_press":32,"trial_type":"html-keyboard-response","trial_index":15,"time_elapsed":37294,"internal_node_id":"0.0-8.0-0.2","subject":"8jvl58zps0hg9dy","sona":"5572"},{"rt":null,"stimulus":"<div style=\"font-size:60px;\">+</div>","key_press":null,"trial_type":"html-keyboard-response","trial_index":16,"time_elapsed":39297,"internal_node_id":"0.0-8.0-1.2","subject":"8jvl58zps0hg9dy","sona":"5572"},{"trial_type":"turing-test","trial_index":17,"time_elapsed":43089,"internal_node_id":"0.0-8.0-2.2","subject":"8jvl58zps0hg9dy","sona":"5572"},{"rt":930.9999999999927,"stimulus":"<p>Welche Sequenz haben Sie als natürlicher empfunden?</p>","key_press":70,"test_part":"response","test_stimulus":{"position":1,"left":"bvh/vr_prediction_models/model(vcgpdm)-dataset(return-bottle-hold)-mode(ELBO)-parts(3)-dyn(25)-lvm(25)-hold(4)/final-lines.txt","right":"bvh/return-bottle-hold-training4-lines.txt","att_check":false},"trial_type":"html-keyboard-response","trial_index":18,"time_elapsed":44022,"internal_node_id":"0.0-8.0-3.2","subject":"8jvl58zps0hg9dy","sona":"5572"},{"rt":302,"stimulus":"<p>Bereit?</p>","key_press":32,"trial_type":"html-keyboard-response","trial_index":19,"time_elapsed":44325,"internal_node_id":"0.0-8.0-0.3","subject":"8jvl58zps0hg9dy","sona":"5572"},{"rt":null,"stimulus":"<div style=\"font-size:60px;\">+</div>","key_press":null,"trial_type":"html-keyboard-response","trial_index":20,"time_elapsed":46328,"internal_node_id":"0.0-8.0-1.3","subject":"8jvl58zps0hg9dy","sona":"5572"},{"trial_type":"turing-test","trial_index":21,"time_elapsed":49984,"internal_node_id":"0.0-8.0-2.3","subject":"8jvl58zps0hg9dy","sona":"5572"},{"rt":867,"stimulus":"<p>Welche Sequenz haben Sie als natürlicher empfunden?</p>","key_press":70,"test_part":"response","test_stimulus":{"position":1,"left":"bvh/vr_prediction_models/model(vcgpdm)-dataset(pass-bottle-hold)-mode(ELBO)-parts(1)-dyn(30)-lvm(30)-hold(3)/final-lines.txt","right":"bvh/pass-bottle-hold-training3-lines.txt","att_check":false},"trial_type":"html-keyboard-response","trial_index":22,"time_elapsed":50853,"internal_node_id":"0.0-8.0-3.3","subject":"8jvl58zps0hg9dy","sona":"5572"},{"rt":302.0000000000073,"stimulus":"<p>Bereit?</p>","key_press":32,"trial_type":"html-keyboard-response","trial_index":23,"time_elapsed":51157,"internal_node_id":"0.0-8.0-0.4","subject":"8jvl58zps0hg9dy","sona":"5572"},{"rt":null,"stimulus":"<div style=\"font-size:60px;\">+</div>","key_press":null,"trial_type":"html-keyboard-response","trial_index":24,"time_elapsed":53160,"internal_node_id":"0.0-8.0-1.4","subject":"8jvl58zps0hg9dy","sona":"5572"},{"trial_type":"turing-test","trial_index":25,"time_elapsed":56829,"internal_node_id":"0.0-8.0-2.4","subject":"8jvl58zps0hg9dy","sona":"5572"},{"rt":533.9999999999927,"stimulus":"<p>Welche Sequenz haben Sie als natürlicher empfunden?</p>","key_press":70,"test_part":"response","test_stimulus":{"position":0,"left":"bvh/return-bottle-hold-training3-lines.txt","right":"bvh/vr_prediction_models/model(vcgpdm)-dataset(return-bottle-hold)-mode(ELBO)-parts(3)-dyn(25)-lvm(25)-hold(3)/final-lines.txt","att_check":false},"trial_type":"html-keyboard-response","trial_index":26,"time_elapsed":57365,"internal_node_id":"0.0-8.0-3.4","subject":"8jvl58zps0hg9dy","sona":"5572"},{"rt":302,"stimulus":"<p>Bereit?</p>","key_press":32,"trial_type":"html-keyboard-response","trial_index":27,"time_elapsed":57669,"internal_node_id":"0.0-8.0-0.5","subject":"8jvl58zps0hg9dy","sona":"5572"},{"rt":null,"stimulus":"<div style=\"font-size:60px;\">+</div>","key_press":null,"trial_type":"html-keyboard-response","trial_index":28,"time_elapsed":59672,"internal_node_id":"0.0-8.0-1.5","subject":"8jvl58zps0hg9dy","sona":"5572"},{"trial_type":"turing-test","trial_index":29,"time_elapsed":66310,"internal_node_id":"0.0-8.0-2.5","subject":"8jvl58zps0hg9dy","sona":"5572"},{"rt":590,"stimulus":"<p>Welche Sequenz haben Sie als natürlicher empfunden?</p>","key_press":74,"test_part":"response","test_stimulus":{"position":1,"left":"bvh/vr_prediction_models/model(vcgpdm)-dataset(return-bottle)-mode(ELBO)-parts(1)-dyn(25)-lvm(35)-hold(2)/final-lines.txt","right":"bvh/return-bottle-training2-lines.txt","att_check":false},"trial_type":"html-keyboard-response","trial_index":30,"time_elapsed":66901,"internal_node_id":"0.0-8.0-3.5","subject":"8jvl58zps0hg9dy","sona":"5572"},{"rt":310,"stimulus":"<p>Bereit?</p>","key_press":32,"trial_type":"html-keyboard-response","trial_index":31,"time_elapsed":67213,"internal_node_id":"0.0-8.0-0.6","subject":"8jvl58zps0hg9dy","sona":"5572"},{"rt":null,"stimulus":"<div style=\"font-size:60px;\">+</div>","key_press":null,"trial_type":"html-keyboard-response","trial_index":32,"time_elapsed":69216,"internal_node_id":"0.0-8.0-1.6","subject":"8jvl58zps0hg9dy","sona":"5572"},{"trial_type":"turing-test","trial_index":33,"time_elapsed":75303,"internal_node_id":"0.0-8.0-2.6","subject":"8jvl58zps0hg9dy","sona":"5572"},{"rt":475.99999999998545,"stimulus":"<p>Welche Sequenz haben Sie als natürlicher empfunden?</p>","key_press":70,"test_part":"response","test_stimulus":{"position":1,"left":"bvh/vr_prediction_models/model(vcgpdm)-dataset(return-bottle)-mode(ELBO)-parts(1)-dyn(10)-lvm(30)-hold(1)/final-lines.txt","right":"bvh/return-bottle-training1-lines.txt","att_check":false},"trial_type":"html-keyboard-response","trial_index":34,"time_elapsed":75781,"internal_node_id":"0.0-8.0-3.6","subject":"8jvl58zps0hg9dy","sona":"5572"},{"rt":158,"stimulus":"<p>Bereit?</p>","key_press":32,"trial_type":"html-keyboard-response","trial_index":35,"time_elapsed":75941,"internal_node_id":"0.0-8.0-0.7","subject":"8jvl58zps0hg9dy","sona":"5572"},{"rt":null,"stimulus":"<div style=\"font-size:60px;\">+</div>","key_press":null,"trial_type":"html-keyboard-response","trial_index":36,"time_elapsed":77944,"internal_node_id":"0.0-8.0-1.7","subject":"8jvl58zps0hg9dy","sona":"5572"},{"trial_type":"turing-test","trial_index":37,"time_elapsed":81221,"internal_node_id":"0.0-8.0-2.7","subject":"8jvl58zps0hg9dy","sona":"5572"},{"rt":751,"stimulus":"<p>Welche Sequenz haben Sie als natürlicher empfunden?</p>","key_press":74,"test_part":"response","test_stimulus":{"position":1,"left":"bvh/vr_prediction_models/model(vcgpdm)-dataset(pass-bottle-hold)-mode(ELBO)-parts(1)-dyn(5)-lvm(5)-hold(1)/final-lines.txt","right":"bvh/pass-bottle-hold-training1-lines.txt","att_check":false},"trial_type":"html-keyboard-response","trial_index":38,"time_elapsed":81973,"internal_node_id":"0.0-8.0-3.7","subject":"8jvl58zps0hg9dy","sona":"5572"},{"rt":302,"stimulus":"<p>Bereit?</p>","key_press":32,"trial_type":"html-keyboard-response","trial_index":39,"time_elapsed":82276,"internal_node_id":"0.0-8.0-0.8","subject":"8jvl58zps0hg9dy","sona":"5572"},{"rt":null,"stimulus":"<div style=\"font-size:60px;\">+</div>","key_press":null,"trial_type":"html-keyboard-response","trial_index":40,"time_elapsed":84279,"internal_node_id":"0.0-8.0-1.8","subject":"8jvl58zps0hg9dy","sona":"5572"},{"trial_type":"turing-test","trial_index":41,"time_elapsed":90904,"internal_node_id":"0.0-8.0-2.8","subject":"8jvl58zps0hg9dy","sona":"5572"},{"rt":570,"stimulus":"<p>Welche Sequenz haben Sie als natürlicher empfunden?</p>","key_press":70,"test_part":"response","test_stimulus":{"position":0,"left":"bvh/return-bottle-training2-lines.txt","right":"bvh/vr_prediction_models/model(vcgpdm)-dataset(return-bottle)-mode(ELBO)-parts(1)-dyn(20)-lvm(30)-hold(2)/final-lines.txt","att_check":false},"trial_type":"html-keyboard-response","trial_index":42,"time_elapsed":91477,"internal_node_id":"0.0-8.0-3.8","subject":"8jvl58zps0hg9dy","sona":"5572"},{"rt":230,"stimulus":"<p>Bereit?</p>","key_press":32,"trial_type":"html-keyboard-response","trial_index":43,"time_elapsed":91708,"internal_node_id":"0.0-8.0-0.9","subject":"8jvl58zps0hg9dy","sona":"5572"},{"rt":null,"stimulus":"<div style=\"font-size:60px;\">+</div>","key_press":null,"trial_type":"html-keyboard-response","trial_index":44,"time_elapsed":93711,"internal_node_id":"0.0-8.0-1.9","subject":"8jvl58zps0hg9dy","sona":"5572"},{"trial_type":"turing-test","trial_index":45,"time_elapsed":96870,"internal_node_id":"0.0-8.0-2.9","subject":"8jvl58zps0hg9dy","sona":"5572"},{"rt":1068,"stimulus":"<p>Welche Sequenz haben Sie als natürlicher empfunden?</p>","key_press":70,"test_part":"response","test_stimulus":{"position":0,"left":"bvh/pass-bottle-hold-training1-lines.txt","right":"bvh/vr_prediction_models/model(dmp)-dataset(pass-bottle-hold)-npsi(90)-hold(1)/final-lines.txt","att_check":false},"trial_type":"html-keyboard-response","trial_index":46,"time_elapsed":97940,"internal_node_id":"0.0-8.0-3.9","subject":"8jvl58zps0hg9dy","sona":"5572"},{"rt":269.00000000001455,"stimulus":"<p>Bereit?</p>","key_press":32,"trial_type":"html-keyboard-response","trial_index":47,"time_elapsed":98212,"internal_node_id":"0.0-8.0-0.10","subject":"8jvl58zps0hg9dy","sona":"5572"},{"rt":null,"stimulus":"<div style=\"font-size:60px;\">+</div>","key_press":null,"trial_type":"html-keyboard-response","trial_index":48,"time_elapsed":100215,"internal_node_id":"0.0-8.0-1.10","subject":"8jvl58zps0hg9dy","sona":"5572"},{"trial_type":"turing-test","trial_index":49,"time_elapsed":103641,"internal_node_id":"0.0-8.0-2.10","subject":"8jvl58zps0hg9dy","sona":"5572"},{"rt":841,"stimulus":"<p>Welche Sequenz haben Sie als natürlicher empfunden?</p>","key_press":74,"test_part":"response","test_stimulus":{"position":1,"left":"bvh/vr_prediction_models/model(vcgpdm)-dataset(pass-bottle-hold)-mode(ELBO)-parts(1)-dyn(5)-lvm(5)-hold(0)/final-lines.txt","right":"bvh/pass-bottle-hold-training0-lines.txt","att_check":false},"trial_type":"html-keyboard-response","trial_index":50,"time_elapsed":104485,"internal_node_id":"0.0-8.0-3.10","subject":"8jvl58zps0hg9dy","sona":"5572"},{"rt":278,"stimulus":"<p>Bereit?</p>","key_press":32,"trial_type":"html-keyboard-response","trial_index":51,"time_elapsed":104764,"internal_node_id":"0.0-8.0-0.11","subject":"8jvl58zps0hg9dy","sona":"5572"},{"rt":null,"stimulus":"<div style=\"font-size:60px;\">+</div>","key_press":null,"trial_type":"html-keyboard-response","trial_index":52,"time_elapsed":106767,"internal_node_id":"0.0-8.0-1.11","subject":"8jvl58zps0hg9dy","sona":"5572"},{"trial_type":"turing-test","trial_index":53,"time_elapsed":112577,"internal_node_id":"0.0-8.0-2.11","subject":"8jvl58zps0hg9dy","sona":"5572"}]