[{"rt":2480.5999998934567,"stimulus":"<p>Welcome!<br> Please choose your language to start the experiment in the chosen language.</p><p>Willkommen!<br> Bitte wählen Sie eine Sprache, um das Experiment in der ausgewählten Sprache zu starten</p>","button_pressed":"1","trial_type":"html-button-response","trial_index":0,"time_elapsed":2568,"internal_node_id":"0.0-0.0","subject":"lvjhl069xyvh59p","sona":"7573"},{"view_history":"[{\"page_index\":0,\"viewing_time\":2251.60999991931},{\"page_index\":1,\"viewing_time\":1918.6400000471622},{\"page_index\":2,\"viewing_time\":2799.2400000803173},{\"page_index\":3,\"viewing_time\":1925.4299998283386},{\"page_index\":4,\"viewing_time\":1700.165000045672}]","rt":10600.085000041872,"trial_type":"instructions","trial_index":1,"time_elapsed":13172,"internal_node_id":"0.0-1.0-0.0","subject":"lvjhl069xyvh59p","sona":"7573"},{"rt":1612.3800000641495,"stimulus":"<p>Bereit?</p>","key_press":32,"trial_type":"html-keyboard-response","trial_index":2,"time_elapsed":14792,"internal_node_id":"0.0-3.0","subject":"lvjhl069xyvh59p","sona":"7573"},{"rt":null,"stimulus":"<div style=\"font-size:60px;\">+</div>","key_press":null,"trial_type":"html-keyboard-response","trial_index":3,"time_elapsed":16811,"internal_node_id":"0.0-4.0","subject":"lvjhl069xyvh59p","sona":"7573"},{"trial_type":"training","trial_index":4,"time_elapsed":20187,"internal_node_id":"0.0-5.0","subject":"lvjhl069xyvh59p","sona":"7573"},{"rt":862.775000045076,"stimulus":"<p>Welche Sequenz haben Sie als natürlicher empfunden?</p>","key_press":70,"trial_type":"html-keyboard-response","trial_index":5,"time_elapsed":21058,"internal_node_id":"0.0-6.0","subject":"lvjhl069xyvh59p","sona":"7573"},{"rt":2518.7999999616295,"stimulus":"<p>Das Experiment startet nun.</p><p><small>Bitte drücken Sie den Knopf, wenn Sie bereit sind.</small></p>","button_pressed":"0","trial_type":"html-button-response","trial_index":6,"time_elapsed":23584,"internal_node_id":"0.0-7.0","subject":"lvjhl069xyvh59p","sona":"7573"},{"rt":1826.8699999898672,"stimulus":"<p>Bereit?</p>","key_press":32,"trial_type":"html-keyboard-response","trial_index":7,"time_elapsed":25417,"internal_node_id":"0.0-8.0-0.0","subject":"lvjhl069xyvh59p","sona":"7573"},{"rt":null,"stimulus":"<div style=\"font-size:60px;\">+</div>","key_press":null,"trial_type":"html-keyboard-response","trial_index":8,"time_elapsed":27446,"internal_node_id":"0.0-8.0-1.0","subject":"lvjhl069xyvh59p","sona":"7573"},{"trial_type":"turing-test","trial_index":9,"time_elapsed":31456,"internal_node_id":"0.0-8.0-2.0","subject":"lvjhl069xyvh59p","sona":"7573"},{"rt":627.3149999324232,"stimulus":"<p>Welche Sequenz haben Sie als natürlicher empfunden?</p>","key_press":70,"test_part":"response","test_stimulus":{"position":0,"left":"bvh/return-bottle-hold-training3-lines.txt","right":"bvh/vr_prediction_models/model(vcgpdm)-dataset(return-bottle-hold)-mode(ELBO)-parts(1)-dyn(10)-lvm(30)-hold(3)/final-lines.txt","att_check":false},"trial_type":"html-keyboard-response","trial_index":10,"time_elapsed":32107,"internal_node_id":"0.0-8.0-3.0","subject":"lvjhl069xyvh59p","sona":"7573"},{"rt":364.77999994531274,"stimulus":"<p>Bereit?</p>","key_press":32,"trial_type":"html-keyboard-response","trial_index":11,"time_elapsed":32489,"internal_node_id":"0.0-8.0-0.1","subject":"lvjhl069xyvh59p","sona":"7573"},{"rt":null,"stimulus":"<div style=\"font-size:60px;\">+</div>","key_press":null,"trial_type":"html-keyboard-response","trial_index":12,"time_elapsed":34516,"internal_node_id":"0.0-8.0-1.1","subject":"lvjhl069xyvh59p","sona":"7573"},{"trial_type":"turing-test","trial_index":13,"time_elapsed":41063,"internal_node_id":"0.0-8.0-2.1","subject":"lvjhl069xyvh59p","sona":"7573"},{"rt":449.4300000369549,"stimulus":"<p>Welche Sequenz haben Sie als natürlicher empfunden?</p>","key_press":70,"test_part":"response","test_stimulus":{"position":0,"left":"bvh/pass-bottle-training2-lines.txt","right":"bvh/vr_prediction_models/model(vcgpdm)-dataset(pass-bottle)-mode(ELBO)-parts(1)-dyn(30)-lvm(20)-hold(2)/final-lines.txt","att_check":false},"trial_type":"html-keyboard-response","trial_index":14,"time_elapsed":41534,"internal_node_id":"0.0-8.0-3.1","subject":"lvjhl069xyvh59p","sona":"7573"},{"rt":348.96499989554286,"stimulus":"<p>Bereit?</p>","key_press":32,"trial_type":"html-keyboard-response","trial_index":15,"time_elapsed":41899,"internal_node_id":"0.0-8.0-0.2","subject":"lvjhl069xyvh59p","sona":"7573"},{"rt":null,"stimulus":"<div style=\"font-size:60px;\">+</div>","key_press":null,"trial_type":"html-keyboard-response","trial_index":16,"time_elapsed":43920,"internal_node_id":"0.0-8.0-1.2","subject":"lvjhl069xyvh59p","sona":"7573"},{"trial_type":"turing-test","trial_index":17,"time_elapsed":47219,"internal_node_id":"0.0-8.0-2.2","subject":"lvjhl069xyvh59p","sona":"7573"},{"rt":963.614999782294,"stimulus":"<p>Welche Sequenz haben Sie als natürlicher empfunden?</p>","key_press":70,"test_part":"response","test_stimulus":{"position":0,"left":"bvh/pass-bottle-hold-training1-lines.txt","right":"bvh/vr_prediction_models/model(tmp)-dataset(pass-bottle-hold)-numprim(7)-hold(1)/final-lines.txt","att_check":false},"trial_type":"html-keyboard-response","trial_index":18,"time_elapsed":48215,"internal_node_id":"0.0-8.0-3.2","subject":"lvjhl069xyvh59p","sona":"7573"},{"rt":309.10499999299645,"stimulus":"<p>Bereit?</p>","key_press":32,"trial_type":"html-keyboard-response","trial_index":19,"time_elapsed":48534,"internal_node_id":"0.0-8.0-0.3","subject":"lvjhl069xyvh59p","sona":"7573"},{"rt":null,"stimulus":"<div style=\"font-size:60px;\">+</div>","key_press":null,"trial_type":"html-keyboard-response","trial_index":20,"time_elapsed":50541,"internal_node_id":"0.0-8.0-1.3","subject":"lvjhl069xyvh59p","sona":"7573"},{"trial_type":"turing-test","trial_index":21,"time_elapsed":53982,"internal_node_id":"0.0-8.0-2.3","subject":"lvjhl069xyvh59p","sona":"7573"},{"rt":970.6650001462549,"stimulus":"<p>Welche Sequenz haben Sie als natürlicher empfunden?</p>","key_press":70,"test_part":"response","test_stimulus":{"position":0,"left":"bvh/return-bottle-hold-training1-lines.txt","right":"bvh/vr_prediction_models/model(dmp)-dataset(return-bottle-hold)-npsi(10)-hold(1)/final-lines.txt","att_check":false},"trial_type":"html-keyboard-response","trial_index":22,"time_elapsed":54970,"internal_node_id":"0.0-8.0-3.3","subject":"lvjhl069xyvh59p","sona":"7573"},{"rt":232.36000002361834,"stimulus":"<p>Bereit?</p>","key_press":32,"trial_type":"html-keyboard-response","trial_index":23,"time_elapsed":55217,"internal_node_id":"0.0-8.0-0.4","subject":"lvjhl069xyvh59p","sona":"7573"},{"rt":null,"stimulus":"<div style=\"font-size:60px;\">+</div>","key_press":null,"trial_type":"html-keyboard-response","trial_index":24,"time_elapsed":57228,"internal_node_id":"0.0-8.0-1.4","subject":"lvjhl069xyvh59p","sona":"7573"},{"trial_type":"turing-test","trial_index":25,"time_elapsed":63480,"internal_node_id":"0.0-8.0-2.4","subject":"lvjhl069xyvh59p","sona":"7573"},{"rt":410.5950000230223,"stimulus":"<p>Welche Sequenz haben Sie als natürlicher empfunden?</p>","key_press":74,"test_part":"response","test_stimulus":{"position":0,"left":"bvh/return-bottle-training1-lines.txt","right":"bvh/vr_prediction_models/model(tmp)-dataset(return-bottle)-numprim(11)-hold(1)/final-lines.txt","att_check":false},"trial_type":"html-keyboard-response","trial_index":26,"time_elapsed":63913,"internal_node_id":"0.0-8.0-3.4","subject":"lvjhl069xyvh59p","sona":"7573"},{"rt":451.704999897629,"stimulus":"<p>Bereit?</p>","key_press":32,"trial_type":"html-keyboard-response","trial_index":27,"time_elapsed":64380,"internal_node_id":"0.0-8.0-0.5","subject":"lvjhl069xyvh59p","sona":"7573"},{"rt":null,"stimulus":"<div style=\"font-size:60px;\">+</div>","key_press":null,"trial_type":"html-keyboard-response","trial_index":28,"time_elapsed":66399,"internal_node_id":"0.0-8.0-1.5","subject":"lvjhl069xyvh59p","sona":"7573"},{"trial_type":"turing-test","trial_index":29,"time_elapsed":72099,"internal_node_id":"0.0-8.0-2.5","subject":"lvjhl069xyvh59p","sona":"7573"},{"rt":1524.259999860078,"stimulus":"<p>Welche Sequenz haben Sie als natürlicher empfunden?</p>","key_press":70,"test_part":"response","test_stimulus":{"position":0,"left":"bvh/return-bottle-training0-lines.txt","right":"bvh/vr_prediction_models/model(vcgpdm)-dataset(return-bottle)-mode(ELBO)-parts(1)-dyn(20)-lvm(20)-hold(0)/final-lines.txt","att_check":false},"trial_type":"html-keyboard-response","trial_index":30,"time_elapsed":73644,"internal_node_id":"0.0-8.0-3.5","subject":"lvjhl069xyvh59p","sona":"7573"},{"rt":464.57500010728836,"stimulus":"<p>Bereit?</p>","key_press":32,"trial_type":"html-keyboard-response","trial_index":31,"time_elapsed":74127,"internal_node_id":"0.0-8.0-0.6","subject":"lvjhl069xyvh59p","sona":"7573"},{"rt":null,"stimulus":"<div style=\"font-size:60px;\">+</div>","key_press":null,"trial_type":"html-keyboard-response","trial_index":32,"time_elapsed":76151,"internal_node_id":"0.0-8.0-1.6","subject":"lvjhl069xyvh59p","sona":"7573"},{"trial_type":"turing-test","trial_index":33,"time_elapsed":80154,"internal_node_id":"0.0-8.0-2.6","subject":"lvjhl069xyvh59p","sona":"7573"},{"rt":638.329999987036,"stimulus":"<p>Welche Sequenz haben Sie als natürlicher empfunden?</p>","key_press":70,"test_part":"response","test_stimulus":{"position":1,"left":"bvh/vr_prediction_models/model(vcgpdm)-dataset(pass-bottle-hold)-mode(ELBO)-parts(1)-dyn(10)-lvm(30)-hold(4)/final-lines.txt","right":"bvh/pass-bottle-hold-training4-lines.txt","att_check":false},"trial_type":"html-keyboard-response","trial_index":34,"time_elapsed":80814,"internal_node_id":"0.0-8.0-3.6","subject":"lvjhl069xyvh59p","sona":"7573"},{"rt":341.7150001041591,"stimulus":"<p>Bereit?</p>","key_press":32,"trial_type":"html-keyboard-response","trial_index":35,"time_elapsed":81172,"internal_node_id":"0.0-8.0-0.7","subject":"lvjhl069xyvh59p","sona":"7573"},{"rt":null,"stimulus":"<div style=\"font-size:60px;\">+</div>","key_press":null,"trial_type":"html-keyboard-response","trial_index":36,"time_elapsed":83196,"internal_node_id":"0.0-8.0-1.7","subject":"lvjhl069xyvh59p","sona":"7573"},{"trial_type":"turing-test","trial_index":37,"time_elapsed":86633,"internal_node_id":"0.0-8.0-2.7","subject":"lvjhl069xyvh59p","sona":"7573"},{"rt":675.3299999982119,"stimulus":"<p>Welche Sequenz haben Sie als natürlicher empfunden?</p>","key_press":74,"test_part":"response","test_stimulus":{"position":1,"left":"bvh/vr_prediction_models/model(vcgpdm)-dataset(return-bottle-hold)-mode(ELBO)-parts(3)-dyn(25)-lvm(25)-hold(1)/final-lines.txt","right":"bvh/return-bottle-hold-training1-lines.txt","att_check":false},"trial_type":"html-keyboard-response","trial_index":38,"time_elapsed":87326,"internal_node_id":"0.0-8.0-3.7","subject":"lvjhl069xyvh59p","sona":"7573"},{"rt":344.9049999471754,"stimulus":"<p>Bereit?</p>","key_press":32,"trial_type":"html-keyboard-response","trial_index":39,"time_elapsed":87684,"internal_node_id":"0.0-8.0-0.8","subject":"lvjhl069xyvh59p","sona":"7573"},{"rt":null,"stimulus":"<div style=\"font-size:60px;\">+</div>","key_press":null,"trial_type":"html-keyboard-response","trial_index":40,"time_elapsed":89716,"internal_node_id":"0.0-8.0-1.8","subject":"lvjhl069xyvh59p","sona":"7573"},{"trial_type":"turing-test","trial_index":41,"time_elapsed":96150,"internal_node_id":"0.0-8.0-2.8","subject":"lvjhl069xyvh59p","sona":"7573"},{"rt":496.0149999242276,"stimulus":"<p>Welche Sequenz haben Sie als natürlicher empfunden?</p>","key_press":70,"test_part":"response","test_stimulus":{"position":0,"left":"bvh/return-bottle-training1-lines.txt","right":"bvh/vr_prediction_models/model(vcgpdm)-dataset(return-bottle)-mode(ELBO)-parts(3)-dyn(35)-lvm(20)-hold(1)/final-lines.txt","att_check":false},"trial_type":"html-keyboard-response","trial_index":42,"time_elapsed":96669,"internal_node_id":"0.0-8.0-3.8","subject":"lvjhl069xyvh59p","sona":"7573"},{"rt":364.4349998794496,"stimulus":"<p>Bereit?</p>","key_press":32,"trial_type":"html-keyboard-response","trial_index":43,"time_elapsed":97057,"internal_node_id":"0.0-8.0-0.9","subject":"lvjhl069xyvh59p","sona":"7573"},{"rt":null,"stimulus":"<div style=\"font-size:60px;\">+</div>","key_press":null,"trial_type":"html-keyboard-response","trial_index":44,"time_elapsed":99092,"internal_node_id":"0.0-8.0-1.9","subject":"lvjhl069xyvh59p","sona":"7573"},{"trial_type":"turing-test","trial_index":45,"time_elapsed":106026,"internal_node_id":"0.0-8.0-2.9","subject":"lvjhl069xyvh59p","sona":"7573"},{"rt":674.8999999836087,"stimulus":"<p>Welche Sequenz haben Sie als natürlicher empfunden?</p>","key_press":74,"test_part":"response","test_stimulus":{"position":1,"left":"bvh/vr_prediction_models/model(dmp)-dataset(pass-bottle)-npsi(100)-hold(0)/final-lines.txt","right":"bvh/pass-bottle-training0-lines.txt","att_check":false},"trial_type":"html-keyboard-response","trial_index":46,"time_elapsed":106724,"internal_node_id":"0.0-8.0-3.9","subject":"lvjhl069xyvh59p","sona":"7573"},{"rt":313.8800000306219,"stimulus":"<p>Bereit?</p>","key_press":32,"trial_type":"html-keyboard-response","trial_index":47,"time_elapsed":107055,"internal_node_id":"0.0-8.0-0.10","subject":"lvjhl069xyvh59p","sona":"7573"},{"rt":null,"stimulus":"<div style=\"font-size:60px;\">+</div>","key_press":null,"trial_type":"html-keyboard-response","trial_index":48,"time_elapsed":109076,"internal_node_id":"0.0-8.0-1.10","subject":"lvjhl069xyvh59p","sona":"7573"},{"trial_type":"turing-test","trial_index":49,"time_elapsed":115225,"internal_node_id":"0.0-8.0-2.10","subject":"lvjhl069xyvh59p","sona":"7573"},{"rt":304.07999991439283,"stimulus":"<p>Welche Sequenz haben Sie als natürlicher empfunden?</p>","key_press":74,"test_part":"response","test_stimulus":{"position":1,"left":"bvh/vr_prediction_models/model(vcgpdm)-dataset(pass-bottle)-mode(ELBO)-parts(3)-dyn(30)-lvm(15)-hold(3)/final-lines.txt","right":"bvh/pass-bottle-training3-lines.txt","att_check":false},"trial_type":"html-keyboard-response","trial_index":50,"time_elapsed":115553,"internal_node_id":"0.0-8.0-3.10","subject":"lvjhl069xyvh59p","sona":"7573"},{"rt":354.70999986864626,"stimulus":"<p>Bereit?</p>","key_press":32,"trial_type":"html-keyboard-response","trial_index":51,"time_elapsed":115923,"internal_node_id":"0.0-8.0-0.11","subject":"lvjhl069xyvh59p","sona":"7573"},{"rt":null,"stimulus":"<div style=\"font-size:60px;\">+</div>","key_press":null,"trial_type":"html-keyboard-response","trial_index":52,"time_elapsed":117948,"internal_node_id":"0.0-8.0-1.11","subject":"lvjhl069xyvh59p","sona":"7573"},{"trial_type":"turing-test","trial_index":53,"time_elapsed":121662,"internal_node_id":"0.0-8.0-2.11","subject":"lvjhl069xyvh59p","sona":"7573"},{"rt":306.5049999859184,"stimulus":"<p>Welche Sequenz haben Sie als natürlicher empfunden?</p>","key_press":74,"test_part":"response","test_stimulus":{"position":0,"left":"bvh/pass-bottle-hold-training2-lines.txt","right":"bvh/vr_prediction_models/model(vcgpdm)-dataset(pass-bottle-hold)-mode(ELBO)-parts(1)-dyn(35)-lvm(10)-hold(2)/final-lines.txt","att_check":false},"trial_type":"html-keyboard-response","trial_index":54,"time_elapsed":121997,"internal_node_id":"0.0-8.0-3.11","subject":"lvjhl069xyvh59p","sona":"7573"},{"rt":333.09499989263713,"stimulus":"<p>Bereit?</p>","key_press":32,"trial_type":"html-keyboard-response","trial_index":55,"time_elapsed":122349,"internal_node_id":"0.0-8.0-0.12","subject":"lvjhl069xyvh59p","sona":"7573"},{"rt":null,"stimulus":"<div style=\"font-size:60px;\">+</div>","key_press":null,"trial_type":"html-keyboard-response","trial_index":56,"time_elapsed":124370,"internal_node_id":"0.0-8.0-1.12","subject":"lvjhl069xyvh59p","sona":"7573"},{"trial_type":"turing-test","trial_index":57,"time_elapsed":131289,"internal_node_id":"0.0-8.0-2.12","subject":"lvjhl069xyvh59p","sona":"7573"},{"rt":500.54999999701977,"stimulus":"<p>Welche Sequenz haben Sie als natürlicher empfunden?</p>","key_press":70,"test_part":"response","test_stimulus":{"position":0,"left":"bvh/pass-bottle-training0-lines.txt","right":"bvh/vr_prediction_models/model(tmp)-dataset(pass-bottle)-numprim(7)-hold(0)/final-lines.txt","att_check":false},"trial_type":"html-keyboard-response","trial_index":58,"time_elapsed":131811,"internal_node_id":"0.0-8.0-3.12","subject":"lvjhl069xyvh59p","sona":"7573"},{"rt":268.97000009194016,"stimulus":"<p>Bereit?</p>","key_press":32,"trial_type":"html-keyboard-response","trial_index":59,"time_elapsed":132103,"internal_node_id":"0.0-8.0-0.13","subject":"lvjhl069xyvh59p","sona":"7573"},{"rt":null,"stimulus":"<div style=\"font-size:60px;\">+</div>","key_press":null,"trial_type":"html-keyboard-response","trial_index":60,"time_elapsed":134127,"internal_node_id":"0.0-8.0-1.13","subject":"lvjhl069xyvh59p","sona":"7573"},{"trial_type":"turing-test","trial_index":61,"time_elapsed":137891,"internal_node_id":"0.0-8.0-2.13","subject":"lvjhl069xyvh59p","sona":"7573"},{"rt":858.3050000015646,"stimulus":"<p>Welche Sequenz haben Sie als natürlicher empfunden?</p>","key_press":74,"test_part":"response","test_stimulus":{"position":1,"left":"bvh/vr_prediction_models/model(dmp)-dataset(pass-bottle-hold)-npsi(50)-hold(3)/final-lines.txt","right":"bvh/pass-bottle-hold-training3-lines.txt","att_check":false},"trial_type":"html-keyboard-response","trial_index":62,"time_elapsed":138776,"internal_node_id":"0.0-8.0-3.13","subject":"lvjhl069xyvh59p","sona":"7573"},{"rt":261.81000005453825,"stimulus":"<p>Bereit?</p>","key_press":32,"trial_type":"html-keyboard-response","trial_index":63,"time_elapsed":139053,"internal_node_id":"0.0-8.0-0.14","subject":"lvjhl069xyvh59p","sona":"7573"},{"rt":null,"stimulus":"<div style=\"font-size:60px;\">+</div>","key_press":null,"trial_type":"html-keyboard-response","trial_index":64,"time_elapsed":141071,"internal_node_id":"0.0-8.0-1.14","subject":"lvjhl069xyvh59p","sona":"7573"},{"trial_type":"turing-test","trial_index":65,"time_elapsed":144574,"internal_node_id":"0.0-8.0-2.14","subject":"lvjhl069xyvh59p","sona":"7573"},{"rt":702.5600001215935,"stimulus":"<p>Welche Sequenz haben Sie als natürlicher empfunden?</p>","key_press":74,"test_part":"response","test_stimulus":{"position":1,"left":"bvh/vr_prediction_models/model(tmp)-dataset(pass-bottle-hold)-numprim(6)-hold(2)/final-lines.txt","right":"bvh/pass-bottle-hold-training2-lines.txt","att_check":false},"trial_type":"html-keyboard-response","trial_index":66,"time_elapsed":145302,"internal_node_id":"0.0-8.0-3.14","subject":"lvjhl069xyvh59p","sona":"7573"},{"rt":330.74000012129545,"stimulus":"<p>Bereit?</p>","key_press":32,"trial_type":"html-keyboard-response","trial_index":67,"time_elapsed":145650,"internal_node_id":"0.0-8.0-0.15","subject":"lvjhl069xyvh59p","sona":"7573"},{"rt":null,"stimulus":"<div style=\"font-size:60px;\">+</div>","key_press":null,"trial_type":"html-keyboard-response","trial_index":68,"time_elapsed":147683,"internal_node_id":"0.0-8.0-1.15","subject":"lvjhl069xyvh59p","sona":"7573"},{"trial_type":"turing-test","trial_index":69,"time_elapsed":151041,"internal_node_id":"0.0-8.0-2.15","subject":"lvjhl069xyvh59p","sona":"7573"},{"rt":403.070000000298,"stimulus":"<p>Welche Sequenz haben Sie als natürlicher empfunden?</p>","key_press":74,"test_part":"response","test_stimulus":{"position":1,"left":"bvh/vr_prediction_models/model(tmp)-dataset(pass-bottle-hold)-numprim(11)-hold(0)/final-lines.txt","right":"bvh/pass-bottle-hold-training0-lines.txt","att_check":false},"trial_type":"html-keyboard-response","trial_index":70,"time_elapsed":151473,"internal_node_id":"0.0-8.0-3.15","subject":"lvjhl069xyvh59p","sona":"7573"},{"rt":504.4799998868257,"stimulus":"<p>Bereit?</p>","key_press":32,"trial_type":"html-keyboard-response","trial_index":71,"time_elapsed":151986,"internal_node_id":"0.0-8.0-0.16","subject":"lvjhl069xyvh59p","sona":"7573"},{"rt":null,"stimulus":"<div style=\"font-size:60px;\">+</div>","key_press":null,"trial_type":"html-keyboard-response","trial_index":72,"time_elapsed":154013,"internal_node_id":"0.0-8.0-1.16","subject":"lvjhl069xyvh59p","sona":"7573"},{"trial_type":"turing-test","trial_index":73,"time_elapsed":157996,"internal_node_id":"0.0-8.0-2.16","subject":"lvjhl069xyvh59p","sona":"7573"},{"rt":309.3750001862645,"stimulus":"<p>Welche Sequenz haben Sie als natürlicher empfunden?</p>","key_press":74,"test_part":"response","test_stimulus":{"position":1,"left":"bvh/vr_prediction_models/model(vcgpdm)-dataset(pass-bottle-hold)-mode(ELBO)-parts(1)-dyn(30)-lvm(20)-hold(3)/final-lines.txt","right":"bvh/pass-bottle-hold-training3-lines.txt","att_check":false},"trial_type":"html-keyboard-response","trial_index":74,"time_elapsed":158313,"internal_node_id":"0.0-8.0-3.16","subject":"lvjhl069xyvh59p","sona":"7573"},{"rt":1540.7549999654293,"stimulus":"<p>Bereit?</p>","key_press":32,"trial_type":"html-keyboard-response","trial_index":75,"time_elapsed":159872,"internal_node_id":"0.0-8.0-0.17","subject":"lvjhl069xyvh59p","sona":"7573"},{"rt":null,"stimulus":"<div style=\"font-size:60px;\">+</div>","key_press":null,"trial_type":"html-keyboard-response","trial_index":76,"time_elapsed":161923,"internal_node_id":"0.0-8.0-1.17","subject":"lvjhl069xyvh59p","sona":"7573"},{"trial_type":"turing-test","trial_index":77,"time_elapsed":165480,"internal_node_id":"0.0-8.0-2.17","subject":"lvjhl069xyvh59p","sona":"7573"},{"rt":356.0099999886006,"stimulus":"<p>Welche Sequenz haben Sie als natürlicher empfunden?</p>","key_press":74,"test_part":"response","test_stimulus":{"position":1,"left":"bvh/vr_prediction_models/model(tmp)-dataset(pass-bottle-hold)-numprim(13)-hold(0)/final-lines.txt","right":"bvh/pass-bottle-hold-training0-lines.txt","att_check":false},"trial_type":"html-keyboard-response","trial_index":78,"time_elapsed":165860,"internal_node_id":"0.0-8.0-3.17","subject":"lvjhl069xyvh59p","sona":"7573"},{"rt":444.3949998822063,"stimulus":"<p>Bereit?</p>","key_press":32,"trial_type":"html-keyboard-response","trial_index":79,"time_elapsed":166324,"internal_node_id":"0.0-8.0-0.18","subject":"lvjhl069xyvh59p","sona":"7573"},{"rt":null,"stimulus":"<div style=\"font-size:60px;\">+</div>","key_press":null,"trial_type":"html-keyboard-response","trial_index":80,"time_elapsed":168343,"internal_node_id":"0.0-8.0-1.18","subject":"lvjhl069xyvh59p","sona":"7573"},{"trial_type":"turing-test","trial_index":81,"time_elapsed":172075,"internal_node_id":"0.0-8.0-2.18","subject":"lvjhl069xyvh59p","sona":"7573"},{"rt":365.38000009022653,"stimulus":"<p>Welche Sequenz haben Sie als natürlicher empfunden?</p>","key_press":74,"test_part":"response","test_stimulus":{"position":1,"left":"bvh/vr_prediction_models/model(dmp)-dataset(pass-bottle-hold)-npsi(70)-hold(3)/final-lines.txt","right":"bvh/pass-bottle-hold-training3-lines.txt","att_check":false},"trial_type":"html-keyboard-response","trial_index":82,"time_elapsed":172466,"internal_node_id":"0.0-8.0-3.18","subject":"lvjhl069xyvh59p","sona":"7573"},{"rt":395.3400000464171,"stimulus":"<p>Bereit?</p>","key_press":32,"trial_type":"html-keyboard-response","trial_index":83,"time_elapsed":172890,"internal_node_id":"0.0-8.0-0.19","subject":"lvjhl069xyvh59p","sona":"7573"},{"rt":null,"stimulus":"<div style=\"font-size:60px;\">+</div>","key_press":null,"trial_type":"html-keyboard-response","trial_index":84,"time_elapsed":174911,"internal_node_id":"0.0-8.0-1.19","subject":"lvjhl069xyvh59p","sona":"7573"},{"trial_type":"turing-test","trial_index":85,"time_elapsed":180559,"internal_node_id":"0.0-8.0-2.19","subject":"lvjhl069xyvh59p","sona":"7573"},{"rt":829.6699998900294,"stimulus":"<p>Welche Sequenz haben Sie als natürlicher empfunden?</p>","key_press":70,"test_part":"response","test_stimulus":{"position":0,"left":"bvh/pass-bottle-training1-lines.txt","right":"bvh/vr_prediction_models/model(dmp)-dataset(pass-bottle)-npsi(30)-hold(1)/final-lines.txt","att_check":false},"trial_type":"html-keyboard-response","trial_index":86,"time_elapsed":181417,"internal_node_id":"0.0-8.0-3.19","subject":"lvjhl069xyvh59p","sona":"7573"},{"rt":276.4600000809878,"stimulus":"<p>Bereit?</p>","key_press":32,"trial_type":"html-keyboard-response","trial_index":87,"time_elapsed":181713,"internal_node_id":"0.0-8.0-0.20","subject":"lvjhl069xyvh59p","sona":"7573"},{"rt":null,"stimulus":"<div style=\"font-size:60px;\">+</div>","key_press":null,"trial_type":"html-keyboard-response","trial_index":88,"time_elapsed":183731,"internal_node_id":"0.0-8.0-1.20","subject":"lvjhl069xyvh59p","sona":"7573"},{"trial_type":"turing-test","trial_index":89,"time_elapsed":190121,"internal_node_id":"0.0-8.0-2.20","subject":"lvjhl069xyvh59p","sona":"7573"},{"rt":357.334999833256,"stimulus":"<p>Welche Sequenz haben Sie als natürlicher empfunden?</p>","key_press":74,"test_part":"response","test_stimulus":{"position":1,"left":"bvh/vr_prediction_models/model(vcgpdm)-dataset(return-bottle)-mode(ELBO)-parts(1)-dyn(10)-lvm(25)-hold(1)/final-lines.txt","right":"bvh/return-bottle-training1-lines.txt","att_check":false},"trial_type":"html-keyboard-response","trial_index":90,"time_elapsed":190503,"internal_node_id":"0.0-8.0-3.20","subject":"lvjhl069xyvh59p","sona":"7573"},{"rt":432.8850000165403,"stimulus":"<p>Bereit?</p>","key_press":32,"trial_type":"html-keyboard-response","trial_index":91,"time_elapsed":190947,"internal_node_id":"0.0-8.0-0.21","subject":"lvjhl069xyvh59p","sona":"7573"},{"rt":null,"stimulus":"<div style=\"font-size:60px;\">+</div>","key_press":null,"trial_type":"html-keyboard-response","trial_index":92,"time_elapsed":192969,"internal_node_id":"0.0-8.0-1.21","subject":"lvjhl069xyvh59p","sona":"7573"},{"trial_type":"turing-test","trial_index":93,"time_elapsed":198922,"internal_node_id":"0.0-8.0-2.21","subject":"lvjhl069xyvh59p","sona":"7573"},{"rt":539.0500000212342,"stimulus":"<p>Welche Sequenz haben Sie als natürlicher empfunden?</p>","key_press":74,"test_part":"response","test_stimulus":{"position":1,"left":"bvh/vr_prediction_models/model(dmp)-dataset(return-bottle)-npsi(50)-hold(4)/final-lines.txt","right":"bvh/return-bottle-training4-lines.txt","att_check":false},"trial_type":"html-keyboard-response","trial_index":94,"time_elapsed":199487,"internal_node_id":"0.0-8.0-3.21","subject":"lvjhl069xyvh59p","sona":"7573"},{"rt":291.9449999462813,"stimulus":"<p>Bereit?</p>","key_press":32,"trial_type":"html-keyboard-response","trial_index":95,"time_elapsed":199798,"internal_node_id":"0.0-8.0-0.22","subject":"lvjhl069xyvh59p","sona":"7573"},{"rt":null,"stimulus":"<div style=\"font-size:60px;\">+</div>","key_press":null,"trial_type":"html-keyboard-response","trial_index":96,"time_elapsed":201828,"internal_node_id":"0.0-8.0-1.22","subject":"lvjhl069xyvh59p","sona":"7573"},{"trial_type":"turing-test","trial_index":97,"time_elapsed":207609,"internal_node_id":"0.0-8.0-2.22","subject":"lvjhl069xyvh59p","sona":"7573"},{"rt":307.59500013664365,"stimulus":"<p>Welche Sequenz haben Sie als natürlicher empfunden?</p>","key_press":74,"test_part":"response","test_stimulus":{"position":1,"left":"bvh/vr_prediction_models/model(vcgpdm)-dataset(return-bottle)-mode(ELBO)-parts(3)-dyn(25)-lvm(30)-hold(0)/final-lines.txt","right":"bvh/return-bottle-training0-lines.txt","att_check":false},"trial_type":"html-keyboard-response","trial_index":98,"time_elapsed":207944,"internal_node_id":"0.0-8.0-3.22","subject":"lvjhl069xyvh59p","sona":"7573"},{"rt":389.00500000454485,"stimulus":"<p>Bereit?</p>","key_press":32,"trial_type":"html-keyboard-response","trial_index":99,"time_elapsed":208356,"internal_node_id":"0.0-8.0-0.23","subject":"lvjhl069xyvh59p","sona":"7573"},{"rt":null,"stimulus":"<div style=\"font-size:60px;\">+</div>","key_press":null,"trial_type":"html-keyboard-response","trial_index":100,"time_elapsed":210377,"internal_node_id":"0.0-8.0-1.23","subject":"lvjhl069xyvh59p","sona":"7573"},{"trial_type":"turing-test","trial_index":101,"time_elapsed":216843,"internal_node_id":"0.0-8.0-2.23","subject":"lvjhl069xyvh59p","sona":"7573"},{"rt":314.0300000086427,"stimulus":"<p>Welche Sequenz haben Sie als natürlicher empfunden?</p>","key_press":74,"test_part":"response","test_stimulus":{"position":1,"left":"bvh/vr_prediction_models/model(vcgpdm)-dataset(return-bottle)-mode(MAP)-parts(1)-hold(1)/final-lines.txt","right":"bvh/return-bottle-training1-lines.txt","att_check":false},"trial_type":"html-keyboard-response","trial_index":102,"time_elapsed":217185,"internal_node_id":"0.0-8.0-3.23","subject":"lvjhl069xyvh59p","sona":"7573"},{"rt":372.25000001490116,"stimulus":"<p>Bereit?</p>","key_press":32,"trial_type":"html-keyboard-response","trial_index":103,"time_elapsed":217577,"internal_node_id":"0.0-8.0-0.24","subject":"lvjhl069xyvh59p","sona":"7573"},{"rt":null,"stimulus":"<div style=\"font-size:60px;\">+</div>","key_press":null,"trial_type":"html-keyboard-response","trial_index":104,"time_elapsed":219610,"internal_node_id":"0.0-8.0-1.24","subject":"lvjhl069xyvh59p","sona":"7573"},{"trial_type":"turing-test","trial_index":105,"time_elapsed":223611,"internal_node_id":"0.0-8.0-2.24","subject":"lvjhl069xyvh59p","sona":"7573"},{"rt":871.9900001306087,"stimulus":"<p>Welche Sequenz haben Sie als natürlicher empfunden?</p>","key_press":70,"test_part":"response","test_stimulus":{"position":0,"left":"bvh/return-bottle-hold-training2-lines.txt","right":"bvh/vr_prediction_models/model(vcgpdm)-dataset(return-bottle-hold)-mode(ELBO)-parts(3)-dyn(15)-lvm(30)-hold(2)/final-lines.txt","att_check":false},"trial_type":"html-keyboard-response","trial_index":106,"time_elapsed":224516,"internal_node_id":"0.0-8.0-3.24","subject":"lvjhl069xyvh59p","sona":"7573"},{"rt":513.0499999504536,"stimulus":"<p>Bereit?</p>","key_press":32,"trial_type":"html-keyboard-response","trial_index":107,"time_elapsed":225057,"internal_node_id":"0.0-8.0-0.25","subject":"lvjhl069xyvh59p","sona":"7573"},{"rt":null,"stimulus":"<div style=\"font-size:60px;\">+</div>","key_press":null,"trial_type":"html-keyboard-response","trial_index":108,"time_elapsed":227079,"internal_node_id":"0.0-8.0-1.25","subject":"lvjhl069xyvh59p","sona":"7573"},{"trial_type":"turing-test","trial_index":109,"time_elapsed":233138,"internal_node_id":"0.0-8.0-2.25","subject":"lvjhl069xyvh59p","sona":"7573"},{"rt":312.94500012882054,"stimulus":"<p>Welche Sequenz haben Sie als natürlicher empfunden?</p>","key_press":70,"test_part":"response","test_stimulus":{"position":0,"left":"bvh/return-bottle-training3-lines.txt","right":"bvh/vr_prediction_models/model(vcgpdm)-dataset(return-bottle)-mode(ELBO)-parts(3)-dyn(30)-lvm(15)-hold(3)/final-lines.txt","att_check":false},"trial_type":"html-keyboard-response","trial_index":110,"time_elapsed":233479,"internal_node_id":"0.0-8.0-3.25","subject":"lvjhl069xyvh59p","sona":"7573"},{"rt":328.7449998315424,"stimulus":"<p>Bereit?</p>","key_press":32,"trial_type":"html-keyboard-response","trial_index":111,"time_elapsed":233828,"internal_node_id":"0.0-8.0-0.26","subject":"lvjhl069xyvh59p","sona":"7573"},{"rt":null,"stimulus":"<div style=\"font-size:60px;\">+</div>","key_press":null,"trial_type":"html-keyboard-response","trial_index":112,"time_elapsed":235864,"internal_node_id":"0.0-8.0-1.26","subject":"lvjhl069xyvh59p","sona":"7573"},{"trial_type":"turing-test","trial_index":113,"time_elapsed":242138,"internal_node_id":"0.0-8.0-2.26","subject":"lvjhl069xyvh59p","sona":"7573"},{"rt":240.7299999613315,"stimulus":"<p>Welche Sequenz haben Sie als natürlicher empfunden?</p>","key_press":70,"test_part":"response","test_stimulus":{"position":0,"left":"bvh/return-bottle-training1-lines.txt","right":"bvh/vr_prediction_models/model(tmp)-dataset(return-bottle)-numprim(15)-hold(1)/final-lines.txt","att_check":false},"trial_type":"html-keyboard-response","trial_index":114,"time_elapsed":242410,"internal_node_id":"0.0-8.0-3.26","subject":"lvjhl069xyvh59p","sona":"7573"},{"rt":310.8549998141825,"stimulus":"<p>Bereit?</p>","key_press":32,"trial_type":"html-keyboard-response","trial_index":115,"time_elapsed":242750,"internal_node_id":"0.0-8.0-0.27","subject":"lvjhl069xyvh59p","sona":"7573"},{"rt":null,"stimulus":"<div style=\"font-size:60px;\">+</div>","key_press":null,"trial_type":"html-keyboard-response","trial_index":116,"time_elapsed":244769,"internal_node_id":"0.0-8.0-1.27","subject":"lvjhl069xyvh59p","sona":"7573"},{"trial_type":"turing-test","trial_index":117,"time_elapsed":250670,"internal_node_id":"0.0-8.0-2.27","subject":"lvjhl069xyvh59p","sona":"7573"},{"rt":298.4849999193102,"stimulus":"<p>Welche Sequenz haben Sie als natürlicher empfunden?</p>","key_press":74,"test_part":"response","test_stimulus":{"position":1,"left":"bvh/vr_prediction_models/model(tmp)-dataset(return-bottle)-numprim(12)-hold(3)/final-lines.txt","right":"bvh/return-bottle-training3-lines.txt","att_check":false},"trial_type":"html-keyboard-response","trial_index":118,"time_elapsed":250992,"internal_node_id":"0.0-8.0-3.27","subject":"lvjhl069xyvh59p","sona":"7573"},{"rt":418.99999999441206,"stimulus":"<p>Bereit?</p>","key_press":32,"trial_type":"html-keyboard-response","trial_index":119,"time_elapsed":251434,"internal_node_id":"0.0-8.0-0.28","subject":"lvjhl069xyvh59p","sona":"7573"},{"rt":null,"stimulus":"<div style=\"font-size:60px;\">+</div>","key_press":null,"trial_type":"html-keyboard-response","trial_index":120,"time_elapsed":253462,"internal_node_id":"0.0-8.0-1.28","subject":"lvjhl069xyvh59p","sona":"7573"},{"trial_type":"turing-test","trial_index":121,"time_elapsed":257184,"internal_node_id":"0.0-8.0-2.28","subject":"lvjhl069xyvh59p","sona":"7573"},{"rt":361.3100000657141,"stimulus":"<p>Welche Sequenz haben Sie als natürlicher empfunden?</p>","key_press":74,"test_part":"response","test_stimulus":{"position":0,"left":"bvh/pass-bottle-hold-training0-lines.txt","right":"bvh/vr_prediction_models/model(vcgpdm)-dataset(pass-bottle-hold)-mode(ELBO)-parts(1)-dyn(30)-lvm(20)-hold(0)/final-lines.txt","att_check":false},"trial_type":"html-keyboard-response","trial_index":122,"time_elapsed":257597,"internal_node_id":"0.0-8.0-3.28","subject":"lvjhl069xyvh59p","sona":"7573"},{"rt":371.7249999754131,"stimulus":"<p>Bereit?</p>","key_press":32,"trial_type":"html-keyboard-response","trial_index":123,"time_elapsed":257988,"internal_node_id":"0.0-8.0-0.29","subject":"lvjhl069xyvh59p","sona":"7573"},{"rt":null,"stimulus":"<div style=\"font-size:60px;\">+</div>","key_press":null,"trial_type":"html-keyboard-response","trial_index":124,"time_elapsed":260003,"internal_node_id":"0.0-8.0-1.29","subject":"lvjhl069xyvh59p","sona":"7573"},{"trial_type":"turing-test","trial_index":125,"time_elapsed":266191,"internal_node_id":"0.0-8.0-2.29","subject":"lvjhl069xyvh59p","sona":"7573"},{"rt":132.3250001296401,"stimulus":"<p>Welche Sequenz haben Sie als natürlicher empfunden?</p>","key_press":74,"test_part":"response","test_stimulus":{"position":1,"left":"bvh/vr_prediction_models/model(vcgpdm)-dataset(pass-bottle)-mode(ELBO)-parts(3)-dyn(20)-lvm(35)-hold(3)/final-lines.txt","right":"bvh/pass-bottle-training3-lines.txt","att_check":false},"trial_type":"html-keyboard-response","trial_index":126,"time_elapsed":266352,"internal_node_id":"0.0-8.0-3.29","subject":"lvjhl069xyvh59p","sona":"7573"},{"rt":925.760000012815,"stimulus":"<p>Bereit?</p>","key_press":32,"trial_type":"html-keyboard-response","trial_index":127,"time_elapsed":267303,"internal_node_id":"0.0-8.0-0.30","subject":"lvjhl069xyvh59p","sona":"7573"},{"rt":null,"stimulus":"<div style=\"font-size:60px;\">+</div>","key_press":null,"trial_type":"html-keyboard-response","trial_index":128,"time_elapsed":269316,"internal_node_id":"0.0-8.0-1.30","subject":"lvjhl069xyvh59p","sona":"7573"},{"trial_type":"turing-test","trial_index":129,"time_elapsed":274993,"internal_node_id":"0.0-8.0-2.30","subject":"lvjhl069xyvh59p","sona":"7573"},{"rt":417.95000014826655,"stimulus":"<p>Welche Sequenz haben Sie als natürlicher empfunden?</p>","key_press":74,"test_part":"response","test_stimulus":{"position":1,"left":"bvh/vr_prediction_models/model(dmp)-dataset(pass-bottle)-npsi(60)-hold(1)/final-lines.txt","right":"bvh/pass-bottle-training1-lines.txt","att_check":true},"trial_type":"html-keyboard-response","trial_index":130,"time_elapsed":275438,"internal_node_id":"0.0-8.0-3.30","subject":"lvjhl069xyvh59p","sona":"7573"},{"rt":516.7700001038611,"stimulus":"<p>Bereit?</p>","key_press":32,"trial_type":"html-keyboard-response","trial_index":131,"time_elapsed":275977,"internal_node_id":"0.0-8.0-0.31","subject":"lvjhl069xyvh59p","sona":"7573"},{"rt":null,"stimulus":"<div style=\"font-size:60px;\">+</div>","key_press":null,"trial_type":"html-keyboard-response","trial_index":132,"time_elapsed":277999,"internal_node_id":"0.0-8.0-1.31","subject":"lvjhl069xyvh59p","sona":"7573"},{"trial_type":"turing-test","trial_index":133,"time_elapsed":281309,"internal_node_id":"0.0-8.0-2.31","subject":"lvjhl069xyvh59p","sona":"7573"},{"rt":508.63999989815056,"stimulus":"<p>Welche Sequenz haben Sie als natürlicher empfunden?</p>","key_press":74,"test_part":"response","test_stimulus":{"position":0,"left":"bvh/pass-bottle-hold-training1-lines.txt","right":"bvh/vr_prediction_models/model(dmp)-dataset(pass-bottle-hold)-npsi(30)-hold(1)/final-lines.txt","att_check":true},"trial_type":"html-keyboard-response","trial_index":134,"time_elapsed":281826,"internal_node_id":"0.0-8.0-3.31","subject":"lvjhl069xyvh59p","sona":"7573"},{"rt":359.36000011861324,"stimulus":"<p>Bereit?</p>","key_press":32,"trial_type":"html-keyboard-response","trial_index":135,"time_elapsed":282191,"internal_node_id":"0.0-8.0-0.32","subject":"lvjhl069xyvh59p","sona":"7573"},{"rt":null,"stimulus":"<div style=\"font-size:60px;\">+</div>","key_press":null,"trial_type":"html-keyboard-response","trial_index":136,"time_elapsed":284201,"internal_node_id":"0.0-8.0-1.32","subject":"lvjhl069xyvh59p","sona":"7573"},{"trial_type":"turing-test","trial_index":137,"time_elapsed":291241,"internal_node_id":"0.0-8.0-2.32","subject":"lvjhl069xyvh59p","sona":"7573"},{"rt":285.39000009186566,"stimulus":"<p>Welche Sequenz haben Sie als natürlicher empfunden?</p>","key_press":74,"test_part":"response","test_stimulus":{"position":1,"left":"bvh/vr_prediction_models/model(dmp)-dataset(pass-bottle)-npsi(40)-hold(0)/final-lines.txt","right":"bvh/pass-bottle-training0-lines.txt","att_check":false},"trial_type":"html-keyboard-response","trial_index":138,"time_elapsed":291550,"internal_node_id":"0.0-8.0-3.32","subject":"lvjhl069xyvh59p","sona":"7573"},{"rt":490.14999996870756,"stimulus":"<p>Bereit?</p>","key_press":32,"trial_type":"html-keyboard-response","trial_index":139,"time_elapsed":292060,"internal_node_id":"0.0-8.0-0.33","subject":"lvjhl069xyvh59p","sona":"7573"},{"rt":null,"stimulus":"<div style=\"font-size:60px;\">+</div>","key_press":null,"trial_type":"html-keyboard-response","trial_index":140,"time_elapsed":294092,"internal_node_id":"0.0-8.0-1.33","subject":"lvjhl069xyvh59p","sona":"7573"},{"trial_type":"turing-test","trial_index":141,"time_elapsed":300335,"internal_node_id":"0.0-8.0-2.33","subject":"lvjhl069xyvh59p","sona":"7573"},{"rt":712.9849998746067,"stimulus":"<p>Welche Sequenz haben Sie als natürlicher empfunden?</p>","key_press":70,"test_part":"response","test_stimulus":{"position":0,"left":"bvh/pass-bottle-training4-lines.txt","right":"bvh/vr_prediction_models/model(vcgpdm)-dataset(pass-bottle)-mode(MAP)-parts(3)-hold(4)/final-lines.txt","att_check":false},"trial_type":"html-keyboard-response","trial_index":142,"time_elapsed":301075,"internal_node_id":"0.0-8.0-3.33","subject":"lvjhl069xyvh59p","sona":"7573"},{"rt":330.2750000730157,"stimulus":"<p>Bereit?</p>","key_press":32,"trial_type":"html-keyboard-response","trial_index":143,"time_elapsed":301431,"internal_node_id":"0.0-8.0-0.34","subject":"lvjhl069xyvh59p","sona":"7573"},{"rt":null,"stimulus":"<div style=\"font-size:60px;\">+</div>","key_press":null,"trial_type":"html-keyboard-response","trial_index":144,"time_elapsed":303447,"internal_node_id":"0.0-8.0-1.34","subject":"lvjhl069xyvh59p","sona":"7573"},{"trial_type":"turing-test","trial_index":145,"time_elapsed":307256,"internal_node_id":"0.0-8.0-2.34","subject":"lvjhl069xyvh59p","sona":"7573"},{"rt":458.42499984428287,"stimulus":"<p>Welche Sequenz haben Sie als natürlicher empfunden?</p>","key_press":70,"test_part":"response","test_stimulus":{"position":0,"left":"bvh/pass-bottle-hold-training2-lines.txt","right":"bvh/vr_prediction_models/model(vcgpdm)-dataset(pass-bottle-hold)-mode(ELBO)-parts(1)-dyn(10)-lvm(25)-hold(2)/final-lines.txt","att_check":false},"trial_type":"html-keyboard-response","trial_index":146,"time_elapsed":307752,"internal_node_id":"0.0-8.0-3.34","subject":"lvjhl069xyvh59p","sona":"7573"},{"rt":335.48000012524426,"stimulus":"<p>Bereit?</p>","key_press":32,"trial_type":"html-keyboard-response","trial_index":147,"time_elapsed":308113,"internal_node_id":"0.0-8.0-0.35","subject":"lvjhl069xyvh59p","sona":"7573"},{"rt":null,"stimulus":"<div style=\"font-size:60px;\">+</div>","key_press":null,"trial_type":"html-keyboard-response","trial_index":148,"time_elapsed":310144,"internal_node_id":"0.0-8.0-1.35","subject":"lvjhl069xyvh59p","sona":"7573"},{"trial_type":"turing-test","trial_index":149,"time_elapsed":313913,"internal_node_id":"0.0-8.0-2.35","subject":"lvjhl069xyvh59p","sona":"7573"},{"rt":298.0299999471754,"stimulus":"<p>Welche Sequenz haben Sie als natürlicher empfunden?</p>","key_press":74,"test_part":"response","test_stimulus":{"position":1,"left":"bvh/vr_prediction_models/model(tmp)-dataset(pass-bottle-hold)-numprim(13)-hold(4)/final-lines.txt","right":"bvh/pass-bottle-hold-training4-lines.txt","att_check":false},"trial_type":"html-keyboard-response","trial_index":150,"time_elapsed":314241,"internal_node_id":"0.0-8.0-3.35","subject":"lvjhl069xyvh59p","sona":"7573"},{"rt":588.0050000268966,"stimulus":"<p>Bereit?</p>","key_press":32,"trial_type":"html-keyboard-response","trial_index":151,"time_elapsed":314852,"internal_node_id":"0.0-8.0-0.36","subject":"lvjhl069xyvh59p","sona":"7573"},{"rt":null,"stimulus":"<div style=\"font-size:60px;\">+</div>","key_press":null,"trial_type":"html-keyboard-response","trial_index":152,"time_elapsed":316871,"internal_node_id":"0.0-8.0-1.36","subject":"lvjhl069xyvh59p","sona":"7573"},{"trial_type":"turing-test","trial_index":153,"time_elapsed":323056,"internal_node_id":"0.0-8.0-2.36","subject":"lvjhl069xyvh59p","sona":"7573"},{"rt":70.74000011198223,"stimulus":"<p>Welche Sequenz haben Sie als natürlicher empfunden?</p>","key_press":74,"test_part":"response","test_stimulus":{"position":1,"left":"bvh/vr_prediction_models/model(vcgpdm)-dataset(pass-bottle)-mode(MAP)-parts(3)-hold(3)/final-lines.txt","right":"bvh/pass-bottle-training3-lines.txt","att_check":false},"trial_type":"html-keyboard-response","trial_index":154,"time_elapsed":323162,"internal_node_id":"0.0-8.0-3.36","subject":"lvjhl069xyvh59p","sona":"7573"},{"rt":340.0900000706315,"stimulus":"<p>Bereit?</p>","key_press":32,"trial_type":"html-keyboard-response","trial_index":155,"time_elapsed":323509,"internal_node_id":"0.0-8.0-0.37","subject":"lvjhl069xyvh59p","sona":"7573"},{"rt":null,"stimulus":"<div style=\"font-size:60px;\">+</div>","key_press":null,"trial_type":"html-keyboard-response","trial_index":156,"time_elapsed":325521,"internal_node_id":"0.0-8.0-1.37","subject":"lvjhl069xyvh59p","sona":"7573"},{"trial_type":"turing-test","trial_index":157,"time_elapsed":328924,"internal_node_id":"0.0-8.0-2.37","subject":"lvjhl069xyvh59p","sona":"7573"},{"rt":4410.720000043511,"stimulus":"<p>Welche Sequenz haben Sie als natürlicher empfunden?</p>","key_press":74,"test_part":"response","test_stimulus":{"position":1,"left":"bvh/vr_prediction_models/model(tmp)-dataset(pass-bottle-hold)-numprim(9)-hold(0)/final-lines.txt","right":"bvh/pass-bottle-hold-training0-lines.txt","att_check":false},"trial_type":"html-keyboard-response","trial_index":158,"time_elapsed":333370,"internal_node_id":"0.0-8.0-3.37","subject":"lvjhl069xyvh59p","sona":"7573"},{"rt":255.49999997019768,"stimulus":"<p>Bereit?</p>","key_press":32,"trial_type":"html-keyboard-response","trial_index":159,"time_elapsed":333638,"internal_node_id":"0.0-8.0-0.38","subject":"lvjhl069xyvh59p","sona":"7573"},{"rt":null,"stimulus":"<div style=\"font-size:60px;\">+</div>","key_press":null,"trial_type":"html-keyboard-response","trial_index":160,"time_elapsed":335659,"internal_node_id":"0.0-8.0-1.38","subject":"lvjhl069xyvh59p","sona":"7573"},{"trial_type":"turing-test","trial_index":161,"time_elapsed":339691,"internal_node_id":"0.0-8.0-2.38","subject":"lvjhl069xyvh59p","sona":"7573"},{"rt":218.32500002346933,"stimulus":"<p>Welche Sequenz haben Sie als natürlicher empfunden?</p>","key_press":74,"test_part":"response","test_stimulus":{"position":1,"left":"bvh/vr_prediction_models/model(vcgpdm)-dataset(pass-bottle-hold)-mode(ELBO)-parts(1)-dyn(20)-lvm(30)-hold(4)/final-lines.txt","right":"bvh/pass-bottle-hold-training4-lines.txt","att_check":false},"trial_type":"html-keyboard-response","trial_index":162,"time_elapsed":339945,"internal_node_id":"0.0-8.0-3.38","subject":"lvjhl069xyvh59p","sona":"7573"},{"rt":439.8899998050183,"stimulus":"<p>Bereit?</p>","key_press":32,"trial_type":"html-keyboard-response","trial_index":163,"time_elapsed":340406,"internal_node_id":"0.0-8.0-0.39","subject":"lvjhl069xyvh59p","sona":"7573"},{"rt":null,"stimulus":"<div style=\"font-size:60px;\">+</div>","key_press":null,"trial_type":"html-keyboard-response","trial_index":164,"time_elapsed":342432,"internal_node_id":"0.0-8.0-1.39","subject":"lvjhl069xyvh59p","sona":"7573"},{"trial_type":"turing-test","trial_index":165,"time_elapsed":349477,"internal_node_id":"0.0-8.0-2.39","subject":"lvjhl069xyvh59p","sona":"7573"},{"rt":41.89500003121793,"stimulus":"<p>Welche Sequenz haben Sie als natürlicher empfunden?</p>","key_press":70,"test_part":"response","test_stimulus":{"position":1,"left":"bvh/vr_prediction_models/model(vcgpdm)-dataset(pass-bottle)-mode(ELBO)-parts(3)-dyn(10)-lvm(25)-hold(0)/final-lines.txt","right":"bvh/pass-bottle-training0-lines.txt","att_check":false},"trial_type":"html-keyboard-response","trial_index":166,"time_elapsed":349547,"internal_node_id":"0.0-8.0-3.39","subject":"lvjhl069xyvh59p","sona":"7573"},{"rt":281.3999999780208,"stimulus":"<p>Bereit?</p>","key_press":32,"trial_type":"html-keyboard-response","trial_index":167,"time_elapsed":349848,"internal_node_id":"0.0-8.0-0.40","subject":"lvjhl069xyvh59p","sona":"7573"},{"rt":null,"stimulus":"<div style=\"font-size:60px;\">+</div>","key_press":null,"trial_type":"html-keyboard-response","trial_index":168,"time_elapsed":351879,"internal_node_id":"0.0-8.0-1.40","subject":"lvjhl069xyvh59p","sona":"7573"},{"trial_type":"turing-test","trial_index":169,"time_elapsed":355958,"internal_node_id":"0.0-8.0-2.40","subject":"lvjhl069xyvh59p","sona":"7573"},{"rt":531.5000000409782,"stimulus":"<p>Welche Sequenz haben Sie als natürlicher empfunden?</p>","key_press":70,"test_part":"response","test_stimulus":{"position":0,"left":"bvh/return-bottle-hold-training4-lines.txt","right":"bvh/vr_prediction_models/model(vcgpdm)-dataset(return-bottle-hold)-mode(ELBO)-parts(1)-dyn(10)-lvm(25)-hold(4)/final-lines.txt","att_check":false},"trial_type":"html-keyboard-response","trial_index":170,"time_elapsed":356518,"internal_node_id":"0.0-8.0-3.40","subject":"lvjhl069xyvh59p","sona":"7573"},{"rt":333.4699999541044,"stimulus":"<p>Bereit?</p>","key_press":32,"trial_type":"html-keyboard-response","trial_index":171,"time_elapsed":356875,"internal_node_id":"0.0-8.0-0.41","subject":"lvjhl069xyvh59p","sona":"7573"},{"rt":null,"stimulus":"<div style=\"font-size:60px;\">+</div>","key_press":null,"trial_type":"html-keyboard-response","trial_index":172,"time_elapsed":358896,"internal_node_id":"0.0-8.0-1.41","subject":"lvjhl069xyvh59p","sona":"7573"},{"trial_type":"turing-test","trial_index":173,"time_elapsed":362653,"internal_node_id":"0.0-8.0-2.41","subject":"lvjhl069xyvh59p","sona":"7573"},{"rt":446.54500018805265,"stimulus":"<p>Welche Sequenz haben Sie als natürlicher empfunden?</p>","key_press":70,"test_part":"response","test_stimulus":{"position":0,"left":"bvh/pass-bottle-hold-training0-lines.txt","right":"bvh/vr_prediction_models/model(vcgpdm)-dataset(pass-bottle-hold)-mode(ELBO)-parts(3)-dyn(25)-lvm(15)-hold(0)/final-lines.txt","att_check":false},"trial_type":"html-keyboard-response","trial_index":174,"time_elapsed":363132,"internal_node_id":"0.0-8.0-3.41","subject":"lvjhl069xyvh59p","sona":"7573"},{"rt":461.78000001236796,"stimulus":"<p>Bereit?</p>","key_press":32,"trial_type":"html-keyboard-response","trial_index":175,"time_elapsed":363614,"internal_node_id":"0.0-8.0-0.42","subject":"lvjhl069xyvh59p","sona":"7573"},{"rt":null,"stimulus":"<div style=\"font-size:60px;\">+</div>","key_press":null,"trial_type":"html-keyboard-response","trial_index":176,"time_elapsed":365637,"internal_node_id":"0.0-8.0-1.42","subject":"lvjhl069xyvh59p","sona":"7573"},{"trial_type":"turing-test","trial_index":177,"time_elapsed":371741,"internal_node_id":"0.0-8.0-2.42","subject":"lvjhl069xyvh59p","sona":"7573"},{"rt":308.0949999857694,"stimulus":"<p>Welche Sequenz haben Sie als natürlicher empfunden?</p>","key_press":74,"test_part":"response","test_stimulus":{"position":1,"left":"bvh/vr_prediction_models/model(vcgpdm)-dataset(pass-bottle)-mode(ELBO)-parts(1)-dyn(30)-lvm(35)-hold(4)/final-lines.txt","right":"bvh/pass-bottle-training4-lines.txt","att_check":false},"trial_type":"html-keyboard-response","trial_index":178,"time_elapsed":372080,"internal_node_id":"0.0-8.0-3.42","subject":"lvjhl069xyvh59p","sona":"7573"},{"rt":339.864999987185,"stimulus":"<p>Bereit?</p>","key_press":32,"trial_type":"html-keyboard-response","trial_index":179,"time_elapsed":372436,"internal_node_id":"0.0-8.0-0.43","subject":"lvjhl069xyvh59p","sona":"7573"},{"rt":null,"stimulus":"<div style=\"font-size:60px;\">+</div>","key_press":null,"trial_type":"html-keyboard-response","trial_index":180,"time_elapsed":374459,"internal_node_id":"0.0-8.0-1.43","subject":"lvjhl069xyvh59p","sona":"7573"},{"trial_type":"turing-test","trial_index":181,"time_elapsed":378509,"internal_node_id":"0.0-8.0-2.43","subject":"lvjhl069xyvh59p","sona":"7573"},{"rt":352.4150000885129,"stimulus":"<p>Welche Sequenz haben Sie als natürlicher empfunden?</p>","key_press":74,"test_part":"response","test_stimulus":{"position":1,"left":"bvh/vr_prediction_models/model(vcgpdm)-dataset(return-bottle-hold)-mode(ELBO)-parts(1)-dyn(20)-lvm(5)-hold(4)/final-lines.txt","right":"bvh/return-bottle-hold-training4-lines.txt","att_check":false},"trial_type":"html-keyboard-response","trial_index":182,"time_elapsed":378893,"internal_node_id":"0.0-8.0-3.43","subject":"lvjhl069xyvh59p","sona":"7573"},{"rt":376.3300001155585,"stimulus":"<p>Bereit?</p>","key_press":32,"trial_type":"html-keyboard-response","trial_index":183,"time_elapsed":379295,"internal_node_id":"0.0-8.0-0.44","subject":"lvjhl069xyvh59p","sona":"7573"},{"rt":null,"stimulus":"<div style=\"font-size:60px;\">+</div>","key_press":null,"trial_type":"html-keyboard-response","trial_index":184,"time_elapsed":381307,"internal_node_id":"0.0-8.0-1.44","subject":"lvjhl069xyvh59p","sona":"7573"},{"trial_type":"turing-test","trial_index":185,"time_elapsed":387480,"internal_node_id":"0.0-8.0-2.44","subject":"lvjhl069xyvh59p","sona":"7573"},{"rt":529.5499998610467,"stimulus":"<p>Welche Sequenz haben Sie als natürlicher empfunden?</p>","key_press":70,"test_part":"response","test_stimulus":{"position":0,"left":"bvh/pass-bottle-training3-lines.txt","right":"bvh/vr_prediction_models/model(vcgpdm)-dataset(pass-bottle)-mode(ELBO)-parts(3)-dyn(10)-lvm(25)-hold(3)/final-lines.txt","att_check":false},"trial_type":"html-keyboard-response","trial_index":186,"time_elapsed":388035,"internal_node_id":"0.0-8.0-3.44","subject":"lvjhl069xyvh59p","sona":"7573"},{"rt":273.5600001178682,"stimulus":"<p>Bereit?</p>","key_press":32,"trial_type":"html-keyboard-response","trial_index":187,"time_elapsed":388316,"internal_node_id":"0.0-8.0-0.45","subject":"lvjhl069xyvh59p","sona":"7573"},{"rt":null,"stimulus":"<div style=\"font-size:60px;\">+</div>","key_press":null,"trial_type":"html-keyboard-response","trial_index":188,"time_elapsed":390339,"internal_node_id":"0.0-8.0-1.45","subject":"lvjhl069xyvh59p","sona":"7573"},{"trial_type":"turing-test","trial_index":189,"time_elapsed":397100,"internal_node_id":"0.0-8.0-2.45","subject":"lvjhl069xyvh59p","sona":"7573"},{"rt":367.4200000241399,"stimulus":"<p>Welche Sequenz haben Sie als natürlicher empfunden?</p>","key_press":74,"test_part":"response","test_stimulus":{"position":1,"left":"bvh/vr_prediction_models/model(tmp)-dataset(return-bottle)-numprim(13)-hold(2)/final-lines.txt","right":"bvh/return-bottle-training2-lines.txt","att_check":false},"trial_type":"html-keyboard-response","trial_index":190,"time_elapsed":397515,"internal_node_id":"0.0-8.0-3.45","subject":"lvjhl069xyvh59p","sona":"7573"},{"rt":255.02000004053116,"stimulus":"<p>Bereit?</p>","key_press":32,"trial_type":"html-keyboard-response","trial_index":191,"time_elapsed":397800,"internal_node_id":"0.0-8.0-0.46","subject":"lvjhl069xyvh59p","sona":"7573"},{"rt":null,"stimulus":"<div style=\"font-size:60px;\">+</div>","key_press":null,"trial_type":"html-keyboard-response","trial_index":192,"time_elapsed":399834,"internal_node_id":"0.0-8.0-1.46","subject":"lvjhl069xyvh59p","sona":"7573"},{"trial_type":"turing-test","trial_index":193,"time_elapsed":403460,"internal_node_id":"0.0-8.0-2.46","subject":"lvjhl069xyvh59p","sona":"7573"},{"rt":925.8050001226366,"stimulus":"<p>Welche Sequenz haben Sie als natürlicher empfunden?</p>","key_press":70,"test_part":"response","test_stimulus":{"position":1,"left":"bvh/vr_prediction_models/model(tmp)-dataset(pass-bottle-hold)-numprim(7)-hold(3)/final-lines.txt","right":"bvh/pass-bottle-hold-training3-lines.txt","att_check":false},"trial_type":"html-keyboard-response","trial_index":194,"time_elapsed":404421,"internal_node_id":"0.0-8.0-3.46","subject":"lvjhl069xyvh59p","sona":"7573"},{"rt":301.3549998868257,"stimulus":"<p>Bereit?</p>","key_press":32,"trial_type":"html-keyboard-response","trial_index":195,"time_elapsed":404752,"internal_node_id":"0.0-8.0-0.47","subject":"lvjhl069xyvh59p","sona":"7573"},{"rt":null,"stimulus":"<div style=\"font-size:60px;\">+</div>","key_press":null,"trial_type":"html-keyboard-response","trial_index":196,"time_elapsed":406775,"internal_node_id":"0.0-8.0-1.47","subject":"lvjhl069xyvh59p","sona":"7573"},{"trial_type":"turing-test","trial_index":197,"time_elapsed":410315,"internal_node_id":"0.0-8.0-2.47","subject":"lvjhl069xyvh59p","sona":"7573"},{"rt":107.11499978788197,"stimulus":"<p>Welche Sequenz haben Sie als natürlicher empfunden?</p>","key_press":74,"test_part":"response","test_stimulus":{"position":0,"left":"bvh/pass-bottle-hold-training0-lines.txt","right":"bvh/vr_prediction_models/model(tmp)-dataset(pass-bottle-hold)-numprim(3)-hold(0)/final-lines.txt","att_check":false},"trial_type":"html-keyboard-response","trial_index":198,"time_elapsed":410460,"internal_node_id":"0.0-8.0-3.47","subject":"lvjhl069xyvh59p","sona":"7573"},{"rt":618.1050001177937,"stimulus":"<p>Bereit?</p>","key_press":32,"trial_type":"html-keyboard-response","trial_index":199,"time_elapsed":411100,"internal_node_id":"0.0-8.0-0.48","subject":"lvjhl069xyvh59p","sona":"7573"},{"rt":null,"stimulus":"<div style=\"font-size:60px;\">+</div>","key_press":null,"trial_type":"html-keyboard-response","trial_index":200,"time_elapsed":413119,"internal_node_id":"0.0-8.0-1.48","subject":"lvjhl069xyvh59p","sona":"7573"},{"trial_type":"turing-test","trial_index":201,"time_elapsed":418458,"internal_node_id":"0.0-8.0-2.48","subject":"lvjhl069xyvh59p","sona":"7573"},{"rt":465.41499998420477,"stimulus":"<p>Welche Sequenz haben Sie als natürlicher empfunden?</p>","key_press":70,"test_part":"response","test_stimulus":{"position":0,"left":"bvh/return-bottle-hold-training0-lines.txt","right":"bvh/vr_prediction_models/model(tmp)-dataset(return-bottle-hold)-numprim(7)-hold(0)/final-lines.txt","att_check":false},"trial_type":"html-keyboard-response","trial_index":202,"time_elapsed":418951,"internal_node_id":"0.0-8.0-3.48","subject":"lvjhl069xyvh59p","sona":"7573"},{"rt":275.08499985560775,"stimulus":"<p>Bereit?</p>","key_press":32,"trial_type":"html-keyboard-response","trial_index":203,"time_elapsed":419261,"internal_node_id":"0.0-8.0-0.49","subject":"lvjhl069xyvh59p","sona":"7573"},{"rt":null,"stimulus":"<div style=\"font-size:60px;\">+</div>","key_press":null,"trial_type":"html-keyboard-response","trial_index":204,"time_elapsed":421289,"internal_node_id":"0.0-8.0-1.49","subject":"lvjhl069xyvh59p","sona":"7573"},{"trial_type":"turing-test","trial_index":205,"time_elapsed":427773,"internal_node_id":"0.0-8.0-2.49","subject":"lvjhl069xyvh59p","sona":"7573"},{"rt":408.4000000730157,"stimulus":"<p>Welche Sequenz haben Sie als natürlicher empfunden?</p>","key_press":70,"test_part":"response","test_stimulus":{"position":0,"left":"bvh/pass-bottle-training2-lines.txt","right":"bvh/vr_prediction_models/model(vcgpdm)-dataset(pass-bottle)-mode(ELBO)-parts(3)-dyn(20)-lvm(15)-hold(2)/final-lines.txt","att_check":false},"trial_type":"html-keyboard-response","trial_index":206,"time_elapsed":428219,"internal_node_id":"0.0-8.0-3.49","subject":"lvjhl069xyvh59p","sona":"7573"},{"rt":324.724999954924,"stimulus":"<p>Bereit?</p>","key_press":32,"trial_type":"html-keyboard-response","trial_index":207,"time_elapsed":428574,"internal_node_id":"0.0-8.0-0.50","subject":"lvjhl069xyvh59p","sona":"7573"},{"rt":null,"stimulus":"<div style=\"font-size:60px;\">+</div>","key_press":null,"trial_type":"html-keyboard-response","trial_index":208,"time_elapsed":430583,"internal_node_id":"0.0-8.0-1.50","subject":"lvjhl069xyvh59p","sona":"7573"},{"trial_type":"turing-test","trial_index":209,"time_elapsed":434723,"internal_node_id":"0.0-8.0-2.50","subject":"lvjhl069xyvh59p","sona":"7573"},{"rt":529.7099999152124,"stimulus":"<p>Welche Sequenz haben Sie als natürlicher empfunden?</p>","key_press":74,"test_part":"response","test_stimulus":{"position":1,"left":"bvh/vr_prediction_models/model(vcgpdm)-dataset(return-bottle-hold)-mode(ELBO)-parts(1)-dyn(25)-lvm(35)-hold(4)/final-lines.txt","right":"bvh/return-bottle-hold-training4-lines.txt","att_check":false},"trial_type":"html-keyboard-response","trial_index":210,"time_elapsed":435287,"internal_node_id":"0.0-8.0-3.50","subject":"lvjhl069xyvh59p","sona":"7573"},{"rt":270.8250000141561,"stimulus":"<p>Bereit?</p>","key_press":32,"trial_type":"html-keyboard-response","trial_index":211,"time_elapsed":435582,"internal_node_id":"0.0-8.0-0.51","subject":"lvjhl069xyvh59p","sona":"7573"},{"rt":null,"stimulus":"<div style=\"font-size:60px;\">+</div>","key_press":null,"trial_type":"html-keyboard-response","trial_index":212,"time_elapsed":437604,"internal_node_id":"0.0-8.0-1.51","subject":"lvjhl069xyvh59p","sona":"7573"},{"trial_type":"turing-test","trial_index":213,"time_elapsed":443335,"internal_node_id":"0.0-8.0-2.51","subject":"lvjhl069xyvh59p","sona":"7573"},{"rt":292.7750002127141,"stimulus":"<p>Welche Sequenz haben Sie als natürlicher empfunden?</p>","key_press":74,"test_part":"response","test_stimulus":{"position":1,"left":"bvh/vr_prediction_models/model(vcgpdm)-dataset(return-bottle)-mode(ELBO)-parts(3)-dyn(30)-lvm(15)-hold(0)/final-lines.txt","right":"bvh/return-bottle-training0-lines.txt","att_check":false},"trial_type":"html-keyboard-response","trial_index":214,"time_elapsed":443663,"internal_node_id":"0.0-8.0-3.51","subject":"lvjhl069xyvh59p","sona":"7573"},{"rt":393.18000013008714,"stimulus":"<p>Bereit?</p>","key_press":32,"trial_type":"html-keyboard-response","trial_index":215,"time_elapsed":444092,"internal_node_id":"0.0-8.0-0.52","subject":"lvjhl069xyvh59p","sona":"7573"},{"rt":null,"stimulus":"<div style=\"font-size:60px;\">+</div>","key_press":null,"trial_type":"html-keyboard-response","trial_index":216,"time_elapsed":446114,"internal_node_id":"0.0-8.0-1.52","subject":"lvjhl069xyvh59p","sona":"7573"},{"trial_type":"turing-test","trial_index":217,"time_elapsed":451981,"internal_node_id":"0.0-8.0-2.52","subject":"lvjhl069xyvh59p","sona":"7573"},{"rt":476.81500017642975,"stimulus":"<p>Welche Sequenz haben Sie als natürlicher empfunden?</p>","key_press":74,"test_part":"response","test_stimulus":{"position":1,"left":"bvh/vr_prediction_models/model(vcgpdm)-dataset(pass-bottle)-mode(ELBO)-parts(1)-dyn(30)-lvm(20)-hold(1)/final-lines.txt","right":"bvh/pass-bottle-training1-lines.txt","att_check":false},"trial_type":"html-keyboard-response","trial_index":218,"time_elapsed":452468,"internal_node_id":"0.0-8.0-3.52","subject":"lvjhl069xyvh59p","sona":"7573"},{"rt":286.0300000756979,"stimulus":"<p>Bereit?</p>","key_press":32,"trial_type":"html-keyboard-response","trial_index":219,"time_elapsed":452762,"internal_node_id":"0.0-8.0-0.53","subject":"lvjhl069xyvh59p","sona":"7573"},{"rt":null,"stimulus":"<div style=\"font-size:60px;\">+</div>","key_press":null,"trial_type":"html-keyboard-response","trial_index":220,"time_elapsed":454785,"internal_node_id":"0.0-8.0-1.53","subject":"lvjhl069xyvh59p","sona":"7573"},{"trial_type":"turing-test","trial_index":221,"time_elapsed":460758,"internal_node_id":"0.0-8.0-2.53","subject":"lvjhl069xyvh59p","sona":"7573"},{"rt":792.8249998949468,"stimulus":"<p>Welche Sequenz haben Sie als natürlicher empfunden?</p>","key_press":74,"test_part":"response","test_stimulus":{"position":0,"left":"bvh/pass-bottle-training3-lines.txt","right":"bvh/vr_prediction_models/model(tmp)-dataset(pass-bottle)-numprim(9)-hold(3)/final-lines.txt","att_check":false},"trial_type":"html-keyboard-response","trial_index":222,"time_elapsed":461586,"internal_node_id":"0.0-8.0-3.53","subject":"lvjhl069xyvh59p","sona":"7573"},{"rt":353.3350001089275,"stimulus":"<p>Bereit?</p>","key_press":32,"trial_type":"html-keyboard-response","trial_index":223,"time_elapsed":461973,"internal_node_id":"0.0-8.0-0.54","subject":"lvjhl069xyvh59p","sona":"7573"},{"rt":null,"stimulus":"<div style=\"font-size:60px;\">+</div>","key_press":null,"trial_type":"html-keyboard-response","trial_index":224,"time_elapsed":463990,"internal_node_id":"0.0-8.0-1.54","subject":"lvjhl069xyvh59p","sona":"7573"},{"trial_type":"turing-test","trial_index":225,"time_elapsed":470280,"internal_node_id":"0.0-8.0-2.54","subject":"lvjhl069xyvh59p","sona":"7573"},{"rt":634.6599999815226,"stimulus":"<p>Welche Sequenz haben Sie als natürlicher empfunden?</p>","key_press":70,"test_part":"response","test_stimulus":{"position":0,"left":"bvh/return-bottle-training1-lines.txt","right":"bvh/vr_prediction_models/model(dmp)-dataset(return-bottle)-npsi(80)-hold(1)/final-lines.txt","att_check":false},"trial_type":"html-keyboard-response","trial_index":226,"time_elapsed":470949,"internal_node_id":"0.0-8.0-3.54","subject":"lvjhl069xyvh59p","sona":"7573"},{"rt":744.3899998907,"stimulus":"<p>Bereit?</p>","key_press":32,"trial_type":"html-keyboard-response","trial_index":227,"time_elapsed":471720,"internal_node_id":"0.0-8.0-0.55","subject":"lvjhl069xyvh59p","sona":"7573"},{"rt":null,"stimulus":"<div style=\"font-size:60px;\">+</div>","key_press":null,"trial_type":"html-keyboard-response","trial_index":228,"time_elapsed":473742,"internal_node_id":"0.0-8.0-1.55","subject":"lvjhl069xyvh59p","sona":"7573"},{"trial_type":"turing-test","trial_index":229,"time_elapsed":477099,"internal_node_id":"0.0-8.0-2.55","subject":"lvjhl069xyvh59p","sona":"7573"},{"rt":528.4599999431521,"stimulus":"<p>Welche Sequenz haben Sie als natürlicher empfunden?</p>","key_press":74,"test_part":"response","test_stimulus":{"position":1,"left":"bvh/vr_prediction_models/model(tmp)-dataset(pass-bottle-hold)-numprim(6)-hold(1)/final-lines.txt","right":"bvh/pass-bottle-hold-training1-lines.txt","att_check":false},"trial_type":"html-keyboard-response","trial_index":230,"time_elapsed":477661,"internal_node_id":"0.0-8.0-3.55","subject":"lvjhl069xyvh59p","sona":"7573"},{"rt":324.20000014826655,"stimulus":"<p>Bereit?</p>","key_press":32,"trial_type":"html-keyboard-response","trial_index":231,"time_elapsed":478026,"internal_node_id":"0.0-8.0-0.56","subject":"lvjhl069xyvh59p","sona":"7573"},{"rt":null,"stimulus":"<div style=\"font-size:60px;\">+</div>","key_press":null,"trial_type":"html-keyboard-response","trial_index":232,"time_elapsed":480057,"internal_node_id":"0.0-8.0-1.56","subject":"lvjhl069xyvh59p","sona":"7573"},{"trial_type":"turing-test","trial_index":233,"time_elapsed":486272,"internal_node_id":"0.0-8.0-2.56","subject":"lvjhl069xyvh59p","sona":"7573"},{"rt":361.03500006720424,"stimulus":"<p>Welche Sequenz haben Sie als natürlicher empfunden?</p>","key_press":70,"test_part":"response","test_stimulus":{"position":0,"left":"bvh/return-bottle-training4-lines.txt","right":"bvh/vr_prediction_models/model(vcgpdm)-dataset(return-bottle)-mode(ELBO)-parts(3)-dyn(25)-lvm(15)-hold(4)/final-lines.txt","att_check":false},"trial_type":"html-keyboard-response","trial_index":234,"time_elapsed":486670,"internal_node_id":"0.0-8.0-3.56","subject":"lvjhl069xyvh59p","sona":"7573"},{"rt":304.6099999919534,"stimulus":"<p>Bereit?</p>","key_press":32,"trial_type":"html-keyboard-response","trial_index":235,"time_elapsed":486999,"internal_node_id":"0.0-8.0-0.57","subject":"lvjhl069xyvh59p","sona":"7573"},{"rt":null,"stimulus":"<div style=\"font-size:60px;\">+</div>","key_press":null,"trial_type":"html-keyboard-response","trial_index":236,"time_elapsed":489027,"internal_node_id":"0.0-8.0-1.57","subject":"lvjhl069xyvh59p","sona":"7573"},{"trial_type":"turing-test","trial_index":237,"time_elapsed":492949,"internal_node_id":"0.0-8.0-2.57","subject":"lvjhl069xyvh59p","sona":"7573"},{"rt":290.525000076741,"stimulus":"<p>Welche Sequenz haben Sie als natürlicher empfunden?</p>","key_press":70,"test_part":"response","test_stimulus":{"position":0,"left":"bvh/return-bottle-hold-training3-lines.txt","right":"bvh/vr_prediction_models/model(tmp)-dataset(return-bottle-hold)-numprim(13)-hold(3)/final-lines.txt","att_check":false},"trial_type":"html-keyboard-response","trial_index":238,"time_elapsed":493293,"internal_node_id":"0.0-8.0-3.57","subject":"lvjhl069xyvh59p","sona":"7573"},{"rt":529.2299999855459,"stimulus":"<p>Bereit?</p>","key_press":32,"trial_type":"html-keyboard-response","trial_index":239,"time_elapsed":493838,"internal_node_id":"0.0-8.0-0.58","subject":"lvjhl069xyvh59p","sona":"7573"},{"rt":null,"stimulus":"<div style=\"font-size:60px;\">+</div>","key_press":null,"trial_type":"html-keyboard-response","trial_index":240,"time_elapsed":495871,"internal_node_id":"0.0-8.0-1.58","subject":"lvjhl069xyvh59p","sona":"7573"},{"trial_type":"turing-test","trial_index":241,"time_elapsed":499292,"internal_node_id":"0.0-8.0-2.58","subject":"lvjhl069xyvh59p","sona":"7573"},{"rt":574.5100001804531,"stimulus":"<p>Welche Sequenz haben Sie als natürlicher empfunden?</p>","key_press":70,"test_part":"response","test_stimulus":{"position":1,"left":"bvh/vr_prediction_models/model(vcgpdm)-dataset(pass-bottle-hold)-mode(ELBO)-parts(1)-dyn(30)-lvm(20)-hold(0)/final-lines.txt","right":"bvh/pass-bottle-hold-training0-lines.txt","att_check":false},"trial_type":"html-keyboard-response","trial_index":242,"time_elapsed":499898,"internal_node_id":"0.0-8.0-3.58","subject":"lvjhl069xyvh59p","sona":"7573"},{"rt":214.94500013068318,"stimulus":"<p>Bereit?</p>","key_press":32,"trial_type":"html-keyboard-response","trial_index":243,"time_elapsed":500138,"internal_node_id":"0.0-8.0-0.59","subject":"lvjhl069xyvh59p","sona":"7573"},{"rt":null,"stimulus":"<div style=\"font-size:60px;\">+</div>","key_press":null,"trial_type":"html-keyboard-response","trial_index":244,"time_elapsed":502168,"internal_node_id":"0.0-8.0-1.59","subject":"lvjhl069xyvh59p","sona":"7573"},{"trial_type":"turing-test","trial_index":245,"time_elapsed":508137,"internal_node_id":"0.0-8.0-2.59","subject":"lvjhl069xyvh59p","sona":"7573"},{"rt":521.5600000228733,"stimulus":"<p>Welche Sequenz haben Sie als natürlicher empfunden?</p>","key_press":70,"test_part":"response","test_stimulus":{"position":0,"left":"bvh/return-bottle-training3-lines.txt","right":"bvh/vr_prediction_models/model(tmp)-dataset(return-bottle)-numprim(13)-hold(3)/final-lines.txt","att_check":false},"trial_type":"html-keyboard-response","trial_index":246,"time_elapsed":508696,"internal_node_id":"0.0-8.0-3.59","subject":"lvjhl069xyvh59p","sona":"7573"},{"rt":257.62499985285103,"stimulus":"<p>Bereit?</p>","key_press":32,"trial_type":"html-keyboard-response","trial_index":247,"time_elapsed":508989,"internal_node_id":"0.0-8.0-0.60","subject":"lvjhl069xyvh59p","sona":"7573"},{"rt":null,"stimulus":"<div style=\"font-size:60px;\">+</div>","key_press":null,"trial_type":"html-keyboard-response","trial_index":248,"time_elapsed":511014,"internal_node_id":"0.0-8.0-1.60","subject":"lvjhl069xyvh59p","sona":"7573"},{"trial_type":"turing-test","trial_index":249,"time_elapsed":516324,"internal_node_id":"0.0-8.0-2.60","subject":"lvjhl069xyvh59p","sona":"7573"},{"rt":523.3500001486391,"stimulus":"<p>Welche Sequenz haben Sie als natürlicher empfunden?</p>","key_press":70,"test_part":"response","test_stimulus":{"position":0,"left":"bvh/return-bottle-hold-training0-lines.txt","right":"bvh/vr_prediction_models/model(tmp)-dataset(return-bottle-hold)-numprim(4)-hold(0)/final-lines.txt","att_check":false},"trial_type":"html-keyboard-response","trial_index":250,"time_elapsed":516881,"internal_node_id":"0.0-8.0-3.60","subject":"lvjhl069xyvh59p","sona":"7573"},{"rt":399.68499983660877,"stimulus":"<p>Bereit?</p>","key_press":32,"trial_type":"html-keyboard-response","trial_index":251,"time_elapsed":517319,"internal_node_id":"0.0-8.0-0.61","subject":"lvjhl069xyvh59p","sona":"7573"},{"rt":null,"stimulus":"<div style=\"font-size:60px;\">+</div>","key_press":null,"trial_type":"html-keyboard-response","trial_index":252,"time_elapsed":519348,"internal_node_id":"0.0-8.0-1.61","subject":"lvjhl069xyvh59p","sona":"7573"},{"trial_type":"turing-test","trial_index":253,"time_elapsed":523304,"internal_node_id":"0.0-8.0-2.61","subject":"lvjhl069xyvh59p","sona":"7573"},{"rt":565.229999832809,"stimulus":"<p>Welche Sequenz haben Sie als natürlicher empfunden?</p>","key_press":70,"test_part":"response","test_stimulus":{"position":0,"left":"bvh/return-bottle-hold-training3-lines.txt","right":"bvh/vr_prediction_models/model(vcgpdm)-dataset(return-bottle-hold)-mode(ELBO)-parts(1)-dyn(15)-lvm(35)-hold(3)/final-lines.txt","att_check":false},"trial_type":"html-keyboard-response","trial_index":254,"time_elapsed":523914,"internal_node_id":"0.0-8.0-3.61","subject":"lvjhl069xyvh59p","sona":"7573"},{"rt":258.4800000768155,"stimulus":"<p>Bereit?</p>","key_press":32,"trial_type":"html-keyboard-response","trial_index":255,"time_elapsed":524206,"internal_node_id":"0.0-8.0-0.62","subject":"lvjhl069xyvh59p","sona":"7573"},{"rt":null,"stimulus":"<div style=\"font-size:60px;\">+</div>","key_press":null,"trial_type":"html-keyboard-response","trial_index":256,"time_elapsed":526215,"internal_node_id":"0.0-8.0-1.62","subject":"lvjhl069xyvh59p","sona":"7573"},{"trial_type":"turing-test","trial_index":257,"time_elapsed":530184,"internal_node_id":"0.0-8.0-2.62","subject":"lvjhl069xyvh59p","sona":"7573"},{"rt":510.06999984383583,"stimulus":"<p>Welche Sequenz haben Sie als natürlicher empfunden?</p>","key_press":70,"test_part":"response","test_stimulus":{"position":0,"left":"bvh/return-bottle-hold-training3-lines.txt","right":"bvh/vr_prediction_models/model(vcgpdm)-dataset(return-bottle-hold)-mode(ELBO)-parts(1)-dyn(20)-lvm(30)-hold(3)/final-lines.txt","att_check":false},"trial_type":"html-keyboard-response","trial_index":258,"time_elapsed":530718,"internal_node_id":"0.0-8.0-3.62","subject":"lvjhl069xyvh59p","sona":"7573"},{"rt":302.3599998559803,"stimulus":"<p>Bereit?</p>","key_press":32,"trial_type":"html-keyboard-response","trial_index":259,"time_elapsed":531047,"internal_node_id":"0.0-8.0-0.63","subject":"lvjhl069xyvh59p","sona":"7573"},{"rt":null,"stimulus":"<div style=\"font-size:60px;\">+</div>","key_press":null,"trial_type":"html-keyboard-response","trial_index":260,"time_elapsed":533069,"internal_node_id":"0.0-8.0-1.63","subject":"lvjhl069xyvh59p","sona":"7573"},{"trial_type":"turing-test","trial_index":261,"time_elapsed":539521,"internal_node_id":"0.0-8.0-2.63","subject":"lvjhl069xyvh59p","sona":"7573"},{"rt":471.06499993242323,"stimulus":"<p>Welche Sequenz haben Sie als natürlicher empfunden?</p>","key_press":74,"test_part":"response","test_stimulus":{"position":1,"left":"bvh/vr_prediction_models/model(vcgpdm)-dataset(pass-bottle)-mode(ELBO)-parts(1)-dyn(10)-lvm(30)-hold(2)/final-lines.txt","right":"bvh/pass-bottle-training2-lines.txt","att_check":false},"trial_type":"html-keyboard-response","trial_index":262,"time_elapsed":540032,"internal_node_id":"0.0-8.0-3.63","subject":"lvjhl069xyvh59p","sona":"7573"},{"rt":307.04499990679324,"stimulus":"<p>Bereit?</p>","key_press":32,"trial_type":"html-keyboard-response","trial_index":263,"time_elapsed":540368,"internal_node_id":"0.0-8.0-0.64","subject":"lvjhl069xyvh59p","sona":"7573"},{"rt":null,"stimulus":"<div style=\"font-size:60px;\">+</div>","key_press":null,"trial_type":"html-keyboard-response","trial_index":264,"time_elapsed":542390,"internal_node_id":"0.0-8.0-1.64","subject":"lvjhl069xyvh59p","sona":"7573"},{"trial_type":"turing-test","trial_index":265,"time_elapsed":547665,"internal_node_id":"0.0-8.0-2.64","subject":"lvjhl069xyvh59p","sona":"7573"},{"rt":962.7499999478459,"stimulus":"<p>Welche Sequenz haben Sie als natürlicher empfunden?</p>","key_press":70,"test_part":"response","test_stimulus":{"position":0,"left":"bvh/return-bottle-hold-training0-lines.txt","right":"bvh/vr_prediction_models/model(dmp)-dataset(return-bottle-hold)-npsi(80)-hold(0)/final-lines.txt","att_check":true},"trial_type":"html-keyboard-response","trial_index":266,"time_elapsed":548665,"internal_node_id":"0.0-8.0-3.64","subject":"lvjhl069xyvh59p","sona":"7573"},{"rt":402.3550001438707,"stimulus":"<p>Bereit?</p>","key_press":32,"trial_type":"html-keyboard-response","trial_index":267,"time_elapsed":549107,"internal_node_id":"0.0-8.0-0.65","subject":"lvjhl069xyvh59p","sona":"7573"},{"rt":null,"stimulus":"<div style=\"font-size:60px;\">+</div>","key_press":null,"trial_type":"html-keyboard-response","trial_index":268,"time_elapsed":551136,"internal_node_id":"0.0-8.0-1.65","subject":"lvjhl069xyvh59p","sona":"7573"},{"trial_type":"turing-test","trial_index":269,"time_elapsed":556931,"internal_node_id":"0.0-8.0-2.65","subject":"lvjhl069xyvh59p","sona":"7573"},{"rt":649.4050000328571,"stimulus":"<p>Welche Sequenz haben Sie als natürlicher empfunden?</p>","key_press":70,"test_part":"response","test_stimulus":{"position":0,"left":"bvh/pass-bottle-training1-lines.txt","right":"bvh/vr_prediction_models/model(vcgpdm)-dataset(pass-bottle)-mode(ELBO)-parts(3)-dyn(10)-lvm(25)-hold(1)/final-lines.txt","att_check":false},"trial_type":"html-keyboard-response","trial_index":270,"time_elapsed":557622,"internal_node_id":"0.0-8.0-3.65","subject":"lvjhl069xyvh59p","sona":"7573"},{"rt":277.35499991104007,"stimulus":"<p>Bereit?</p>","key_press":32,"trial_type":"html-keyboard-response","trial_index":271,"time_elapsed":557938,"internal_node_id":"0.0-8.0-0.66","subject":"lvjhl069xyvh59p","sona":"7573"},{"rt":null,"stimulus":"<div style=\"font-size:60px;\">+</div>","key_press":null,"trial_type":"html-keyboard-response","trial_index":272,"time_elapsed":559951,"internal_node_id":"0.0-8.0-1.66","subject":"lvjhl069xyvh59p","sona":"7573"},{"trial_type":"turing-test","trial_index":273,"time_elapsed":565932,"internal_node_id":"0.0-8.0-2.66","subject":"lvjhl069xyvh59p","sona":"7573"},{"rt":485.080000013113,"stimulus":"<p>Welche Sequenz haben Sie als natürlicher empfunden?</p>","key_press":74,"test_part":"response","test_stimulus":{"position":0,"left":"bvh/return-bottle-training3-lines.txt","right":"bvh/vr_prediction_models/model(dmp)-dataset(return-bottle)-npsi(80)-hold(3)/final-lines.txt","att_check":false},"trial_type":"html-keyboard-response","trial_index":274,"time_elapsed":566459,"internal_node_id":"0.0-8.0-3.66","subject":"lvjhl069xyvh59p","sona":"7573"},{"rt":1739.4049998838454,"stimulus":"<p>Bereit?</p>","key_press":32,"trial_type":"html-keyboard-response","trial_index":275,"time_elapsed":568226,"internal_node_id":"0.0-8.0-0.67","subject":"lvjhl069xyvh59p","sona":"7573"},{"rt":null,"stimulus":"<div style=\"font-size:60px;\">+</div>","key_press":null,"trial_type":"html-keyboard-response","trial_index":276,"time_elapsed":570248,"internal_node_id":"0.0-8.0-1.67","subject":"lvjhl069xyvh59p","sona":"7573"},{"trial_type":"turing-test","trial_index":277,"time_elapsed":576103,"internal_node_id":"0.0-8.0-2.67","subject":"lvjhl069xyvh59p","sona":"7573"},{"rt":391.60499977879226,"stimulus":"<p>Welche Sequenz haben Sie als natürlicher empfunden?</p>","key_press":74,"test_part":"response","test_stimulus":{"position":1,"left":"bvh/vr_prediction_models/model(vcgpdm)-dataset(return-bottle)-mode(ELBO)-parts(1)-dyn(10)-lvm(25)-hold(0)/final-lines.txt","right":"bvh/return-bottle-training0-lines.txt","att_check":false},"trial_type":"html-keyboard-response","trial_index":278,"time_elapsed":576545,"internal_node_id":"0.0-8.0-3.67","subject":"lvjhl069xyvh59p","sona":"7573"},{"rt":951.1049999855459,"stimulus":"<p>Bereit?</p>","key_press":32,"trial_type":"html-keyboard-response","trial_index":279,"time_elapsed":577525,"internal_node_id":"0.0-8.0-0.68","subject":"lvjhl069xyvh59p","sona":"7573"},{"rt":null,"stimulus":"<div style=\"font-size:60px;\">+</div>","key_press":null,"trial_type":"html-keyboard-response","trial_index":280,"time_elapsed":579540,"internal_node_id":"0.0-8.0-1.68","subject":"lvjhl069xyvh59p","sona":"7573"},{"trial_type":"turing-test","trial_index":281,"time_elapsed":585885,"internal_node_id":"0.0-8.0-2.68","subject":"lvjhl069xyvh59p","sona":"7573"},{"rt":523.9750000182539,"stimulus":"<p>Welche Sequenz haben Sie als natürlicher empfunden?</p>","key_press":70,"test_part":"response","test_stimulus":{"position":0,"left":"bvh/pass-bottle-training3-lines.txt","right":"bvh/vr_prediction_models/model(vcgpdm)-dataset(pass-bottle)-mode(ELBO)-parts(1)-dyn(10)-lvm(30)-hold(3)/final-lines.txt","att_check":false},"trial_type":"html-keyboard-response","trial_index":282,"time_elapsed":586454,"internal_node_id":"0.0-8.0-3.68","subject":"lvjhl069xyvh59p","sona":"7573"},{"rt":565.0700000114739,"stimulus":"<p>Bereit?</p>","key_press":32,"trial_type":"html-keyboard-response","trial_index":283,"time_elapsed":587027,"internal_node_id":"0.0-8.0-0.69","subject":"lvjhl069xyvh59p","sona":"7573"},{"rt":null,"stimulus":"<div style=\"font-size:60px;\">+</div>","key_press":null,"trial_type":"html-keyboard-response","trial_index":284,"time_elapsed":589050,"internal_node_id":"0.0-8.0-1.69","subject":"lvjhl069xyvh59p","sona":"7573"},{"trial_type":"turing-test","trial_index":285,"time_elapsed":592477,"internal_node_id":"0.0-8.0-2.69","subject":"lvjhl069xyvh59p","sona":"7573"},{"rt":383.1400000490248,"stimulus":"<p>Welche Sequenz haben Sie als natürlicher empfunden?</p>","key_press":74,"test_part":"response","test_stimulus":{"position":1,"left":"bvh/vr_prediction_models/model(tmp)-dataset(return-bottle-hold)-numprim(10)-hold(1)/final-lines.txt","right":"bvh/return-bottle-hold-training1-lines.txt","att_check":false},"trial_type":"html-keyboard-response","trial_index":286,"time_elapsed":592871,"internal_node_id":"0.0-8.0-3.69","subject":"lvjhl069xyvh59p","sona":"7573"},{"rt":293.5150000266731,"stimulus":"<p>Bereit?</p>","key_press":32,"trial_type":"html-keyboard-response","trial_index":287,"time_elapsed":593175,"internal_node_id":"0.0-8.0-0.70","subject":"lvjhl069xyvh59p","sona":"7573"},{"rt":null,"stimulus":"<div style=\"font-size:60px;\">+</div>","key_press":null,"trial_type":"html-keyboard-response","trial_index":288,"time_elapsed":595199,"internal_node_id":"0.0-8.0-1.70","subject":"lvjhl069xyvh59p","sona":"7573"},{"trial_type":"turing-test","trial_index":289,"time_elapsed":601005,"internal_node_id":"0.0-8.0-2.70","subject":"lvjhl069xyvh59p","sona":"7573"},{"rt":324.39500000327826,"stimulus":"<p>Welche Sequenz haben Sie als natürlicher empfunden?</p>","key_press":70,"test_part":"response","test_stimulus":{"position":0,"left":"bvh/return-bottle-training0-lines.txt","right":"bvh/vr_prediction_models/model(vcgpdm)-dataset(return-bottle)-mode(ELBO)-parts(1)-dyn(20)-lvm(30)-hold(0)/final-lines.txt","att_check":false},"trial_type":"html-keyboard-response","trial_index":290,"time_elapsed":601365,"internal_node_id":"0.0-8.0-3.70","subject":"lvjhl069xyvh59p","sona":"7573"},{"rt":307.77499987743795,"stimulus":"<p>Bereit?</p>","key_press":32,"trial_type":"html-keyboard-response","trial_index":291,"time_elapsed":601704,"internal_node_id":"0.0-8.0-0.71","subject":"lvjhl069xyvh59p","sona":"7573"},{"rt":null,"stimulus":"<div style=\"font-size:60px;\">+</div>","key_press":null,"trial_type":"html-keyboard-response","trial_index":292,"time_elapsed":603723,"internal_node_id":"0.0-8.0-1.71","subject":"lvjhl069xyvh59p","sona":"7573"},{"trial_type":"turing-test","trial_index":293,"time_elapsed":607445,"internal_node_id":"0.0-8.0-2.71","subject":"lvjhl069xyvh59p","sona":"7573"},{"rt":1506.5850000828505,"stimulus":"<p>Welche Sequenz haben Sie als natürlicher empfunden?</p>","key_press":74,"test_part":"response","test_stimulus":{"position":1,"left":"bvh/vr_prediction_models/model(tmp)-dataset(pass-bottle-hold)-numprim(8)-hold(3)/final-lines.txt","right":"bvh/pass-bottle-hold-training3-lines.txt","att_check":false},"trial_type":"html-keyboard-response","trial_index":294,"time_elapsed":608987,"internal_node_id":"0.0-8.0-3.71","subject":"lvjhl069xyvh59p","sona":"7573"},{"rt":368.3449998497963,"stimulus":"<p>Bereit?</p>","key_press":32,"trial_type":"html-keyboard-response","trial_index":295,"time_elapsed":609393,"internal_node_id":"0.0-8.0-0.72","subject":"lvjhl069xyvh59p","sona":"7573"},{"rt":null,"stimulus":"<div style=\"font-size:60px;\">+</div>","key_press":null,"trial_type":"html-keyboard-response","trial_index":296,"time_elapsed":611408,"internal_node_id":"0.0-8.0-1.72","subject":"lvjhl069xyvh59p","sona":"7573"},{"trial_type":"turing-test","trial_index":297,"time_elapsed":615049,"internal_node_id":"0.0-8.0-2.72","subject":"lvjhl069xyvh59p","sona":"7573"},{"rt":1236.975000007078,"stimulus":"<p>Welche Sequenz haben Sie als natürlicher empfunden?</p>","key_press":74,"test_part":"response","test_stimulus":{"position":1,"left":"bvh/vr_prediction_models/model(vcgpdm)-dataset(pass-bottle-hold)-mode(ELBO)-parts(1)-dyn(20)-lvm(20)-hold(1)/final-lines.txt","right":"bvh/pass-bottle-hold-training1-lines.txt","att_check":false},"trial_type":"html-keyboard-response","trial_index":298,"time_elapsed":616310,"internal_node_id":"0.0-8.0-3.72","subject":"lvjhl069xyvh59p","sona":"7573"},{"rt":452.19999994151294,"stimulus":"<p>Bereit?</p>","key_press":32,"trial_type":"html-keyboard-response","trial_index":299,"time_elapsed":616791,"internal_node_id":"0.0-8.0-0.73","subject":"lvjhl069xyvh59p","sona":"7573"},{"rt":null,"stimulus":"<div style=\"font-size:60px;\">+</div>","key_press":null,"trial_type":"html-keyboard-response","trial_index":300,"time_elapsed":618825,"internal_node_id":"0.0-8.0-1.73","subject":"lvjhl069xyvh59p","sona":"7573"},{"trial_type":"turing-test","trial_index":301,"time_elapsed":625962,"internal_node_id":"0.0-8.0-2.73","subject":"lvjhl069xyvh59p","sona":"7573"},{"rt":47.01000009663403,"stimulus":"<p>Welche Sequenz haben Sie als natürlicher empfunden?</p>","key_press":70,"test_part":"response","test_stimulus":{"position":0,"left":"bvh/pass-bottle-training0-lines.txt","right":"bvh/vr_prediction_models/model(vcgpdm)-dataset(pass-bottle)-mode(ELBO)-parts(3)-dyn(20)-lvm(15)-hold(0)/final-lines.txt","att_check":false},"trial_type":"html-keyboard-response","trial_index":302,"time_elapsed":626043,"internal_node_id":"0.0-8.0-3.73","subject":"lvjhl069xyvh59p","sona":"7573"},{"rt":218.8750000204891,"stimulus":"<p>Bereit?</p>","key_press":32,"trial_type":"html-keyboard-response","trial_index":303,"time_elapsed":626287,"internal_node_id":"0.0-8.0-0.74","subject":"lvjhl069xyvh59p","sona":"7573"},{"rt":null,"stimulus":"<div style=\"font-size:60px;\">+</div>","key_press":null,"trial_type":"html-keyboard-response","trial_index":304,"time_elapsed":628317,"internal_node_id":"0.0-8.0-1.74","subject":"lvjhl069xyvh59p","sona":"7573"},{"trial_type":"turing-test","trial_index":305,"time_elapsed":633949,"internal_node_id":"0.0-8.0-2.74","subject":"lvjhl069xyvh59p","sona":"7573"},{"rt":72.99000001512468,"stimulus":"<p>Welche Sequenz haben Sie als natürlicher empfunden?</p>","key_press":70,"test_part":"response","test_stimulus":{"position":0,"left":"bvh/pass-bottle-training1-lines.txt","right":"bvh/vr_prediction_models/model(tmp)-dataset(pass-bottle)-numprim(10)-hold(1)/final-lines.txt","att_check":false},"trial_type":"html-keyboard-response","trial_index":306,"time_elapsed":634095,"internal_node_id":"0.0-8.0-3.74","subject":"lvjhl069xyvh59p","sona":"7573"},{"rt":592.295000096783,"stimulus":"<p>Bereit?</p>","key_press":32,"trial_type":"html-keyboard-response","trial_index":307,"time_elapsed":634698,"internal_node_id":"0.0-8.0-0.75","subject":"lvjhl069xyvh59p","sona":"7573"},{"rt":null,"stimulus":"<div style=\"font-size:60px;\">+</div>","key_press":null,"trial_type":"html-keyboard-response","trial_index":308,"time_elapsed":636718,"internal_node_id":"0.0-8.0-1.75","subject":"lvjhl069xyvh59p","sona":"7573"},{"trial_type":"turing-test","trial_index":309,"time_elapsed":640505,"internal_node_id":"0.0-8.0-2.75","subject":"lvjhl069xyvh59p","sona":"7573"},{"rt":340.0499999988824,"stimulus":"<p>Welche Sequenz haben Sie als natürlicher empfunden?</p>","key_press":74,"test_part":"response","test_stimulus":{"position":1,"left":"bvh/vr_prediction_models/model(tmp)-dataset(pass-bottle-hold)-numprim(9)-hold(3)/final-lines.txt","right":"bvh/pass-bottle-hold-training3-lines.txt","att_check":false},"trial_type":"html-keyboard-response","trial_index":310,"time_elapsed":640881,"internal_node_id":"0.0-8.0-3.75","subject":"lvjhl069xyvh59p","sona":"7573"},{"rt":343.8999999780208,"stimulus":"<p>Bereit?</p>","key_press":32,"trial_type":"html-keyboard-response","trial_index":311,"time_elapsed":641251,"internal_node_id":"0.0-8.0-0.76","subject":"lvjhl069xyvh59p","sona":"7573"},{"rt":null,"stimulus":"<div style=\"font-size:60px;\">+</div>","key_press":null,"trial_type":"html-keyboard-response","trial_index":312,"time_elapsed":643269,"internal_node_id":"0.0-8.0-1.76","subject":"lvjhl069xyvh59p","sona":"7573"},{"trial_type":"turing-test","trial_index":313,"time_elapsed":646753,"internal_node_id":"0.0-8.0-2.76","subject":"lvjhl069xyvh59p","sona":"7573"},{"rt":359.4249999150634,"stimulus":"<p>Welche Sequenz haben Sie als natürlicher empfunden?</p>","key_press":74,"test_part":"response","test_stimulus":{"position":1,"left":"bvh/vr_prediction_models/model(dmp)-dataset(return-bottle-hold)-npsi(90)-hold(1)/final-lines.txt","right":"bvh/return-bottle-hold-training1-lines.txt","att_check":false},"trial_type":"html-keyboard-response","trial_index":314,"time_elapsed":647148,"internal_node_id":"0.0-8.0-3.76","subject":"lvjhl069xyvh59p","sona":"7573"},{"rt":270.3299999702722,"stimulus":"<p>Bereit?</p>","key_press":32,"trial_type":"html-keyboard-response","trial_index":315,"time_elapsed":647444,"internal_node_id":"0.0-8.0-0.77","subject":"lvjhl069xyvh59p","sona":"7573"},{"rt":null,"stimulus":"<div style=\"font-size:60px;\">+</div>","key_press":null,"trial_type":"html-keyboard-response","trial_index":316,"time_elapsed":649470,"internal_node_id":"0.0-8.0-1.77","subject":"lvjhl069xyvh59p","sona":"7573"},{"trial_type":"turing-test","trial_index":317,"time_elapsed":655647,"internal_node_id":"0.0-8.0-2.77","subject":"lvjhl069xyvh59p","sona":"7573"},{"rt":519.0649998839945,"stimulus":"<p>Welche Sequenz haben Sie als natürlicher empfunden?</p>","key_press":70,"test_part":"response","test_stimulus":{"position":1,"left":"bvh/vr_prediction_models/model(vcgpdm)-dataset(return-bottle)-mode(MAP)-parts(3)-hold(3)/final-lines.txt","right":"bvh/return-bottle-training3-lines.txt","att_check":false},"trial_type":"html-keyboard-response","trial_index":318,"time_elapsed":656211,"internal_node_id":"0.0-8.0-3.77","subject":"lvjhl069xyvh59p","sona":"7573"},{"rt":273.0150001589209,"stimulus":"<p>Bereit?</p>","key_press":32,"trial_type":"html-keyboard-response","trial_index":319,"time_elapsed":656519,"internal_node_id":"0.0-8.0-0.78","subject":"lvjhl069xyvh59p","sona":"7573"},{"rt":null,"stimulus":"<div style=\"font-size:60px;\">+</div>","key_press":null,"trial_type":"html-keyboard-response","trial_index":320,"time_elapsed":658540,"internal_node_id":"0.0-8.0-1.78","subject":"lvjhl069xyvh59p","sona":"7573"},{"trial_type":"turing-test","trial_index":321,"time_elapsed":665742,"internal_node_id":"0.0-8.0-2.78","subject":"lvjhl069xyvh59p","sona":"7573"},{"rt":372.4350000265986,"stimulus":"<p>Welche Sequenz haben Sie als natürlicher empfunden?</p>","key_press":74,"test_part":"response","test_stimulus":{"position":1,"left":"bvh/vr_prediction_models/model(vcgpdm)-dataset(pass-bottle)-mode(ELBO)-parts(3)-dyn(20)-lvm(20)-hold(0)/final-lines.txt","right":"bvh/pass-bottle-training0-lines.txt","att_check":false},"trial_type":"html-keyboard-response","trial_index":322,"time_elapsed":666154,"internal_node_id":"0.0-8.0-3.78","subject":"lvjhl069xyvh59p","sona":"7573"},{"rt":958.2750000990927,"stimulus":"<p>Bereit?</p>","key_press":32,"trial_type":"html-keyboard-response","trial_index":323,"time_elapsed":667154,"internal_node_id":"0.0-8.0-0.79","subject":"lvjhl069xyvh59p","sona":"7573"},{"rt":null,"stimulus":"<div style=\"font-size:60px;\">+</div>","key_press":null,"trial_type":"html-keyboard-response","trial_index":324,"time_elapsed":669178,"internal_node_id":"0.0-8.0-1.79","subject":"lvjhl069xyvh59p","sona":"7573"},{"trial_type":"turing-test","trial_index":325,"time_elapsed":672939,"internal_node_id":"0.0-8.0-2.79","subject":"lvjhl069xyvh59p","sona":"7573"},{"rt":584.4300000462681,"stimulus":"<p>Welche Sequenz haben Sie als natürlicher empfunden?</p>","key_press":74,"test_part":"response","test_stimulus":{"position":0,"left":"bvh/pass-bottle-hold-training0-lines.txt","right":"bvh/vr_prediction_models/model(vcgpdm)-dataset(pass-bottle-hold)-mode(ELBO)-parts(1)-dyn(20)-lvm(20)-hold(0)/final-lines.txt","att_check":false},"trial_type":"html-keyboard-response","trial_index":326,"time_elapsed":673563,"internal_node_id":"0.0-8.0-3.79","subject":"lvjhl069xyvh59p","sona":"7573"},{"rt":7611.079999944195,"responses":"{\"age\":\"21\",\"gender\":\"weiblich\"}","trial_type":"survey-text","trial_index":327,"time_elapsed":681240,"internal_node_id":"0.0-10.0-0.0","subject":"lvjhl069xyvh59p","sona":"7573"},{"rt":80841.24999982305,"responses":"{\"area\":\"Arme, Torso\",\"Q1\":\"Stockende bzw. zu steife Bewegungen\",\"Q2\":\"Das \\\"Durch den Raum gleiten\\\" des Strichmännchens und wenn der Arm nach der Bewegung noch hin und her schwing\"}","trial_type":"survey-text","trial_index":328,"time_elapsed":762144,"internal_node_id":"0.0-10.0-1.0","subject":"lvjhl069xyvh59p","sona":"7573"}]