[{"rt":3183.5100000025705,"stimulus":"<p>Welcome!<br> Please choose your language to start the experiment in the chosen language.</p><p>Willkommen!<br> Bitte wählen Sie eine Sprache, um das Experiment in der ausgewählten Sprache zu starten</p>","button_pressed":"1","trial_type":"html-button-response","trial_index":0,"time_elapsed":3246,"internal_node_id":"0.0-0.0","subject":"7w0ojoyjgyuteqm","sona":"7450"},{"view_history":"[{\"page_index\":0,\"viewing_time\":2126.329999999143},{\"page_index\":1,\"viewing_time\":2391.0049999831244},{\"page_index\":2,\"viewing_time\":7809.5200000097975},{\"page_index\":3,\"viewing_time\":1570.3849999699742},{\"page_index\":4,\"viewing_time\":1130.1199999870732}]","rt":15029.529999941587,"trial_type":"instructions","trial_index":1,"time_elapsed":18277,"internal_node_id":"0.0-1.0-0.0","subject":"7w0ojoyjgyuteqm","sona":"7450"},{"rt":1694.1949999891222,"stimulus":"<p>Bereit?</p>","key_press":32,"trial_type":"html-keyboard-response","trial_index":2,"time_elapsed":19976,"internal_node_id":"0.0-3.0","subject":"7w0ojoyjgyuteqm","sona":"7450"},{"rt":null,"stimulus":"<div style=\"font-size:60px;\">+</div>","key_press":null,"trial_type":"html-keyboard-response","trial_index":3,"time_elapsed":21985,"internal_node_id":"0.0-4.0","subject":"7w0ojoyjgyuteqm","sona":"7450"},{"trial_type":"training","trial_index":4,"time_elapsed":25517,"internal_node_id":"0.0-5.0","subject":"7w0ojoyjgyuteqm","sona":"7450"},{"rt":254.82500006910414,"stimulus":"<p>Welche Sequenz haben Sie als natürlicher empfunden?</p>","key_press":70,"trial_type":"html-keyboard-response","trial_index":5,"time_elapsed":25775,"internal_node_id":"0.0-6.0","subject":"7w0ojoyjgyuteqm","sona":"7450"},{"rt":3103.929999982938,"stimulus":"<p>Das Experiment startet nun.</p><p><small>Bitte drücken Sie den Knopf, wenn Sie bereit sind.</small></p>","button_pressed":"0","trial_type":"html-button-response","trial_index":6,"time_elapsed":28881,"internal_node_id":"0.0-7.0","subject":"7w0ojoyjgyuteqm","sona":"7450"},{"rt":1818.970000022091,"stimulus":"<p>Bereit?</p>","key_press":32,"trial_type":"html-keyboard-response","trial_index":7,"time_elapsed":30705,"internal_node_id":"0.0-8.0-0.0","subject":"7w0ojoyjgyuteqm","sona":"7450"},{"rt":null,"stimulus":"<div style=\"font-size:60px;\">+</div>","key_press":null,"trial_type":"html-keyboard-response","trial_index":8,"time_elapsed":32718,"internal_node_id":"0.0-8.0-1.0","subject":"7w0ojoyjgyuteqm","sona":"7450"},{"trial_type":"turing-test","trial_index":9,"time_elapsed":39619,"internal_node_id":"0.0-8.0-2.0","subject":"7w0ojoyjgyuteqm","sona":"7450"},{"rt":1458.0500000156462,"stimulus":"<p>Welche Sequenz haben Sie als natürlicher empfunden?</p>","key_press":70,"test_part":"response","test_stimulus":{"position":0,"left":"bvh/pass-bottle-training0-lines.txt","right":"bvh/vr_prediction_models/model(vcgpdm)-dataset(pass-bottle)-mode(ELBO)-parts(3)-dyn(10)-lvm(10)-hold(0)/final-lines.txt","att_check":false},"trial_type":"html-keyboard-response","trial_index":10,"time_elapsed":41086,"internal_node_id":"0.0-8.0-3.0","subject":"7w0ojoyjgyuteqm","sona":"7450"},{"rt":344.3950000219047,"stimulus":"<p>Bereit?</p>","key_press":32,"trial_type":"html-keyboard-response","trial_index":11,"time_elapsed":41436,"internal_node_id":"0.0-8.0-0.1","subject":"7w0ojoyjgyuteqm","sona":"7450"},{"rt":null,"stimulus":"<div style=\"font-size:60px;\">+</div>","key_press":null,"trial_type":"html-keyboard-response","trial_index":12,"time_elapsed":43445,"internal_node_id":"0.0-8.0-1.1","subject":"7w0ojoyjgyuteqm","sona":"7450"},{"trial_type":"turing-test","trial_index":13,"time_elapsed":49674,"internal_node_id":"0.0-8.0-2.1","subject":"7w0ojoyjgyuteqm","sona":"7450"},{"rt":1296.2200000183657,"stimulus":"<p>Welche Sequenz haben Sie als natürlicher empfunden?</p>","key_press":74,"test_part":"response","test_stimulus":{"position":1,"left":"bvh/vr_prediction_models/model(dmp)-dataset(pass-bottle)-npsi(30)-hold(2)/final-lines.txt","right":"bvh/pass-bottle-training2-lines.txt","att_check":false},"trial_type":"html-keyboard-response","trial_index":14,"time_elapsed":50978,"internal_node_id":"0.0-8.0-3.1","subject":"7w0ojoyjgyuteqm","sona":"7450"},{"rt":721.5300000971183,"stimulus":"<p>Bereit?</p>","key_press":32,"trial_type":"html-keyboard-response","trial_index":15,"time_elapsed":51706,"internal_node_id":"0.0-8.0-0.2","subject":"7w0ojoyjgyuteqm","sona":"7450"},{"rt":null,"stimulus":"<div style=\"font-size:60px;\">+</div>","key_press":null,"trial_type":"html-keyboard-response","trial_index":16,"time_elapsed":53713,"internal_node_id":"0.0-8.0-1.2","subject":"7w0ojoyjgyuteqm","sona":"7450"},{"trial_type":"turing-test","trial_index":17,"time_elapsed":57435,"internal_node_id":"0.0-8.0-2.2","subject":"7w0ojoyjgyuteqm","sona":"7450"},{"rt":862.0749999536201,"stimulus":"<p>Welche Sequenz haben Sie als natürlicher empfunden?</p>","key_press":70,"test_part":"response","test_stimulus":{"position":0,"left":"bvh/return-bottle-hold-training3-lines.txt","right":"bvh/vr_prediction_models/model(tmp)-dataset(return-bottle-hold)-numprim(15)-hold(3)/final-lines.txt","att_check":false},"trial_type":"html-keyboard-response","trial_index":18,"time_elapsed":58304,"internal_node_id":"0.0-8.0-3.2","subject":"7w0ojoyjgyuteqm","sona":"7450"},{"rt":215.4849999351427,"stimulus":"<p>Bereit?</p>","key_press":32,"trial_type":"html-keyboard-response","trial_index":19,"time_elapsed":58527,"internal_node_id":"0.0-8.0-0.3","subject":"7w0ojoyjgyuteqm","sona":"7450"},{"rt":null,"stimulus":"<div style=\"font-size:60px;\">+</div>","key_press":null,"trial_type":"html-keyboard-response","trial_index":20,"time_elapsed":60539,"internal_node_id":"0.0-8.0-1.3","subject":"7w0ojoyjgyuteqm","sona":"7450"},{"trial_type":"turing-test","trial_index":21,"time_elapsed":64372,"internal_node_id":"0.0-8.0-2.3","subject":"7w0ojoyjgyuteqm","sona":"7450"},{"rt":857.1350000565872,"stimulus":"<p>Welche Sequenz haben Sie als natürlicher empfunden?</p>","key_press":74,"test_part":"response","test_stimulus":{"position":0,"left":"bvh/return-bottle-hold-training3-lines.txt","right":"bvh/vr_prediction_models/model(vcgpdm)-dataset(return-bottle-hold)-mode(ELBO)-parts(1)-dyn(10)-lvm(5)-hold(3)/final-lines.txt","att_check":false},"trial_type":"html-keyboard-response","trial_index":22,"time_elapsed":65236,"internal_node_id":"0.0-8.0-3.3","subject":"7w0ojoyjgyuteqm","sona":"7450"},{"rt":373.8399998983368,"stimulus":"<p>Bereit?</p>","key_press":32,"trial_type":"html-keyboard-response","trial_index":23,"time_elapsed":65615,"internal_node_id":"0.0-8.0-0.4","subject":"7w0ojoyjgyuteqm","sona":"7450"},{"rt":null,"stimulus":"<div style=\"font-size:60px;\">+</div>","key_press":null,"trial_type":"html-keyboard-response","trial_index":24,"time_elapsed":67621,"internal_node_id":"0.0-8.0-1.4","subject":"7w0ojoyjgyuteqm","sona":"7450"},{"trial_type":"turing-test","trial_index":25,"time_elapsed":70905,"internal_node_id":"0.0-8.0-2.4","subject":"7w0ojoyjgyuteqm","sona":"7450"},{"rt":904.7250000294298,"stimulus":"<p>Welche Sequenz haben Sie als natürlicher empfunden?</p>","key_press":70,"test_part":"response","test_stimulus":{"position":1,"left":"bvh/vr_prediction_models/model(dmp)-dataset(pass-bottle-hold)-npsi(100)-hold(1)/final-lines.txt","right":"bvh/pass-bottle-hold-training1-lines.txt","att_check":false},"trial_type":"html-keyboard-response","trial_index":26,"time_elapsed":71816,"internal_node_id":"0.0-8.0-3.4","subject":"7w0ojoyjgyuteqm","sona":"7450"},{"rt":247.61500000022352,"stimulus":"<p>Bereit?</p>","key_press":32,"trial_type":"html-keyboard-response","trial_index":27,"time_elapsed":72070,"internal_node_id":"0.0-8.0-0.5","subject":"7w0ojoyjgyuteqm","sona":"7450"},{"rt":null,"stimulus":"<div style=\"font-size:60px;\">+</div>","key_press":null,"trial_type":"html-keyboard-response","trial_index":28,"time_elapsed":74076,"internal_node_id":"0.0-8.0-1.5","subject":"7w0ojoyjgyuteqm","sona":"7450"},{"trial_type":"turing-test","trial_index":29,"time_elapsed":79734,"internal_node_id":"0.0-8.0-2.5","subject":"7w0ojoyjgyuteqm","sona":"7450"},{"rt":768.6550000216812,"stimulus":"<p>Welche Sequenz haben Sie als natürlicher empfunden?</p>","key_press":74,"test_part":"response","test_stimulus":{"position":1,"left":"bvh/vr_prediction_models/model(vcgpdm)-dataset(pass-bottle)-mode(ELBO)-parts(1)-dyn(20)-lvm(20)-hold(1)/final-lines.txt","right":"bvh/pass-bottle-training1-lines.txt","att_check":false},"trial_type":"html-keyboard-response","trial_index":30,"time_elapsed":80510,"internal_node_id":"0.0-8.0-3.5","subject":"7w0ojoyjgyuteqm","sona":"7450"},{"rt":132.31499993707985,"stimulus":"<p>Bereit?</p>","key_press":32,"trial_type":"html-keyboard-response","trial_index":31,"time_elapsed":80649,"internal_node_id":"0.0-8.0-0.6","subject":"7w0ojoyjgyuteqm","sona":"7450"},{"rt":null,"stimulus":"<div style=\"font-size:60px;\">+</div>","key_press":null,"trial_type":"html-keyboard-response","trial_index":32,"time_elapsed":82652,"internal_node_id":"0.0-8.0-1.6","subject":"7w0ojoyjgyuteqm","sona":"7450"},{"trial_type":"turing-test","trial_index":33,"time_elapsed":86530,"internal_node_id":"0.0-8.0-2.6","subject":"7w0ojoyjgyuteqm","sona":"7450"},{"rt":664.7100000409409,"stimulus":"<p>Welche Sequenz haben Sie als natürlicher empfunden?</p>","key_press":74,"test_part":"response","test_stimulus":{"position":1,"left":"bvh/vr_prediction_models/model(vcgpdm)-dataset(return-bottle-hold)-mode(ELBO)-parts(3)-dyn(20)-lvm(15)-hold(3)/final-lines.txt","right":"bvh/return-bottle-hold-training3-lines.txt","att_check":false},"trial_type":"html-keyboard-response","trial_index":34,"time_elapsed":87201,"internal_node_id":"0.0-8.0-3.6","subject":"7w0ojoyjgyuteqm","sona":"7450"},{"rt":587.6899999566376,"stimulus":"<p>Bereit?</p>","key_press":32,"trial_type":"html-keyboard-response","trial_index":35,"time_elapsed":87795,"internal_node_id":"0.0-8.0-0.7","subject":"7w0ojoyjgyuteqm","sona":"7450"},{"rt":null,"stimulus":"<div style=\"font-size:60px;\">+</div>","key_press":null,"trial_type":"html-keyboard-response","trial_index":36,"time_elapsed":89798,"internal_node_id":"0.0-8.0-1.7","subject":"7w0ojoyjgyuteqm","sona":"7450"},{"trial_type":"turing-test","trial_index":37,"time_elapsed":93351,"internal_node_id":"0.0-8.0-2.7","subject":"7w0ojoyjgyuteqm","sona":"7450"},{"rt":677.2699999855831,"stimulus":"<p>Welche Sequenz haben Sie als natürlicher empfunden?</p>","key_press":74,"test_part":"response","test_stimulus":{"position":1,"left":"bvh/vr_prediction_models/model(vcgpdm)-dataset(pass-bottle-hold)-mode(ELBO)-parts(1)-dyn(5)-lvm(5)-hold(0)/final-lines.txt","right":"bvh/pass-bottle-hold-training0-lines.txt","att_check":false},"trial_type":"html-keyboard-response","trial_index":38,"time_elapsed":94036,"internal_node_id":"0.0-8.0-3.7","subject":"7w0ojoyjgyuteqm","sona":"7450"},{"rt":343.9599999692291,"stimulus":"<p>Bereit?</p>","key_press":32,"trial_type":"html-keyboard-response","trial_index":39,"time_elapsed":94386,"internal_node_id":"0.0-8.0-0.8","subject":"7w0ojoyjgyuteqm","sona":"7450"},{"rt":null,"stimulus":"<div style=\"font-size:60px;\">+</div>","key_press":null,"trial_type":"html-keyboard-response","trial_index":40,"time_elapsed":96393,"internal_node_id":"0.0-8.0-1.8","subject":"7w0ojoyjgyuteqm","sona":"7450"},{"trial_type":"turing-test","trial_index":41,"time_elapsed":103235,"internal_node_id":"0.0-8.0-2.8","subject":"7w0ojoyjgyuteqm","sona":"7450"},{"rt":762.624999973923,"stimulus":"<p>Welche Sequenz haben Sie als natürlicher empfunden?</p>","key_press":74,"test_part":"response","test_stimulus":{"position":0,"left":"bvh/pass-bottle-training0-lines.txt","right":"bvh/vr_prediction_models/model(tmp)-dataset(pass-bottle)-numprim(15)-hold(0)/final-lines.txt","att_check":false},"trial_type":"html-keyboard-response","trial_index":42,"time_elapsed":104005,"internal_node_id":"0.0-8.0-3.8","subject":"7w0ojoyjgyuteqm","sona":"7450"},{"rt":307.38999997265637,"stimulus":"<p>Bereit?</p>","key_press":32,"trial_type":"html-keyboard-response","trial_index":43,"time_elapsed":104319,"internal_node_id":"0.0-8.0-0.9","subject":"7w0ojoyjgyuteqm","sona":"7450"},{"rt":null,"stimulus":"<div style=\"font-size:60px;\">+</div>","key_press":null,"trial_type":"html-keyboard-response","trial_index":44,"time_elapsed":106338,"internal_node_id":"0.0-8.0-1.9","subject":"7w0ojoyjgyuteqm","sona":"7450"},{"trial_type":"turing-test","trial_index":45,"time_elapsed":110247,"internal_node_id":"0.0-8.0-2.9","subject":"7w0ojoyjgyuteqm","sona":"7450"},{"rt":2783.6200000019744,"stimulus":"<p>Welche Sequenz haben Sie als natürlicher empfunden?</p>","key_press":70,"test_part":"response","test_stimulus":{"position":1,"left":"bvh/vr_prediction_models/model(tmp)-dataset(pass-bottle-hold)-numprim(9)-hold(4)/final-lines.txt","right":"bvh/pass-bottle-hold-training4-lines.txt","att_check":false},"trial_type":"html-keyboard-response","trial_index":46,"time_elapsed":113039,"internal_node_id":"0.0-8.0-3.9","subject":"7w0ojoyjgyuteqm","sona":"7450"},{"rt":332.7650000574067,"stimulus":"<p>Bereit?</p>","key_press":32,"trial_type":"html-keyboard-response","trial_index":47,"time_elapsed":113378,"internal_node_id":"0.0-8.0-0.10","subject":"7w0ojoyjgyuteqm","sona":"7450"},{"rt":null,"stimulus":"<div style=\"font-size:60px;\">+</div>","key_press":null,"trial_type":"html-keyboard-response","trial_index":48,"time_elapsed":115389,"internal_node_id":"0.0-8.0-1.10","subject":"7w0ojoyjgyuteqm","sona":"7450"},{"trial_type":"turing-test","trial_index":49,"time_elapsed":122159,"internal_node_id":"0.0-8.0-2.10","subject":"7w0ojoyjgyuteqm","sona":"7450"},{"rt":755.5799999972805,"stimulus":"<p>Welche Sequenz haben Sie als natürlicher empfunden?</p>","key_press":70,"test_part":"response","test_stimulus":{"position":0,"left":"bvh/pass-bottle-training0-lines.txt","right":"bvh/vr_prediction_models/model(tmp)-dataset(pass-bottle)-numprim(14)-hold(0)/final-lines.txt","att_check":false},"trial_type":"html-keyboard-response","trial_index":50,"time_elapsed":122921,"internal_node_id":"0.0-8.0-3.10","subject":"7w0ojoyjgyuteqm","sona":"7450"},{"rt":388.64499994087964,"stimulus":"<p>Bereit?</p>","key_press":32,"trial_type":"html-keyboard-response","trial_index":51,"time_elapsed":123316,"internal_node_id":"0.0-8.0-0.11","subject":"7w0ojoyjgyuteqm","sona":"7450"},{"rt":null,"stimulus":"<div style=\"font-size:60px;\">+</div>","key_press":null,"trial_type":"html-keyboard-response","trial_index":52,"time_elapsed":125323,"internal_node_id":"0.0-8.0-1.11","subject":"7w0ojoyjgyuteqm","sona":"7450"},{"trial_type":"turing-test","trial_index":53,"time_elapsed":131319,"internal_node_id":"0.0-8.0-2.11","subject":"7w0ojoyjgyuteqm","sona":"7450"},{"rt":850.5000000586733,"stimulus":"<p>Welche Sequenz haben Sie als natürlicher empfunden?</p>","key_press":74,"test_part":"response","test_stimulus":{"position":1,"left":"bvh/vr_prediction_models/model(vcgpdm)-dataset(return-bottle)-mode(ELBO)-parts(3)-dyn(10)-lvm(25)-hold(4)/final-lines.txt","right":"bvh/return-bottle-training4-lines.txt","att_check":false},"trial_type":"html-keyboard-response","trial_index":54,"time_elapsed":132178,"internal_node_id":"0.0-8.0-3.11","subject":"7w0ojoyjgyuteqm","sona":"7450"},{"rt":373.9100000821054,"stimulus":"<p>Bereit?</p>","key_press":32,"trial_type":"html-keyboard-response","trial_index":55,"time_elapsed":132558,"internal_node_id":"0.0-8.0-0.12","subject":"7w0ojoyjgyuteqm","sona":"7450"},{"rt":null,"stimulus":"<div style=\"font-size:60px;\">+</div>","key_press":null,"trial_type":"html-keyboard-response","trial_index":56,"time_elapsed":134586,"internal_node_id":"0.0-8.0-1.12","subject":"7w0ojoyjgyuteqm","sona":"7450"},{"trial_type":"turing-test","trial_index":57,"time_elapsed":141646,"internal_node_id":"0.0-8.0-2.12","subject":"7w0ojoyjgyuteqm","sona":"7450"},{"rt":290.96500005107373,"stimulus":"<p>Welche Sequenz haben Sie als natürlicher empfunden?</p>","key_press":74,"test_part":"response","test_stimulus":{"position":1,"left":"bvh/vr_prediction_models/model(vcgpdm)-dataset(return-bottle)-mode(ELBO)-parts(3)-dyn(20)-lvm(35)-hold(2)/final-lines.txt","right":"bvh/return-bottle-training2-lines.txt","att_check":false},"trial_type":"html-keyboard-response","trial_index":58,"time_elapsed":141943,"internal_node_id":"0.0-8.0-3.12","subject":"7w0ojoyjgyuteqm","sona":"7450"},{"rt":407.1799999801442,"stimulus":"<p>Bereit?</p>","key_press":32,"trial_type":"html-keyboard-response","trial_index":59,"time_elapsed":142357,"internal_node_id":"0.0-8.0-0.13","subject":"7w0ojoyjgyuteqm","sona":"7450"},{"rt":null,"stimulus":"<div style=\"font-size:60px;\">+</div>","key_press":null,"trial_type":"html-keyboard-response","trial_index":60,"time_elapsed":144374,"internal_node_id":"0.0-8.0-1.13","subject":"7w0ojoyjgyuteqm","sona":"7450"},{"trial_type":"turing-test","trial_index":61,"time_elapsed":148271,"internal_node_id":"0.0-8.0-2.13","subject":"7w0ojoyjgyuteqm","sona":"7450"},{"rt":625.1400000182912,"stimulus":"<p>Welche Sequenz haben Sie als natürlicher empfunden?</p>","key_press":74,"test_part":"response","test_stimulus":{"position":1,"left":"bvh/vr_prediction_models/model(vcgpdm)-dataset(return-bottle-hold)-mode(ELBO)-parts(3)-dyn(15)-lvm(30)-hold(3)/final-lines.txt","right":"bvh/return-bottle-hold-training3-lines.txt","att_check":false},"trial_type":"html-keyboard-response","trial_index":62,"time_elapsed":148903,"internal_node_id":"0.0-8.0-3.13","subject":"7w0ojoyjgyuteqm","sona":"7450"},{"rt":326.00999996066093,"stimulus":"<p>Bereit?</p>","key_press":32,"trial_type":"html-keyboard-response","trial_index":63,"time_elapsed":149236,"internal_node_id":"0.0-8.0-0.14","subject":"7w0ojoyjgyuteqm","sona":"7450"},{"rt":null,"stimulus":"<div style=\"font-size:60px;\">+</div>","key_press":null,"trial_type":"html-keyboard-response","trial_index":64,"time_elapsed":151242,"internal_node_id":"0.0-8.0-1.14","subject":"7w0ojoyjgyuteqm","sona":"7450"},{"trial_type":"turing-test","trial_index":65,"time_elapsed":155059,"internal_node_id":"0.0-8.0-2.14","subject":"7w0ojoyjgyuteqm","sona":"7450"},{"rt":683.9599999366328,"stimulus":"<p>Welche Sequenz haben Sie als natürlicher empfunden?</p>","key_press":70,"test_part":"response","test_stimulus":{"position":0,"left":"bvh/return-bottle-hold-training4-lines.txt","right":"bvh/vr_prediction_models/model(tmp)-dataset(return-bottle-hold)-numprim(6)-hold(4)/final-lines.txt","att_check":false},"trial_type":"html-keyboard-response","trial_index":66,"time_elapsed":155750,"internal_node_id":"0.0-8.0-3.14","subject":"7w0ojoyjgyuteqm","sona":"7450"},{"rt":765.6999999890104,"stimulus":"<p>Bereit?</p>","key_press":32,"trial_type":"html-keyboard-response","trial_index":67,"time_elapsed":156523,"internal_node_id":"0.0-8.0-0.15","subject":"7w0ojoyjgyuteqm","sona":"7450"},{"rt":null,"stimulus":"<div style=\"font-size:60px;\">+</div>","key_press":null,"trial_type":"html-keyboard-response","trial_index":68,"time_elapsed":158529,"internal_node_id":"0.0-8.0-1.15","subject":"7w0ojoyjgyuteqm","sona":"7450"},{"trial_type":"turing-test","trial_index":69,"time_elapsed":162268,"internal_node_id":"0.0-8.0-2.15","subject":"7w0ojoyjgyuteqm","sona":"7450"},{"rt":1538.1700000725687,"stimulus":"<p>Welche Sequenz haben Sie als natürlicher empfunden?</p>","key_press":70,"test_part":"response","test_stimulus":{"position":0,"left":"bvh/return-bottle-hold-training4-lines.txt","right":"bvh/vr_prediction_models/model(dmp)-dataset(return-bottle-hold)-npsi(80)-hold(4)/final-lines.txt","att_check":false},"trial_type":"html-keyboard-response","trial_index":70,"time_elapsed":163815,"internal_node_id":"0.0-8.0-3.15","subject":"7w0ojoyjgyuteqm","sona":"7450"},{"rt":421.5150000527501,"stimulus":"<p>Bereit?</p>","key_press":32,"trial_type":"html-keyboard-response","trial_index":71,"time_elapsed":164244,"internal_node_id":"0.0-8.0-0.16","subject":"7w0ojoyjgyuteqm","sona":"7450"},{"rt":null,"stimulus":"<div style=\"font-size:60px;\">+</div>","key_press":null,"trial_type":"html-keyboard-response","trial_index":72,"time_elapsed":166250,"internal_node_id":"0.0-8.0-1.16","subject":"7w0ojoyjgyuteqm","sona":"7450"},{"trial_type":"turing-test","trial_index":73,"time_elapsed":172317,"internal_node_id":"0.0-8.0-2.16","subject":"7w0ojoyjgyuteqm","sona":"7450"},{"rt":798.0199999874458,"stimulus":"<p>Welche Sequenz haben Sie als natürlicher empfunden?</p>","key_press":70,"test_part":"response","test_stimulus":{"position":1,"left":"bvh/vr_prediction_models/model(vcgpdm)-dataset(pass-bottle)-mode(ELBO)-parts(1)-dyn(20)-lvm(30)-hold(3)/final-lines.txt","right":"bvh/pass-bottle-training3-lines.txt","att_check":false},"trial_type":"html-keyboard-response","trial_index":74,"time_elapsed":173125,"internal_node_id":"0.0-8.0-3.16","subject":"7w0ojoyjgyuteqm","sona":"7450"},{"rt":384.8549999529496,"stimulus":"<p>Bereit?</p>","key_press":32,"trial_type":"html-keyboard-response","trial_index":75,"time_elapsed":173517,"internal_node_id":"0.0-8.0-0.17","subject":"7w0ojoyjgyuteqm","sona":"7450"},{"rt":null,"stimulus":"<div style=\"font-size:60px;\">+</div>","key_press":null,"trial_type":"html-keyboard-response","trial_index":76,"time_elapsed":175522,"internal_node_id":"0.0-8.0-1.17","subject":"7w0ojoyjgyuteqm","sona":"7450"},{"trial_type":"turing-test","trial_index":77,"time_elapsed":181345,"internal_node_id":"0.0-8.0-2.17","subject":"7w0ojoyjgyuteqm","sona":"7450"},{"rt":650.6449999287724,"stimulus":"<p>Welche Sequenz haben Sie als natürlicher empfunden?</p>","key_press":70,"test_part":"response","test_stimulus":{"position":1,"left":"bvh/vr_prediction_models/model(dmp)-dataset(return-bottle)-npsi(20)-hold(3)/final-lines.txt","right":"bvh/return-bottle-training3-lines.txt","att_check":false},"trial_type":"html-keyboard-response","trial_index":78,"time_elapsed":182004,"internal_node_id":"0.0-8.0-3.17","subject":"7w0ojoyjgyuteqm","sona":"7450"},{"rt":426.7099999124184,"stimulus":"<p>Bereit?</p>","key_press":32,"trial_type":"html-keyboard-response","trial_index":79,"time_elapsed":182438,"internal_node_id":"0.0-8.0-0.18","subject":"7w0ojoyjgyuteqm","sona":"7450"},{"rt":null,"stimulus":"<div style=\"font-size:60px;\">+</div>","key_press":null,"trial_type":"html-keyboard-response","trial_index":80,"time_elapsed":184448,"internal_node_id":"0.0-8.0-1.18","subject":"7w0ojoyjgyuteqm","sona":"7450"},{"trial_type":"turing-test","trial_index":81,"time_elapsed":190480,"internal_node_id":"0.0-8.0-2.18","subject":"7w0ojoyjgyuteqm","sona":"7450"},{"rt":720.2399999368936,"stimulus":"<p>Welche Sequenz haben Sie als natürlicher empfunden?</p>","key_press":70,"test_part":"response","test_stimulus":{"position":1,"left":"bvh/vr_prediction_models/model(vcgpdm)-dataset(return-bottle)-mode(ELBO)-parts(1)-dyn(20)-lvm(5)-hold(3)/final-lines.txt","right":"bvh/return-bottle-training3-lines.txt","att_check":false},"trial_type":"html-keyboard-response","trial_index":82,"time_elapsed":191208,"internal_node_id":"0.0-8.0-3.18","subject":"7w0ojoyjgyuteqm","sona":"7450"},{"rt":362.1150000253692,"stimulus":"<p>Bereit?</p>","key_press":32,"trial_type":"html-keyboard-response","trial_index":83,"time_elapsed":191577,"internal_node_id":"0.0-8.0-0.19","subject":"7w0ojoyjgyuteqm","sona":"7450"},{"rt":null,"stimulus":"<div style=\"font-size:60px;\">+</div>","key_press":null,"trial_type":"html-keyboard-response","trial_index":84,"time_elapsed":193595,"internal_node_id":"0.0-8.0-1.19","subject":"7w0ojoyjgyuteqm","sona":"7450"},{"trial_type":"turing-test","trial_index":85,"time_elapsed":199779,"internal_node_id":"0.0-8.0-2.19","subject":"7w0ojoyjgyuteqm","sona":"7450"},{"rt":922.444999916479,"stimulus":"<p>Welche Sequenz haben Sie als natürlicher empfunden?</p>","key_press":74,"test_part":"response","test_stimulus":{"position":0,"left":"bvh/return-bottle-training1-lines.txt","right":"bvh/vr_prediction_models/model(tmp)-dataset(return-bottle)-numprim(11)-hold(1)/final-lines.txt","att_check":false},"trial_type":"html-keyboard-response","trial_index":86,"time_elapsed":200711,"internal_node_id":"0.0-8.0-3.19","subject":"7w0ojoyjgyuteqm","sona":"7450"},{"rt":391.7800000635907,"stimulus":"<p>Bereit?</p>","key_press":32,"trial_type":"html-keyboard-response","trial_index":87,"time_elapsed":201109,"internal_node_id":"0.0-8.0-0.20","subject":"7w0ojoyjgyuteqm","sona":"7450"},{"rt":null,"stimulus":"<div style=\"font-size:60px;\">+</div>","key_press":null,"trial_type":"html-keyboard-response","trial_index":88,"time_elapsed":203116,"internal_node_id":"0.0-8.0-1.20","subject":"7w0ojoyjgyuteqm","sona":"7450"},{"trial_type":"turing-test","trial_index":89,"time_elapsed":206955,"internal_node_id":"0.0-8.0-2.20","subject":"7w0ojoyjgyuteqm","sona":"7450"},{"rt":515.1250000344589,"stimulus":"<p>Welche Sequenz haben Sie als natürlicher empfunden?</p>","key_press":74,"test_part":"response","test_stimulus":{"position":1,"left":"bvh/vr_prediction_models/model(vcgpdm)-dataset(return-bottle-hold)-mode(ELBO)-parts(3)-dyn(20)-lvm(35)-hold(3)/final-lines.txt","right":"bvh/return-bottle-hold-training3-lines.txt","att_check":false},"trial_type":"html-keyboard-response","trial_index":90,"time_elapsed":207478,"internal_node_id":"0.0-8.0-3.20","subject":"7w0ojoyjgyuteqm","sona":"7450"},{"rt":356.41500004567206,"stimulus":"<p>Bereit?</p>","key_press":32,"trial_type":"html-keyboard-response","trial_index":91,"time_elapsed":207841,"internal_node_id":"0.0-8.0-0.21","subject":"7w0ojoyjgyuteqm","sona":"7450"},{"rt":null,"stimulus":"<div style=\"font-size:60px;\">+</div>","key_press":null,"trial_type":"html-keyboard-response","trial_index":92,"time_elapsed":209862,"internal_node_id":"0.0-8.0-1.21","subject":"7w0ojoyjgyuteqm","sona":"7450"},{"trial_type":"turing-test","trial_index":93,"time_elapsed":213695,"internal_node_id":"0.0-8.0-2.21","subject":"7w0ojoyjgyuteqm","sona":"7450"},{"rt":722.8449999820441,"stimulus":"<p>Welche Sequenz haben Sie als natürlicher empfunden?</p>","key_press":70,"test_part":"response","test_stimulus":{"position":1,"left":"bvh/vr_prediction_models/model(vcgpdm)-dataset(pass-bottle-hold)-mode(ELBO)-parts(1)-dyn(30)-lvm(35)-hold(3)/final-lines.txt","right":"bvh/pass-bottle-hold-training3-lines.txt","att_check":false},"trial_type":"html-keyboard-response","trial_index":94,"time_elapsed":214426,"internal_node_id":"0.0-8.0-3.21","subject":"7w0ojoyjgyuteqm","sona":"7450"},{"rt":341.939999954775,"stimulus":"<p>Bereit?</p>","key_press":32,"trial_type":"html-keyboard-response","trial_index":95,"time_elapsed":214776,"internal_node_id":"0.0-8.0-0.22","subject":"7w0ojoyjgyuteqm","sona":"7450"},{"rt":null,"stimulus":"<div style=\"font-size:60px;\">+</div>","key_press":null,"trial_type":"html-keyboard-response","trial_index":96,"time_elapsed":216783,"internal_node_id":"0.0-8.0-1.22","subject":"7w0ojoyjgyuteqm","sona":"7450"},{"trial_type":"turing-test","trial_index":97,"time_elapsed":220579,"internal_node_id":"0.0-8.0-2.22","subject":"7w0ojoyjgyuteqm","sona":"7450"},{"rt":2188.8249999610707,"stimulus":"<p>Welche Sequenz haben Sie als natürlicher empfunden?</p>","key_press":74,"test_part":"response","test_stimulus":{"position":1,"left":"bvh/vr_prediction_models/model(vcgpdm)-dataset(pass-bottle-hold)-mode(ELBO)-parts(3)-dyn(25)-lvm(30)-hold(4)/final-lines.txt","right":"bvh/pass-bottle-hold-training4-lines.txt","att_check":false},"trial_type":"html-keyboard-response","trial_index":98,"time_elapsed":222778,"internal_node_id":"0.0-8.0-3.22","subject":"7w0ojoyjgyuteqm","sona":"7450"},{"rt":184.01999992784113,"stimulus":"<p>Bereit?</p>","key_press":32,"trial_type":"html-keyboard-response","trial_index":99,"time_elapsed":222969,"internal_node_id":"0.0-8.0-0.23","subject":"7w0ojoyjgyuteqm","sona":"7450"},{"rt":null,"stimulus":"<div style=\"font-size:60px;\">+</div>","key_press":null,"trial_type":"html-keyboard-response","trial_index":100,"time_elapsed":224972,"internal_node_id":"0.0-8.0-1.23","subject":"7w0ojoyjgyuteqm","sona":"7450"},{"trial_type":"turing-test","trial_index":101,"time_elapsed":230950,"internal_node_id":"0.0-8.0-2.23","subject":"7w0ojoyjgyuteqm","sona":"7450"},{"rt":642.3850000137463,"stimulus":"<p>Welche Sequenz haben Sie als natürlicher empfunden?</p>","key_press":70,"test_part":"response","test_stimulus":{"position":0,"left":"bvh/pass-bottle-training3-lines.txt","right":"bvh/vr_prediction_models/model(vcgpdm)-dataset(pass-bottle)-mode(ELBO)-parts(3)-dyn(10)-lvm(30)-hold(3)/final-lines.txt","att_check":false},"trial_type":"html-keyboard-response","trial_index":102,"time_elapsed":231605,"internal_node_id":"0.0-8.0-3.23","subject":"7w0ojoyjgyuteqm","sona":"7450"},{"rt":326.2749999994412,"stimulus":"<p>Bereit?</p>","key_press":32,"trial_type":"html-keyboard-response","trial_index":103,"time_elapsed":231938,"internal_node_id":"0.0-8.0-0.24","subject":"7w0ojoyjgyuteqm","sona":"7450"},{"rt":null,"stimulus":"<div style=\"font-size:60px;\">+</div>","key_press":null,"trial_type":"html-keyboard-response","trial_index":104,"time_elapsed":233944,"internal_node_id":"0.0-8.0-1.24","subject":"7w0ojoyjgyuteqm","sona":"7450"},{"trial_type":"turing-test","trial_index":105,"time_elapsed":239394,"internal_node_id":"0.0-8.0-2.24","subject":"7w0ojoyjgyuteqm","sona":"7450"},{"rt":607.7400000067428,"stimulus":"<p>Welche Sequenz haben Sie als natürlicher empfunden?</p>","key_press":74,"test_part":"response","test_stimulus":{"position":0,"left":"bvh/pass-bottle-training1-lines.txt","right":"bvh/vr_prediction_models/model(tmp)-dataset(pass-bottle)-numprim(14)-hold(1)/final-lines.txt","att_check":false},"trial_type":"html-keyboard-response","trial_index":106,"time_elapsed":240011,"internal_node_id":"0.0-8.0-3.24","subject":"7w0ojoyjgyuteqm","sona":"7450"},{"rt":268.6550000216812,"stimulus":"<p>Bereit?</p>","key_press":32,"trial_type":"html-keyboard-response","trial_index":107,"time_elapsed":240289,"internal_node_id":"0.0-8.0-0.25","subject":"7w0ojoyjgyuteqm","sona":"7450"},{"rt":null,"stimulus":"<div style=\"font-size:60px;\">+</div>","key_press":null,"trial_type":"html-keyboard-response","trial_index":108,"time_elapsed":242299,"internal_node_id":"0.0-8.0-1.25","subject":"7w0ojoyjgyuteqm","sona":"7450"},{"trial_type":"turing-test","trial_index":109,"time_elapsed":248021,"internal_node_id":"0.0-8.0-2.25","subject":"7w0ojoyjgyuteqm","sona":"7450"},{"rt":671.364999958314,"stimulus":"<p>Welche Sequenz haben Sie als natürlicher empfunden?</p>","key_press":70,"test_part":"response","test_stimulus":{"position":1,"left":"bvh/vr_prediction_models/model(vcgpdm)-dataset(pass-bottle)-mode(ELBO)-parts(3)-dyn(20)-lvm(35)-hold(1)/final-lines.txt","right":"bvh/pass-bottle-training1-lines.txt","att_check":false},"trial_type":"html-keyboard-response","trial_index":110,"time_elapsed":248701,"internal_node_id":"0.0-8.0-3.25","subject":"7w0ojoyjgyuteqm","sona":"7450"},{"rt":303.1050000572577,"stimulus":"<p>Bereit?</p>","key_press":32,"trial_type":"html-keyboard-response","trial_index":111,"time_elapsed":249011,"internal_node_id":"0.0-8.0-0.26","subject":"7w0ojoyjgyuteqm","sona":"7450"},{"rt":null,"stimulus":"<div style=\"font-size:60px;\">+</div>","key_press":null,"trial_type":"html-keyboard-response","trial_index":112,"time_elapsed":251015,"internal_node_id":"0.0-8.0-1.26","subject":"7w0ojoyjgyuteqm","sona":"7450"},{"trial_type":"turing-test","trial_index":113,"time_elapsed":258025,"internal_node_id":"0.0-8.0-2.26","subject":"7w0ojoyjgyuteqm","sona":"7450"},{"rt":931.7799999844283,"stimulus":"<p>Welche Sequenz haben Sie als natürlicher empfunden?</p>","key_press":74,"test_part":"response","test_stimulus":{"position":1,"left":"bvh/vr_prediction_models/model(vcgpdm)-dataset(pass-bottle)-mode(ELBO)-parts(1)-dyn(35)-lvm(10)-hold(0)/final-lines.txt","right":"bvh/pass-bottle-training0-lines.txt","att_check":false},"trial_type":"html-keyboard-response","trial_index":114,"time_elapsed":258967,"internal_node_id":"0.0-8.0-3.26","subject":"7w0ojoyjgyuteqm","sona":"7450"},{"rt":333.5499999811873,"stimulus":"<p>Bereit?</p>","key_press":32,"trial_type":"html-keyboard-response","trial_index":115,"time_elapsed":259309,"internal_node_id":"0.0-8.0-0.27","subject":"7w0ojoyjgyuteqm","sona":"7450"},{"rt":null,"stimulus":"<div style=\"font-size:60px;\">+</div>","key_press":null,"trial_type":"html-keyboard-response","trial_index":116,"time_elapsed":261318,"internal_node_id":"0.0-8.0-1.27","subject":"7w0ojoyjgyuteqm","sona":"7450"},{"trial_type":"turing-test","trial_index":117,"time_elapsed":264965,"internal_node_id":"0.0-8.0-2.27","subject":"7w0ojoyjgyuteqm","sona":"7450"},{"rt":657.4750000145286,"stimulus":"<p>Welche Sequenz haben Sie als natürlicher empfunden?</p>","key_press":74,"test_part":"response","test_stimulus":{"position":1,"left":"bvh/vr_prediction_models/model(vcgpdm)-dataset(pass-bottle-hold)-mode(ELBO)-parts(3)-dyn(10)-lvm(25)-hold(2)/final-lines.txt","right":"bvh/pass-bottle-hold-training2-lines.txt","att_check":false},"trial_type":"html-keyboard-response","trial_index":118,"time_elapsed":265632,"internal_node_id":"0.0-8.0-3.27","subject":"7w0ojoyjgyuteqm","sona":"7450"},{"rt":332.289999932982,"stimulus":"<p>Bereit?</p>","key_press":32,"trial_type":"html-keyboard-response","trial_index":119,"time_elapsed":265972,"internal_node_id":"0.0-8.0-0.28","subject":"7w0ojoyjgyuteqm","sona":"7450"},{"rt":null,"stimulus":"<div style=\"font-size:60px;\">+</div>","key_press":null,"trial_type":"html-keyboard-response","trial_index":120,"time_elapsed":267985,"internal_node_id":"0.0-8.0-1.28","subject":"7w0ojoyjgyuteqm","sona":"7450"},{"trial_type":"turing-test","trial_index":121,"time_elapsed":274813,"internal_node_id":"0.0-8.0-2.28","subject":"7w0ojoyjgyuteqm","sona":"7450"},{"rt":580.2600000752136,"stimulus":"<p>Welche Sequenz haben Sie als natürlicher empfunden?</p>","key_press":74,"test_part":"response","test_stimulus":{"position":1,"left":"bvh/vr_prediction_models/model(dmp)-dataset(pass-bottle)-npsi(70)-hold(0)/final-lines.txt","right":"bvh/pass-bottle-training0-lines.txt","att_check":false},"trial_type":"html-keyboard-response","trial_index":122,"time_elapsed":275403,"internal_node_id":"0.0-8.0-3.28","subject":"7w0ojoyjgyuteqm","sona":"7450"},{"rt":318.71500005945563,"stimulus":"<p>Bereit?</p>","key_press":32,"trial_type":"html-keyboard-response","trial_index":123,"time_elapsed":275731,"internal_node_id":"0.0-8.0-0.29","subject":"7w0ojoyjgyuteqm","sona":"7450"},{"rt":null,"stimulus":"<div style=\"font-size:60px;\">+</div>","key_press":null,"trial_type":"html-keyboard-response","trial_index":124,"time_elapsed":277739,"internal_node_id":"0.0-8.0-1.29","subject":"7w0ojoyjgyuteqm","sona":"7450"},{"trial_type":"turing-test","trial_index":125,"time_elapsed":283832,"internal_node_id":"0.0-8.0-2.29","subject":"7w0ojoyjgyuteqm","sona":"7450"},{"rt":898.9150000270456,"stimulus":"<p>Welche Sequenz haben Sie als natürlicher empfunden?</p>","key_press":74,"test_part":"response","test_stimulus":{"position":0,"left":"bvh/return-bottle-training1-lines.txt","right":"bvh/vr_prediction_models/model(tmp)-dataset(return-bottle)-numprim(15)-hold(1)/final-lines.txt","att_check":false},"trial_type":"html-keyboard-response","trial_index":126,"time_elapsed":284740,"internal_node_id":"0.0-8.0-3.29","subject":"7w0ojoyjgyuteqm","sona":"7450"},{"rt":310.58999989181757,"stimulus":"<p>Bereit?</p>","key_press":32,"trial_type":"html-keyboard-response","trial_index":127,"time_elapsed":285059,"internal_node_id":"0.0-8.0-0.30","subject":"7w0ojoyjgyuteqm","sona":"7450"},{"rt":null,"stimulus":"<div style=\"font-size:60px;\">+</div>","key_press":null,"trial_type":"html-keyboard-response","trial_index":128,"time_elapsed":287083,"internal_node_id":"0.0-8.0-1.30","subject":"7w0ojoyjgyuteqm","sona":"7450"},{"trial_type":"turing-test","trial_index":129,"time_elapsed":292540,"internal_node_id":"0.0-8.0-2.30","subject":"7w0ojoyjgyuteqm","sona":"7450"},{"rt":593.0800000205636,"stimulus":"<p>Welche Sequenz haben Sie als natürlicher empfunden?</p>","key_press":70,"test_part":"response","test_stimulus":{"position":0,"left":"bvh/return-bottle-training0-lines.txt","right":"bvh/vr_prediction_models/model(dmp)-dataset(return-bottle)-npsi(40)-hold(0)/final-lines.txt","att_check":false},"trial_type":"html-keyboard-response","trial_index":130,"time_elapsed":293140,"internal_node_id":"0.0-8.0-3.30","subject":"7w0ojoyjgyuteqm","sona":"7450"},{"rt":354.4599999440834,"stimulus":"<p>Bereit?</p>","key_press":32,"trial_type":"html-keyboard-response","trial_index":131,"time_elapsed":293502,"internal_node_id":"0.0-8.0-0.31","subject":"7w0ojoyjgyuteqm","sona":"7450"},{"rt":null,"stimulus":"<div style=\"font-size:60px;\">+</div>","key_press":null,"trial_type":"html-keyboard-response","trial_index":132,"time_elapsed":295515,"internal_node_id":"0.0-8.0-1.31","subject":"7w0ojoyjgyuteqm","sona":"7450"},{"trial_type":"turing-test","trial_index":133,"time_elapsed":299242,"internal_node_id":"0.0-8.0-2.31","subject":"7w0ojoyjgyuteqm","sona":"7450"},{"rt":557.0000000298023,"stimulus":"<p>Welche Sequenz haben Sie als natürlicher empfunden?</p>","key_press":70,"test_part":"response","test_stimulus":{"position":0,"left":"bvh/return-bottle-hold-training4-lines.txt","right":"bvh/vr_prediction_models/model(tmp)-dataset(return-bottle-hold)-numprim(10)-hold(4)/final-lines.txt","att_check":false},"trial_type":"html-keyboard-response","trial_index":134,"time_elapsed":299808,"internal_node_id":"0.0-8.0-3.31","subject":"7w0ojoyjgyuteqm","sona":"7450"},{"rt":260.6949999462813,"stimulus":"<p>Bereit?</p>","key_press":32,"trial_type":"html-keyboard-response","trial_index":135,"time_elapsed":300078,"internal_node_id":"0.0-8.0-0.32","subject":"7w0ojoyjgyuteqm","sona":"7450"},{"rt":null,"stimulus":"<div style=\"font-size:60px;\">+</div>","key_press":null,"trial_type":"html-keyboard-response","trial_index":136,"time_elapsed":302084,"internal_node_id":"0.0-8.0-1.32","subject":"7w0ojoyjgyuteqm","sona":"7450"},{"trial_type":"turing-test","trial_index":137,"time_elapsed":307964,"internal_node_id":"0.0-8.0-2.32","subject":"7w0ojoyjgyuteqm","sona":"7450"},{"rt":354.9099999945611,"stimulus":"<p>Welche Sequenz haben Sie als natürlicher empfunden?</p>","key_press":74,"test_part":"response","test_stimulus":{"position":1,"left":"bvh/vr_prediction_models/model(tmp)-dataset(pass-bottle)-numprim(11)-hold(3)/final-lines.txt","right":"bvh/pass-bottle-training3-lines.txt","att_check":false},"trial_type":"html-keyboard-response","trial_index":138,"time_elapsed":308329,"internal_node_id":"0.0-8.0-3.32","subject":"7w0ojoyjgyuteqm","sona":"7450"},{"rt":369.8350000195205,"stimulus":"<p>Bereit?</p>","key_press":32,"trial_type":"html-keyboard-response","trial_index":139,"time_elapsed":308707,"internal_node_id":"0.0-8.0-0.33","subject":"7w0ojoyjgyuteqm","sona":"7450"},{"rt":null,"stimulus":"<div style=\"font-size:60px;\">+</div>","key_press":null,"trial_type":"html-keyboard-response","trial_index":140,"time_elapsed":310714,"internal_node_id":"0.0-8.0-1.33","subject":"7w0ojoyjgyuteqm","sona":"7450"},{"trial_type":"turing-test","trial_index":141,"time_elapsed":314496,"internal_node_id":"0.0-8.0-2.33","subject":"7w0ojoyjgyuteqm","sona":"7450"},{"rt":422.4199999589473,"stimulus":"<p>Welche Sequenz haben Sie als natürlicher empfunden?</p>","key_press":70,"test_part":"response","test_stimulus":{"position":0,"left":"bvh/pass-bottle-hold-training4-lines.txt","right":"bvh/vr_prediction_models/model(vcgpdm)-dataset(pass-bottle-hold)-mode(ELBO)-parts(1)-dyn(25)-lvm(35)-hold(4)/final-lines.txt","att_check":false},"trial_type":"html-keyboard-response","trial_index":142,"time_elapsed":314928,"internal_node_id":"0.0-8.0-3.33","subject":"7w0ojoyjgyuteqm","sona":"7450"},{"rt":362.9850000143051,"stimulus":"<p>Bereit?</p>","key_press":32,"trial_type":"html-keyboard-response","trial_index":143,"time_elapsed":315298,"internal_node_id":"0.0-8.0-0.34","subject":"7w0ojoyjgyuteqm","sona":"7450"},{"rt":null,"stimulus":"<div style=\"font-size:60px;\">+</div>","key_press":null,"trial_type":"html-keyboard-response","trial_index":144,"time_elapsed":317313,"internal_node_id":"0.0-8.0-1.34","subject":"7w0ojoyjgyuteqm","sona":"7450"},{"trial_type":"turing-test","trial_index":145,"time_elapsed":323139,"internal_node_id":"0.0-8.0-2.34","subject":"7w0ojoyjgyuteqm","sona":"7450"},{"rt":655.544999986887,"stimulus":"<p>Welche Sequenz haben Sie als natürlicher empfunden?</p>","key_press":74,"test_part":"response","test_stimulus":{"position":1,"left":"bvh/vr_prediction_models/model(tmp)-dataset(return-bottle)-numprim(6)-hold(4)/final-lines.txt","right":"bvh/return-bottle-training4-lines.txt","att_check":false},"trial_type":"html-keyboard-response","trial_index":146,"time_elapsed":323804,"internal_node_id":"0.0-8.0-3.34","subject":"7w0ojoyjgyuteqm","sona":"7450"},{"rt":436.2950000213459,"stimulus":"<p>Bereit?</p>","key_press":32,"trial_type":"html-keyboard-response","trial_index":147,"time_elapsed":324249,"internal_node_id":"0.0-8.0-0.35","subject":"7w0ojoyjgyuteqm","sona":"7450"},{"rt":null,"stimulus":"<div style=\"font-size:60px;\">+</div>","key_press":null,"trial_type":"html-keyboard-response","trial_index":148,"time_elapsed":326263,"internal_node_id":"0.0-8.0-1.35","subject":"7w0ojoyjgyuteqm","sona":"7450"},{"trial_type":"turing-test","trial_index":149,"time_elapsed":329884,"internal_node_id":"0.0-8.0-2.35","subject":"7w0ojoyjgyuteqm","sona":"7450"},{"rt":639.629999990575,"stimulus":"<p>Welche Sequenz haben Sie als natürlicher empfunden?</p>","key_press":74,"test_part":"response","test_stimulus":{"position":1,"left":"bvh/vr_prediction_models/model(vcgpdm)-dataset(return-bottle-hold)-mode(ELBO)-parts(3)-dyn(30)-lvm(15)-hold(1)/final-lines.txt","right":"bvh/return-bottle-hold-training1-lines.txt","att_check":false},"trial_type":"html-keyboard-response","trial_index":150,"time_elapsed":330531,"internal_node_id":"0.0-8.0-3.35","subject":"7w0ojoyjgyuteqm","sona":"7450"},{"rt":293.2249999139458,"stimulus":"<p>Bereit?</p>","key_press":32,"trial_type":"html-keyboard-response","trial_index":151,"time_elapsed":330832,"internal_node_id":"0.0-8.0-0.36","subject":"7w0ojoyjgyuteqm","sona":"7450"},{"rt":null,"stimulus":"<div style=\"font-size:60px;\">+</div>","key_press":null,"trial_type":"html-keyboard-response","trial_index":152,"time_elapsed":332847,"internal_node_id":"0.0-8.0-1.36","subject":"7w0ojoyjgyuteqm","sona":"7450"},{"trial_type":"turing-test","trial_index":153,"time_elapsed":336713,"internal_node_id":"0.0-8.0-2.36","subject":"7w0ojoyjgyuteqm","sona":"7450"},{"rt":459.4799999613315,"stimulus":"<p>Welche Sequenz haben Sie als natürlicher empfunden?</p>","key_press":74,"test_part":"response","test_stimulus":{"position":1,"left":"bvh/vr_prediction_models/model(vcgpdm)-dataset(pass-bottle-hold)-mode(ELBO)-parts(1)-dyn(30)-lvm(20)-hold(4)/final-lines.txt","right":"bvh/pass-bottle-hold-training4-lines.txt","att_check":false},"trial_type":"html-keyboard-response","trial_index":154,"time_elapsed":337182,"internal_node_id":"0.0-8.0-3.36","subject":"7w0ojoyjgyuteqm","sona":"7450"},{"rt":351.38499992899597,"stimulus":"<p>Bereit?</p>","key_press":32,"trial_type":"html-keyboard-response","trial_index":155,"time_elapsed":337540,"internal_node_id":"0.0-8.0-0.37","subject":"7w0ojoyjgyuteqm","sona":"7450"},{"rt":null,"stimulus":"<div style=\"font-size:60px;\">+</div>","key_press":null,"trial_type":"html-keyboard-response","trial_index":156,"time_elapsed":339552,"internal_node_id":"0.0-8.0-1.37","subject":"7w0ojoyjgyuteqm","sona":"7450"},{"trial_type":"turing-test","trial_index":157,"time_elapsed":342872,"internal_node_id":"0.0-8.0-2.37","subject":"7w0ojoyjgyuteqm","sona":"7450"},{"rt":269.62499995715916,"stimulus":"<p>Welche Sequenz haben Sie als natürlicher empfunden?</p>","key_press":70,"test_part":"response","test_stimulus":{"position":1,"left":"bvh/vr_prediction_models/model(vcgpdm)-dataset(return-bottle-hold)-mode(ELBO)-parts(3)-dyn(30)-lvm(15)-hold(1)/final-lines.txt","right":"bvh/return-bottle-hold-training1-lines.txt","att_check":false},"trial_type":"html-keyboard-response","trial_index":158,"time_elapsed":343151,"internal_node_id":"0.0-8.0-3.37","subject":"7w0ojoyjgyuteqm","sona":"7450"},{"rt":273.0199999641627,"stimulus":"<p>Bereit?</p>","key_press":32,"trial_type":"html-keyboard-response","trial_index":159,"time_elapsed":343431,"internal_node_id":"0.0-8.0-0.38","subject":"7w0ojoyjgyuteqm","sona":"7450"},{"rt":null,"stimulus":"<div style=\"font-size:60px;\">+</div>","key_press":null,"trial_type":"html-keyboard-response","trial_index":160,"time_elapsed":345437,"internal_node_id":"0.0-8.0-1.38","subject":"7w0ojoyjgyuteqm","sona":"7450"},{"trial_type":"turing-test","trial_index":161,"time_elapsed":349227,"internal_node_id":"0.0-8.0-2.38","subject":"7w0ojoyjgyuteqm","sona":"7450"},{"rt":356.6899999277666,"stimulus":"<p>Welche Sequenz haben Sie als natürlicher empfunden?</p>","key_press":70,"test_part":"response","test_stimulus":{"position":1,"left":"bvh/vr_prediction_models/model(vcgpdm)-dataset(pass-bottle-hold)-mode(ELBO)-parts(1)-dyn(10)-lvm(5)-hold(3)/final-lines.txt","right":"bvh/pass-bottle-hold-training3-lines.txt","att_check":false},"trial_type":"html-keyboard-response","trial_index":162,"time_elapsed":349590,"internal_node_id":"0.0-8.0-3.38","subject":"7w0ojoyjgyuteqm","sona":"7450"},{"rt":282.5899999588728,"stimulus":"<p>Bereit?</p>","key_press":32,"trial_type":"html-keyboard-response","trial_index":163,"time_elapsed":349881,"internal_node_id":"0.0-8.0-0.39","subject":"7w0ojoyjgyuteqm","sona":"7450"},{"rt":null,"stimulus":"<div style=\"font-size:60px;\">+</div>","key_press":null,"trial_type":"html-keyboard-response","trial_index":164,"time_elapsed":351900,"internal_node_id":"0.0-8.0-1.39","subject":"7w0ojoyjgyuteqm","sona":"7450"},{"trial_type":"turing-test","trial_index":165,"time_elapsed":355346,"internal_node_id":"0.0-8.0-2.39","subject":"7w0ojoyjgyuteqm","sona":"7450"},{"rt":474.5549999643117,"stimulus":"<p>Welche Sequenz haben Sie als natürlicher empfunden?</p>","key_press":74,"test_part":"response","test_stimulus":{"position":1,"left":"bvh/vr_prediction_models/model(vcgpdm)-dataset(pass-bottle-hold)-mode(ELBO)-parts(1)-dyn(15)-lvm(35)-hold(1)/final-lines.txt","right":"bvh/pass-bottle-hold-training1-lines.txt","att_check":false},"trial_type":"html-keyboard-response","trial_index":166,"time_elapsed":355831,"internal_node_id":"0.0-8.0-3.39","subject":"7w0ojoyjgyuteqm","sona":"7450"},{"rt":350.08500004187226,"stimulus":"<p>Bereit?</p>","key_press":32,"trial_type":"html-keyboard-response","trial_index":167,"time_elapsed":356191,"internal_node_id":"0.0-8.0-0.40","subject":"7w0ojoyjgyuteqm","sona":"7450"},{"rt":null,"stimulus":"<div style=\"font-size:60px;\">+</div>","key_press":null,"trial_type":"html-keyboard-response","trial_index":168,"time_elapsed":358203,"internal_node_id":"0.0-8.0-1.40","subject":"7w0ojoyjgyuteqm","sona":"7450"},{"trial_type":"turing-test","trial_index":169,"time_elapsed":363791,"internal_node_id":"0.0-8.0-2.40","subject":"7w0ojoyjgyuteqm","sona":"7450"},{"rt":1038.124999962747,"stimulus":"<p>Welche Sequenz haben Sie als natürlicher empfunden?</p>","key_press":70,"test_part":"response","test_stimulus":{"position":0,"left":"bvh/pass-bottle-training1-lines.txt","right":"bvh/vr_prediction_models/model(vcgpdm)-dataset(pass-bottle)-mode(ELBO)-parts(1)-dyn(20)-lvm(30)-hold(1)/final-lines.txt","att_check":false},"trial_type":"html-keyboard-response","trial_index":170,"time_elapsed":364838,"internal_node_id":"0.0-8.0-3.40","subject":"7w0ojoyjgyuteqm","sona":"7450"},{"rt":434.7350000170991,"stimulus":"<p>Bereit?</p>","key_press":32,"trial_type":"html-keyboard-response","trial_index":171,"time_elapsed":365281,"internal_node_id":"0.0-8.0-0.41","subject":"7w0ojoyjgyuteqm","sona":"7450"},{"rt":null,"stimulus":"<div style=\"font-size:60px;\">+</div>","key_press":null,"trial_type":"html-keyboard-response","trial_index":172,"time_elapsed":367286,"internal_node_id":"0.0-8.0-1.41","subject":"7w0ojoyjgyuteqm","sona":"7450"},{"trial_type":"turing-test","trial_index":173,"time_elapsed":373248,"internal_node_id":"0.0-8.0-2.41","subject":"7w0ojoyjgyuteqm","sona":"7450"},{"rt":187.38000001758337,"stimulus":"<p>Welche Sequenz haben Sie als natürlicher empfunden?</p>","key_press":74,"test_part":"response","test_stimulus":{"position":1,"left":"bvh/vr_prediction_models/model(vcgpdm)-dataset(return-bottle)-mode(ELBO)-parts(3)-dyn(20)-lvm(35)-hold(3)/final-lines.txt","right":"bvh/return-bottle-training3-lines.txt","att_check":false},"trial_type":"html-keyboard-response","trial_index":174,"time_elapsed":373446,"internal_node_id":"0.0-8.0-3.41","subject":"7w0ojoyjgyuteqm","sona":"7450"},{"rt":616.6550000198185,"stimulus":"<p>Bereit?</p>","key_press":32,"trial_type":"html-keyboard-response","trial_index":175,"time_elapsed":374070,"internal_node_id":"0.0-8.0-0.42","subject":"7w0ojoyjgyuteqm","sona":"7450"},{"rt":null,"stimulus":"<div style=\"font-size:60px;\">+</div>","key_press":null,"trial_type":"html-keyboard-response","trial_index":176,"time_elapsed":376074,"internal_node_id":"0.0-8.0-1.42","subject":"7w0ojoyjgyuteqm","sona":"7450"},{"trial_type":"turing-test","trial_index":177,"time_elapsed":379819,"internal_node_id":"0.0-8.0-2.42","subject":"7w0ojoyjgyuteqm","sona":"7450"},{"rt":622.3749999189749,"stimulus":"<p>Welche Sequenz haben Sie als natürlicher empfunden?</p>","key_press":70,"test_part":"response","test_stimulus":{"position":0,"left":"bvh/pass-bottle-hold-training3-lines.txt","right":"bvh/vr_prediction_models/model(vcgpdm)-dataset(pass-bottle-hold)-mode(MAP)-parts(1)-hold(3)/final-lines.txt","att_check":false},"trial_type":"html-keyboard-response","trial_index":178,"time_elapsed":380451,"internal_node_id":"0.0-8.0-3.42","subject":"7w0ojoyjgyuteqm","sona":"7450"},{"rt":330.3849999792874,"stimulus":"<p>Bereit?</p>","key_press":32,"trial_type":"html-keyboard-response","trial_index":179,"time_elapsed":380790,"internal_node_id":"0.0-8.0-0.43","subject":"7w0ojoyjgyuteqm","sona":"7450"},{"rt":null,"stimulus":"<div style=\"font-size:60px;\">+</div>","key_press":null,"trial_type":"html-keyboard-response","trial_index":180,"time_elapsed":382802,"internal_node_id":"0.0-8.0-1.43","subject":"7w0ojoyjgyuteqm","sona":"7450"},{"trial_type":"turing-test","trial_index":181,"time_elapsed":388417,"internal_node_id":"0.0-8.0-2.43","subject":"7w0ojoyjgyuteqm","sona":"7450"},{"rt":740.7200000016019,"stimulus":"<p>Welche Sequenz haben Sie als natürlicher empfunden?</p>","key_press":74,"test_part":"response","test_stimulus":{"position":1,"left":"bvh/vr_prediction_models/model(vcgpdm)-dataset(return-bottle)-mode(ELBO)-parts(1)-dyn(10)-lvm(5)-hold(0)/final-lines.txt","right":"bvh/return-bottle-training0-lines.txt","att_check":false},"trial_type":"html-keyboard-response","trial_index":182,"time_elapsed":389167,"internal_node_id":"0.0-8.0-3.43","subject":"7w0ojoyjgyuteqm","sona":"7450"},{"rt":445.83500002045184,"stimulus":"<p>Bereit?</p>","key_press":32,"trial_type":"html-keyboard-response","trial_index":183,"time_elapsed":389623,"internal_node_id":"0.0-8.0-0.44","subject":"7w0ojoyjgyuteqm","sona":"7450"},{"rt":null,"stimulus":"<div style=\"font-size:60px;\">+</div>","key_press":null,"trial_type":"html-keyboard-response","trial_index":184,"time_elapsed":391649,"internal_node_id":"0.0-8.0-1.44","subject":"7w0ojoyjgyuteqm","sona":"7450"},{"trial_type":"turing-test","trial_index":185,"time_elapsed":395533,"internal_node_id":"0.0-8.0-2.44","subject":"7w0ojoyjgyuteqm","sona":"7450"},{"rt":590.8749999944121,"stimulus":"<p>Welche Sequenz haben Sie als natürlicher empfunden?</p>","key_press":74,"test_part":"response","test_stimulus":{"position":1,"left":"bvh/vr_prediction_models/model(vcgpdm)-dataset(return-bottle-hold)-mode(ELBO)-parts(1)-dyn(15)-lvm(35)-hold(3)/final-lines.txt","right":"bvh/return-bottle-hold-training3-lines.txt","att_check":false},"trial_type":"html-keyboard-response","trial_index":186,"time_elapsed":396132,"internal_node_id":"0.0-8.0-3.44","subject":"7w0ojoyjgyuteqm","sona":"7450"},{"rt":180.33000000286847,"stimulus":"<p>Bereit?</p>","key_press":32,"trial_type":"html-keyboard-response","trial_index":187,"time_elapsed":396321,"internal_node_id":"0.0-8.0-0.45","subject":"7w0ojoyjgyuteqm","sona":"7450"},{"rt":null,"stimulus":"<div style=\"font-size:60px;\">+</div>","key_press":null,"trial_type":"html-keyboard-response","trial_index":188,"time_elapsed":398333,"internal_node_id":"0.0-8.0-1.45","subject":"7w0ojoyjgyuteqm","sona":"7450"},{"trial_type":"turing-test","trial_index":189,"time_elapsed":404615,"internal_node_id":"0.0-8.0-2.45","subject":"7w0ojoyjgyuteqm","sona":"7450"},{"rt":465.6749999849126,"stimulus":"<p>Welche Sequenz haben Sie als natürlicher empfunden?</p>","key_press":70,"test_part":"response","test_stimulus":{"position":0,"left":"bvh/return-bottle-training1-lines.txt","right":"bvh/vr_prediction_models/model(vcgpdm)-dataset(return-bottle)-mode(ELBO)-parts(3)-dyn(10)-lvm(10)-hold(1)/final-lines.txt","att_check":false},"trial_type":"html-keyboard-response","trial_index":190,"time_elapsed":405091,"internal_node_id":"0.0-8.0-3.45","subject":"7w0ojoyjgyuteqm","sona":"7450"},{"rt":357.9449999378994,"stimulus":"<p>Bereit?</p>","key_press":32,"trial_type":"html-keyboard-response","trial_index":191,"time_elapsed":405461,"internal_node_id":"0.0-8.0-0.46","subject":"7w0ojoyjgyuteqm","sona":"7450"},{"rt":null,"stimulus":"<div style=\"font-size:60px;\">+</div>","key_press":null,"trial_type":"html-keyboard-response","trial_index":192,"time_elapsed":407463,"internal_node_id":"0.0-8.0-1.46","subject":"7w0ojoyjgyuteqm","sona":"7450"},{"trial_type":"turing-test","trial_index":193,"time_elapsed":412632,"internal_node_id":"0.0-8.0-2.46","subject":"7w0ojoyjgyuteqm","sona":"7450"},{"rt":340.7850000075996,"stimulus":"<p>Welche Sequenz haben Sie als natürlicher empfunden?</p>","key_press":74,"test_part":"response","test_stimulus":{"position":1,"left":"bvh/vr_prediction_models/model(dmp)-dataset(return-bottle-hold)-npsi(20)-hold(0)/final-lines.txt","right":"bvh/return-bottle-hold-training0-lines.txt","att_check":false},"trial_type":"html-keyboard-response","trial_index":194,"time_elapsed":412982,"internal_node_id":"0.0-8.0-3.46","subject":"7w0ojoyjgyuteqm","sona":"7450"},{"rt":347.51500003039837,"stimulus":"<p>Bereit?</p>","key_press":32,"trial_type":"html-keyboard-response","trial_index":195,"time_elapsed":413341,"internal_node_id":"0.0-8.0-0.47","subject":"7w0ojoyjgyuteqm","sona":"7450"},{"rt":null,"stimulus":"<div style=\"font-size:60px;\">+</div>","key_press":null,"trial_type":"html-keyboard-response","trial_index":196,"time_elapsed":415347,"internal_node_id":"0.0-8.0-1.47","subject":"7w0ojoyjgyuteqm","sona":"7450"},{"trial_type":"turing-test","trial_index":197,"time_elapsed":420621,"internal_node_id":"0.0-8.0-2.47","subject":"7w0ojoyjgyuteqm","sona":"7450"},{"rt":316.9550000457093,"stimulus":"<p>Welche Sequenz haben Sie als natürlicher empfunden?</p>","key_press":70,"test_part":"response","test_stimulus":{"position":0,"left":"bvh/return-bottle-hold-training0-lines.txt","right":"bvh/vr_prediction_models/model(vcgpdm)-dataset(return-bottle-hold)-mode(ELBO)-parts(1)-dyn(10)-lvm(30)-hold(0)/final-lines.txt","att_check":false},"trial_type":"html-keyboard-response","trial_index":198,"time_elapsed":420948,"internal_node_id":"0.0-8.0-3.47","subject":"7w0ojoyjgyuteqm","sona":"7450"},{"rt":322.3049999214709,"stimulus":"<p>Bereit?</p>","key_press":32,"trial_type":"html-keyboard-response","trial_index":199,"time_elapsed":421278,"internal_node_id":"0.0-8.0-0.48","subject":"7w0ojoyjgyuteqm","sona":"7450"},{"rt":null,"stimulus":"<div style=\"font-size:60px;\">+</div>","key_press":null,"trial_type":"html-keyboard-response","trial_index":200,"time_elapsed":423284,"internal_node_id":"0.0-8.0-1.48","subject":"7w0ojoyjgyuteqm","sona":"7450"},{"trial_type":"turing-test","trial_index":201,"time_elapsed":429065,"internal_node_id":"0.0-8.0-2.48","subject":"7w0ojoyjgyuteqm","sona":"7450"},{"rt":792.81000001356,"stimulus":"<p>Welche Sequenz haben Sie als natürlicher empfunden?</p>","key_press":74,"test_part":"response","test_stimulus":{"position":1,"left":"bvh/vr_prediction_models/model(dmp)-dataset(return-bottle)-npsi(70)-hold(3)/final-lines.txt","right":"bvh/return-bottle-training3-lines.txt","att_check":false},"trial_type":"html-keyboard-response","trial_index":202,"time_elapsed":429869,"internal_node_id":"0.0-8.0-3.48","subject":"7w0ojoyjgyuteqm","sona":"7450"},{"rt":379.6050000237301,"stimulus":"<p>Bereit?</p>","key_press":32,"trial_type":"html-keyboard-response","trial_index":203,"time_elapsed":430258,"internal_node_id":"0.0-8.0-0.49","subject":"7w0ojoyjgyuteqm","sona":"7450"},{"rt":null,"stimulus":"<div style=\"font-size:60px;\">+</div>","key_press":null,"trial_type":"html-keyboard-response","trial_index":204,"time_elapsed":432263,"internal_node_id":"0.0-8.0-1.49","subject":"7w0ojoyjgyuteqm","sona":"7450"},{"trial_type":"turing-test","trial_index":205,"time_elapsed":438584,"internal_node_id":"0.0-8.0-2.49","subject":"7w0ojoyjgyuteqm","sona":"7450"},{"rt":609.1299999970943,"stimulus":"<p>Welche Sequenz haben Sie als natürlicher empfunden?</p>","key_press":70,"test_part":"response","test_stimulus":{"position":1,"left":"bvh/vr_prediction_models/model(vcgpdm)-dataset(return-bottle)-mode(MAP)-parts(1)-hold(1)/final-lines.txt","right":"bvh/return-bottle-training1-lines.txt","att_check":false},"trial_type":"html-keyboard-response","trial_index":206,"time_elapsed":439208,"internal_node_id":"0.0-8.0-3.49","subject":"7w0ojoyjgyuteqm","sona":"7450"},{"rt":361.9449998950586,"stimulus":"<p>Bereit?</p>","key_press":32,"trial_type":"html-keyboard-response","trial_index":207,"time_elapsed":439577,"internal_node_id":"0.0-8.0-0.50","subject":"7w0ojoyjgyuteqm","sona":"7450"},{"rt":null,"stimulus":"<div style=\"font-size:60px;\">+</div>","key_press":null,"trial_type":"html-keyboard-response","trial_index":208,"time_elapsed":441583,"internal_node_id":"0.0-8.0-1.50","subject":"7w0ojoyjgyuteqm","sona":"7450"},{"trial_type":"turing-test","trial_index":209,"time_elapsed":447645,"internal_node_id":"0.0-8.0-2.50","subject":"7w0ojoyjgyuteqm","sona":"7450"},{"rt":440.72000007145107,"stimulus":"<p>Welche Sequenz haben Sie als natürlicher empfunden?</p>","key_press":70,"test_part":"response","test_stimulus":{"position":0,"left":"bvh/pass-bottle-training3-lines.txt","right":"bvh/vr_prediction_models/model(vcgpdm)-dataset(pass-bottle)-mode(ELBO)-parts(1)-dyn(35)-lvm(10)-hold(3)/final-lines.txt","att_check":false},"trial_type":"html-keyboard-response","trial_index":210,"time_elapsed":448097,"internal_node_id":"0.0-8.0-3.50","subject":"7w0ojoyjgyuteqm","sona":"7450"},{"rt":358.1299999495968,"stimulus":"<p>Bereit?</p>","key_press":32,"trial_type":"html-keyboard-response","trial_index":211,"time_elapsed":448466,"internal_node_id":"0.0-8.0-0.51","subject":"7w0ojoyjgyuteqm","sona":"7450"},{"rt":null,"stimulus":"<div style=\"font-size:60px;\">+</div>","key_press":null,"trial_type":"html-keyboard-response","trial_index":212,"time_elapsed":450472,"internal_node_id":"0.0-8.0-1.51","subject":"7w0ojoyjgyuteqm","sona":"7450"},{"trial_type":"turing-test","trial_index":213,"time_elapsed":453968,"internal_node_id":"0.0-8.0-2.51","subject":"7w0ojoyjgyuteqm","sona":"7450"},{"rt":495.4799999250099,"stimulus":"<p>Welche Sequenz haben Sie als natürlicher empfunden?</p>","key_press":70,"test_part":"response","test_stimulus":{"position":0,"left":"bvh/pass-bottle-hold-training0-lines.txt","right":"bvh/vr_prediction_models/model(vcgpdm)-dataset(pass-bottle-hold)-mode(ELBO)-parts(3)-dyn(20)-lvm(35)-hold(0)/final-lines.txt","att_check":false},"trial_type":"html-keyboard-response","trial_index":214,"time_elapsed":454474,"internal_node_id":"0.0-8.0-3.51","subject":"7w0ojoyjgyuteqm","sona":"7450"},{"rt":385.80499996896833,"stimulus":"<p>Bereit?</p>","key_press":32,"trial_type":"html-keyboard-response","trial_index":215,"time_elapsed":454868,"internal_node_id":"0.0-8.0-0.52","subject":"7w0ojoyjgyuteqm","sona":"7450"},{"rt":null,"stimulus":"<div style=\"font-size:60px;\">+</div>","key_press":null,"trial_type":"html-keyboard-response","trial_index":216,"time_elapsed":456881,"internal_node_id":"0.0-8.0-1.52","subject":"7w0ojoyjgyuteqm","sona":"7450"},{"trial_type":"turing-test","trial_index":217,"time_elapsed":460637,"internal_node_id":"0.0-8.0-2.52","subject":"7w0ojoyjgyuteqm","sona":"7450"},{"rt":412.48499997891486,"stimulus":"<p>Welche Sequenz haben Sie als natürlicher empfunden?</p>","key_press":74,"test_part":"response","test_stimulus":{"position":1,"left":"bvh/vr_prediction_models/model(vcgpdm)-dataset(return-bottle-hold)-mode(ELBO)-parts(1)-dyn(10)-lvm(30)-hold(2)/final-lines.txt","right":"bvh/return-bottle-hold-training2-lines.txt","att_check":false},"trial_type":"html-keyboard-response","trial_index":218,"time_elapsed":461058,"internal_node_id":"0.0-8.0-3.52","subject":"7w0ojoyjgyuteqm","sona":"7450"},{"rt":439.795000012964,"stimulus":"<p>Bereit?</p>","key_press":32,"trial_type":"html-keyboard-response","trial_index":219,"time_elapsed":461507,"internal_node_id":"0.0-8.0-0.53","subject":"7w0ojoyjgyuteqm","sona":"7450"},{"rt":null,"stimulus":"<div style=\"font-size:60px;\">+</div>","key_press":null,"trial_type":"html-keyboard-response","trial_index":220,"time_elapsed":463516,"internal_node_id":"0.0-8.0-1.53","subject":"7w0ojoyjgyuteqm","sona":"7450"},{"trial_type":"turing-test","trial_index":221,"time_elapsed":469367,"internal_node_id":"0.0-8.0-2.53","subject":"7w0ojoyjgyuteqm","sona":"7450"},{"rt":567.5200000405312,"stimulus":"<p>Welche Sequenz haben Sie als natürlicher empfunden?</p>","key_press":70,"test_part":"response","test_stimulus":{"position":0,"left":"bvh/pass-bottle-training4-lines.txt","right":"bvh/vr_prediction_models/model(dmp)-dataset(pass-bottle)-npsi(80)-hold(4)/final-lines.txt","att_check":true},"trial_type":"html-keyboard-response","trial_index":222,"time_elapsed":469946,"internal_node_id":"0.0-8.0-3.53","subject":"7w0ojoyjgyuteqm","sona":"7450"},{"rt":363.68499998934567,"stimulus":"<p>Bereit?</p>","key_press":32,"trial_type":"html-keyboard-response","trial_index":223,"time_elapsed":470318,"internal_node_id":"0.0-8.0-0.54","subject":"7w0ojoyjgyuteqm","sona":"7450"},{"rt":null,"stimulus":"<div style=\"font-size:60px;\">+</div>","key_press":null,"trial_type":"html-keyboard-response","trial_index":224,"time_elapsed":472324,"internal_node_id":"0.0-8.0-1.54","subject":"7w0ojoyjgyuteqm","sona":"7450"},{"trial_type":"turing-test","trial_index":225,"time_elapsed":479120,"internal_node_id":"0.0-8.0-2.54","subject":"7w0ojoyjgyuteqm","sona":"7450"},{"rt":494.20999991707504,"stimulus":"<p>Welche Sequenz haben Sie als natürlicher empfunden?</p>","key_press":74,"test_part":"response","test_stimulus":{"position":0,"left":"bvh/return-bottle-training2-lines.txt","right":"bvh/vr_prediction_models/model(vcgpdm)-dataset(return-bottle)-mode(ELBO)-parts(1)-dyn(20)-lvm(20)-hold(2)/final-lines.txt","att_check":false},"trial_type":"html-keyboard-response","trial_index":226,"time_elapsed":479625,"internal_node_id":"0.0-8.0-3.54","subject":"7w0ojoyjgyuteqm","sona":"7450"},{"rt":276.2949999887496,"stimulus":"<p>Bereit?</p>","key_press":32,"trial_type":"html-keyboard-response","trial_index":227,"time_elapsed":479909,"internal_node_id":"0.0-8.0-0.55","subject":"7w0ojoyjgyuteqm","sona":"7450"},{"rt":null,"stimulus":"<div style=\"font-size:60px;\">+</div>","key_press":null,"trial_type":"html-keyboard-response","trial_index":228,"time_elapsed":481929,"internal_node_id":"0.0-8.0-1.55","subject":"7w0ojoyjgyuteqm","sona":"7450"},{"trial_type":"turing-test","trial_index":229,"time_elapsed":488538,"internal_node_id":"0.0-8.0-2.55","subject":"7w0ojoyjgyuteqm","sona":"7450"},{"rt":340.6750001013279,"stimulus":"<p>Welche Sequenz haben Sie als natürlicher empfunden?</p>","key_press":70,"test_part":"response","test_stimulus":{"position":0,"left":"bvh/return-bottle-training2-lines.txt","right":"bvh/vr_prediction_models/model(dmp)-dataset(return-bottle)-npsi(70)-hold(2)/final-lines.txt","att_check":false},"trial_type":"html-keyboard-response","trial_index":230,"time_elapsed":488889,"internal_node_id":"0.0-8.0-3.55","subject":"7w0ojoyjgyuteqm","sona":"7450"},{"rt":408.1850000657141,"stimulus":"<p>Bereit?</p>","key_press":32,"trial_type":"html-keyboard-response","trial_index":231,"time_elapsed":489309,"internal_node_id":"0.0-8.0-0.56","subject":"7w0ojoyjgyuteqm","sona":"7450"},{"rt":null,"stimulus":"<div style=\"font-size:60px;\">+</div>","key_press":null,"trial_type":"html-keyboard-response","trial_index":232,"time_elapsed":491329,"internal_node_id":"0.0-8.0-1.56","subject":"7w0ojoyjgyuteqm","sona":"7450"},{"trial_type":"turing-test","trial_index":233,"time_elapsed":496947,"internal_node_id":"0.0-8.0-2.56","subject":"7w0ojoyjgyuteqm","sona":"7450"},{"rt":481.11499997321516,"stimulus":"<p>Welche Sequenz haben Sie als natürlicher empfunden?</p>","key_press":70,"test_part":"response","test_stimulus":{"position":1,"left":"bvh/vr_prediction_models/model(vcgpdm)-dataset(return-bottle)-mode(ELBO)-parts(1)-dyn(30)-lvm(30)-hold(0)/final-lines.txt","right":"bvh/return-bottle-training0-lines.txt","att_check":false},"trial_type":"html-keyboard-response","trial_index":234,"time_elapsed":497440,"internal_node_id":"0.0-8.0-3.56","subject":"7w0ojoyjgyuteqm","sona":"7450"},{"rt":378.5249999491498,"stimulus":"<p>Bereit?</p>","key_press":32,"trial_type":"html-keyboard-response","trial_index":235,"time_elapsed":497829,"internal_node_id":"0.0-8.0-0.57","subject":"7w0ojoyjgyuteqm","sona":"7450"},{"rt":null,"stimulus":"<div style=\"font-size:60px;\">+</div>","key_press":null,"trial_type":"html-keyboard-response","trial_index":236,"time_elapsed":499836,"internal_node_id":"0.0-8.0-1.57","subject":"7w0ojoyjgyuteqm","sona":"7450"},{"trial_type":"turing-test","trial_index":237,"time_elapsed":506796,"internal_node_id":"0.0-8.0-2.57","subject":"7w0ojoyjgyuteqm","sona":"7450"},{"rt":563.1599999032915,"stimulus":"<p>Welche Sequenz haben Sie als natürlicher empfunden?</p>","key_press":70,"test_part":"response","test_stimulus":{"position":1,"left":"bvh/vr_prediction_models/model(vcgpdm)-dataset(pass-bottle)-mode(MAP)-parts(3)-hold(0)/final-lines.txt","right":"bvh/pass-bottle-training0-lines.txt","att_check":false},"trial_type":"html-keyboard-response","trial_index":238,"time_elapsed":507371,"internal_node_id":"0.0-8.0-3.57","subject":"7w0ojoyjgyuteqm","sona":"7450"},{"rt":387.5499999849126,"stimulus":"<p>Bereit?</p>","key_press":32,"trial_type":"html-keyboard-response","trial_index":239,"time_elapsed":507768,"internal_node_id":"0.0-8.0-0.58","subject":"7w0ojoyjgyuteqm","sona":"7450"},{"rt":null,"stimulus":"<div style=\"font-size:60px;\">+</div>","key_press":null,"trial_type":"html-keyboard-response","trial_index":240,"time_elapsed":509783,"internal_node_id":"0.0-8.0-1.58","subject":"7w0ojoyjgyuteqm","sona":"7450"},{"trial_type":"turing-test","trial_index":241,"time_elapsed":515569,"internal_node_id":"0.0-8.0-2.58","subject":"7w0ojoyjgyuteqm","sona":"7450"},{"rt":682.2649999521673,"stimulus":"<p>Welche Sequenz haben Sie als natürlicher empfunden?</p>","key_press":74,"test_part":"response","test_stimulus":{"position":0,"left":"bvh/pass-bottle-training4-lines.txt","right":"bvh/vr_prediction_models/model(tmp)-dataset(pass-bottle)-numprim(12)-hold(4)/final-lines.txt","att_check":false},"trial_type":"html-keyboard-response","trial_index":242,"time_elapsed":516263,"internal_node_id":"0.0-8.0-3.58","subject":"7w0ojoyjgyuteqm","sona":"7450"},{"rt":323.65000003483146,"stimulus":"<p>Bereit?</p>","key_press":32,"trial_type":"html-keyboard-response","trial_index":243,"time_elapsed":516595,"internal_node_id":"0.0-8.0-0.59","subject":"7w0ojoyjgyuteqm","sona":"7450"},{"rt":null,"stimulus":"<div style=\"font-size:60px;\">+</div>","key_press":null,"trial_type":"html-keyboard-response","trial_index":244,"time_elapsed":518612,"internal_node_id":"0.0-8.0-1.59","subject":"7w0ojoyjgyuteqm","sona":"7450"},{"trial_type":"turing-test","trial_index":245,"time_elapsed":522236,"internal_node_id":"0.0-8.0-2.59","subject":"7w0ojoyjgyuteqm","sona":"7450"},{"rt":691.5250000311062,"stimulus":"<p>Welche Sequenz haben Sie als natürlicher empfunden?</p>","key_press":70,"test_part":"response","test_stimulus":{"position":1,"left":"bvh/vr_prediction_models/model(dmp)-dataset(pass-bottle-hold)-npsi(80)-hold(3)/final-lines.txt","right":"bvh/pass-bottle-hold-training3-lines.txt","att_check":false},"trial_type":"html-keyboard-response","trial_index":246,"time_elapsed":522938,"internal_node_id":"0.0-8.0-3.59","subject":"7w0ojoyjgyuteqm","sona":"7450"},{"rt":305.2150000585243,"stimulus":"<p>Bereit?</p>","key_press":32,"trial_type":"html-keyboard-response","trial_index":247,"time_elapsed":523255,"internal_node_id":"0.0-8.0-0.60","subject":"7w0ojoyjgyuteqm","sona":"7450"},{"rt":null,"stimulus":"<div style=\"font-size:60px;\">+</div>","key_press":null,"trial_type":"html-keyboard-response","trial_index":248,"time_elapsed":525265,"internal_node_id":"0.0-8.0-1.60","subject":"7w0ojoyjgyuteqm","sona":"7450"},{"trial_type":"turing-test","trial_index":249,"time_elapsed":531410,"internal_node_id":"0.0-8.0-2.60","subject":"7w0ojoyjgyuteqm","sona":"7450"},{"rt":600.0200000125915,"stimulus":"<p>Welche Sequenz haben Sie als natürlicher empfunden?</p>","key_press":70,"test_part":"response","test_stimulus":{"position":1,"left":"bvh/vr_prediction_models/model(tmp)-dataset(pass-bottle)-numprim(7)-hold(2)/final-lines.txt","right":"bvh/pass-bottle-training2-lines.txt","att_check":false},"trial_type":"html-keyboard-response","trial_index":250,"time_elapsed":532026,"internal_node_id":"0.0-8.0-3.60","subject":"7w0ojoyjgyuteqm","sona":"7450"},{"rt":419.40999997314066,"stimulus":"<p>Bereit?</p>","key_press":32,"trial_type":"html-keyboard-response","trial_index":251,"time_elapsed":532455,"internal_node_id":"0.0-8.0-0.61","subject":"7w0ojoyjgyuteqm","sona":"7450"},{"rt":null,"stimulus":"<div style=\"font-size:60px;\">+</div>","key_press":null,"trial_type":"html-keyboard-response","trial_index":252,"time_elapsed":534463,"internal_node_id":"0.0-8.0-1.61","subject":"7w0ojoyjgyuteqm","sona":"7450"},{"trial_type":"turing-test","trial_index":253,"time_elapsed":538201,"internal_node_id":"0.0-8.0-2.61","subject":"7w0ojoyjgyuteqm","sona":"7450"},{"rt":619.014999945648,"stimulus":"<p>Welche Sequenz haben Sie als natürlicher empfunden?</p>","key_press":74,"test_part":"response","test_stimulus":{"position":0,"left":"bvh/return-bottle-hold-training4-lines.txt","right":"bvh/vr_prediction_models/model(tmp)-dataset(return-bottle-hold)-numprim(4)-hold(4)/final-lines.txt","att_check":false},"trial_type":"html-keyboard-response","trial_index":254,"time_elapsed":538829,"internal_node_id":"0.0-8.0-3.61","subject":"7w0ojoyjgyuteqm","sona":"7450"},{"rt":339.8249999154359,"stimulus":"<p>Bereit?</p>","key_press":32,"trial_type":"html-keyboard-response","trial_index":255,"time_elapsed":539179,"internal_node_id":"0.0-8.0-0.62","subject":"7w0ojoyjgyuteqm","sona":"7450"},{"rt":null,"stimulus":"<div style=\"font-size:60px;\">+</div>","key_press":null,"trial_type":"html-keyboard-response","trial_index":256,"time_elapsed":541186,"internal_node_id":"0.0-8.0-1.62","subject":"7w0ojoyjgyuteqm","sona":"7450"},{"trial_type":"turing-test","trial_index":257,"time_elapsed":547896,"internal_node_id":"0.0-8.0-2.62","subject":"7w0ojoyjgyuteqm","sona":"7450"},{"rt":281.8549999501556,"stimulus":"<p>Welche Sequenz haben Sie als natürlicher empfunden?</p>","key_press":70,"test_part":"response","test_stimulus":{"position":0,"left":"bvh/return-bottle-training2-lines.txt","right":"bvh/vr_prediction_models/model(dmp)-dataset(return-bottle)-npsi(30)-hold(2)/final-lines.txt","att_check":false},"trial_type":"html-keyboard-response","trial_index":258,"time_elapsed":548188,"internal_node_id":"0.0-8.0-3.62","subject":"7w0ojoyjgyuteqm","sona":"7450"},{"rt":323.8800000399351,"stimulus":"<p>Bereit?</p>","key_press":32,"trial_type":"html-keyboard-response","trial_index":259,"time_elapsed":548528,"internal_node_id":"0.0-8.0-0.63","subject":"7w0ojoyjgyuteqm","sona":"7450"},{"rt":null,"stimulus":"<div style=\"font-size:60px;\">+</div>","key_press":null,"trial_type":"html-keyboard-response","trial_index":260,"time_elapsed":550536,"internal_node_id":"0.0-8.0-1.63","subject":"7w0ojoyjgyuteqm","sona":"7450"},{"trial_type":"turing-test","trial_index":261,"time_elapsed":555671,"internal_node_id":"0.0-8.0-2.63","subject":"7w0ojoyjgyuteqm","sona":"7450"},{"rt":503.264999948442,"stimulus":"<p>Welche Sequenz haben Sie als natürlicher empfunden?</p>","key_press":70,"test_part":"response","test_stimulus":{"position":0,"left":"bvh/return-bottle-hold-training0-lines.txt","right":"bvh/vr_prediction_models/model(dmp)-dataset(return-bottle-hold)-npsi(40)-hold(0)/final-lines.txt","att_check":true},"trial_type":"html-keyboard-response","trial_index":262,"time_elapsed":556184,"internal_node_id":"0.0-8.0-3.63","subject":"7w0ojoyjgyuteqm","sona":"7450"},{"rt":298.7900000298396,"stimulus":"<p>Bereit?</p>","key_press":32,"trial_type":"html-keyboard-response","trial_index":263,"time_elapsed":556495,"internal_node_id":"0.0-8.0-0.64","subject":"7w0ojoyjgyuteqm","sona":"7450"},{"rt":null,"stimulus":"<div style=\"font-size:60px;\">+</div>","key_press":null,"trial_type":"html-keyboard-response","trial_index":264,"time_elapsed":558512,"internal_node_id":"0.0-8.0-1.64","subject":"7w0ojoyjgyuteqm","sona":"7450"},{"trial_type":"turing-test","trial_index":265,"time_elapsed":562147,"internal_node_id":"0.0-8.0-2.64","subject":"7w0ojoyjgyuteqm","sona":"7450"},{"rt":547.0299998996779,"stimulus":"<p>Welche Sequenz haben Sie als natürlicher empfunden?</p>","key_press":70,"test_part":"response","test_stimulus":{"position":1,"left":"bvh/vr_prediction_models/model(dmp)-dataset(pass-bottle-hold)-npsi(80)-hold(4)/final-lines.txt","right":"bvh/pass-bottle-hold-training4-lines.txt","att_check":false},"trial_type":"html-keyboard-response","trial_index":266,"time_elapsed":562705,"internal_node_id":"0.0-8.0-3.64","subject":"7w0ojoyjgyuteqm","sona":"7450"},{"rt":244.1300000064075,"stimulus":"<p>Bereit?</p>","key_press":32,"trial_type":"html-keyboard-response","trial_index":267,"time_elapsed":562958,"internal_node_id":"0.0-8.0-0.65","subject":"7w0ojoyjgyuteqm","sona":"7450"},{"rt":null,"stimulus":"<div style=\"font-size:60px;\">+</div>","key_press":null,"trial_type":"html-keyboard-response","trial_index":268,"time_elapsed":564978,"internal_node_id":"0.0-8.0-1.65","subject":"7w0ojoyjgyuteqm","sona":"7450"},{"trial_type":"turing-test","trial_index":269,"time_elapsed":571923,"internal_node_id":"0.0-8.0-2.65","subject":"7w0ojoyjgyuteqm","sona":"7450"},{"rt":913.399999961257,"stimulus":"<p>Welche Sequenz haben Sie als natürlicher empfunden?</p>","key_press":70,"test_part":"response","test_stimulus":{"position":0,"left":"bvh/pass-bottle-training0-lines.txt","right":"bvh/vr_prediction_models/model(vcgpdm)-dataset(pass-bottle)-mode(ELBO)-parts(3)-dyn(30)-lvm(15)-hold(0)/final-lines.txt","att_check":false},"trial_type":"html-keyboard-response","trial_index":270,"time_elapsed":572846,"internal_node_id":"0.0-8.0-3.65","subject":"7w0ojoyjgyuteqm","sona":"7450"},{"rt":1108.2249999744818,"stimulus":"<p>Bereit?</p>","key_press":32,"trial_type":"html-keyboard-response","trial_index":271,"time_elapsed":573965,"internal_node_id":"0.0-8.0-0.66","subject":"7w0ojoyjgyuteqm","sona":"7450"},{"rt":null,"stimulus":"<div style=\"font-size:60px;\">+</div>","key_press":null,"trial_type":"html-keyboard-response","trial_index":272,"time_elapsed":575981,"internal_node_id":"0.0-8.0-1.66","subject":"7w0ojoyjgyuteqm","sona":"7450"},{"trial_type":"turing-test","trial_index":273,"time_elapsed":582012,"internal_node_id":"0.0-8.0-2.66","subject":"7w0ojoyjgyuteqm","sona":"7450"},{"rt":905.3449999773875,"stimulus":"<p>Welche Sequenz haben Sie als natürlicher empfunden?</p>","key_press":70,"test_part":"response","test_stimulus":{"position":0,"left":"bvh/pass-bottle-training3-lines.txt","right":"bvh/vr_prediction_models/model(vcgpdm)-dataset(pass-bottle)-mode(ELBO)-parts(3)-dyn(20)-lvm(15)-hold(3)/final-lines.txt","att_check":false},"trial_type":"html-keyboard-response","trial_index":274,"time_elapsed":582927,"internal_node_id":"0.0-8.0-3.66","subject":"7w0ojoyjgyuteqm","sona":"7450"},{"rt":120.00500003341585,"stimulus":"<p>Bereit?</p>","key_press":32,"trial_type":"html-keyboard-response","trial_index":275,"time_elapsed":583054,"internal_node_id":"0.0-8.0-0.67","subject":"7w0ojoyjgyuteqm","sona":"7450"},{"rt":null,"stimulus":"<div style=\"font-size:60px;\">+</div>","key_press":null,"trial_type":"html-keyboard-response","trial_index":276,"time_elapsed":585061,"internal_node_id":"0.0-8.0-1.67","subject":"7w0ojoyjgyuteqm","sona":"7450"},{"trial_type":"turing-test","trial_index":277,"time_elapsed":588682,"internal_node_id":"0.0-8.0-2.67","subject":"7w0ojoyjgyuteqm","sona":"7450"},{"rt":1207.120000035502,"stimulus":"<p>Welche Sequenz haben Sie als natürlicher empfunden?</p>","key_press":70,"test_part":"response","test_stimulus":{"position":0,"left":"bvh/pass-bottle-hold-training0-lines.txt","right":"bvh/vr_prediction_models/model(vcgpdm)-dataset(pass-bottle-hold)-mode(ELBO)-parts(3)-dyn(20)-lvm(15)-hold(0)/final-lines.txt","att_check":false},"trial_type":"html-keyboard-response","trial_index":278,"time_elapsed":589901,"internal_node_id":"0.0-8.0-3.67","subject":"7w0ojoyjgyuteqm","sona":"7450"},{"rt":0.9350000182166696,"stimulus":"<p>Bereit?</p>","key_press":32,"trial_type":"html-keyboard-response","trial_index":279,"time_elapsed":589913,"internal_node_id":"0.0-8.0-0.68","subject":"7w0ojoyjgyuteqm","sona":"7450"},{"rt":null,"stimulus":"<div style=\"font-size:60px;\">+</div>","key_press":null,"trial_type":"html-keyboard-response","trial_index":280,"time_elapsed":591921,"internal_node_id":"0.0-8.0-1.68","subject":"7w0ojoyjgyuteqm","sona":"7450"},{"trial_type":"turing-test","trial_index":281,"time_elapsed":596007,"internal_node_id":"0.0-8.0-2.68","subject":"7w0ojoyjgyuteqm","sona":"7450"},{"rt":586.0549999633804,"stimulus":"<p>Welche Sequenz haben Sie als natürlicher empfunden?</p>","key_press":74,"test_part":"response","test_stimulus":{"position":0,"left":"bvh/return-bottle-hold-training4-lines.txt","right":"bvh/vr_prediction_models/model(vcgpdm)-dataset(return-bottle-hold)-mode(ELBO)-parts(1)-dyn(10)-lvm(5)-hold(4)/final-lines.txt","att_check":false},"trial_type":"html-keyboard-response","trial_index":282,"time_elapsed":596603,"internal_node_id":"0.0-8.0-3.68","subject":"7w0ojoyjgyuteqm","sona":"7450"},{"rt":99.96000002138317,"stimulus":"<p>Bereit?</p>","key_press":32,"trial_type":"html-keyboard-response","trial_index":283,"time_elapsed":596714,"internal_node_id":"0.0-8.0-0.69","subject":"7w0ojoyjgyuteqm","sona":"7450"},{"rt":null,"stimulus":"<div style=\"font-size:60px;\">+</div>","key_press":null,"trial_type":"html-keyboard-response","trial_index":284,"time_elapsed":598718,"internal_node_id":"0.0-8.0-1.69","subject":"7w0ojoyjgyuteqm","sona":"7450"},{"trial_type":"turing-test","trial_index":285,"time_elapsed":604664,"internal_node_id":"0.0-8.0-2.69","subject":"7w0ojoyjgyuteqm","sona":"7450"},{"rt":652.7899999637157,"stimulus":"<p>Welche Sequenz haben Sie als natürlicher empfunden?</p>","key_press":74,"test_part":"response","test_stimulus":{"position":1,"left":"bvh/vr_prediction_models/model(vcgpdm)-dataset(return-bottle)-mode(ELBO)-parts(3)-dyn(20)-lvm(15)-hold(3)/final-lines.txt","right":"bvh/return-bottle-training3-lines.txt","att_check":false},"trial_type":"html-keyboard-response","trial_index":286,"time_elapsed":605329,"internal_node_id":"0.0-8.0-3.69","subject":"7w0ojoyjgyuteqm","sona":"7450"},{"rt":88.21999991778284,"stimulus":"<p>Bereit?</p>","key_press":32,"trial_type":"html-keyboard-response","trial_index":287,"time_elapsed":605427,"internal_node_id":"0.0-8.0-0.70","subject":"7w0ojoyjgyuteqm","sona":"7450"},{"rt":null,"stimulus":"<div style=\"font-size:60px;\">+</div>","key_press":null,"trial_type":"html-keyboard-response","trial_index":288,"time_elapsed":607434,"internal_node_id":"0.0-8.0-1.70","subject":"7w0ojoyjgyuteqm","sona":"7450"},{"trial_type":"turing-test","trial_index":289,"time_elapsed":614245,"internal_node_id":"0.0-8.0-2.70","subject":"7w0ojoyjgyuteqm","sona":"7450"},{"rt":583.2249999511987,"stimulus":"<p>Welche Sequenz haben Sie als natürlicher empfunden?</p>","key_press":74,"test_part":"response","test_stimulus":{"position":1,"left":"bvh/vr_prediction_models/model(vcgpdm)-dataset(return-bottle)-mode(ELBO)-parts(1)-dyn(35)-lvm(10)-hold(2)/final-lines.txt","right":"bvh/return-bottle-training2-lines.txt","att_check":false},"trial_type":"html-keyboard-response","trial_index":290,"time_elapsed":614840,"internal_node_id":"0.0-8.0-3.70","subject":"7w0ojoyjgyuteqm","sona":"7450"},{"rt":0.5400000372901559,"stimulus":"<p>Bereit?</p>","key_press":32,"trial_type":"html-keyboard-response","trial_index":291,"time_elapsed":614851,"internal_node_id":"0.0-8.0-0.71","subject":"7w0ojoyjgyuteqm","sona":"7450"},{"rt":null,"stimulus":"<div style=\"font-size:60px;\">+</div>","key_press":null,"trial_type":"html-keyboard-response","trial_index":292,"time_elapsed":616856,"internal_node_id":"0.0-8.0-1.71","subject":"7w0ojoyjgyuteqm","sona":"7450"},{"trial_type":"turing-test","trial_index":293,"time_elapsed":620932,"internal_node_id":"0.0-8.0-2.71","subject":"7w0ojoyjgyuteqm","sona":"7450"},{"rt":933.0849999096245,"stimulus":"<p>Welche Sequenz haben Sie als natürlicher empfunden?</p>","key_press":70,"test_part":"response","test_stimulus":{"position":0,"left":"bvh/return-bottle-hold-training3-lines.txt","right":"bvh/vr_prediction_models/model(vcgpdm)-dataset(return-bottle-hold)-mode(ELBO)-parts(3)-dyn(20)-lvm(20)-hold(3)/final-lines.txt","att_check":false},"trial_type":"html-keyboard-response","trial_index":294,"time_elapsed":621877,"internal_node_id":"0.0-8.0-3.71","subject":"7w0ojoyjgyuteqm","sona":"7450"},{"rt":271.88499993644655,"stimulus":"<p>Bereit?</p>","key_press":32,"trial_type":"html-keyboard-response","trial_index":295,"time_elapsed":622157,"internal_node_id":"0.0-8.0-0.72","subject":"7w0ojoyjgyuteqm","sona":"7450"},{"rt":null,"stimulus":"<div style=\"font-size:60px;\">+</div>","key_press":null,"trial_type":"html-keyboard-response","trial_index":296,"time_elapsed":624163,"internal_node_id":"0.0-8.0-1.72","subject":"7w0ojoyjgyuteqm","sona":"7450"},{"trial_type":"turing-test","trial_index":297,"time_elapsed":627937,"internal_node_id":"0.0-8.0-2.72","subject":"7w0ojoyjgyuteqm","sona":"7450"},{"rt":614.7150000324473,"stimulus":"<p>Welche Sequenz haben Sie als natürlicher empfunden?</p>","key_press":74,"test_part":"response","test_stimulus":{"position":0,"left":"bvh/return-bottle-hold-training4-lines.txt","right":"bvh/vr_prediction_models/model(tmp)-dataset(return-bottle-hold)-numprim(8)-hold(4)/final-lines.txt","att_check":false},"trial_type":"html-keyboard-response","trial_index":298,"time_elapsed":628563,"internal_node_id":"0.0-8.0-3.72","subject":"7w0ojoyjgyuteqm","sona":"7450"},{"rt":321.4350000489503,"stimulus":"<p>Bereit?</p>","key_press":32,"trial_type":"html-keyboard-response","trial_index":299,"time_elapsed":628897,"internal_node_id":"0.0-8.0-0.73","subject":"7w0ojoyjgyuteqm","sona":"7450"},{"rt":null,"stimulus":"<div style=\"font-size:60px;\">+</div>","key_press":null,"trial_type":"html-keyboard-response","trial_index":300,"time_elapsed":630915,"internal_node_id":"0.0-8.0-1.73","subject":"7w0ojoyjgyuteqm","sona":"7450"},{"trial_type":"turing-test","trial_index":301,"time_elapsed":637045,"internal_node_id":"0.0-8.0-2.73","subject":"7w0ojoyjgyuteqm","sona":"7450"},{"rt":998.2899999013171,"stimulus":"<p>Welche Sequenz haben Sie als natürlicher empfunden?</p>","key_press":70,"test_part":"response","test_stimulus":{"position":1,"left":"bvh/vr_prediction_models/model(tmp)-dataset(return-bottle)-numprim(5)-hold(1)/final-lines.txt","right":"bvh/return-bottle-training1-lines.txt","att_check":false},"trial_type":"html-keyboard-response","trial_index":302,"time_elapsed":638056,"internal_node_id":"0.0-8.0-3.73","subject":"7w0ojoyjgyuteqm","sona":"7450"},{"rt":326.35499991010875,"stimulus":"<p>Bereit?</p>","key_press":32,"trial_type":"html-keyboard-response","trial_index":303,"time_elapsed":638396,"internal_node_id":"0.0-8.0-0.74","subject":"7w0ojoyjgyuteqm","sona":"7450"},{"rt":null,"stimulus":"<div style=\"font-size:60px;\">+</div>","key_press":null,"trial_type":"html-keyboard-response","trial_index":304,"time_elapsed":640414,"internal_node_id":"0.0-8.0-1.74","subject":"7w0ojoyjgyuteqm","sona":"7450"},{"trial_type":"turing-test","trial_index":305,"time_elapsed":646654,"internal_node_id":"0.0-8.0-2.74","subject":"7w0ojoyjgyuteqm","sona":"7450"},{"rt":562.1149999788031,"stimulus":"<p>Welche Sequenz haben Sie als natürlicher empfunden?</p>","key_press":70,"test_part":"response","test_stimulus":{"position":0,"left":"bvh/return-bottle-training4-lines.txt","right":"bvh/vr_prediction_models/model(dmp)-dataset(return-bottle)-npsi(60)-hold(4)/final-lines.txt","att_check":true},"trial_type":"html-keyboard-response","trial_index":306,"time_elapsed":647228,"internal_node_id":"0.0-8.0-3.74","subject":"7w0ojoyjgyuteqm","sona":"7450"},{"rt":377.96999991405755,"stimulus":"<p>Bereit?</p>","key_press":32,"trial_type":"html-keyboard-response","trial_index":307,"time_elapsed":647617,"internal_node_id":"0.0-8.0-0.75","subject":"7w0ojoyjgyuteqm","sona":"7450"},{"rt":null,"stimulus":"<div style=\"font-size:60px;\">+</div>","key_press":null,"trial_type":"html-keyboard-response","trial_index":308,"time_elapsed":649621,"internal_node_id":"0.0-8.0-1.75","subject":"7w0ojoyjgyuteqm","sona":"7450"},{"trial_type":"turing-test","trial_index":309,"time_elapsed":655116,"internal_node_id":"0.0-8.0-2.75","subject":"7w0ojoyjgyuteqm","sona":"7450"},{"rt":587.390000000596,"stimulus":"<p>Welche Sequenz haben Sie als natürlicher empfunden?</p>","key_press":70,"test_part":"response","test_stimulus":{"position":1,"left":"bvh/vr_prediction_models/model(tmp)-dataset(return-bottle)-numprim(15)-hold(0)/final-lines.txt","right":"bvh/return-bottle-training0-lines.txt","att_check":false},"trial_type":"html-keyboard-response","trial_index":310,"time_elapsed":655715,"internal_node_id":"0.0-8.0-3.75","subject":"7w0ojoyjgyuteqm","sona":"7450"},{"rt":321.43000001087785,"stimulus":"<p>Bereit?</p>","key_press":32,"trial_type":"html-keyboard-response","trial_index":311,"time_elapsed":656046,"internal_node_id":"0.0-8.0-0.76","subject":"7w0ojoyjgyuteqm","sona":"7450"},{"rt":null,"stimulus":"<div style=\"font-size:60px;\">+</div>","key_press":null,"trial_type":"html-keyboard-response","trial_index":312,"time_elapsed":658049,"internal_node_id":"0.0-8.0-1.76","subject":"7w0ojoyjgyuteqm","sona":"7450"},{"trial_type":"turing-test","trial_index":313,"time_elapsed":661683,"internal_node_id":"0.0-8.0-2.76","subject":"7w0ojoyjgyuteqm","sona":"7450"},{"rt":798.310000100173,"stimulus":"<p>Welche Sequenz haben Sie als natürlicher empfunden?</p>","key_press":74,"test_part":"response","test_stimulus":{"position":0,"left":"bvh/return-bottle-hold-training3-lines.txt","right":"bvh/vr_prediction_models/model(dmp)-dataset(return-bottle-hold)-npsi(30)-hold(3)/final-lines.txt","att_check":false},"trial_type":"html-keyboard-response","trial_index":314,"time_elapsed":662495,"internal_node_id":"0.0-8.0-3.76","subject":"7w0ojoyjgyuteqm","sona":"7450"},{"rt":319.3650000030175,"stimulus":"<p>Bereit?</p>","key_press":32,"trial_type":"html-keyboard-response","trial_index":315,"time_elapsed":662826,"internal_node_id":"0.0-8.0-0.77","subject":"7w0ojoyjgyuteqm","sona":"7450"},{"rt":null,"stimulus":"<div style=\"font-size:60px;\">+</div>","key_press":null,"trial_type":"html-keyboard-response","trial_index":316,"time_elapsed":664831,"internal_node_id":"0.0-8.0-1.77","subject":"7w0ojoyjgyuteqm","sona":"7450"},{"trial_type":"turing-test","trial_index":317,"time_elapsed":668361,"internal_node_id":"0.0-8.0-2.77","subject":"7w0ojoyjgyuteqm","sona":"7450"},{"rt":771.0799999767914,"stimulus":"<p>Welche Sequenz haben Sie als natürlicher empfunden?</p>","key_press":74,"test_part":"response","test_stimulus":{"position":1,"left":"bvh/vr_prediction_models/model(dmp)-dataset(return-bottle-hold)-npsi(80)-hold(2)/final-lines.txt","right":"bvh/return-bottle-hold-training2-lines.txt","att_check":false},"trial_type":"html-keyboard-response","trial_index":318,"time_elapsed":669145,"internal_node_id":"0.0-8.0-3.77","subject":"7w0ojoyjgyuteqm","sona":"7450"},{"rt":368.445000029169,"stimulus":"<p>Bereit?</p>","key_press":32,"trial_type":"html-keyboard-response","trial_index":319,"time_elapsed":669526,"internal_node_id":"0.0-8.0-0.78","subject":"7w0ojoyjgyuteqm","sona":"7450"},{"rt":null,"stimulus":"<div style=\"font-size:60px;\">+</div>","key_press":null,"trial_type":"html-keyboard-response","trial_index":320,"time_elapsed":671546,"internal_node_id":"0.0-8.0-1.78","subject":"7w0ojoyjgyuteqm","sona":"7450"},{"trial_type":"turing-test","trial_index":321,"time_elapsed":675470,"internal_node_id":"0.0-8.0-2.78","subject":"7w0ojoyjgyuteqm","sona":"7450"},{"rt":992.9750000592321,"stimulus":"<p>Welche Sequenz haben Sie als natürlicher empfunden?</p>","key_press":70,"test_part":"response","test_stimulus":{"position":1,"left":"bvh/vr_prediction_models/model(vcgpdm)-dataset(pass-bottle-hold)-mode(ELBO)-parts(1)-dyn(30)-lvm(20)-hold(3)/final-lines.txt","right":"bvh/pass-bottle-hold-training3-lines.txt","att_check":false},"trial_type":"html-keyboard-response","trial_index":322,"time_elapsed":676473,"internal_node_id":"0.0-8.0-3.78","subject":"7w0ojoyjgyuteqm","sona":"7450"},{"rt":886.7350000655279,"stimulus":"<p>Bereit?</p>","key_press":32,"trial_type":"html-keyboard-response","trial_index":323,"time_elapsed":677368,"internal_node_id":"0.0-8.0-0.79","subject":"7w0ojoyjgyuteqm","sona":"7450"},{"rt":null,"stimulus":"<div style=\"font-size:60px;\">+</div>","key_press":null,"trial_type":"html-keyboard-response","trial_index":324,"time_elapsed":679374,"internal_node_id":"0.0-8.0-1.79","subject":"7w0ojoyjgyuteqm","sona":"7450"},{"trial_type":"turing-test","trial_index":325,"time_elapsed":683223,"internal_node_id":"0.0-8.0-2.79","subject":"7w0ojoyjgyuteqm","sona":"7450"},{"rt":1402.5200000032783,"stimulus":"<p>Welche Sequenz haben Sie als natürlicher empfunden?</p>","key_press":70,"test_part":"response","test_stimulus":{"position":0,"left":"bvh/pass-bottle-hold-training4-lines.txt","right":"bvh/vr_prediction_models/model(vcgpdm)-dataset(pass-bottle-hold)-mode(ELBO)-parts(3)-dyn(10)-lvm(10)-hold(4)/final-lines.txt","att_check":false},"trial_type":"html-keyboard-response","trial_index":326,"time_elapsed":684638,"internal_node_id":"0.0-8.0-3.79","subject":"7w0ojoyjgyuteqm","sona":"7450"},{"rt":6148.085000109859,"responses":"{\"age\":\"24\",\"gender\":\"männlich\"}","trial_type":"survey-text","trial_index":327,"time_elapsed":690817,"internal_node_id":"0.0-10.0-0.0","subject":"7w0ojoyjgyuteqm","sona":"7450"},{"rt":42422.33000008855,"responses":"{\"area\":\"Auf die Schultern\",\"Q1\":\"Keine flüssige Bewegung - künstlich\",\"Q2\":\"Abgehackte Bewegungsabfolgen\"}","trial_type":"survey-text","trial_index":328,"time_elapsed":733255,"internal_node_id":"0.0-10.0-1.0","subject":"7w0ojoyjgyuteqm","sona":"7450"}]