[{"rt":1163.8799998909235,"stimulus":"<p>Welcome!<br> Please choose your language to start the experiment in the chosen language.</p><p>Willkommen!<br> Bitte wählen Sie eine Sprache, um das Experiment in der ausgewählten Sprache zu starten</p>","button_pressed":"1","trial_type":"html-button-response","trial_index":0,"time_elapsed":1232,"internal_node_id":"0.0-0.0","subject":"l0m1tggnx7kvag1","sona":"7723"},{"view_history":"[{\"page_index\":0,\"viewing_time\":75856.29000049084},{\"page_index\":1,\"viewing_time\":2447.920000180602},{\"page_index\":2,\"viewing_time\":3632.044999860227},{\"page_index\":3,\"viewing_time\":1411.9999995455146},{\"page_index\":4,\"viewing_time\":2088.0900006741285}]","rt":85437.17000074685,"trial_type":"instructions","trial_index":1,"time_elapsed":86670,"internal_node_id":"0.0-1.0-0.0","subject":"l0m1tggnx7kvag1","sona":"7723"},{"rt":3313.734999857843,"stimulus":"<p>Bereit?</p>","key_press":32,"trial_type":"html-keyboard-response","trial_index":2,"time_elapsed":89985,"internal_node_id":"0.0-3.0","subject":"l0m1tggnx7kvag1","sona":"7723"},{"rt":null,"stimulus":"<div style=\"font-size:60px;\">+</div>","key_press":null,"trial_type":"html-keyboard-response","trial_index":3,"time_elapsed":91987,"internal_node_id":"0.0-4.0","subject":"l0m1tggnx7kvag1","sona":"7723"},{"trial_type":"training","trial_index":4,"time_elapsed":95241,"internal_node_id":"0.0-5.0","subject":"l0m1tggnx7kvag1","sona":"7723"},{"rt":607.2700005024672,"stimulus":"<p>Welche Sequenz haben Sie als natürlicher empfunden?</p>","key_press":70,"trial_type":"html-keyboard-response","trial_index":5,"time_elapsed":95850,"internal_node_id":"0.0-6.0","subject":"l0m1tggnx7kvag1","sona":"7723"},{"rt":2389.1200004145503,"stimulus":"<p>Das Experiment startet nun.</p><p><small>Bitte drücken Sie den Knopf, wenn Sie bereit sind.</small></p>","button_pressed":"0","trial_type":"html-button-response","trial_index":6,"time_elapsed":98241,"internal_node_id":"0.0-7.0","subject":"l0m1tggnx7kvag1","sona":"7723"},{"rt":1185.1150002330542,"stimulus":"<p>Bereit?</p>","key_press":32,"trial_type":"html-keyboard-response","trial_index":7,"time_elapsed":99428,"internal_node_id":"0.0-8.0-0.0","subject":"l0m1tggnx7kvag1","sona":"7723"},{"rt":null,"stimulus":"<div style=\"font-size:60px;\">+</div>","key_press":null,"trial_type":"html-keyboard-response","trial_index":8,"time_elapsed":101432,"internal_node_id":"0.0-8.0-1.0","subject":"l0m1tggnx7kvag1","sona":"7723"},{"trial_type":"turing-test","trial_index":9,"time_elapsed":106802,"internal_node_id":"0.0-8.0-2.0","subject":"l0m1tggnx7kvag1","sona":"7723"},{"rt":816.2000002339482,"stimulus":"<p>Welche Sequenz haben Sie als natürlicher empfunden?</p>","key_press":74,"test_part":"response","test_stimulus":{"position":0,"left":"bvh/pass-bottle-training1-lines.txt","right":"bvh/vr_prediction_models/model(vcgpdm)-dataset(pass-bottle)-mode(ELBO)-parts(3)-dyn(35)-lvm(20)-hold(1)/final-lines.txt","att_check":false},"trial_type":"html-keyboard-response","trial_index":10,"time_elapsed":107625,"internal_node_id":"0.0-8.0-3.0","subject":"l0m1tggnx7kvag1","sona":"7723"},{"rt":319.5349993184209,"stimulus":"<p>Bereit?</p>","key_press":32,"trial_type":"html-keyboard-response","trial_index":11,"time_elapsed":107949,"internal_node_id":"0.0-8.0-0.1","subject":"l0m1tggnx7kvag1","sona":"7723"},{"rt":null,"stimulus":"<div style=\"font-size:60px;\">+</div>","key_press":null,"trial_type":"html-keyboard-response","trial_index":12,"time_elapsed":109951,"internal_node_id":"0.0-8.0-1.1","subject":"l0m1tggnx7kvag1","sona":"7723"},{"trial_type":"turing-test","trial_index":13,"time_elapsed":113238,"internal_node_id":"0.0-8.0-2.1","subject":"l0m1tggnx7kvag1","sona":"7723"},{"rt":566.2899995222688,"stimulus":"<p>Welche Sequenz haben Sie als natürlicher empfunden?</p>","key_press":70,"test_part":"response","test_stimulus":{"position":0,"left":"bvh/pass-bottle-hold-training2-lines.txt","right":"bvh/vr_prediction_models/model(vcgpdm)-dataset(pass-bottle-hold)-mode(ELBO)-parts(1)-dyn(30)-lvm(30)-hold(2)/final-lines.txt","att_check":false},"trial_type":"html-keyboard-response","trial_index":14,"time_elapsed":113808,"internal_node_id":"0.0-8.0-3.1","subject":"l0m1tggnx7kvag1","sona":"7723"},{"rt":375.88000018149614,"stimulus":"<p>Bereit?</p>","key_press":32,"trial_type":"html-keyboard-response","trial_index":15,"time_elapsed":114188,"internal_node_id":"0.0-8.0-0.2","subject":"l0m1tggnx7kvag1","sona":"7723"},{"rt":null,"stimulus":"<div style=\"font-size:60px;\">+</div>","key_press":null,"trial_type":"html-keyboard-response","trial_index":16,"time_elapsed":116190,"internal_node_id":"0.0-8.0-1.2","subject":"l0m1tggnx7kvag1","sona":"7723"},{"trial_type":"turing-test","trial_index":17,"time_elapsed":122438,"internal_node_id":"0.0-8.0-2.2","subject":"l0m1tggnx7kvag1","sona":"7723"},{"rt":1657.4949994683266,"stimulus":"<p>Welche Sequenz haben Sie als natürlicher empfunden?</p>","key_press":70,"test_part":"response","test_stimulus":{"position":0,"left":"bvh/pass-bottle-training2-lines.txt","right":"bvh/vr_prediction_models/model(vcgpdm)-dataset(pass-bottle)-mode(ELBO)-parts(1)-dyn(25)-lvm(35)-hold(2)/final-lines.txt","att_check":false},"trial_type":"html-keyboard-response","trial_index":18,"time_elapsed":124101,"internal_node_id":"0.0-8.0-3.2","subject":"l0m1tggnx7kvag1","sona":"7723"},{"rt":1346.7999994754791,"stimulus":"<p>Bereit?</p>","key_press":32,"trial_type":"html-keyboard-response","trial_index":19,"time_elapsed":125453,"internal_node_id":"0.0-8.0-0.3","subject":"l0m1tggnx7kvag1","sona":"7723"},{"rt":null,"stimulus":"<div style=\"font-size:60px;\">+</div>","key_press":null,"trial_type":"html-keyboard-response","trial_index":20,"time_elapsed":127456,"internal_node_id":"0.0-8.0-1.3","subject":"l0m1tggnx7kvag1","sona":"7723"},{"trial_type":"turing-test","trial_index":21,"time_elapsed":133032,"internal_node_id":"0.0-8.0-2.3","subject":"l0m1tggnx7kvag1","sona":"7723"},{"rt":1158.449999988079,"stimulus":"<p>Welche Sequenz haben Sie als natürlicher empfunden?</p>","key_press":74,"test_part":"response","test_stimulus":{"position":1,"left":"bvh/vr_prediction_models/model(vcgpdm)-dataset(pass-bottle)-mode(ELBO)-parts(1)-dyn(20)-lvm(30)-hold(1)/final-lines.txt","right":"bvh/pass-bottle-training1-lines.txt","att_check":false},"trial_type":"html-keyboard-response","trial_index":22,"time_elapsed":134198,"internal_node_id":"0.0-8.0-3.3","subject":"l0m1tggnx7kvag1","sona":"7723"},{"rt":463.61999958753586,"stimulus":"<p>Bereit?</p>","key_press":32,"trial_type":"html-keyboard-response","trial_index":23,"time_elapsed":134665,"internal_node_id":"0.0-8.0-0.4","subject":"l0m1tggnx7kvag1","sona":"7723"},{"rt":null,"stimulus":"<div style=\"font-size:60px;\">+</div>","key_press":null,"trial_type":"html-keyboard-response","trial_index":24,"time_elapsed":136668,"internal_node_id":"0.0-8.0-1.4","subject":"l0m1tggnx7kvag1","sona":"7723"},{"trial_type":"turing-test","trial_index":25,"time_elapsed":140538,"internal_node_id":"0.0-8.0-2.4","subject":"l0m1tggnx7kvag1","sona":"7723"},{"rt":1039.979999884963,"stimulus":"<p>Welche Sequenz haben Sie als natürlicher empfunden?</p>","key_press":70,"test_part":"response","test_stimulus":{"position":1,"left":"bvh/vr_prediction_models/model(vcgpdm)-dataset(return-bottle-hold)-mode(ELBO)-parts(1)-dyn(35)-lvm(10)-hold(4)/final-lines.txt","right":"bvh/return-bottle-hold-training4-lines.txt","att_check":false},"trial_type":"html-keyboard-response","trial_index":26,"time_elapsed":141584,"internal_node_id":"0.0-8.0-3.4","subject":"l0m1tggnx7kvag1","sona":"7723"},{"rt":1991.3950003683567,"stimulus":"<p>Bereit?</p>","key_press":32,"trial_type":"html-keyboard-response","trial_index":27,"time_elapsed":143580,"internal_node_id":"0.0-8.0-0.5","subject":"l0m1tggnx7kvag1","sona":"7723"},{"rt":null,"stimulus":"<div style=\"font-size:60px;\">+</div>","key_press":null,"trial_type":"html-keyboard-response","trial_index":28,"time_elapsed":145584,"internal_node_id":"0.0-8.0-1.5","subject":"l0m1tggnx7kvag1","sona":"7723"},{"trial_type":"turing-test","trial_index":29,"time_elapsed":151353,"internal_node_id":"0.0-8.0-2.5","subject":"l0m1tggnx7kvag1","sona":"7723"},{"rt":555.3850000724196,"stimulus":"<p>Welche Sequenz haben Sie als natürlicher empfunden?</p>","key_press":70,"test_part":"response","test_stimulus":{"position":0,"left":"bvh/pass-bottle-training4-lines.txt","right":"bvh/vr_prediction_models/model(dmp)-dataset(pass-bottle)-npsi(100)-hold(4)/final-lines.txt","att_check":false},"trial_type":"html-keyboard-response","trial_index":30,"time_elapsed":151915,"internal_node_id":"0.0-8.0-3.5","subject":"l0m1tggnx7kvag1","sona":"7723"},{"rt":357.8049996867776,"stimulus":"<p>Bereit?</p>","key_press":32,"trial_type":"html-keyboard-response","trial_index":31,"time_elapsed":152280,"internal_node_id":"0.0-8.0-0.6","subject":"l0m1tggnx7kvag1","sona":"7723"},{"rt":null,"stimulus":"<div style=\"font-size:60px;\">+</div>","key_press":null,"trial_type":"html-keyboard-response","trial_index":32,"time_elapsed":154283,"internal_node_id":"0.0-8.0-1.6","subject":"l0m1tggnx7kvag1","sona":"7723"},{"trial_type":"turing-test","trial_index":33,"time_elapsed":157696,"internal_node_id":"0.0-8.0-2.6","subject":"l0m1tggnx7kvag1","sona":"7723"},{"rt":368.3449998497963,"stimulus":"<p>Welche Sequenz haben Sie als natürlicher empfunden?</p>","key_press":74,"test_part":"response","test_stimulus":{"position":0,"left":"bvh/pass-bottle-hold-training1-lines.txt","right":"bvh/vr_prediction_models/model(vcgpdm)-dataset(pass-bottle-hold)-mode(ELBO)-parts(3)-dyn(20)-lvm(15)-hold(1)/final-lines.txt","att_check":false},"trial_type":"html-keyboard-response","trial_index":34,"time_elapsed":158069,"internal_node_id":"0.0-8.0-3.6","subject":"l0m1tggnx7kvag1","sona":"7723"},{"rt":307.0799997076392,"stimulus":"<p>Bereit?</p>","key_press":32,"trial_type":"html-keyboard-response","trial_index":35,"time_elapsed":158381,"internal_node_id":"0.0-8.0-0.7","subject":"l0m1tggnx7kvag1","sona":"7723"},{"rt":null,"stimulus":"<div style=\"font-size:60px;\">+</div>","key_press":null,"trial_type":"html-keyboard-response","trial_index":36,"time_elapsed":160383,"internal_node_id":"0.0-8.0-1.7","subject":"l0m1tggnx7kvag1","sona":"7723"},{"trial_type":"turing-test","trial_index":37,"time_elapsed":163997,"internal_node_id":"0.0-8.0-2.7","subject":"l0m1tggnx7kvag1","sona":"7723"},{"rt":528.4399995580316,"stimulus":"<p>Welche Sequenz haben Sie als natürlicher empfunden?</p>","key_press":74,"test_part":"response","test_stimulus":{"position":1,"left":"bvh/vr_prediction_models/model(tmp)-dataset(pass-bottle-hold)-numprim(15)-hold(4)/final-lines.txt","right":"bvh/pass-bottle-hold-training4-lines.txt","att_check":false},"trial_type":"html-keyboard-response","trial_index":38,"time_elapsed":164531,"internal_node_id":"0.0-8.0-3.7","subject":"l0m1tggnx7kvag1","sona":"7723"},{"rt":314.04499989002943,"stimulus":"<p>Bereit?</p>","key_press":32,"trial_type":"html-keyboard-response","trial_index":39,"time_elapsed":164848,"internal_node_id":"0.0-8.0-0.8","subject":"l0m1tggnx7kvag1","sona":"7723"},{"rt":null,"stimulus":"<div style=\"font-size:60px;\">+</div>","key_press":null,"trial_type":"html-keyboard-response","trial_index":40,"time_elapsed":166850,"internal_node_id":"0.0-8.0-1.8","subject":"l0m1tggnx7kvag1","sona":"7723"},{"trial_type":"turing-test","trial_index":41,"time_elapsed":170310,"internal_node_id":"0.0-8.0-2.8","subject":"l0m1tggnx7kvag1","sona":"7723"},{"rt":852.4050004780293,"stimulus":"<p>Welche Sequenz haben Sie als natürlicher empfunden?</p>","key_press":70,"test_part":"response","test_stimulus":{"position":1,"left":"bvh/vr_prediction_models/model(dmp)-dataset(pass-bottle-hold)-npsi(100)-hold(3)/final-lines.txt","right":"bvh/pass-bottle-hold-training3-lines.txt","att_check":true},"trial_type":"html-keyboard-response","trial_index":42,"time_elapsed":171168,"internal_node_id":"0.0-8.0-3.8","subject":"l0m1tggnx7kvag1","sona":"7723"},{"rt":345.25000024586916,"stimulus":"<p>Bereit?</p>","key_press":32,"trial_type":"html-keyboard-response","trial_index":43,"time_elapsed":171518,"internal_node_id":"0.0-8.0-0.9","subject":"l0m1tggnx7kvag1","sona":"7723"},{"rt":null,"stimulus":"<div style=\"font-size:60px;\">+</div>","key_press":null,"trial_type":"html-keyboard-response","trial_index":44,"time_elapsed":173520,"internal_node_id":"0.0-8.0-1.9","subject":"l0m1tggnx7kvag1","sona":"7723"},{"trial_type":"turing-test","trial_index":45,"time_elapsed":177082,"internal_node_id":"0.0-8.0-2.9","subject":"l0m1tggnx7kvag1","sona":"7723"},{"rt":712.1300008147955,"stimulus":"<p>Welche Sequenz haben Sie als natürlicher empfunden?</p>","key_press":70,"test_part":"response","test_stimulus":{"position":0,"left":"bvh/pass-bottle-hold-training0-lines.txt","right":"bvh/vr_prediction_models/model(vcgpdm)-dataset(pass-bottle-hold)-mode(ELBO)-parts(1)-dyn(35)-lvm(10)-hold(0)/final-lines.txt","att_check":false},"trial_type":"html-keyboard-response","trial_index":46,"time_elapsed":177800,"internal_node_id":"0.0-8.0-3.9","subject":"l0m1tggnx7kvag1","sona":"7723"},{"rt":321.9449995085597,"stimulus":"<p>Bereit?</p>","key_press":32,"trial_type":"html-keyboard-response","trial_index":47,"time_elapsed":178126,"internal_node_id":"0.0-8.0-0.10","subject":"l0m1tggnx7kvag1","sona":"7723"},{"rt":null,"stimulus":"<div style=\"font-size:60px;\">+</div>","key_press":null,"trial_type":"html-keyboard-response","trial_index":48,"time_elapsed":180129,"internal_node_id":"0.0-8.0-1.10","subject":"l0m1tggnx7kvag1","sona":"7723"},{"trial_type":"turing-test","trial_index":49,"time_elapsed":185916,"internal_node_id":"0.0-8.0-2.10","subject":"l0m1tggnx7kvag1","sona":"7723"},{"rt":999.3049995973706,"stimulus":"<p>Welche Sequenz haben Sie als natürlicher empfunden?</p>","key_press":74,"test_part":"response","test_stimulus":{"position":0,"left":"bvh/return-bottle-training4-lines.txt","right":"bvh/vr_prediction_models/model(dmp)-dataset(return-bottle)-npsi(70)-hold(4)/final-lines.txt","att_check":false},"trial_type":"html-keyboard-response","trial_index":50,"time_elapsed":186921,"internal_node_id":"0.0-8.0-3.10","subject":"l0m1tggnx7kvag1","sona":"7723"},{"rt":266.270000487566,"stimulus":"<p>Bereit?</p>","key_press":32,"trial_type":"html-keyboard-response","trial_index":51,"time_elapsed":187192,"internal_node_id":"0.0-8.0-0.11","subject":"l0m1tggnx7kvag1","sona":"7723"},{"rt":null,"stimulus":"<div style=\"font-size:60px;\">+</div>","key_press":null,"trial_type":"html-keyboard-response","trial_index":52,"time_elapsed":189195,"internal_node_id":"0.0-8.0-1.11","subject":"l0m1tggnx7kvag1","sona":"7723"}]