[{"rt":1467.4199999999473,"stimulus":"<p>Welcome!<br> Please choose your language to start the experiment in the chosen language.</p><p>Willkommen!<br> Bitte wählen Sie eine Sprache um das Experiment in der ausgewählten Sprache zu starten</p>","button_pressed":"0","trial_type":"html-button-response","trial_index":0,"time_elapsed":1471,"internal_node_id":"0.0-0.0","subject":"5epv9om7j84wo8h"},{"view_history":"[{\"page_index\":0,\"viewing_time\":894.0849999999045},{\"page_index\":1,\"viewing_time\":706.7299999998795},{\"page_index\":2,\"viewing_time\":385.0649999999405},{\"page_index\":3,\"viewing_time\":406.90500000027896}]","rt":2393.9149999996516,"trial_type":"instructions","trial_index":1,"time_elapsed":3865,"internal_node_id":"0.0-2.0-0.0","subject":"5epv9om7j84wo8h"},{"rt":654.1700000002493,"stimulus":"<p>Ready?</p>","button_pressed":"0","trial_type":"html-button-response","trial_index":2,"time_elapsed":4521,"internal_node_id":"0.0-3.0","subject":"5epv9om7j84wo8h"},{"rt":null,"stimulus":"<div style=\"font-size:60px;\">+</div>","key_press":null,"trial_type":"html-keyboard-response","trial_index":3,"time_elapsed":6522,"internal_node_id":"0.0-4.0","subject":"5epv9om7j84wo8h"},{"trial_type":"training","trial_index":4,"time_elapsed":9736,"internal_node_id":"0.0-5.0","subject":"5epv9om7j84wo8h"},{"rt":1054.4350000000122,"stimulus":"<p>Which sequence did you perceive as more natural?</p>","button_pressed":"0","trial_type":"html-button-response","trial_index":5,"time_elapsed":10792,"internal_node_id":"0.0-6.0","subject":"5epv9om7j84wo8h"},{"rt":739.6600000001854,"stimulus":"<p>The experiment starts now.</p><p>Please click the button if you are ready.</p>","button_pressed":"0","trial_type":"html-button-response","trial_index":6,"time_elapsed":11533,"internal_node_id":"0.0-7.0","subject":"5epv9om7j84wo8h"},{"rt":787.0900000002621,"stimulus":"<p>Ready?</p>","button_pressed":"0","trial_type":"html-button-response","trial_index":7,"time_elapsed":12321,"internal_node_id":"0.0-8.0-0.0","subject":"5epv9om7j84wo8h"},{"rt":null,"stimulus":"<div style=\"font-size:60px;\">+</div>","key_press":null,"trial_type":"html-keyboard-response","trial_index":8,"time_elapsed":14323,"internal_node_id":"0.0-8.0-1.0","subject":"5epv9om7j84wo8h"},{"trial_type":"turing-test","trial_index":9,"time_elapsed":26430,"internal_node_id":"0.0-8.0-2.0","subject":"5epv9om7j84wo8h"},{"rt":27208.000000000087,"stimulus":"<p>Which sequence did you perceive as more natural?</p>","button_pressed":"1","test_part":"response","test_stimulus":{"position":1,"left":"bvh/vr_prediction_models/model(dmp)-dataset(return-bottle-hold)-npsi(50)-hold(1)/final-lines.txt","right":"bvh/return-bottle-hold-training1-lines.txt","att_check":false},"trial_type":"html-button-response","trial_index":10,"time_elapsed":53641,"internal_node_id":"0.0-8.0-3.0","subject":"5epv9om7j84wo8h"},{"rt":1448.6449999999459,"stimulus":"<p>Ready?</p>","button_pressed":"0","trial_type":"html-button-response","trial_index":11,"time_elapsed":55093,"internal_node_id":"0.0-8.0-0.1","subject":"5epv9om7j84wo8h"},{"rt":null,"stimulus":"<div style=\"font-size:60px;\">+</div>","key_press":null,"trial_type":"html-keyboard-response","trial_index":12,"time_elapsed":57095,"internal_node_id":"0.0-8.0-1.1","subject":"5epv9om7j84wo8h"},{"trial_type":"turing-test","trial_index":13,"time_elapsed":77893,"internal_node_id":"0.0-8.0-2.1","subject":"5epv9om7j84wo8h"}]