[{"rt":2470,"stimulus":"<p>Welcome!<br> Please choose your language to start the experiment in the chosen language.</p><p>Willkommen!<br> Bitte wählen Sie eine Sprache, um das Experiment in der ausgewählten Sprache zu starten</p>","button_pressed":"1","trial_type":"html-button-response","trial_index":0,"time_elapsed":2482,"internal_node_id":"0.0-0.0","subject":"8uh0yqqouzlhupn","sona":"9355"},{"view_history":"[{\"page_index\":0,\"viewing_time\":742.0000000000005},{\"page_index\":1,\"viewing_time\":932.9999999999995},{\"page_index\":2,\"viewing_time\":720},{\"page_index\":3,\"viewing_time\":968},{\"page_index\":4,\"viewing_time\":2632}]","rt":5996,"trial_type":"instructions","trial_index":1,"time_elapsed":8479,"internal_node_id":"0.0-1.0-0.0","subject":"8uh0yqqouzlhupn","sona":"9355"},{"rt":1506,"stimulus":"<p>Bereit?</p>","key_press":32,"trial_type":"html-keyboard-response","trial_index":2,"time_elapsed":9986,"internal_node_id":"0.0-3.0","subject":"8uh0yqqouzlhupn","sona":"9355"},{"rt":null,"stimulus":"<div style=\"font-size:60px;\">+</div>","key_press":null,"trial_type":"html-keyboard-response","trial_index":3,"time_elapsed":11989,"internal_node_id":"0.0-4.0","subject":"8uh0yqqouzlhupn","sona":"9355"},{"trial_type":"training","trial_index":4,"time_elapsed":15361,"internal_node_id":"0.0-5.0","subject":"8uh0yqqouzlhupn","sona":"9355"},{"rt":811.0000000000018,"stimulus":"<p>Welche Sequenz haben Sie als natürlicher empfunden?</p>","key_press":70,"trial_type":"html-keyboard-response","trial_index":5,"time_elapsed":16172,"internal_node_id":"0.0-6.0","subject":"8uh0yqqouzlhupn","sona":"9355"},{"rt":5943,"stimulus":"<p>Das Experiment startet nun.</p><p><small>Bitte drücken Sie den Knopf, wenn Sie bereit sind.</small></p>","button_pressed":"0","trial_type":"html-button-response","trial_index":6,"time_elapsed":22116,"internal_node_id":"0.0-7.0","subject":"8uh0yqqouzlhupn","sona":"9355"},{"rt":1762,"stimulus":"<p>Bereit?</p>","key_press":32,"trial_type":"html-keyboard-response","trial_index":7,"time_elapsed":23879,"internal_node_id":"0.0-8.0-0.0","subject":"8uh0yqqouzlhupn","sona":"9355"},{"rt":null,"stimulus":"<div style=\"font-size:60px;\">+</div>","key_press":null,"trial_type":"html-keyboard-response","trial_index":8,"time_elapsed":25882,"internal_node_id":"0.0-8.0-1.0","subject":"8uh0yqqouzlhupn","sona":"9355"},{"trial_type":"turing-test","trial_index":9,"time_elapsed":31794,"internal_node_id":"0.0-8.0-2.0","subject":"8uh0yqqouzlhupn","sona":"9355"},{"rt":531.9999999999964,"stimulus":"<p>Welche Sequenz haben Sie als natürlicher empfunden?</p>","key_press":74,"test_part":"response","test_stimulus":{"position":0,"left":"bvh/pass-bottle-training3-lines.txt","right":"bvh/vr_prediction_models/model(tmp)-dataset(pass-bottle)-numprim(5)-hold(3)/final-lines.txt","att_check":false},"trial_type":"html-keyboard-response","trial_index":10,"time_elapsed":32327,"internal_node_id":"0.0-8.0-3.0","subject":"8uh0yqqouzlhupn","sona":"9355"},{"rt":212,"stimulus":"<p>Bereit?</p>","key_press":32,"trial_type":"html-keyboard-response","trial_index":11,"time_elapsed":32541,"internal_node_id":"0.0-8.0-0.1","subject":"8uh0yqqouzlhupn","sona":"9355"},{"rt":null,"stimulus":"<div style=\"font-size:60px;\">+</div>","key_press":null,"trial_type":"html-keyboard-response","trial_index":12,"time_elapsed":34544,"internal_node_id":"0.0-8.0-1.1","subject":"8uh0yqqouzlhupn","sona":"9355"},{"trial_type":"turing-test","trial_index":13,"time_elapsed":40059,"internal_node_id":"0.0-8.0-2.1","subject":"8uh0yqqouzlhupn","sona":"9355"},{"rt":479,"stimulus":"<p>Welche Sequenz haben Sie als natürlicher empfunden?</p>","key_press":74,"test_part":"response","test_stimulus":{"position":1,"left":"bvh/vr_prediction_models/model(vcgpdm)-dataset(return-bottle)-mode(ELBO)-parts(1)-dyn(35)-lvm(10)-hold(0)/final-lines.txt","right":"bvh/return-bottle-training0-lines.txt","att_check":false},"trial_type":"html-keyboard-response","trial_index":14,"time_elapsed":40540,"internal_node_id":"0.0-8.0-3.1","subject":"8uh0yqqouzlhupn","sona":"9355"},{"rt":201,"stimulus":"<p>Bereit?</p>","key_press":32,"trial_type":"html-keyboard-response","trial_index":15,"time_elapsed":40742,"internal_node_id":"0.0-8.0-0.2","subject":"8uh0yqqouzlhupn","sona":"9355"},{"rt":null,"stimulus":"<div style=\"font-size:60px;\">+</div>","key_press":null,"trial_type":"html-keyboard-response","trial_index":16,"time_elapsed":42745,"internal_node_id":"0.0-8.0-1.2","subject":"8uh0yqqouzlhupn","sona":"9355"},{"trial_type":"turing-test","trial_index":17,"time_elapsed":48486,"internal_node_id":"0.0-8.0-2.2","subject":"8uh0yqqouzlhupn","sona":"9355"},{"rt":422,"stimulus":"<p>Welche Sequenz haben Sie als natürlicher empfunden?</p>","key_press":70,"test_part":"response","test_stimulus":{"position":0,"left":"bvh/return-bottle-training4-lines.txt","right":"bvh/vr_prediction_models/model(dmp)-dataset(return-bottle)-npsi(50)-hold(4)/final-lines.txt","att_check":true},"trial_type":"html-keyboard-response","trial_index":18,"time_elapsed":48910,"internal_node_id":"0.0-8.0-3.2","subject":"8uh0yqqouzlhupn","sona":"9355"},{"rt":212,"stimulus":"<p>Bereit?</p>","key_press":32,"trial_type":"html-keyboard-response","trial_index":19,"time_elapsed":49123,"internal_node_id":"0.0-8.0-0.3","subject":"8uh0yqqouzlhupn","sona":"9355"},{"rt":null,"stimulus":"<div style=\"font-size:60px;\">+</div>","key_press":null,"trial_type":"html-keyboard-response","trial_index":20,"time_elapsed":51125,"internal_node_id":"0.0-8.0-1.3","subject":"8uh0yqqouzlhupn","sona":"9355"},{"trial_type":"turing-test","trial_index":21,"time_elapsed":56917,"internal_node_id":"0.0-8.0-2.3","subject":"8uh0yqqouzlhupn","sona":"9355"},{"rt":339,"stimulus":"<p>Welche Sequenz haben Sie als natürlicher empfunden?</p>","key_press":74,"test_part":"response","test_stimulus":{"position":1,"left":"bvh/vr_prediction_models/model(vcgpdm)-dataset(return-bottle)-mode(MAP)-parts(1)-hold(4)/final-lines.txt","right":"bvh/return-bottle-training4-lines.txt","att_check":false},"trial_type":"html-keyboard-response","trial_index":22,"time_elapsed":57257,"internal_node_id":"0.0-8.0-3.3","subject":"8uh0yqqouzlhupn","sona":"9355"},{"rt":201.99999999999272,"stimulus":"<p>Bereit?</p>","key_press":32,"trial_type":"html-keyboard-response","trial_index":23,"time_elapsed":57460,"internal_node_id":"0.0-8.0-0.4","subject":"8uh0yqqouzlhupn","sona":"9355"},{"rt":null,"stimulus":"<div style=\"font-size:60px;\">+</div>","key_press":null,"trial_type":"html-keyboard-response","trial_index":24,"time_elapsed":59461,"internal_node_id":"0.0-8.0-1.4","subject":"8uh0yqqouzlhupn","sona":"9355"},{"trial_type":"turing-test","trial_index":25,"time_elapsed":64931,"internal_node_id":"0.0-8.0-2.4","subject":"8uh0yqqouzlhupn","sona":"9355"},{"rt":403,"stimulus":"<p>Welche Sequenz haben Sie als natürlicher empfunden?</p>","key_press":70,"test_part":"response","test_stimulus":{"position":0,"left":"bvh/pass-bottle-training1-lines.txt","right":"bvh/vr_prediction_models/model(vcgpdm)-dataset(pass-bottle)-mode(ELBO)-parts(3)-dyn(15)-lvm(30)-hold(1)/final-lines.txt","att_check":false},"trial_type":"html-keyboard-response","trial_index":26,"time_elapsed":65335,"internal_node_id":"0.0-8.0-3.4","subject":"8uh0yqqouzlhupn","sona":"9355"},{"rt":201.00000000001455,"stimulus":"<p>Bereit?</p>","key_press":32,"trial_type":"html-keyboard-response","trial_index":27,"time_elapsed":65537,"internal_node_id":"0.0-8.0-0.5","subject":"8uh0yqqouzlhupn","sona":"9355"},{"rt":null,"stimulus":"<div style=\"font-size:60px;\">+</div>","key_press":null,"trial_type":"html-keyboard-response","trial_index":28,"time_elapsed":67540,"internal_node_id":"0.0-8.0-1.5","subject":"8uh0yqqouzlhupn","sona":"9355"},{"trial_type":"turing-test","trial_index":29,"time_elapsed":72736,"internal_node_id":"0.0-8.0-2.5","subject":"8uh0yqqouzlhupn","sona":"9355"},{"rt":405,"stimulus":"<p>Welche Sequenz haben Sie als natürlicher empfunden?</p>","key_press":70,"test_part":"response","test_stimulus":{"position":0,"left":"bvh/return-bottle-hold-training0-lines.txt","right":"bvh/vr_prediction_models/model(vcgpdm)-dataset(return-bottle-hold)-mode(ELBO)-parts(3)-dyn(20)-lvm(35)-hold(0)/final-lines.txt","att_check":false},"trial_type":"html-keyboard-response","trial_index":30,"time_elapsed":73142,"internal_node_id":"0.0-8.0-3.5","subject":"8uh0yqqouzlhupn","sona":"9355"},{"rt":202,"stimulus":"<p>Bereit?</p>","key_press":32,"trial_type":"html-keyboard-response","trial_index":31,"time_elapsed":73344,"internal_node_id":"0.0-8.0-0.6","subject":"8uh0yqqouzlhupn","sona":"9355"},{"rt":null,"stimulus":"<div style=\"font-size:60px;\">+</div>","key_press":null,"trial_type":"html-keyboard-response","trial_index":32,"time_elapsed":75346,"internal_node_id":"0.0-8.0-1.6","subject":"8uh0yqqouzlhupn","sona":"9355"},{"trial_type":"turing-test","trial_index":33,"time_elapsed":78648,"internal_node_id":"0.0-8.0-2.6","subject":"8uh0yqqouzlhupn","sona":"9355"},{"rt":397.99999999998545,"stimulus":"<p>Welche Sequenz haben Sie als natürlicher empfunden?</p>","key_press":70,"test_part":"response","test_stimulus":{"position":0,"left":"bvh/return-bottle-hold-training1-lines.txt","right":"bvh/vr_prediction_models/model(dmp)-dataset(return-bottle-hold)-npsi(50)-hold(1)/final-lines.txt","att_check":false},"trial_type":"html-keyboard-response","trial_index":34,"time_elapsed":79048,"internal_node_id":"0.0-8.0-3.6","subject":"8uh0yqqouzlhupn","sona":"9355"},{"rt":234.00000000001455,"stimulus":"<p>Bereit?</p>","key_press":32,"trial_type":"html-keyboard-response","trial_index":35,"time_elapsed":79284,"internal_node_id":"0.0-8.0-0.7","subject":"8uh0yqqouzlhupn","sona":"9355"},{"rt":null,"stimulus":"<div style=\"font-size:60px;\">+</div>","key_press":null,"trial_type":"html-keyboard-response","trial_index":36,"time_elapsed":81286,"internal_node_id":"0.0-8.0-1.7","subject":"8uh0yqqouzlhupn","sona":"9355"},{"trial_type":"turing-test","trial_index":37,"time_elapsed":84654,"internal_node_id":"0.0-8.0-2.7","subject":"8uh0yqqouzlhupn","sona":"9355"},{"rt":466.99999999998545,"stimulus":"<p>Welche Sequenz haben Sie als natürlicher empfunden?</p>","key_press":74,"test_part":"response","test_stimulus":{"position":0,"left":"bvh/pass-bottle-hold-training2-lines.txt","right":"bvh/vr_prediction_models/model(vcgpdm)-dataset(pass-bottle-hold)-mode(MAP)-parts(1)-hold(2)/final-lines.txt","att_check":false},"trial_type":"html-keyboard-response","trial_index":38,"time_elapsed":85123,"internal_node_id":"0.0-8.0-3.7","subject":"8uh0yqqouzlhupn","sona":"9355"},{"rt":212,"stimulus":"<p>Bereit?</p>","key_press":32,"trial_type":"html-keyboard-response","trial_index":39,"time_elapsed":85337,"internal_node_id":"0.0-8.0-0.8","subject":"8uh0yqqouzlhupn","sona":"9355"},{"rt":null,"stimulus":"<div style=\"font-size:60px;\">+</div>","key_press":null,"trial_type":"html-keyboard-response","trial_index":40,"time_elapsed":87338,"internal_node_id":"0.0-8.0-1.8","subject":"8uh0yqqouzlhupn","sona":"9355"},{"trial_type":"turing-test","trial_index":41,"time_elapsed":94093,"internal_node_id":"0.0-8.0-2.8","subject":"8uh0yqqouzlhupn","sona":"9355"},{"rt":446.00000000001455,"stimulus":"<p>Welche Sequenz haben Sie als natürlicher empfunden?</p>","key_press":74,"test_part":"response","test_stimulus":{"position":0,"left":"bvh/pass-bottle-training0-lines.txt","right":"bvh/vr_prediction_models/model(tmp)-dataset(pass-bottle)-numprim(4)-hold(0)/final-lines.txt","att_check":false},"trial_type":"html-keyboard-response","trial_index":42,"time_elapsed":94540,"internal_node_id":"0.0-8.0-3.8","subject":"8uh0yqqouzlhupn","sona":"9355"},{"rt":201,"stimulus":"<p>Bereit?</p>","key_press":32,"trial_type":"html-keyboard-response","trial_index":43,"time_elapsed":94742,"internal_node_id":"0.0-8.0-0.9","subject":"8uh0yqqouzlhupn","sona":"9355"},{"rt":null,"stimulus":"<div style=\"font-size:60px;\">+</div>","key_press":null,"trial_type":"html-keyboard-response","trial_index":44,"time_elapsed":96745,"internal_node_id":"0.0-8.0-1.9","subject":"8uh0yqqouzlhupn","sona":"9355"},{"trial_type":"turing-test","trial_index":45,"time_elapsed":99926,"internal_node_id":"0.0-8.0-2.9","subject":"8uh0yqqouzlhupn","sona":"9355"},{"rt":732,"stimulus":"<p>Welche Sequenz haben Sie als natürlicher empfunden?</p>","key_press":74,"test_part":"response","test_stimulus":{"position":0,"left":"bvh/return-bottle-hold-training1-lines.txt","right":"bvh/vr_prediction_models/model(dmp)-dataset(return-bottle-hold)-npsi(50)-hold(1)/final-lines.txt","att_check":false},"trial_type":"html-keyboard-response","trial_index":46,"time_elapsed":100659,"internal_node_id":"0.0-8.0-3.9","subject":"8uh0yqqouzlhupn","sona":"9355"},{"rt":212,"stimulus":"<p>Bereit?</p>","key_press":32,"trial_type":"html-keyboard-response","trial_index":47,"time_elapsed":100873,"internal_node_id":"0.0-8.0-0.10","subject":"8uh0yqqouzlhupn","sona":"9355"},{"rt":null,"stimulus":"<div style=\"font-size:60px;\">+</div>","key_press":null,"trial_type":"html-keyboard-response","trial_index":48,"time_elapsed":102876,"internal_node_id":"0.0-8.0-1.10","subject":"8uh0yqqouzlhupn","sona":"9355"},{"trial_type":"turing-test","trial_index":49,"time_elapsed":106654,"internal_node_id":"0.0-8.0-2.10","subject":"8uh0yqqouzlhupn","sona":"9355"},{"rt":685.9999999999854,"stimulus":"<p>Welche Sequenz haben Sie als natürlicher empfunden?</p>","key_press":70,"test_part":"response","test_stimulus":{"position":0,"left":"bvh/return-bottle-hold-training4-lines.txt","right":"bvh/vr_prediction_models/model(vcgpdm)-dataset(return-bottle-hold)-mode(ELBO)-parts(1)-dyn(10)-lvm(30)-hold(4)/final-lines.txt","att_check":false},"trial_type":"html-keyboard-response","trial_index":50,"time_elapsed":107342,"internal_node_id":"0.0-8.0-3.10","subject":"8uh0yqqouzlhupn","sona":"9355"},{"rt":224.00000000001455,"stimulus":"<p>Bereit?</p>","key_press":32,"trial_type":"html-keyboard-response","trial_index":51,"time_elapsed":107567,"internal_node_id":"0.0-8.0-0.11","subject":"8uh0yqqouzlhupn","sona":"9355"},{"rt":null,"stimulus":"<div style=\"font-size:60px;\">+</div>","key_press":null,"trial_type":"html-keyboard-response","trial_index":52,"time_elapsed":109570,"internal_node_id":"0.0-8.0-1.11","subject":"8uh0yqqouzlhupn","sona":"9355"},{"trial_type":"turing-test","trial_index":53,"time_elapsed":115723,"internal_node_id":"0.0-8.0-2.11","subject":"8uh0yqqouzlhupn","sona":"9355"}]