[{"rt":1495,"stimulus":"<p>Welcome!<br> Please choose your language to start the experiment in the chosen language.</p><p>Willkommen!<br> Bitte wählen Sie eine Sprache um das Experiment in der ausgewählten Sprache zu starten</p>","button_pressed":"0","trial_type":"html-button-response","trial_index":0,"time_elapsed":1525,"internal_node_id":"0.0-0.0","subject":"e0bnkmmue2zv7zl"},{"view_history":"[{\"page_index\":0,\"viewing_time\":1530},{\"page_index\":1,\"viewing_time\":942},{\"page_index\":2,\"viewing_time\":1168.000000000001},{\"page_index\":3,\"viewing_time\":685.9999999999991}]","rt":4327,"trial_type":"instructions","trial_index":1,"time_elapsed":5853,"internal_node_id":"0.0-2.0-0.0","subject":"e0bnkmmue2zv7zl"},{"rt":4509,"stimulus":"<p>Ready?</p>","key_press":32,"trial_type":"html-keyboard-response","trial_index":2,"time_elapsed":10364,"internal_node_id":"0.0-3.0","subject":"e0bnkmmue2zv7zl"},{"rt":null,"stimulus":"<div style=\"font-size:60px;\">+</div>","key_press":null,"trial_type":"html-keyboard-response","trial_index":3,"time_elapsed":12367,"internal_node_id":"0.0-4.0","subject":"e0bnkmmue2zv7zl"},{"trial_type":"training","trial_index":4,"time_elapsed":15587,"internal_node_id":"0.0-5.0","subject":"e0bnkmmue2zv7zl"},{"rt":3710,"stimulus":"<p>Which sequence did you perceive as more natural?</p>","key_press":74,"trial_type":"html-keyboard-response","trial_index":5,"time_elapsed":19298,"internal_node_id":"0.0-6.0","subject":"e0bnkmmue2zv7zl"},{"rt":7731,"stimulus":"<p>The experiment starts now.</p><p><small>Please click the button if you are ready.</small></p>","button_pressed":"0","trial_type":"html-button-response","trial_index":6,"time_elapsed":27031,"internal_node_id":"0.0-7.0","subject":"e0bnkmmue2zv7zl"},{"rt":2588.0000000000036,"stimulus":"<p>Ready?</p>","key_press":32,"trial_type":"html-keyboard-response","trial_index":7,"time_elapsed":29619,"internal_node_id":"0.0-8.0-0.0","subject":"e0bnkmmue2zv7zl"},{"rt":null,"stimulus":"<div style=\"font-size:60px;\">+</div>","key_press":null,"trial_type":"html-keyboard-response","trial_index":8,"time_elapsed":31623,"internal_node_id":"0.0-8.0-1.0","subject":"e0bnkmmue2zv7zl"},{"trial_type":"turing-test","trial_index":9,"time_elapsed":37838,"internal_node_id":"0.0-8.0-2.0","subject":"e0bnkmmue2zv7zl"},{"rt":8332,"stimulus":"<p>Which sequence did you perceive as more natural?</p>","key_press":70,"test_part":"response","test_stimulus":{"position":0,"left":"bvh/pass-bottle-training2-lines.txt","right":"bvh/vr_prediction_models/model(vcgpdm)-dataset(pass-bottle)-mode(ELBO)-parts(1)-dyn(25)-lvm(35)-hold(2)/final-lines.txt","att_check":false},"trial_type":"html-keyboard-response","trial_index":10,"time_elapsed":46173,"internal_node_id":"0.0-8.0-3.0","subject":"e0bnkmmue2zv7zl"},{"rt":1310,"stimulus":"<p>Ready?</p>","key_press":32,"trial_type":"html-keyboard-response","trial_index":11,"time_elapsed":47487,"internal_node_id":"0.0-8.0-0.1","subject":"e0bnkmmue2zv7zl"},{"rt":null,"stimulus":"<div style=\"font-size:60px;\">+</div>","key_press":null,"trial_type":"html-keyboard-response","trial_index":12,"time_elapsed":49490,"internal_node_id":"0.0-8.0-1.1","subject":"e0bnkmmue2zv7zl"},{"trial_type":"turing-test","trial_index":13,"time_elapsed":55178,"internal_node_id":"0.0-8.0-2.1","subject":"e0bnkmmue2zv7zl"},{"rt":958,"stimulus":"<p>Which sequence did you perceive as more natural?</p>","key_press":74,"test_part":"response","test_stimulus":{"position":1,"left":"bvh/vr_prediction_models/model(dmp)-dataset(return-bottle)-npsi(10)-hold(3)/final-lines.txt","right":"bvh/return-bottle-training3-lines.txt","att_check":false},"trial_type":"html-keyboard-response","trial_index":14,"time_elapsed":56139,"internal_node_id":"0.0-8.0-3.1","subject":"e0bnkmmue2zv7zl"},{"rt":844,"stimulus":"<p>Ready?</p>","key_press":32,"trial_type":"html-keyboard-response","trial_index":15,"time_elapsed":56987,"internal_node_id":"0.0-8.0-0.2","subject":"e0bnkmmue2zv7zl"},{"rt":null,"stimulus":"<div style=\"font-size:60px;\">+</div>","key_press":null,"trial_type":"html-keyboard-response","trial_index":16,"time_elapsed":58990,"internal_node_id":"0.0-8.0-1.2","subject":"e0bnkmmue2zv7zl"}]