[{"rt":11761,"stimulus":"<p>Welcome!<br> Please choose your language to start the experiment in the chosen language.</p><p>Willkommen!<br> Bitte wählen Sie eine Sprache, um das Experiment in der ausgewählten Sprache zu starten</p>","button_pressed":"1","trial_type":"html-button-response","trial_index":0,"time_elapsed":11777,"internal_node_id":"0.0-0.0","subject":"3gyrkhzeg00s9hh","sona":"7306"},{"view_history":"[{\"page_index\":0,\"viewing_time\":6860},{\"page_index\":1,\"viewing_time\":3653},{\"page_index\":2,\"viewing_time\":7902},{\"page_index\":3,\"viewing_time\":4110},{\"page_index\":4,\"viewing_time\":4607}]","rt":27133,"trial_type":"instructions","trial_index":1,"time_elapsed":38914,"internal_node_id":"0.0-1.0-0.0","subject":"3gyrkhzeg00s9hh","sona":"7306"},{"rt":2846,"stimulus":"<p>Bereit?</p>","key_press":32,"trial_type":"html-keyboard-response","trial_index":2,"time_elapsed":41762,"internal_node_id":"0.0-3.0","subject":"3gyrkhzeg00s9hh","sona":"7306"},{"rt":null,"stimulus":"<div style=\"font-size:60px;\">+</div>","key_press":null,"trial_type":"html-keyboard-response","trial_index":3,"time_elapsed":43765,"internal_node_id":"0.0-4.0","subject":"3gyrkhzeg00s9hh","sona":"7306"},{"trial_type":"training","trial_index":4,"time_elapsed":47247,"internal_node_id":"0.0-5.0","subject":"3gyrkhzeg00s9hh","sona":"7306"},{"rt":937.0000000000073,"stimulus":"<p>Welche Sequenz haben Sie als natürlicher empfunden?</p>","key_press":70,"trial_type":"html-keyboard-response","trial_index":5,"time_elapsed":48185,"internal_node_id":"0.0-6.0","subject":"3gyrkhzeg00s9hh","sona":"7306"},{"rt":3477,"stimulus":"<p>Das Experiment startet nun.</p><p><small>Bitte drücken Sie den Knopf, wenn Sie bereit sind.</small></p>","button_pressed":"0","trial_type":"html-button-response","trial_index":6,"time_elapsed":51664,"internal_node_id":"0.0-7.0","subject":"3gyrkhzeg00s9hh","sona":"7306"},{"rt":2815,"stimulus":"<p>Bereit?</p>","key_press":32,"trial_type":"html-keyboard-response","trial_index":7,"time_elapsed":54480,"internal_node_id":"0.0-8.0-0.0","subject":"3gyrkhzeg00s9hh","sona":"7306"},{"rt":null,"stimulus":"<div style=\"font-size:60px;\">+</div>","key_press":null,"trial_type":"html-keyboard-response","trial_index":8,"time_elapsed":56483,"internal_node_id":"0.0-8.0-1.0","subject":"3gyrkhzeg00s9hh","sona":"7306"},{"trial_type":"turing-test","trial_index":9,"time_elapsed":63152,"internal_node_id":"0.0-8.0-2.0","subject":"3gyrkhzeg00s9hh","sona":"7306"},{"rt":807,"stimulus":"<p>Welche Sequenz haben Sie als natürlicher empfunden?</p>","key_press":70,"test_part":"response","test_stimulus":{"position":0,"left":"bvh/return-bottle-training2-lines.txt","right":"bvh/vr_prediction_models/model(vcgpdm)-dataset(return-bottle)-mode(ELBO)-parts(1)-dyn(30)-lvm(20)-hold(2)/final-lines.txt","att_check":false},"trial_type":"html-keyboard-response","trial_index":10,"time_elapsed":63962,"internal_node_id":"0.0-8.0-3.0","subject":"3gyrkhzeg00s9hh","sona":"7306"},{"rt":1001.0000000000073,"stimulus":"<p>Bereit?</p>","key_press":32,"trial_type":"html-keyboard-response","trial_index":11,"time_elapsed":64965,"internal_node_id":"0.0-8.0-0.1","subject":"3gyrkhzeg00s9hh","sona":"7306"},{"rt":null,"stimulus":"<div style=\"font-size:60px;\">+</div>","key_press":null,"trial_type":"html-keyboard-response","trial_index":12,"time_elapsed":66967,"internal_node_id":"0.0-8.0-1.1","subject":"3gyrkhzeg00s9hh","sona":"7306"},{"trial_type":"turing-test","trial_index":13,"time_elapsed":73085,"internal_node_id":"0.0-8.0-2.1","subject":"3gyrkhzeg00s9hh","sona":"7306"},{"rt":1341.0000000000146,"stimulus":"<p>Welche Sequenz haben Sie als natürlicher empfunden?</p>","key_press":70,"test_part":"response","test_stimulus":{"position":1,"left":"bvh/vr_prediction_models/model(dmp)-dataset(pass-bottle)-npsi(100)-hold(2)/final-lines.txt","right":"bvh/pass-bottle-training2-lines.txt","att_check":false},"trial_type":"html-keyboard-response","trial_index":14,"time_elapsed":74429,"internal_node_id":"0.0-8.0-3.1","subject":"3gyrkhzeg00s9hh","sona":"7306"},{"rt":1022,"stimulus":"<p>Bereit?</p>","key_press":32,"trial_type":"html-keyboard-response","trial_index":15,"time_elapsed":75453,"internal_node_id":"0.0-8.0-0.2","subject":"3gyrkhzeg00s9hh","sona":"7306"},{"rt":null,"stimulus":"<div style=\"font-size:60px;\">+</div>","key_press":null,"trial_type":"html-keyboard-response","trial_index":16,"time_elapsed":77456,"internal_node_id":"0.0-8.0-1.2","subject":"3gyrkhzeg00s9hh","sona":"7306"},{"trial_type":"turing-test","trial_index":17,"time_elapsed":80853,"internal_node_id":"0.0-8.0-2.2","subject":"3gyrkhzeg00s9hh","sona":"7306"},{"rt":2389,"stimulus":"<p>Welche Sequenz haben Sie als natürlicher empfunden?</p>","key_press":70,"test_part":"response","test_stimulus":{"position":0,"left":"bvh/return-bottle-hold-training1-lines.txt","right":"bvh/vr_prediction_models/model(vcgpdm)-dataset(return-bottle-hold)-mode(ELBO)-parts(3)-dyn(30)-lvm(15)-hold(1)/final-lines.txt","att_check":false},"trial_type":"html-keyboard-response","trial_index":18,"time_elapsed":83244,"internal_node_id":"0.0-8.0-3.2","subject":"3gyrkhzeg00s9hh","sona":"7306"},{"rt":656,"stimulus":"<p>Bereit?</p>","key_press":32,"trial_type":"html-keyboard-response","trial_index":19,"time_elapsed":83902,"internal_node_id":"0.0-8.0-0.3","subject":"3gyrkhzeg00s9hh","sona":"7306"},{"rt":null,"stimulus":"<div style=\"font-size:60px;\">+</div>","key_press":null,"trial_type":"html-keyboard-response","trial_index":20,"time_elapsed":85905,"internal_node_id":"0.0-8.0-1.3","subject":"3gyrkhzeg00s9hh","sona":"7306"},{"trial_type":"turing-test","trial_index":21,"time_elapsed":89572,"internal_node_id":"0.0-8.0-2.3","subject":"3gyrkhzeg00s9hh","sona":"7306"},{"rt":1752,"stimulus":"<p>Welche Sequenz haben Sie als natürlicher empfunden?</p>","key_press":74,"test_part":"response","test_stimulus":{"position":0,"left":"bvh/pass-bottle-hold-training3-lines.txt","right":"bvh/vr_prediction_models/model(vcgpdm)-dataset(pass-bottle-hold)-mode(ELBO)-parts(3)-dyn(20)-lvm(35)-hold(3)/final-lines.txt","att_check":false},"trial_type":"html-keyboard-response","trial_index":22,"time_elapsed":91326,"internal_node_id":"0.0-8.0-3.3","subject":"3gyrkhzeg00s9hh","sona":"7306"},{"rt":670,"stimulus":"<p>Bereit?</p>","key_press":32,"trial_type":"html-keyboard-response","trial_index":23,"time_elapsed":91998,"internal_node_id":"0.0-8.0-0.4","subject":"3gyrkhzeg00s9hh","sona":"7306"},{"rt":null,"stimulus":"<div style=\"font-size:60px;\">+</div>","key_press":null,"trial_type":"html-keyboard-response","trial_index":24,"time_elapsed":94001,"internal_node_id":"0.0-8.0-1.4","subject":"3gyrkhzeg00s9hh","sona":"7306"},{"trial_type":"turing-test","trial_index":25,"time_elapsed":97379,"internal_node_id":"0.0-8.0-2.4","subject":"3gyrkhzeg00s9hh","sona":"7306"},{"rt":375,"stimulus":"<p>Welche Sequenz haben Sie als natürlicher empfunden?</p>","key_press":74,"test_part":"response","test_stimulus":{"position":1,"left":"bvh/vr_prediction_models/model(vcgpdm)-dataset(pass-bottle-hold)-mode(ELBO)-parts(3)-dyn(25)-lvm(25)-hold(0)/final-lines.txt","right":"bvh/pass-bottle-hold-training0-lines.txt","att_check":false},"trial_type":"html-keyboard-response","trial_index":26,"time_elapsed":97757,"internal_node_id":"0.0-8.0-3.4","subject":"3gyrkhzeg00s9hh","sona":"7306"},{"rt":749,"stimulus":"<p>Bereit?</p>","key_press":32,"trial_type":"html-keyboard-response","trial_index":27,"time_elapsed":98508,"internal_node_id":"0.0-8.0-0.5","subject":"3gyrkhzeg00s9hh","sona":"7306"},{"rt":null,"stimulus":"<div style=\"font-size:60px;\">+</div>","key_press":null,"trial_type":"html-keyboard-response","trial_index":28,"time_elapsed":100510,"internal_node_id":"0.0-8.0-1.5","subject":"3gyrkhzeg00s9hh","sona":"7306"},{"trial_type":"turing-test","trial_index":29,"time_elapsed":103770,"internal_node_id":"0.0-8.0-2.5","subject":"3gyrkhzeg00s9hh","sona":"7306"},{"rt":1330,"stimulus":"<p>Welche Sequenz haben Sie als natürlicher empfunden?</p>","key_press":70,"test_part":"response","test_stimulus":{"position":0,"left":"bvh/return-bottle-hold-training1-lines.txt","right":"bvh/vr_prediction_models/model(tmp)-dataset(return-bottle-hold)-numprim(11)-hold(1)/final-lines.txt","att_check":false},"trial_type":"html-keyboard-response","trial_index":30,"time_elapsed":105102,"internal_node_id":"0.0-8.0-3.5","subject":"3gyrkhzeg00s9hh","sona":"7306"},{"rt":969,"stimulus":"<p>Bereit?</p>","key_press":32,"trial_type":"html-keyboard-response","trial_index":31,"time_elapsed":106073,"internal_node_id":"0.0-8.0-0.6","subject":"3gyrkhzeg00s9hh","sona":"7306"},{"rt":null,"stimulus":"<div style=\"font-size:60px;\">+</div>","key_press":null,"trial_type":"html-keyboard-response","trial_index":32,"time_elapsed":108077,"internal_node_id":"0.0-8.0-1.6","subject":"3gyrkhzeg00s9hh","sona":"7306"},{"trial_type":"turing-test","trial_index":33,"time_elapsed":113837,"internal_node_id":"0.0-8.0-2.6","subject":"3gyrkhzeg00s9hh","sona":"7306"},{"rt":766,"stimulus":"<p>Welche Sequenz haben Sie als natürlicher empfunden?</p>","key_press":74,"test_part":"response","test_stimulus":{"position":1,"left":"bvh/vr_prediction_models/model(tmp)-dataset(return-bottle)-numprim(7)-hold(4)/final-lines.txt","right":"bvh/return-bottle-training4-lines.txt","att_check":false},"trial_type":"html-keyboard-response","trial_index":34,"time_elapsed":114605,"internal_node_id":"0.0-8.0-3.6","subject":"3gyrkhzeg00s9hh","sona":"7306"},{"rt":1100,"stimulus":"<p>Bereit?</p>","key_press":32,"trial_type":"html-keyboard-response","trial_index":35,"time_elapsed":115708,"internal_node_id":"0.0-8.0-0.7","subject":"3gyrkhzeg00s9hh","sona":"7306"},{"rt":null,"stimulus":"<div style=\"font-size:60px;\">+</div>","key_press":null,"trial_type":"html-keyboard-response","trial_index":36,"time_elapsed":117711,"internal_node_id":"0.0-8.0-1.7","subject":"3gyrkhzeg00s9hh","sona":"7306"},{"trial_type":"turing-test","trial_index":37,"time_elapsed":123544,"internal_node_id":"0.0-8.0-2.7","subject":"3gyrkhzeg00s9hh","sona":"7306"},{"rt":1053,"stimulus":"<p>Welche Sequenz haben Sie als natürlicher empfunden?</p>","key_press":74,"test_part":"response","test_stimulus":{"position":0,"left":"bvh/pass-bottle-training3-lines.txt","right":"bvh/vr_prediction_models/model(dmp)-dataset(pass-bottle)-npsi(60)-hold(3)/final-lines.txt","att_check":true},"trial_type":"html-keyboard-response","trial_index":38,"time_elapsed":124599,"internal_node_id":"0.0-8.0-3.7","subject":"3gyrkhzeg00s9hh","sona":"7306"},{"rt":940,"stimulus":"<p>Bereit?</p>","key_press":32,"trial_type":"html-keyboard-response","trial_index":39,"time_elapsed":125542,"internal_node_id":"0.0-8.0-0.8","subject":"3gyrkhzeg00s9hh","sona":"7306"},{"rt":null,"stimulus":"<div style=\"font-size:60px;\">+</div>","key_press":null,"trial_type":"html-keyboard-response","trial_index":40,"time_elapsed":127545,"internal_node_id":"0.0-8.0-1.8","subject":"3gyrkhzeg00s9hh","sona":"7306"},{"trial_type":"turing-test","trial_index":41,"time_elapsed":133385,"internal_node_id":"0.0-8.0-2.8","subject":"3gyrkhzeg00s9hh","sona":"7306"},{"rt":704,"stimulus":"<p>Welche Sequenz haben Sie als natürlicher empfunden?</p>","key_press":70,"test_part":"response","test_stimulus":{"position":1,"left":"bvh/vr_prediction_models/model(vcgpdm)-dataset(pass-bottle)-mode(ELBO)-parts(3)-dyn(15)-lvm(30)-hold(3)/final-lines.txt","right":"bvh/pass-bottle-training3-lines.txt","att_check":false},"trial_type":"html-keyboard-response","trial_index":42,"time_elapsed":134091,"internal_node_id":"0.0-8.0-3.8","subject":"3gyrkhzeg00s9hh","sona":"7306"},{"rt":980,"stimulus":"<p>Bereit?</p>","key_press":32,"trial_type":"html-keyboard-response","trial_index":43,"time_elapsed":135073,"internal_node_id":"0.0-8.0-0.9","subject":"3gyrkhzeg00s9hh","sona":"7306"},{"rt":null,"stimulus":"<div style=\"font-size:60px;\">+</div>","key_press":null,"trial_type":"html-keyboard-response","trial_index":44,"time_elapsed":137076,"internal_node_id":"0.0-8.0-1.9","subject":"3gyrkhzeg00s9hh","sona":"7306"},{"trial_type":"turing-test","trial_index":45,"time_elapsed":143202,"internal_node_id":"0.0-8.0-2.9","subject":"3gyrkhzeg00s9hh","sona":"7306"},{"rt":467,"stimulus":"<p>Welche Sequenz haben Sie als natürlicher empfunden?</p>","key_press":70,"test_part":"response","test_stimulus":{"position":0,"left":"bvh/pass-bottle-training2-lines.txt","right":"bvh/vr_prediction_models/model(vcgpdm)-dataset(pass-bottle)-mode(ELBO)-parts(1)-dyn(15)-lvm(35)-hold(2)/final-lines.txt","att_check":false},"trial_type":"html-keyboard-response","trial_index":46,"time_elapsed":143671,"internal_node_id":"0.0-8.0-3.9","subject":"3gyrkhzeg00s9hh","sona":"7306"},{"rt":2104.000000000029,"stimulus":"<p>Bereit?</p>","key_press":32,"trial_type":"html-keyboard-response","trial_index":47,"time_elapsed":145777,"internal_node_id":"0.0-8.0-0.10","subject":"3gyrkhzeg00s9hh","sona":"7306"},{"rt":null,"stimulus":"<div style=\"font-size:60px;\">+</div>","key_press":null,"trial_type":"html-keyboard-response","trial_index":48,"time_elapsed":147780,"internal_node_id":"0.0-8.0-1.10","subject":"3gyrkhzeg00s9hh","sona":"7306"},{"trial_type":"turing-test","trial_index":49,"time_elapsed":153599,"internal_node_id":"0.0-8.0-2.10","subject":"3gyrkhzeg00s9hh","sona":"7306"},{"rt":679,"stimulus":"<p>Welche Sequenz haben Sie als natürlicher empfunden?</p>","key_press":74,"test_part":"response","test_stimulus":{"position":1,"left":"bvh/vr_prediction_models/model(vcgpdm)-dataset(pass-bottle)-mode(ELBO)-parts(3)-dyn(35)-lvm(20)-hold(3)/final-lines.txt","right":"bvh/pass-bottle-training3-lines.txt","att_check":false},"trial_type":"html-keyboard-response","trial_index":50,"time_elapsed":154281,"internal_node_id":"0.0-8.0-3.10","subject":"3gyrkhzeg00s9hh","sona":"7306"},{"rt":858.9999999999709,"stimulus":"<p>Bereit?</p>","key_press":32,"trial_type":"html-keyboard-response","trial_index":51,"time_elapsed":155143,"internal_node_id":"0.0-8.0-0.11","subject":"3gyrkhzeg00s9hh","sona":"7306"},{"rt":null,"stimulus":"<div style=\"font-size:60px;\">+</div>","key_press":null,"trial_type":"html-keyboard-response","trial_index":52,"time_elapsed":157146,"internal_node_id":"0.0-8.0-1.11","subject":"3gyrkhzeg00s9hh","sona":"7306"},{"trial_type":"turing-test","trial_index":53,"time_elapsed":162922,"internal_node_id":"0.0-8.0-2.11","subject":"3gyrkhzeg00s9hh","sona":"7306"}]