[{"rt":5216.999999999998,"stimulus":"<p>Welcome!<br> Please choose your language to start the experiment in the chosen language.</p><p>Willkommen!<br> Bitte wählen Sie eine Sprache, um das Experiment in der ausgewählten Sprache zu starten</p>","button_pressed":"1","trial_type":"html-button-response","trial_index":0,"time_elapsed":5222,"internal_node_id":"0.0-0.0","subject":"l9x4jhexve4azyb","sona":"5917"},{"view_history":"[{\"page_index\":0,\"viewing_time\":11189.999999999998},{\"page_index\":1,\"viewing_time\":5495},{\"page_index\":2,\"viewing_time\":11318},{\"page_index\":3,\"viewing_time\":5259},{\"page_index\":4,\"viewing_time\":2409.0000000000073}]","rt":35671.00000000001,"trial_type":"instructions","trial_index":1,"time_elapsed":40894,"internal_node_id":"0.0-1.0-0.0","subject":"l9x4jhexve4azyb","sona":"5917"},{"rt":1678,"stimulus":"<p>Bereit?</p>","key_press":32,"trial_type":"html-keyboard-response","trial_index":2,"time_elapsed":42573,"internal_node_id":"0.0-3.0","subject":"l9x4jhexve4azyb","sona":"5917"},{"rt":null,"stimulus":"<div style=\"font-size:60px;\">+</div>","key_press":null,"trial_type":"html-keyboard-response","trial_index":3,"time_elapsed":44576,"internal_node_id":"0.0-4.0","subject":"l9x4jhexve4azyb","sona":"5917"},{"trial_type":"training","trial_index":4,"time_elapsed":47983,"internal_node_id":"0.0-5.0","subject":"l9x4jhexve4azyb","sona":"5917"},{"rt":634,"stimulus":"<p>Welche Sequenz haben Sie als natürlicher empfunden?</p>","key_press":70,"trial_type":"html-keyboard-response","trial_index":5,"time_elapsed":48619,"internal_node_id":"0.0-6.0","subject":"l9x4jhexve4azyb","sona":"5917"},{"rt":5024,"stimulus":"<p>Das Experiment startet nun.</p><p><small>Bitte drücken Sie den Knopf, wenn Sie bereit sind.</small></p>","button_pressed":"0","trial_type":"html-button-response","trial_index":6,"time_elapsed":53644,"internal_node_id":"0.0-7.0","subject":"l9x4jhexve4azyb","sona":"5917"},{"rt":2182,"stimulus":"<p>Bereit?</p>","key_press":32,"trial_type":"html-keyboard-response","trial_index":7,"time_elapsed":55827,"internal_node_id":"0.0-8.0-0.0","subject":"l9x4jhexve4azyb","sona":"5917"},{"rt":null,"stimulus":"<div style=\"font-size:60px;\">+</div>","key_press":null,"trial_type":"html-keyboard-response","trial_index":8,"time_elapsed":57831,"internal_node_id":"0.0-8.0-1.0","subject":"l9x4jhexve4azyb","sona":"5917"},{"trial_type":"turing-test","trial_index":9,"time_elapsed":63262,"internal_node_id":"0.0-8.0-2.0","subject":"l9x4jhexve4azyb","sona":"5917"},{"rt":443,"stimulus":"<p>Welche Sequenz haben Sie als natürlicher empfunden?</p>","key_press":74,"test_part":"response","test_stimulus":{"position":1,"left":"bvh/vr_prediction_models/model(tmp)-dataset(return-bottle)-numprim(13)-hold(0)/final-lines.txt","right":"bvh/return-bottle-training0-lines.txt","att_check":false},"trial_type":"html-keyboard-response","trial_index":10,"time_elapsed":63708,"internal_node_id":"0.0-8.0-3.0","subject":"l9x4jhexve4azyb","sona":"5917"},{"rt":1460,"stimulus":"<p>Bereit?</p>","key_press":32,"trial_type":"html-keyboard-response","trial_index":11,"time_elapsed":65170,"internal_node_id":"0.0-8.0-0.1","subject":"l9x4jhexve4azyb","sona":"5917"},{"rt":null,"stimulus":"<div style=\"font-size:60px;\">+</div>","key_press":null,"trial_type":"html-keyboard-response","trial_index":12,"time_elapsed":67174,"internal_node_id":"0.0-8.0-1.1","subject":"l9x4jhexve4azyb","sona":"5917"},{"trial_type":"turing-test","trial_index":13,"time_elapsed":73463,"internal_node_id":"0.0-8.0-2.1","subject":"l9x4jhexve4azyb","sona":"5917"},{"rt":1334,"stimulus":"<p>Welche Sequenz haben Sie als natürlicher empfunden?</p>","key_press":74,"test_part":"response","test_stimulus":{"position":1,"left":"bvh/vr_prediction_models/model(vcgpdm)-dataset(pass-bottle)-mode(ELBO)-parts(1)-dyn(10)-lvm(25)-hold(2)/final-lines.txt","right":"bvh/pass-bottle-training2-lines.txt","att_check":false},"trial_type":"html-keyboard-response","trial_index":14,"time_elapsed":74799,"internal_node_id":"0.0-8.0-3.1","subject":"l9x4jhexve4azyb","sona":"5917"},{"rt":790,"stimulus":"<p>Bereit?</p>","key_press":32,"trial_type":"html-keyboard-response","trial_index":15,"time_elapsed":75591,"internal_node_id":"0.0-8.0-0.2","subject":"l9x4jhexve4azyb","sona":"5917"},{"rt":null,"stimulus":"<div style=\"font-size:60px;\">+</div>","key_press":null,"trial_type":"html-keyboard-response","trial_index":16,"time_elapsed":77594,"internal_node_id":"0.0-8.0-1.2","subject":"l9x4jhexve4azyb","sona":"5917"},{"trial_type":"turing-test","trial_index":17,"time_elapsed":83543,"internal_node_id":"0.0-8.0-2.2","subject":"l9x4jhexve4azyb","sona":"5917"},{"rt":1037,"stimulus":"<p>Welche Sequenz haben Sie als natürlicher empfunden?</p>","key_press":70,"test_part":"response","test_stimulus":{"position":1,"left":"bvh/vr_prediction_models/model(tmp)-dataset(return-bottle)-numprim(13)-hold(4)/final-lines.txt","right":"bvh/return-bottle-training4-lines.txt","att_check":false},"trial_type":"html-keyboard-response","trial_index":18,"time_elapsed":84582,"internal_node_id":"0.0-8.0-3.2","subject":"l9x4jhexve4azyb","sona":"5917"},{"rt":1172,"stimulus":"<p>Bereit?</p>","key_press":32,"trial_type":"html-keyboard-response","trial_index":19,"time_elapsed":85755,"internal_node_id":"0.0-8.0-0.3","subject":"l9x4jhexve4azyb","sona":"5917"},{"rt":null,"stimulus":"<div style=\"font-size:60px;\">+</div>","key_press":null,"trial_type":"html-keyboard-response","trial_index":20,"time_elapsed":87758,"internal_node_id":"0.0-8.0-1.3","subject":"l9x4jhexve4azyb","sona":"5917"},{"trial_type":"turing-test","trial_index":21,"time_elapsed":94338,"internal_node_id":"0.0-8.0-2.3","subject":"l9x4jhexve4azyb","sona":"5917"},{"rt":472,"stimulus":"<p>Welche Sequenz haben Sie als natürlicher empfunden?</p>","key_press":74,"test_part":"response","test_stimulus":{"position":1,"left":"bvh/vr_prediction_models/model(tmp)-dataset(return-bottle)-numprim(4)-hold(2)/final-lines.txt","right":"bvh/return-bottle-training2-lines.txt","att_check":false},"trial_type":"html-keyboard-response","trial_index":22,"time_elapsed":94812,"internal_node_id":"0.0-8.0-3.3","subject":"l9x4jhexve4azyb","sona":"5917"},{"rt":692,"stimulus":"<p>Bereit?</p>","key_press":32,"trial_type":"html-keyboard-response","trial_index":23,"time_elapsed":95506,"internal_node_id":"0.0-8.0-0.4","subject":"l9x4jhexve4azyb","sona":"5917"},{"rt":null,"stimulus":"<div style=\"font-size:60px;\">+</div>","key_press":null,"trial_type":"html-keyboard-response","trial_index":24,"time_elapsed":97509,"internal_node_id":"0.0-8.0-1.4","subject":"l9x4jhexve4azyb","sona":"5917"},{"trial_type":"turing-test","trial_index":25,"time_elapsed":100943,"internal_node_id":"0.0-8.0-2.4","subject":"l9x4jhexve4azyb","sona":"5917"},{"rt":504,"stimulus":"<p>Welche Sequenz haben Sie als natürlicher empfunden?</p>","key_press":70,"test_part":"response","test_stimulus":{"position":0,"left":"bvh/pass-bottle-hold-training2-lines.txt","right":"bvh/vr_prediction_models/model(vcgpdm)-dataset(pass-bottle-hold)-mode(ELBO)-parts(1)-dyn(30)-lvm(35)-hold(2)/final-lines.txt","att_check":false},"trial_type":"html-keyboard-response","trial_index":26,"time_elapsed":101450,"internal_node_id":"0.0-8.0-3.4","subject":"l9x4jhexve4azyb","sona":"5917"},{"rt":650,"stimulus":"<p>Bereit?</p>","key_press":32,"trial_type":"html-keyboard-response","trial_index":27,"time_elapsed":102102,"internal_node_id":"0.0-8.0-0.5","subject":"l9x4jhexve4azyb","sona":"5917"},{"rt":null,"stimulus":"<div style=\"font-size:60px;\">+</div>","key_press":null,"trial_type":"html-keyboard-response","trial_index":28,"time_elapsed":104104,"internal_node_id":"0.0-8.0-1.5","subject":"l9x4jhexve4azyb","sona":"5917"},{"trial_type":"turing-test","trial_index":29,"time_elapsed":107751,"internal_node_id":"0.0-8.0-2.5","subject":"l9x4jhexve4azyb","sona":"5917"},{"rt":628.9999999999854,"stimulus":"<p>Welche Sequenz haben Sie als natürlicher empfunden?</p>","key_press":74,"test_part":"response","test_stimulus":{"position":1,"left":"bvh/vr_prediction_models/model(dmp)-dataset(pass-bottle-hold)-npsi(40)-hold(3)/final-lines.txt","right":"bvh/pass-bottle-hold-training3-lines.txt","att_check":false},"trial_type":"html-keyboard-response","trial_index":30,"time_elapsed":108383,"internal_node_id":"0.0-8.0-3.5","subject":"l9x4jhexve4azyb","sona":"5917"},{"rt":902.9999999999854,"stimulus":"<p>Bereit?</p>","key_press":32,"trial_type":"html-keyboard-response","trial_index":31,"time_elapsed":109288,"internal_node_id":"0.0-8.0-0.6","subject":"l9x4jhexve4azyb","sona":"5917"},{"rt":null,"stimulus":"<div style=\"font-size:60px;\">+</div>","key_press":null,"trial_type":"html-keyboard-response","trial_index":32,"time_elapsed":111291,"internal_node_id":"0.0-8.0-1.6","subject":"l9x4jhexve4azyb","sona":"5917"},{"trial_type":"turing-test","trial_index":33,"time_elapsed":117934,"internal_node_id":"0.0-8.0-2.6","subject":"l9x4jhexve4azyb","sona":"5917"},{"rt":352,"stimulus":"<p>Welche Sequenz haben Sie als natürlicher empfunden?</p>","key_press":70,"test_part":"response","test_stimulus":{"position":0,"left":"bvh/return-bottle-training2-lines.txt","right":"bvh/vr_prediction_models/model(vcgpdm)-dataset(return-bottle)-mode(MAP)-parts(1)-hold(2)/final-lines.txt","att_check":false},"trial_type":"html-keyboard-response","trial_index":34,"time_elapsed":118288,"internal_node_id":"0.0-8.0-3.6","subject":"l9x4jhexve4azyb","sona":"5917"},{"rt":3834.9999999999854,"stimulus":"<p>Bereit?</p>","key_press":32,"trial_type":"html-keyboard-response","trial_index":35,"time_elapsed":122125,"internal_node_id":"0.0-8.0-0.7","subject":"l9x4jhexve4azyb","sona":"5917"},{"rt":null,"stimulus":"<div style=\"font-size:60px;\">+</div>","key_press":null,"trial_type":"html-keyboard-response","trial_index":36,"time_elapsed":124128,"internal_node_id":"0.0-8.0-1.7","subject":"l9x4jhexve4azyb","sona":"5917"},{"trial_type":"turing-test","trial_index":37,"time_elapsed":127935,"internal_node_id":"0.0-8.0-2.7","subject":"l9x4jhexve4azyb","sona":"5917"},{"rt":836,"stimulus":"<p>Welche Sequenz haben Sie als natürlicher empfunden?</p>","key_press":74,"test_part":"response","test_stimulus":{"position":1,"left":"bvh/vr_prediction_models/model(vcgpdm)-dataset(return-bottle-hold)-mode(ELBO)-parts(3)-dyn(25)-lvm(15)-hold(4)/final-lines.txt","right":"bvh/return-bottle-hold-training4-lines.txt","att_check":false},"trial_type":"html-keyboard-response","trial_index":38,"time_elapsed":128773,"internal_node_id":"0.0-8.0-3.7","subject":"l9x4jhexve4azyb","sona":"5917"},{"rt":1664.000000000029,"stimulus":"<p>Bereit?</p>","key_press":32,"trial_type":"html-keyboard-response","trial_index":39,"time_elapsed":130440,"internal_node_id":"0.0-8.0-0.8","subject":"l9x4jhexve4azyb","sona":"5917"},{"rt":null,"stimulus":"<div style=\"font-size:60px;\">+</div>","key_press":null,"trial_type":"html-keyboard-response","trial_index":40,"time_elapsed":132443,"internal_node_id":"0.0-8.0-1.8","subject":"l9x4jhexve4azyb","sona":"5917"},{"trial_type":"turing-test","trial_index":41,"time_elapsed":135722,"internal_node_id":"0.0-8.0-2.8","subject":"l9x4jhexve4azyb","sona":"5917"},{"rt":1061,"stimulus":"<p>Welche Sequenz haben Sie als natürlicher empfunden?</p>","key_press":74,"test_part":"response","test_stimulus":{"position":1,"left":"bvh/vr_prediction_models/model(tmp)-dataset(pass-bottle-hold)-numprim(10)-hold(0)/final-lines.txt","right":"bvh/pass-bottle-hold-training0-lines.txt","att_check":false},"trial_type":"html-keyboard-response","trial_index":42,"time_elapsed":136785,"internal_node_id":"0.0-8.0-3.8","subject":"l9x4jhexve4azyb","sona":"5917"},{"rt":699,"stimulus":"<p>Bereit?</p>","key_press":32,"trial_type":"html-keyboard-response","trial_index":43,"time_elapsed":137486,"internal_node_id":"0.0-8.0-0.9","subject":"l9x4jhexve4azyb","sona":"5917"},{"rt":null,"stimulus":"<div style=\"font-size:60px;\">+</div>","key_press":null,"trial_type":"html-keyboard-response","trial_index":44,"time_elapsed":139489,"internal_node_id":"0.0-8.0-1.9","subject":"l9x4jhexve4azyb","sona":"5917"},{"trial_type":"turing-test","trial_index":45,"time_elapsed":145614,"internal_node_id":"0.0-8.0-2.9","subject":"l9x4jhexve4azyb","sona":"5917"},{"rt":285,"stimulus":"<p>Welche Sequenz haben Sie als natürlicher empfunden?</p>","key_press":74,"test_part":"response","test_stimulus":{"position":1,"left":"bvh/vr_prediction_models/model(dmp)-dataset(return-bottle)-npsi(30)-hold(1)/final-lines.txt","right":"bvh/return-bottle-training1-lines.txt","att_check":false},"trial_type":"html-keyboard-response","trial_index":46,"time_elapsed":145901,"internal_node_id":"0.0-8.0-3.9","subject":"l9x4jhexve4azyb","sona":"5917"},{"rt":3112,"stimulus":"<p>Bereit?</p>","key_press":32,"trial_type":"html-keyboard-response","trial_index":47,"time_elapsed":149016,"internal_node_id":"0.0-8.0-0.10","subject":"l9x4jhexve4azyb","sona":"5917"},{"rt":null,"stimulus":"<div style=\"font-size:60px;\">+</div>","key_press":null,"trial_type":"html-keyboard-response","trial_index":48,"time_elapsed":151019,"internal_node_id":"0.0-8.0-1.10","subject":"l9x4jhexve4azyb","sona":"5917"},{"trial_type":"turing-test","trial_index":49,"time_elapsed":154475,"internal_node_id":"0.0-8.0-2.10","subject":"l9x4jhexve4azyb","sona":"5917"},{"rt":723,"stimulus":"<p>Welche Sequenz haben Sie als natürlicher empfunden?</p>","key_press":70,"test_part":"response","test_stimulus":{"position":0,"left":"bvh/pass-bottle-hold-training2-lines.txt","right":"bvh/vr_prediction_models/model(vcgpdm)-dataset(pass-bottle-hold)-mode(MAP)-parts(3)-hold(2)/final-lines.txt","att_check":false},"trial_type":"html-keyboard-response","trial_index":50,"time_elapsed":155201,"internal_node_id":"0.0-8.0-3.10","subject":"l9x4jhexve4azyb","sona":"5917"},{"rt":577,"stimulus":"<p>Bereit?</p>","key_press":32,"trial_type":"html-keyboard-response","trial_index":51,"time_elapsed":155779,"internal_node_id":"0.0-8.0-0.11","subject":"l9x4jhexve4azyb","sona":"5917"},{"rt":null,"stimulus":"<div style=\"font-size:60px;\">+</div>","key_press":null,"trial_type":"html-keyboard-response","trial_index":52,"time_elapsed":157782,"internal_node_id":"0.0-8.0-1.11","subject":"l9x4jhexve4azyb","sona":"5917"},{"trial_type":"turing-test","trial_index":53,"time_elapsed":161246,"internal_node_id":"0.0-8.0-2.11","subject":"l9x4jhexve4azyb","sona":"5917"},{"rt":764,"stimulus":"<p>Welche Sequenz haben Sie als natürlicher empfunden?</p>","key_press":70,"test_part":"response","test_stimulus":{"position":0,"left":"bvh/pass-bottle-hold-training0-lines.txt","right":"bvh/vr_prediction_models/model(vcgpdm)-dataset(pass-bottle-hold)-mode(ELBO)-parts(1)-dyn(10)-lvm(5)-hold(0)/final-lines.txt","att_check":false},"trial_type":"html-keyboard-response","trial_index":54,"time_elapsed":162012,"internal_node_id":"0.0-8.0-3.11","subject":"l9x4jhexve4azyb","sona":"5917"},{"rt":629,"stimulus":"<p>Bereit?</p>","key_press":32,"trial_type":"html-keyboard-response","trial_index":55,"time_elapsed":162644,"internal_node_id":"0.0-8.0-0.12","subject":"l9x4jhexve4azyb","sona":"5917"},{"rt":null,"stimulus":"<div style=\"font-size:60px;\">+</div>","key_press":null,"trial_type":"html-keyboard-response","trial_index":56,"time_elapsed":164647,"internal_node_id":"0.0-8.0-1.12","subject":"l9x4jhexve4azyb","sona":"5917"},{"trial_type":"turing-test","trial_index":57,"time_elapsed":168212,"internal_node_id":"0.0-8.0-2.12","subject":"l9x4jhexve4azyb","sona":"5917"},{"rt":339,"stimulus":"<p>Welche Sequenz haben Sie als natürlicher empfunden?</p>","key_press":70,"test_part":"response","test_stimulus":{"position":0,"left":"bvh/return-bottle-hold-training2-lines.txt","right":"bvh/vr_prediction_models/model(vcgpdm)-dataset(return-bottle-hold)-mode(ELBO)-parts(3)-dyn(10)-lvm(30)-hold(2)/final-lines.txt","att_check":false},"trial_type":"html-keyboard-response","trial_index":58,"time_elapsed":168554,"internal_node_id":"0.0-8.0-3.12","subject":"l9x4jhexve4azyb","sona":"5917"},{"rt":574.0000000000291,"stimulus":"<p>Bereit?</p>","key_press":32,"trial_type":"html-keyboard-response","trial_index":59,"time_elapsed":169130,"internal_node_id":"0.0-8.0-0.13","subject":"l9x4jhexve4azyb","sona":"5917"},{"rt":null,"stimulus":"<div style=\"font-size:60px;\">+</div>","key_press":null,"trial_type":"html-keyboard-response","trial_index":60,"time_elapsed":171134,"internal_node_id":"0.0-8.0-1.13","subject":"l9x4jhexve4azyb","sona":"5917"},{"trial_type":"turing-test","trial_index":61,"time_elapsed":174408,"internal_node_id":"0.0-8.0-2.13","subject":"l9x4jhexve4azyb","sona":"5917"},{"rt":962,"stimulus":"<p>Welche Sequenz haben Sie als natürlicher empfunden?</p>","key_press":74,"test_part":"response","test_stimulus":{"position":1,"left":"bvh/vr_prediction_models/model(dmp)-dataset(pass-bottle-hold)-npsi(30)-hold(1)/final-lines.txt","right":"bvh/pass-bottle-hold-training1-lines.txt","att_check":true},"trial_type":"html-keyboard-response","trial_index":62,"time_elapsed":175372,"internal_node_id":"0.0-8.0-3.13","subject":"l9x4jhexve4azyb","sona":"5917"},{"rt":1101.999999999971,"stimulus":"<p>Bereit?</p>","key_press":32,"trial_type":"html-keyboard-response","trial_index":63,"time_elapsed":176476,"internal_node_id":"0.0-8.0-0.14","subject":"l9x4jhexve4azyb","sona":"5917"},{"rt":null,"stimulus":"<div style=\"font-size:60px;\">+</div>","key_press":null,"trial_type":"html-keyboard-response","trial_index":64,"time_elapsed":178479,"internal_node_id":"0.0-8.0-1.14","subject":"l9x4jhexve4azyb","sona":"5917"},{"trial_type":"turing-test","trial_index":65,"time_elapsed":181760,"internal_node_id":"0.0-8.0-2.14","subject":"l9x4jhexve4azyb","sona":"5917"},{"rt":756,"stimulus":"<p>Welche Sequenz haben Sie als natürlicher empfunden?</p>","key_press":70,"test_part":"response","test_stimulus":{"position":0,"left":"bvh/pass-bottle-hold-training2-lines.txt","right":"bvh/vr_prediction_models/model(tmp)-dataset(pass-bottle-hold)-numprim(13)-hold(2)/final-lines.txt","att_check":false},"trial_type":"html-keyboard-response","trial_index":66,"time_elapsed":182518,"internal_node_id":"0.0-8.0-3.14","subject":"l9x4jhexve4azyb","sona":"5917"},{"rt":708,"stimulus":"<p>Bereit?</p>","key_press":32,"trial_type":"html-keyboard-response","trial_index":67,"time_elapsed":183233,"internal_node_id":"0.0-8.0-0.15","subject":"l9x4jhexve4azyb","sona":"5917"},{"rt":null,"stimulus":"<div style=\"font-size:60px;\">+</div>","key_press":null,"trial_type":"html-keyboard-response","trial_index":68,"time_elapsed":185236,"internal_node_id":"0.0-8.0-1.15","subject":"l9x4jhexve4azyb","sona":"5917"},{"trial_type":"turing-test","trial_index":69,"time_elapsed":189063,"internal_node_id":"0.0-8.0-2.15","subject":"l9x4jhexve4azyb","sona":"5917"},{"rt":340,"stimulus":"<p>Welche Sequenz haben Sie als natürlicher empfunden?</p>","key_press":70,"test_part":"response","test_stimulus":{"position":0,"left":"bvh/pass-bottle-hold-training4-lines.txt","right":"bvh/vr_prediction_models/model(vcgpdm)-dataset(pass-bottle-hold)-mode(ELBO)-parts(3)-dyn(20)-lvm(20)-hold(4)/final-lines.txt","att_check":false},"trial_type":"html-keyboard-response","trial_index":70,"time_elapsed":189405,"internal_node_id":"0.0-8.0-3.15","subject":"l9x4jhexve4azyb","sona":"5917"},{"rt":441,"stimulus":"<p>Bereit?</p>","key_press":32,"trial_type":"html-keyboard-response","trial_index":71,"time_elapsed":189848,"internal_node_id":"0.0-8.0-0.16","subject":"l9x4jhexve4azyb","sona":"5917"},{"rt":null,"stimulus":"<div style=\"font-size:60px;\">+</div>","key_press":null,"trial_type":"html-keyboard-response","trial_index":72,"time_elapsed":191851,"internal_node_id":"0.0-8.0-1.16","subject":"l9x4jhexve4azyb","sona":"5917"},{"trial_type":"turing-test","trial_index":73,"time_elapsed":197426,"internal_node_id":"0.0-8.0-2.16","subject":"l9x4jhexve4azyb","sona":"5917"},{"rt":328,"stimulus":"<p>Welche Sequenz haben Sie als natürlicher empfunden?</p>","key_press":74,"test_part":"response","test_stimulus":{"position":1,"left":"bvh/vr_prediction_models/model(dmp)-dataset(pass-bottle)-npsi(60)-hold(1)/final-lines.txt","right":"bvh/pass-bottle-training1-lines.txt","att_check":false},"trial_type":"html-keyboard-response","trial_index":74,"time_elapsed":197760,"internal_node_id":"0.0-8.0-3.16","subject":"l9x4jhexve4azyb","sona":"5917"},{"rt":524,"stimulus":"<p>Bereit?</p>","key_press":32,"trial_type":"html-keyboard-response","trial_index":75,"time_elapsed":198286,"internal_node_id":"0.0-8.0-0.17","subject":"l9x4jhexve4azyb","sona":"5917"},{"rt":null,"stimulus":"<div style=\"font-size:60px;\">+</div>","key_press":null,"trial_type":"html-keyboard-response","trial_index":76,"time_elapsed":200289,"internal_node_id":"0.0-8.0-1.17","subject":"l9x4jhexve4azyb","sona":"5917"},{"trial_type":"turing-test","trial_index":77,"time_elapsed":206050,"internal_node_id":"0.0-8.0-2.17","subject":"l9x4jhexve4azyb","sona":"5917"},{"rt":397.9999999999709,"stimulus":"<p>Welche Sequenz haben Sie als natürlicher empfunden?</p>","key_press":74,"test_part":"response","test_stimulus":{"position":0,"left":"bvh/return-bottle-training3-lines.txt","right":"bvh/vr_prediction_models/model(dmp)-dataset(return-bottle)-npsi(20)-hold(3)/final-lines.txt","att_check":false},"trial_type":"html-keyboard-response","trial_index":78,"time_elapsed":206450,"internal_node_id":"0.0-8.0-3.17","subject":"l9x4jhexve4azyb","sona":"5917"},{"rt":883,"stimulus":"<p>Bereit?</p>","key_press":32,"trial_type":"html-keyboard-response","trial_index":79,"time_elapsed":207336,"internal_node_id":"0.0-8.0-0.18","subject":"l9x4jhexve4azyb","sona":"5917"},{"rt":null,"stimulus":"<div style=\"font-size:60px;\">+</div>","key_press":null,"trial_type":"html-keyboard-response","trial_index":80,"time_elapsed":209340,"internal_node_id":"0.0-8.0-1.18","subject":"l9x4jhexve4azyb","sona":"5917"},{"trial_type":"turing-test","trial_index":81,"time_elapsed":215421,"internal_node_id":"0.0-8.0-2.18","subject":"l9x4jhexve4azyb","sona":"5917"},{"rt":450.0000000000291,"stimulus":"<p>Welche Sequenz haben Sie als natürlicher empfunden?</p>","key_press":70,"test_part":"response","test_stimulus":{"position":0,"left":"bvh/pass-bottle-training2-lines.txt","right":"bvh/vr_prediction_models/model(dmp)-dataset(pass-bottle)-npsi(100)-hold(2)/final-lines.txt","att_check":false},"trial_type":"html-keyboard-response","trial_index":82,"time_elapsed":215874,"internal_node_id":"0.0-8.0-3.18","subject":"l9x4jhexve4azyb","sona":"5917"},{"rt":2107,"stimulus":"<p>Bereit?</p>","key_press":32,"trial_type":"html-keyboard-response","trial_index":83,"time_elapsed":217983,"internal_node_id":"0.0-8.0-0.19","subject":"l9x4jhexve4azyb","sona":"5917"},{"rt":null,"stimulus":"<div style=\"font-size:60px;\">+</div>","key_press":null,"trial_type":"html-keyboard-response","trial_index":84,"time_elapsed":219988,"internal_node_id":"0.0-8.0-1.19","subject":"l9x4jhexve4azyb","sona":"5917"},{"trial_type":"turing-test","trial_index":85,"time_elapsed":225796,"internal_node_id":"0.0-8.0-2.19","subject":"l9x4jhexve4azyb","sona":"5917"},{"rt":417,"stimulus":"<p>Welche Sequenz haben Sie als natürlicher empfunden?</p>","key_press":74,"test_part":"response","test_stimulus":{"position":0,"left":"bvh/pass-bottle-training4-lines.txt","right":"bvh/vr_prediction_models/model(vcgpdm)-dataset(pass-bottle)-mode(ELBO)-parts(1)-dyn(20)-lvm(20)-hold(4)/final-lines.txt","att_check":false},"trial_type":"html-keyboard-response","trial_index":86,"time_elapsed":226215,"internal_node_id":"0.0-8.0-3.19","subject":"l9x4jhexve4azyb","sona":"5917"},{"rt":648,"stimulus":"<p>Bereit?</p>","key_press":32,"trial_type":"html-keyboard-response","trial_index":87,"time_elapsed":226866,"internal_node_id":"0.0-8.0-0.20","subject":"l9x4jhexve4azyb","sona":"5917"},{"rt":null,"stimulus":"<div style=\"font-size:60px;\">+</div>","key_press":null,"trial_type":"html-keyboard-response","trial_index":88,"time_elapsed":228869,"internal_node_id":"0.0-8.0-1.20","subject":"l9x4jhexve4azyb","sona":"5917"},{"trial_type":"turing-test","trial_index":89,"time_elapsed":234832,"internal_node_id":"0.0-8.0-2.20","subject":"l9x4jhexve4azyb","sona":"5917"},{"rt":359,"stimulus":"<p>Welche Sequenz haben Sie als natürlicher empfunden?</p>","key_press":74,"test_part":"response","test_stimulus":{"position":1,"left":"bvh/vr_prediction_models/model(vcgpdm)-dataset(pass-bottle)-mode(ELBO)-parts(1)-dyn(35)-lvm(10)-hold(3)/final-lines.txt","right":"bvh/pass-bottle-training3-lines.txt","att_check":false},"trial_type":"html-keyboard-response","trial_index":90,"time_elapsed":235194,"internal_node_id":"0.0-8.0-3.20","subject":"l9x4jhexve4azyb","sona":"5917"},{"rt":422,"stimulus":"<p>Bereit?</p>","key_press":32,"trial_type":"html-keyboard-response","trial_index":91,"time_elapsed":235619,"internal_node_id":"0.0-8.0-0.21","subject":"l9x4jhexve4azyb","sona":"5917"},{"rt":null,"stimulus":"<div style=\"font-size:60px;\">+</div>","key_press":null,"trial_type":"html-keyboard-response","trial_index":92,"time_elapsed":237622,"internal_node_id":"0.0-8.0-1.21","subject":"l9x4jhexve4azyb","sona":"5917"},{"trial_type":"turing-test","trial_index":93,"time_elapsed":242750,"internal_node_id":"0.0-8.0-2.21","subject":"l9x4jhexve4azyb","sona":"5917"},{"rt":351,"stimulus":"<p>Welche Sequenz haben Sie als natürlicher empfunden?</p>","key_press":74,"test_part":"response","test_stimulus":{"position":1,"left":"bvh/vr_prediction_models/model(dmp)-dataset(return-bottle-hold)-npsi(70)-hold(0)/final-lines.txt","right":"bvh/return-bottle-hold-training0-lines.txt","att_check":false},"trial_type":"html-keyboard-response","trial_index":94,"time_elapsed":243103,"internal_node_id":"0.0-8.0-3.21","subject":"l9x4jhexve4azyb","sona":"5917"},{"rt":521,"stimulus":"<p>Bereit?</p>","key_press":32,"trial_type":"html-keyboard-response","trial_index":95,"time_elapsed":243627,"internal_node_id":"0.0-8.0-0.22","subject":"l9x4jhexve4azyb","sona":"5917"},{"rt":null,"stimulus":"<div style=\"font-size:60px;\">+</div>","key_press":null,"trial_type":"html-keyboard-response","trial_index":96,"time_elapsed":245630,"internal_node_id":"0.0-8.0-1.22","subject":"l9x4jhexve4azyb","sona":"5917"},{"trial_type":"turing-test","trial_index":97,"time_elapsed":251112,"internal_node_id":"0.0-8.0-2.22","subject":"l9x4jhexve4azyb","sona":"5917"},{"rt":274,"stimulus":"<p>Welche Sequenz haben Sie als natürlicher empfunden?</p>","key_press":70,"test_part":"response","test_stimulus":{"position":1,"left":"bvh/vr_prediction_models/model(vcgpdm)-dataset(pass-bottle)-mode(ELBO)-parts(3)-dyn(35)-lvm(20)-hold(1)/final-lines.txt","right":"bvh/pass-bottle-training1-lines.txt","att_check":false},"trial_type":"html-keyboard-response","trial_index":98,"time_elapsed":251389,"internal_node_id":"0.0-8.0-3.22","subject":"l9x4jhexve4azyb","sona":"5917"},{"rt":1593.999999999971,"stimulus":"<p>Bereit?</p>","key_press":32,"trial_type":"html-keyboard-response","trial_index":99,"time_elapsed":252985,"internal_node_id":"0.0-8.0-0.23","subject":"l9x4jhexve4azyb","sona":"5917"},{"rt":null,"stimulus":"<div style=\"font-size:60px;\">+</div>","key_press":null,"trial_type":"html-keyboard-response","trial_index":100,"time_elapsed":254989,"internal_node_id":"0.0-8.0-1.23","subject":"l9x4jhexve4azyb","sona":"5917"},{"trial_type":"turing-test","trial_index":101,"time_elapsed":260684,"internal_node_id":"0.0-8.0-2.23","subject":"l9x4jhexve4azyb","sona":"5917"},{"rt":361,"stimulus":"<p>Welche Sequenz haben Sie als natürlicher empfunden?</p>","key_press":74,"test_part":"response","test_stimulus":{"position":1,"left":"bvh/vr_prediction_models/model(dmp)-dataset(return-bottle)-npsi(60)-hold(3)/final-lines.txt","right":"bvh/return-bottle-training3-lines.txt","att_check":true},"trial_type":"html-keyboard-response","trial_index":102,"time_elapsed":261048,"internal_node_id":"0.0-8.0-3.23","subject":"l9x4jhexve4azyb","sona":"5917"},{"rt":380,"stimulus":"<p>Bereit?</p>","key_press":32,"trial_type":"html-keyboard-response","trial_index":103,"time_elapsed":261430,"internal_node_id":"0.0-8.0-0.24","subject":"l9x4jhexve4azyb","sona":"5917"},{"rt":null,"stimulus":"<div style=\"font-size:60px;\">+</div>","key_press":null,"trial_type":"html-keyboard-response","trial_index":104,"time_elapsed":263433,"internal_node_id":"0.0-8.0-1.24","subject":"l9x4jhexve4azyb","sona":"5917"},{"trial_type":"turing-test","trial_index":105,"time_elapsed":267233,"internal_node_id":"0.0-8.0-2.24","subject":"l9x4jhexve4azyb","sona":"5917"},{"rt":284,"stimulus":"<p>Welche Sequenz haben Sie als natürlicher empfunden?</p>","key_press":74,"test_part":"response","test_stimulus":{"position":1,"left":"bvh/vr_prediction_models/model(tmp)-dataset(return-bottle-hold)-numprim(14)-hold(4)/final-lines.txt","right":"bvh/return-bottle-hold-training4-lines.txt","att_check":false},"trial_type":"html-keyboard-response","trial_index":106,"time_elapsed":267519,"internal_node_id":"0.0-8.0-3.24","subject":"l9x4jhexve4azyb","sona":"5917"},{"rt":370,"stimulus":"<p>Bereit?</p>","key_press":32,"trial_type":"html-keyboard-response","trial_index":107,"time_elapsed":267891,"internal_node_id":"0.0-8.0-0.25","subject":"l9x4jhexve4azyb","sona":"5917"},{"rt":null,"stimulus":"<div style=\"font-size:60px;\">+</div>","key_press":null,"trial_type":"html-keyboard-response","trial_index":108,"time_elapsed":269894,"internal_node_id":"0.0-8.0-1.25","subject":"l9x4jhexve4azyb","sona":"5917"},{"trial_type":"turing-test","trial_index":109,"time_elapsed":275073,"internal_node_id":"0.0-8.0-2.25","subject":"l9x4jhexve4azyb","sona":"5917"},{"rt":605,"stimulus":"<p>Welche Sequenz haben Sie als natürlicher empfunden?</p>","key_press":70,"test_part":"response","test_stimulus":{"position":0,"left":"bvh/return-bottle-hold-training0-lines.txt","right":"bvh/vr_prediction_models/model(vcgpdm)-dataset(return-bottle-hold)-mode(ELBO)-parts(3)-dyn(10)-lvm(10)-hold(0)/final-lines.txt","att_check":false},"trial_type":"html-keyboard-response","trial_index":110,"time_elapsed":275680,"internal_node_id":"0.0-8.0-3.25","subject":"l9x4jhexve4azyb","sona":"5917"},{"rt":418,"stimulus":"<p>Bereit?</p>","key_press":32,"trial_type":"html-keyboard-response","trial_index":111,"time_elapsed":276100,"internal_node_id":"0.0-8.0-0.26","subject":"l9x4jhexve4azyb","sona":"5917"},{"rt":null,"stimulus":"<div style=\"font-size:60px;\">+</div>","key_press":null,"trial_type":"html-keyboard-response","trial_index":112,"time_elapsed":278106,"internal_node_id":"0.0-8.0-1.26","subject":"l9x4jhexve4azyb","sona":"5917"},{"trial_type":"turing-test","trial_index":113,"time_elapsed":281599,"internal_node_id":"0.0-8.0-2.26","subject":"l9x4jhexve4azyb","sona":"5917"},{"rt":528,"stimulus":"<p>Welche Sequenz haben Sie als natürlicher empfunden?</p>","key_press":74,"test_part":"response","test_stimulus":{"position":0,"left":"bvh/pass-bottle-hold-training2-lines.txt","right":"bvh/vr_prediction_models/model(vcgpdm)-dataset(pass-bottle-hold)-mode(ELBO)-parts(3)-dyn(20)-lvm(20)-hold(2)/final-lines.txt","att_check":false},"trial_type":"html-keyboard-response","trial_index":114,"time_elapsed":282129,"internal_node_id":"0.0-8.0-3.26","subject":"l9x4jhexve4azyb","sona":"5917"},{"rt":413,"stimulus":"<p>Bereit?</p>","key_press":32,"trial_type":"html-keyboard-response","trial_index":115,"time_elapsed":282545,"internal_node_id":"0.0-8.0-0.27","subject":"l9x4jhexve4azyb","sona":"5917"},{"rt":null,"stimulus":"<div style=\"font-size:60px;\">+</div>","key_press":null,"trial_type":"html-keyboard-response","trial_index":116,"time_elapsed":284547,"internal_node_id":"0.0-8.0-1.27","subject":"l9x4jhexve4azyb","sona":"5917"},{"trial_type":"turing-test","trial_index":117,"time_elapsed":290506,"internal_node_id":"0.0-8.0-2.27","subject":"l9x4jhexve4azyb","sona":"5917"},{"rt":320,"stimulus":"<p>Welche Sequenz haben Sie als natürlicher empfunden?</p>","key_press":74,"test_part":"response","test_stimulus":{"position":1,"left":"bvh/vr_prediction_models/model(vcgpdm)-dataset(pass-bottle)-mode(ELBO)-parts(3)-dyn(30)-lvm(15)-hold(3)/final-lines.txt","right":"bvh/pass-bottle-training3-lines.txt","att_check":false},"trial_type":"html-keyboard-response","trial_index":118,"time_elapsed":290830,"internal_node_id":"0.0-8.0-3.27","subject":"l9x4jhexve4azyb","sona":"5917"},{"rt":285,"stimulus":"<p>Bereit?</p>","key_press":32,"trial_type":"html-keyboard-response","trial_index":119,"time_elapsed":291116,"internal_node_id":"0.0-8.0-0.28","subject":"l9x4jhexve4azyb","sona":"5917"},{"rt":null,"stimulus":"<div style=\"font-size:60px;\">+</div>","key_press":null,"trial_type":"html-keyboard-response","trial_index":120,"time_elapsed":293119,"internal_node_id":"0.0-8.0-1.28","subject":"l9x4jhexve4azyb","sona":"5917"},{"trial_type":"turing-test","trial_index":121,"time_elapsed":298527,"internal_node_id":"0.0-8.0-2.28","subject":"l9x4jhexve4azyb","sona":"5917"},{"rt":567.9999999999418,"stimulus":"<p>Welche Sequenz haben Sie als natürlicher empfunden?</p>","key_press":74,"test_part":"response","test_stimulus":{"position":1,"left":"bvh/vr_prediction_models/model(tmp)-dataset(pass-bottle)-numprim(9)-hold(1)/final-lines.txt","right":"bvh/pass-bottle-training1-lines.txt","att_check":false},"trial_type":"html-keyboard-response","trial_index":122,"time_elapsed":299097,"internal_node_id":"0.0-8.0-3.28","subject":"l9x4jhexve4azyb","sona":"5917"},{"rt":345,"stimulus":"<p>Bereit?</p>","key_press":32,"trial_type":"html-keyboard-response","trial_index":123,"time_elapsed":299445,"internal_node_id":"0.0-8.0-0.29","subject":"l9x4jhexve4azyb","sona":"5917"},{"rt":null,"stimulus":"<div style=\"font-size:60px;\">+</div>","key_press":null,"trial_type":"html-keyboard-response","trial_index":124,"time_elapsed":301448,"internal_node_id":"0.0-8.0-1.29","subject":"l9x4jhexve4azyb","sona":"5917"},{"trial_type":"turing-test","trial_index":125,"time_elapsed":307326,"internal_node_id":"0.0-8.0-2.29","subject":"l9x4jhexve4azyb","sona":"5917"},{"rt":300,"stimulus":"<p>Welche Sequenz haben Sie als natürlicher empfunden?</p>","key_press":70,"test_part":"response","test_stimulus":{"position":0,"left":"bvh/return-bottle-training3-lines.txt","right":"bvh/vr_prediction_models/model(vcgpdm)-dataset(return-bottle)-mode(ELBO)-parts(1)-dyn(35)-lvm(30)-hold(3)/final-lines.txt","att_check":false},"trial_type":"html-keyboard-response","trial_index":126,"time_elapsed":307629,"internal_node_id":"0.0-8.0-3.29","subject":"l9x4jhexve4azyb","sona":"5917"},{"rt":350.0000000000582,"stimulus":"<p>Bereit?</p>","key_press":32,"trial_type":"html-keyboard-response","trial_index":127,"time_elapsed":307981,"internal_node_id":"0.0-8.0-0.30","subject":"l9x4jhexve4azyb","sona":"5917"},{"rt":null,"stimulus":"<div style=\"font-size:60px;\">+</div>","key_press":null,"trial_type":"html-keyboard-response","trial_index":128,"time_elapsed":309984,"internal_node_id":"0.0-8.0-1.30","subject":"l9x4jhexve4azyb","sona":"5917"},{"trial_type":"turing-test","trial_index":129,"time_elapsed":315138,"internal_node_id":"0.0-8.0-2.30","subject":"l9x4jhexve4azyb","sona":"5917"},{"rt":424,"stimulus":"<p>Welche Sequenz haben Sie als natürlicher empfunden?</p>","key_press":70,"test_part":"response","test_stimulus":{"position":1,"left":"bvh/vr_prediction_models/model(tmp)-dataset(return-bottle-hold)-numprim(13)-hold(0)/final-lines.txt","right":"bvh/return-bottle-hold-training0-lines.txt","att_check":false},"trial_type":"html-keyboard-response","trial_index":130,"time_elapsed":315565,"internal_node_id":"0.0-8.0-3.30","subject":"l9x4jhexve4azyb","sona":"5917"},{"rt":362,"stimulus":"<p>Bereit?</p>","key_press":32,"trial_type":"html-keyboard-response","trial_index":131,"time_elapsed":315929,"internal_node_id":"0.0-8.0-0.31","subject":"l9x4jhexve4azyb","sona":"5917"},{"rt":null,"stimulus":"<div style=\"font-size:60px;\">+</div>","key_press":null,"trial_type":"html-keyboard-response","trial_index":132,"time_elapsed":317932,"internal_node_id":"0.0-8.0-1.31","subject":"l9x4jhexve4azyb","sona":"5917"},{"trial_type":"turing-test","trial_index":133,"time_elapsed":321516,"internal_node_id":"0.0-8.0-2.31","subject":"l9x4jhexve4azyb","sona":"5917"},{"rt":294,"stimulus":"<p>Welche Sequenz haben Sie als natürlicher empfunden?</p>","key_press":74,"test_part":"response","test_stimulus":{"position":1,"left":"bvh/vr_prediction_models/model(dmp)-dataset(return-bottle-hold)-npsi(90)-hold(2)/final-lines.txt","right":"bvh/return-bottle-hold-training2-lines.txt","att_check":false},"trial_type":"html-keyboard-response","trial_index":134,"time_elapsed":321813,"internal_node_id":"0.0-8.0-3.31","subject":"l9x4jhexve4azyb","sona":"5917"},{"rt":465.9999999999418,"stimulus":"<p>Bereit?</p>","key_press":32,"trial_type":"html-keyboard-response","trial_index":135,"time_elapsed":322281,"internal_node_id":"0.0-8.0-0.32","subject":"l9x4jhexve4azyb","sona":"5917"},{"rt":null,"stimulus":"<div style=\"font-size:60px;\">+</div>","key_press":null,"trial_type":"html-keyboard-response","trial_index":136,"time_elapsed":324284,"internal_node_id":"0.0-8.0-1.32","subject":"l9x4jhexve4azyb","sona":"5917"},{"trial_type":"turing-test","trial_index":137,"time_elapsed":327940,"internal_node_id":"0.0-8.0-2.32","subject":"l9x4jhexve4azyb","sona":"5917"},{"rt":319,"stimulus":"<p>Welche Sequenz haben Sie als natürlicher empfunden?</p>","key_press":70,"test_part":"response","test_stimulus":{"position":0,"left":"bvh/return-bottle-hold-training3-lines.txt","right":"bvh/vr_prediction_models/model(dmp)-dataset(return-bottle-hold)-npsi(60)-hold(3)/final-lines.txt","att_check":true},"trial_type":"html-keyboard-response","trial_index":138,"time_elapsed":328261,"internal_node_id":"0.0-8.0-3.32","subject":"l9x4jhexve4azyb","sona":"5917"},{"rt":423,"stimulus":"<p>Bereit?</p>","key_press":32,"trial_type":"html-keyboard-response","trial_index":139,"time_elapsed":328686,"internal_node_id":"0.0-8.0-0.33","subject":"l9x4jhexve4azyb","sona":"5917"},{"rt":null,"stimulus":"<div style=\"font-size:60px;\">+</div>","key_press":null,"trial_type":"html-keyboard-response","trial_index":140,"time_elapsed":330689,"internal_node_id":"0.0-8.0-1.33","subject":"l9x4jhexve4azyb","sona":"5917"},{"trial_type":"turing-test","trial_index":141,"time_elapsed":336543,"internal_node_id":"0.0-8.0-2.33","subject":"l9x4jhexve4azyb","sona":"5917"},{"rt":262,"stimulus":"<p>Welche Sequenz haben Sie als natürlicher empfunden?</p>","key_press":74,"test_part":"response","test_stimulus":{"position":1,"left":"bvh/vr_prediction_models/model(vcgpdm)-dataset(pass-bottle)-mode(ELBO)-parts(1)-dyn(30)-lvm(35)-hold(3)/final-lines.txt","right":"bvh/pass-bottle-training3-lines.txt","att_check":false},"trial_type":"html-keyboard-response","trial_index":142,"time_elapsed":336808,"internal_node_id":"0.0-8.0-3.33","subject":"l9x4jhexve4azyb","sona":"5917"},{"rt":287,"stimulus":"<p>Bereit?</p>","key_press":32,"trial_type":"html-keyboard-response","trial_index":143,"time_elapsed":337098,"internal_node_id":"0.0-8.0-0.34","subject":"l9x4jhexve4azyb","sona":"5917"},{"rt":null,"stimulus":"<div style=\"font-size:60px;\">+</div>","key_press":null,"trial_type":"html-keyboard-response","trial_index":144,"time_elapsed":339101,"internal_node_id":"0.0-8.0-1.34","subject":"l9x4jhexve4azyb","sona":"5917"},{"trial_type":"turing-test","trial_index":145,"time_elapsed":342689,"internal_node_id":"0.0-8.0-2.34","subject":"l9x4jhexve4azyb","sona":"5917"},{"rt":487,"stimulus":"<p>Welche Sequenz haben Sie als natürlicher empfunden?</p>","key_press":70,"test_part":"response","test_stimulus":{"position":0,"left":"bvh/pass-bottle-hold-training3-lines.txt","right":"bvh/vr_prediction_models/model(tmp)-dataset(pass-bottle-hold)-numprim(15)-hold(3)/final-lines.txt","att_check":false},"trial_type":"html-keyboard-response","trial_index":146,"time_elapsed":343179,"internal_node_id":"0.0-8.0-3.34","subject":"l9x4jhexve4azyb","sona":"5917"},{"rt":341,"stimulus":"<p>Bereit?</p>","key_press":32,"trial_type":"html-keyboard-response","trial_index":147,"time_elapsed":343522,"internal_node_id":"0.0-8.0-0.35","subject":"l9x4jhexve4azyb","sona":"5917"},{"rt":null,"stimulus":"<div style=\"font-size:60px;\">+</div>","key_press":null,"trial_type":"html-keyboard-response","trial_index":148,"time_elapsed":345525,"internal_node_id":"0.0-8.0-1.35","subject":"l9x4jhexve4azyb","sona":"5917"},{"trial_type":"turing-test","trial_index":149,"time_elapsed":351382,"internal_node_id":"0.0-8.0-2.35","subject":"l9x4jhexve4azyb","sona":"5917"},{"rt":345,"stimulus":"<p>Welche Sequenz haben Sie als natürlicher empfunden?</p>","key_press":70,"test_part":"response","test_stimulus":{"position":0,"left":"bvh/return-bottle-training3-lines.txt","right":"bvh/vr_prediction_models/model(vcgpdm)-dataset(return-bottle)-mode(ELBO)-parts(3)-dyn(25)-lvm(25)-hold(3)/final-lines.txt","att_check":false},"trial_type":"html-keyboard-response","trial_index":150,"time_elapsed":351730,"internal_node_id":"0.0-8.0-3.35","subject":"l9x4jhexve4azyb","sona":"5917"},{"rt":307,"stimulus":"<p>Bereit?</p>","key_press":32,"trial_type":"html-keyboard-response","trial_index":151,"time_elapsed":352039,"internal_node_id":"0.0-8.0-0.36","subject":"l9x4jhexve4azyb","sona":"5917"},{"rt":null,"stimulus":"<div style=\"font-size:60px;\">+</div>","key_press":null,"trial_type":"html-keyboard-response","trial_index":152,"time_elapsed":354042,"internal_node_id":"0.0-8.0-1.36","subject":"l9x4jhexve4azyb","sona":"5917"},{"trial_type":"turing-test","trial_index":153,"time_elapsed":357335,"internal_node_id":"0.0-8.0-2.36","subject":"l9x4jhexve4azyb","sona":"5917"},{"rt":411,"stimulus":"<p>Welche Sequenz haben Sie als natürlicher empfunden?</p>","key_press":70,"test_part":"response","test_stimulus":{"position":0,"left":"bvh/pass-bottle-hold-training1-lines.txt","right":"bvh/vr_prediction_models/model(vcgpdm)-dataset(pass-bottle-hold)-mode(ELBO)-parts(3)-dyn(35)-lvm(20)-hold(1)/final-lines.txt","att_check":false},"trial_type":"html-keyboard-response","trial_index":154,"time_elapsed":357748,"internal_node_id":"0.0-8.0-3.36","subject":"l9x4jhexve4azyb","sona":"5917"},{"rt":413,"stimulus":"<p>Bereit?</p>","key_press":32,"trial_type":"html-keyboard-response","trial_index":155,"time_elapsed":358163,"internal_node_id":"0.0-8.0-0.37","subject":"l9x4jhexve4azyb","sona":"5917"},{"rt":null,"stimulus":"<div style=\"font-size:60px;\">+</div>","key_press":null,"trial_type":"html-keyboard-response","trial_index":156,"time_elapsed":360166,"internal_node_id":"0.0-8.0-1.37","subject":"l9x4jhexve4azyb","sona":"5917"},{"trial_type":"turing-test","trial_index":157,"time_elapsed":363836,"internal_node_id":"0.0-8.0-2.37","subject":"l9x4jhexve4azyb","sona":"5917"},{"rt":716.9999999999418,"stimulus":"<p>Welche Sequenz haben Sie als natürlicher empfunden?</p>","key_press":74,"test_part":"response","test_stimulus":{"position":1,"left":"bvh/vr_prediction_models/model(dmp)-dataset(return-bottle-hold)-npsi(70)-hold(4)/final-lines.txt","right":"bvh/return-bottle-hold-training4-lines.txt","att_check":false},"trial_type":"html-keyboard-response","trial_index":158,"time_elapsed":364555,"internal_node_id":"0.0-8.0-3.37","subject":"l9x4jhexve4azyb","sona":"5917"},{"rt":226,"stimulus":"<p>Bereit?</p>","key_press":32,"trial_type":"html-keyboard-response","trial_index":159,"time_elapsed":364784,"internal_node_id":"0.0-8.0-0.38","subject":"l9x4jhexve4azyb","sona":"5917"},{"rt":null,"stimulus":"<div style=\"font-size:60px;\">+</div>","key_press":null,"trial_type":"html-keyboard-response","trial_index":160,"time_elapsed":366787,"internal_node_id":"0.0-8.0-1.38","subject":"l9x4jhexve4azyb","sona":"5917"},{"trial_type":"turing-test","trial_index":161,"time_elapsed":372600,"internal_node_id":"0.0-8.0-2.38","subject":"l9x4jhexve4azyb","sona":"5917"},{"rt":358,"stimulus":"<p>Welche Sequenz haben Sie als natürlicher empfunden?</p>","key_press":74,"test_part":"response","test_stimulus":{"position":0,"left":"bvh/return-bottle-training4-lines.txt","right":"bvh/vr_prediction_models/model(vcgpdm)-dataset(return-bottle)-mode(MAP)-parts(1)-hold(4)/final-lines.txt","att_check":false},"trial_type":"html-keyboard-response","trial_index":162,"time_elapsed":372961,"internal_node_id":"0.0-8.0-3.38","subject":"l9x4jhexve4azyb","sona":"5917"},{"rt":329,"stimulus":"<p>Bereit?</p>","key_press":32,"trial_type":"html-keyboard-response","trial_index":163,"time_elapsed":373292,"internal_node_id":"0.0-8.0-0.39","subject":"l9x4jhexve4azyb","sona":"5917"},{"rt":null,"stimulus":"<div style=\"font-size:60px;\">+</div>","key_press":null,"trial_type":"html-keyboard-response","trial_index":164,"time_elapsed":375294,"internal_node_id":"0.0-8.0-1.39","subject":"l9x4jhexve4azyb","sona":"5917"},{"trial_type":"turing-test","trial_index":165,"time_elapsed":378769,"internal_node_id":"0.0-8.0-2.39","subject":"l9x4jhexve4azyb","sona":"5917"},{"rt":861,"stimulus":"<p>Welche Sequenz haben Sie als natürlicher empfunden?</p>","key_press":74,"test_part":"response","test_stimulus":{"position":1,"left":"bvh/vr_prediction_models/model(tmp)-dataset(return-bottle-hold)-numprim(11)-hold(1)/final-lines.txt","right":"bvh/return-bottle-hold-training1-lines.txt","att_check":false},"trial_type":"html-keyboard-response","trial_index":166,"time_elapsed":379631,"internal_node_id":"0.0-8.0-3.39","subject":"l9x4jhexve4azyb","sona":"5917"},{"rt":475,"stimulus":"<p>Bereit?</p>","key_press":32,"trial_type":"html-keyboard-response","trial_index":167,"time_elapsed":380109,"internal_node_id":"0.0-8.0-0.40","subject":"l9x4jhexve4azyb","sona":"5917"},{"rt":null,"stimulus":"<div style=\"font-size:60px;\">+</div>","key_press":null,"trial_type":"html-keyboard-response","trial_index":168,"time_elapsed":382112,"internal_node_id":"0.0-8.0-1.40","subject":"l9x4jhexve4azyb","sona":"5917"},{"trial_type":"turing-test","trial_index":169,"time_elapsed":385400,"internal_node_id":"0.0-8.0-2.40","subject":"l9x4jhexve4azyb","sona":"5917"},{"rt":617,"stimulus":"<p>Welche Sequenz haben Sie als natürlicher empfunden?</p>","key_press":70,"test_part":"response","test_stimulus":{"position":0,"left":"bvh/pass-bottle-hold-training0-lines.txt","right":"bvh/vr_prediction_models/model(tmp)-dataset(pass-bottle-hold)-numprim(4)-hold(0)/final-lines.txt","att_check":false},"trial_type":"html-keyboard-response","trial_index":170,"time_elapsed":386023,"internal_node_id":"0.0-8.0-3.40","subject":"l9x4jhexve4azyb","sona":"5917"},{"rt":345,"stimulus":"<p>Bereit?</p>","key_press":32,"trial_type":"html-keyboard-response","trial_index":171,"time_elapsed":386370,"internal_node_id":"0.0-8.0-0.41","subject":"l9x4jhexve4azyb","sona":"5917"},{"rt":null,"stimulus":"<div style=\"font-size:60px;\">+</div>","key_press":null,"trial_type":"html-keyboard-response","trial_index":172,"time_elapsed":388373,"internal_node_id":"0.0-8.0-1.41","subject":"l9x4jhexve4azyb","sona":"5917"},{"trial_type":"turing-test","trial_index":173,"time_elapsed":393319,"internal_node_id":"0.0-8.0-2.41","subject":"l9x4jhexve4azyb","sona":"5917"},{"rt":465,"stimulus":"<p>Welche Sequenz haben Sie als natürlicher empfunden?</p>","key_press":74,"test_part":"response","test_stimulus":{"position":0,"left":"bvh/return-bottle-hold-training0-lines.txt","right":"bvh/vr_prediction_models/model(tmp)-dataset(return-bottle-hold)-numprim(13)-hold(0)/final-lines.txt","att_check":false},"trial_type":"html-keyboard-response","trial_index":174,"time_elapsed":393786,"internal_node_id":"0.0-8.0-3.41","subject":"l9x4jhexve4azyb","sona":"5917"},{"rt":340,"stimulus":"<p>Bereit?</p>","key_press":32,"trial_type":"html-keyboard-response","trial_index":175,"time_elapsed":394128,"internal_node_id":"0.0-8.0-0.42","subject":"l9x4jhexve4azyb","sona":"5917"},{"rt":null,"stimulus":"<div style=\"font-size:60px;\">+</div>","key_press":null,"trial_type":"html-keyboard-response","trial_index":176,"time_elapsed":396131,"internal_node_id":"0.0-8.0-1.42","subject":"l9x4jhexve4azyb","sona":"5917"},{"trial_type":"turing-test","trial_index":177,"time_elapsed":401703,"internal_node_id":"0.0-8.0-2.42","subject":"l9x4jhexve4azyb","sona":"5917"},{"rt":267,"stimulus":"<p>Welche Sequenz haben Sie als natürlicher empfunden?</p>","key_press":74,"test_part":"response","test_stimulus":{"position":1,"left":"bvh/vr_prediction_models/model(vcgpdm)-dataset(pass-bottle)-mode(MAP)-parts(1)-hold(1)/final-lines.txt","right":"bvh/pass-bottle-training1-lines.txt","att_check":false},"trial_type":"html-keyboard-response","trial_index":178,"time_elapsed":401973,"internal_node_id":"0.0-8.0-3.42","subject":"l9x4jhexve4azyb","sona":"5917"},{"rt":262,"stimulus":"<p>Bereit?</p>","key_press":32,"trial_type":"html-keyboard-response","trial_index":179,"time_elapsed":402237,"internal_node_id":"0.0-8.0-0.43","subject":"l9x4jhexve4azyb","sona":"5917"},{"rt":null,"stimulus":"<div style=\"font-size:60px;\">+</div>","key_press":null,"trial_type":"html-keyboard-response","trial_index":180,"time_elapsed":404239,"internal_node_id":"0.0-8.0-1.43","subject":"l9x4jhexve4azyb","sona":"5917"},{"trial_type":"turing-test","trial_index":181,"time_elapsed":410086,"internal_node_id":"0.0-8.0-2.43","subject":"l9x4jhexve4azyb","sona":"5917"},{"rt":396.9999999999418,"stimulus":"<p>Welche Sequenz haben Sie als natürlicher empfunden?</p>","key_press":70,"test_part":"response","test_stimulus":{"position":0,"left":"bvh/pass-bottle-training3-lines.txt","right":"bvh/vr_prediction_models/model(vcgpdm)-dataset(pass-bottle)-mode(ELBO)-parts(1)-dyn(10)-lvm(5)-hold(3)/final-lines.txt","att_check":false},"trial_type":"html-keyboard-response","trial_index":182,"time_elapsed":410485,"internal_node_id":"0.0-8.0-3.43","subject":"l9x4jhexve4azyb","sona":"5917"},{"rt":312,"stimulus":"<p>Bereit?</p>","key_press":32,"trial_type":"html-keyboard-response","trial_index":183,"time_elapsed":410800,"internal_node_id":"0.0-8.0-0.44","subject":"l9x4jhexve4azyb","sona":"5917"},{"rt":null,"stimulus":"<div style=\"font-size:60px;\">+</div>","key_press":null,"trial_type":"html-keyboard-response","trial_index":184,"time_elapsed":412803,"internal_node_id":"0.0-8.0-1.44","subject":"l9x4jhexve4azyb","sona":"5917"},{"trial_type":"turing-test","trial_index":185,"time_elapsed":416614,"internal_node_id":"0.0-8.0-2.44","subject":"l9x4jhexve4azyb","sona":"5917"},{"rt":713,"stimulus":"<p>Welche Sequenz haben Sie als natürlicher empfunden?</p>","key_press":74,"test_part":"response","test_stimulus":{"position":0,"left":"bvh/return-bottle-hold-training4-lines.txt","right":"bvh/vr_prediction_models/model(tmp)-dataset(return-bottle-hold)-numprim(4)-hold(4)/final-lines.txt","att_check":false},"trial_type":"html-keyboard-response","trial_index":186,"time_elapsed":417329,"internal_node_id":"0.0-8.0-3.44","subject":"l9x4jhexve4azyb","sona":"5917"},{"rt":548.9999999999418,"stimulus":"<p>Bereit?</p>","key_press":32,"trial_type":"html-keyboard-response","trial_index":187,"time_elapsed":417880,"internal_node_id":"0.0-8.0-0.45","subject":"l9x4jhexve4azyb","sona":"5917"},{"rt":null,"stimulus":"<div style=\"font-size:60px;\">+</div>","key_press":null,"trial_type":"html-keyboard-response","trial_index":188,"time_elapsed":419882,"internal_node_id":"0.0-8.0-1.45","subject":"l9x4jhexve4azyb","sona":"5917"},{"trial_type":"turing-test","trial_index":189,"time_elapsed":425240,"internal_node_id":"0.0-8.0-2.45","subject":"l9x4jhexve4azyb","sona":"5917"},{"rt":613,"stimulus":"<p>Welche Sequenz haben Sie als natürlicher empfunden?</p>","key_press":70,"test_part":"response","test_stimulus":{"position":1,"left":"bvh/vr_prediction_models/model(dmp)-dataset(return-bottle)-npsi(90)-hold(0)/final-lines.txt","right":"bvh/return-bottle-training0-lines.txt","att_check":false},"trial_type":"html-keyboard-response","trial_index":190,"time_elapsed":425857,"internal_node_id":"0.0-8.0-3.45","subject":"l9x4jhexve4azyb","sona":"5917"},{"rt":367,"stimulus":"<p>Bereit?</p>","key_press":32,"trial_type":"html-keyboard-response","trial_index":191,"time_elapsed":426227,"internal_node_id":"0.0-8.0-0.46","subject":"l9x4jhexve4azyb","sona":"5917"},{"rt":null,"stimulus":"<div style=\"font-size:60px;\">+</div>","key_press":null,"trial_type":"html-keyboard-response","trial_index":192,"time_elapsed":428230,"internal_node_id":"0.0-8.0-1.46","subject":"l9x4jhexve4azyb","sona":"5917"},{"trial_type":"turing-test","trial_index":193,"time_elapsed":434041,"internal_node_id":"0.0-8.0-2.46","subject":"l9x4jhexve4azyb","sona":"5917"},{"rt":280,"stimulus":"<p>Welche Sequenz haben Sie als natürlicher empfunden?</p>","key_press":74,"test_part":"response","test_stimulus":{"position":1,"left":"bvh/vr_prediction_models/model(dmp)-dataset(pass-bottle)-npsi(60)-hold(4)/final-lines.txt","right":"bvh/pass-bottle-training4-lines.txt","att_check":false},"trial_type":"html-keyboard-response","trial_index":194,"time_elapsed":434323,"internal_node_id":"0.0-8.0-3.46","subject":"l9x4jhexve4azyb","sona":"5917"},{"rt":300,"stimulus":"<p>Bereit?</p>","key_press":32,"trial_type":"html-keyboard-response","trial_index":195,"time_elapsed":434625,"internal_node_id":"0.0-8.0-0.47","subject":"l9x4jhexve4azyb","sona":"5917"},{"rt":null,"stimulus":"<div style=\"font-size:60px;\">+</div>","key_press":null,"trial_type":"html-keyboard-response","trial_index":196,"time_elapsed":436628,"internal_node_id":"0.0-8.0-1.47","subject":"l9x4jhexve4azyb","sona":"5917"},{"trial_type":"turing-test","trial_index":197,"time_elapsed":442482,"internal_node_id":"0.0-8.0-2.47","subject":"l9x4jhexve4azyb","sona":"5917"},{"rt":314,"stimulus":"<p>Welche Sequenz haben Sie als natürlicher empfunden?</p>","key_press":74,"test_part":"response","test_stimulus":{"position":1,"left":"bvh/vr_prediction_models/model(vcgpdm)-dataset(pass-bottle)-mode(ELBO)-parts(1)-dyn(30)-lvm(20)-hold(4)/final-lines.txt","right":"bvh/pass-bottle-training4-lines.txt","att_check":false},"trial_type":"html-keyboard-response","trial_index":198,"time_elapsed":442798,"internal_node_id":"0.0-8.0-3.47","subject":"l9x4jhexve4azyb","sona":"5917"},{"rt":275,"stimulus":"<p>Bereit?</p>","key_press":32,"trial_type":"html-keyboard-response","trial_index":199,"time_elapsed":443075,"internal_node_id":"0.0-8.0-0.48","subject":"l9x4jhexve4azyb","sona":"5917"},{"rt":null,"stimulus":"<div style=\"font-size:60px;\">+</div>","key_press":null,"trial_type":"html-keyboard-response","trial_index":200,"time_elapsed":445077,"internal_node_id":"0.0-8.0-1.48","subject":"l9x4jhexve4azyb","sona":"5917"},{"trial_type":"turing-test","trial_index":201,"time_elapsed":450886,"internal_node_id":"0.0-8.0-2.48","subject":"l9x4jhexve4azyb","sona":"5917"},{"rt":398,"stimulus":"<p>Welche Sequenz haben Sie als natürlicher empfunden?</p>","key_press":74,"test_part":"response","test_stimulus":{"position":1,"left":"bvh/vr_prediction_models/model(vcgpdm)-dataset(pass-bottle)-mode(ELBO)-parts(1)-dyn(10)-lvm(30)-hold(4)/final-lines.txt","right":"bvh/pass-bottle-training4-lines.txt","att_check":false},"trial_type":"html-keyboard-response","trial_index":202,"time_elapsed":451287,"internal_node_id":"0.0-8.0-3.48","subject":"l9x4jhexve4azyb","sona":"5917"},{"rt":480,"stimulus":"<p>Bereit?</p>","key_press":32,"trial_type":"html-keyboard-response","trial_index":203,"time_elapsed":451769,"internal_node_id":"0.0-8.0-0.49","subject":"l9x4jhexve4azyb","sona":"5917"},{"rt":null,"stimulus":"<div style=\"font-size:60px;\">+</div>","key_press":null,"trial_type":"html-keyboard-response","trial_index":204,"time_elapsed":453772,"internal_node_id":"0.0-8.0-1.49","subject":"l9x4jhexve4azyb","sona":"5917"},{"trial_type":"turing-test","trial_index":205,"time_elapsed":459056,"internal_node_id":"0.0-8.0-2.49","subject":"l9x4jhexve4azyb","sona":"5917"},{"rt":451,"stimulus":"<p>Welche Sequenz haben Sie als natürlicher empfunden?</p>","key_press":70,"test_part":"response","test_stimulus":{"position":0,"left":"bvh/pass-bottle-training1-lines.txt","right":"bvh/vr_prediction_models/model(tmp)-dataset(pass-bottle)-numprim(9)-hold(1)/final-lines.txt","att_check":false},"trial_type":"html-keyboard-response","trial_index":206,"time_elapsed":459509,"internal_node_id":"0.0-8.0-3.49","subject":"l9x4jhexve4azyb","sona":"5917"},{"rt":411,"stimulus":"<p>Bereit?</p>","key_press":32,"trial_type":"html-keyboard-response","trial_index":207,"time_elapsed":459923,"internal_node_id":"0.0-8.0-0.50","subject":"l9x4jhexve4azyb","sona":"5917"},{"rt":null,"stimulus":"<div style=\"font-size:60px;\">+</div>","key_press":null,"trial_type":"html-keyboard-response","trial_index":208,"time_elapsed":461925,"internal_node_id":"0.0-8.0-1.50","subject":"l9x4jhexve4azyb","sona":"5917"},{"trial_type":"turing-test","trial_index":209,"time_elapsed":467733,"internal_node_id":"0.0-8.0-2.50","subject":"l9x4jhexve4azyb","sona":"5917"},{"rt":764,"stimulus":"<p>Welche Sequenz haben Sie als natürlicher empfunden?</p>","key_press":70,"test_part":"response","test_stimulus":{"position":1,"left":"bvh/vr_prediction_models/model(vcgpdm)-dataset(return-bottle)-mode(ELBO)-parts(1)-dyn(10)-lvm(5)-hold(3)/final-lines.txt","right":"bvh/return-bottle-training3-lines.txt","att_check":false},"trial_type":"html-keyboard-response","trial_index":210,"time_elapsed":468500,"internal_node_id":"0.0-8.0-3.50","subject":"l9x4jhexve4azyb","sona":"5917"},{"rt":337,"stimulus":"<p>Bereit?</p>","key_press":32,"trial_type":"html-keyboard-response","trial_index":211,"time_elapsed":468840,"internal_node_id":"0.0-8.0-0.51","subject":"l9x4jhexve4azyb","sona":"5917"},{"rt":null,"stimulus":"<div style=\"font-size:60px;\">+</div>","key_press":null,"trial_type":"html-keyboard-response","trial_index":212,"time_elapsed":470843,"internal_node_id":"0.0-8.0-1.51","subject":"l9x4jhexve4azyb","sona":"5917"},{"trial_type":"turing-test","trial_index":213,"time_elapsed":485494,"internal_node_id":"0.0-8.0-2.51","subject":"l9x4jhexve4azyb","sona":"5917"},{"rt":1182,"stimulus":"<p>Welche Sequenz haben Sie als natürlicher empfunden?</p>","key_press":74,"test_part":"response","test_stimulus":{"position":0,"left":"bvh/pass-bottle-training0-lines.txt","right":"bvh/vr_prediction_models/model(dmp)-dataset(pass-bottle)-npsi(30)-hold(0)/final-lines.txt","att_check":false},"trial_type":"html-keyboard-response","trial_index":214,"time_elapsed":486678,"internal_node_id":"0.0-8.0-3.51","subject":"l9x4jhexve4azyb","sona":"5917"},{"rt":1117,"stimulus":"<p>Bereit?</p>","key_press":32,"trial_type":"html-keyboard-response","trial_index":215,"time_elapsed":487797,"internal_node_id":"0.0-8.0-0.52","subject":"l9x4jhexve4azyb","sona":"5917"},{"rt":null,"stimulus":"<div style=\"font-size:60px;\">+</div>","key_press":null,"trial_type":"html-keyboard-response","trial_index":216,"time_elapsed":489805,"internal_node_id":"0.0-8.0-1.52","subject":"l9x4jhexve4azyb","sona":"5917"},{"trial_type":"turing-test","trial_index":217,"time_elapsed":493433,"internal_node_id":"0.0-8.0-2.52","subject":"l9x4jhexve4azyb","sona":"5917"},{"rt":420,"stimulus":"<p>Welche Sequenz haben Sie als natürlicher empfunden?</p>","key_press":70,"test_part":"response","test_stimulus":{"position":0,"left":"bvh/pass-bottle-hold-training3-lines.txt","right":"bvh/vr_prediction_models/model(tmp)-dataset(pass-bottle-hold)-numprim(7)-hold(3)/final-lines.txt","att_check":false},"trial_type":"html-keyboard-response","trial_index":218,"time_elapsed":493856,"internal_node_id":"0.0-8.0-3.52","subject":"l9x4jhexve4azyb","sona":"5917"},{"rt":353.9999999999418,"stimulus":"<p>Bereit?</p>","key_press":32,"trial_type":"html-keyboard-response","trial_index":219,"time_elapsed":494212,"internal_node_id":"0.0-8.0-0.53","subject":"l9x4jhexve4azyb","sona":"5917"},{"rt":null,"stimulus":"<div style=\"font-size:60px;\">+</div>","key_press":null,"trial_type":"html-keyboard-response","trial_index":220,"time_elapsed":496214,"internal_node_id":"0.0-8.0-1.53","subject":"l9x4jhexve4azyb","sona":"5917"},{"trial_type":"turing-test","trial_index":221,"time_elapsed":499537,"internal_node_id":"0.0-8.0-2.53","subject":"l9x4jhexve4azyb","sona":"5917"},{"rt":885,"stimulus":"<p>Welche Sequenz haben Sie als natürlicher empfunden?</p>","key_press":70,"test_part":"response","test_stimulus":{"position":0,"left":"bvh/return-bottle-hold-training2-lines.txt","right":"bvh/vr_prediction_models/model(dmp)-dataset(return-bottle-hold)-npsi(90)-hold(2)/final-lines.txt","att_check":false},"trial_type":"html-keyboard-response","trial_index":222,"time_elapsed":500425,"internal_node_id":"0.0-8.0-3.53","subject":"l9x4jhexve4azyb","sona":"5917"},{"rt":360,"stimulus":"<p>Bereit?</p>","key_press":32,"trial_type":"html-keyboard-response","trial_index":223,"time_elapsed":500788,"internal_node_id":"0.0-8.0-0.54","subject":"l9x4jhexve4azyb","sona":"5917"},{"rt":null,"stimulus":"<div style=\"font-size:60px;\">+</div>","key_press":null,"trial_type":"html-keyboard-response","trial_index":224,"time_elapsed":502791,"internal_node_id":"0.0-8.0-1.54","subject":"l9x4jhexve4azyb","sona":"5917"},{"trial_type":"turing-test","trial_index":225,"time_elapsed":506082,"internal_node_id":"0.0-8.0-2.54","subject":"l9x4jhexve4azyb","sona":"5917"},{"rt":1284.9999999999418,"stimulus":"<p>Welche Sequenz haben Sie als natürlicher empfunden?</p>","key_press":70,"test_part":"response","test_stimulus":{"position":0,"left":"bvh/pass-bottle-hold-training2-lines.txt","right":"bvh/vr_prediction_models/model(dmp)-dataset(pass-bottle-hold)-npsi(30)-hold(2)/final-lines.txt","att_check":false},"trial_type":"html-keyboard-response","trial_index":226,"time_elapsed":507370,"internal_node_id":"0.0-8.0-3.54","subject":"l9x4jhexve4azyb","sona":"5917"},{"rt":414.9999999999418,"stimulus":"<p>Bereit?</p>","key_press":32,"trial_type":"html-keyboard-response","trial_index":227,"time_elapsed":507788,"internal_node_id":"0.0-8.0-0.55","subject":"l9x4jhexve4azyb","sona":"5917"},{"rt":null,"stimulus":"<div style=\"font-size:60px;\">+</div>","key_press":null,"trial_type":"html-keyboard-response","trial_index":228,"time_elapsed":509791,"internal_node_id":"0.0-8.0-1.55","subject":"l9x4jhexve4azyb","sona":"5917"},{"trial_type":"turing-test","trial_index":229,"time_elapsed":515460,"internal_node_id":"0.0-8.0-2.55","subject":"l9x4jhexve4azyb","sona":"5917"},{"rt":398,"stimulus":"<p>Welche Sequenz haben Sie als natürlicher empfunden?</p>","key_press":70,"test_part":"response","test_stimulus":{"position":0,"left":"bvh/pass-bottle-training1-lines.txt","right":"bvh/vr_prediction_models/model(vcgpdm)-dataset(pass-bottle)-mode(ELBO)-parts(3)-dyn(10)-lvm(25)-hold(1)/final-lines.txt","att_check":false},"trial_type":"html-keyboard-response","trial_index":230,"time_elapsed":515861,"internal_node_id":"0.0-8.0-3.55","subject":"l9x4jhexve4azyb","sona":"5917"},{"rt":288.0000000001164,"stimulus":"<p>Bereit?</p>","key_press":32,"trial_type":"html-keyboard-response","trial_index":231,"time_elapsed":516151,"internal_node_id":"0.0-8.0-0.56","subject":"l9x4jhexve4azyb","sona":"5917"},{"rt":null,"stimulus":"<div style=\"font-size:60px;\">+</div>","key_press":null,"trial_type":"html-keyboard-response","trial_index":232,"time_elapsed":518154,"internal_node_id":"0.0-8.0-1.56","subject":"l9x4jhexve4azyb","sona":"5917"},{"trial_type":"turing-test","trial_index":233,"time_elapsed":524242,"internal_node_id":"0.0-8.0-2.56","subject":"l9x4jhexve4azyb","sona":"5917"},{"rt":243,"stimulus":"<p>Welche Sequenz haben Sie als natürlicher empfunden?</p>","key_press":70,"test_part":"response","test_stimulus":{"position":0,"left":"bvh/pass-bottle-training2-lines.txt","right":"bvh/vr_prediction_models/model(tmp)-dataset(pass-bottle)-numprim(6)-hold(2)/final-lines.txt","att_check":false},"trial_type":"html-keyboard-response","trial_index":234,"time_elapsed":524488,"internal_node_id":"0.0-8.0-3.56","subject":"l9x4jhexve4azyb","sona":"5917"},{"rt":267,"stimulus":"<p>Bereit?</p>","key_press":32,"trial_type":"html-keyboard-response","trial_index":235,"time_elapsed":524758,"internal_node_id":"0.0-8.0-0.57","subject":"l9x4jhexve4azyb","sona":"5917"},{"rt":null,"stimulus":"<div style=\"font-size:60px;\">+</div>","key_press":null,"trial_type":"html-keyboard-response","trial_index":236,"time_elapsed":526761,"internal_node_id":"0.0-8.0-1.57","subject":"l9x4jhexve4azyb","sona":"5917"},{"trial_type":"turing-test","trial_index":237,"time_elapsed":530193,"internal_node_id":"0.0-8.0-2.57","subject":"l9x4jhexve4azyb","sona":"5917"},{"rt":367,"stimulus":"<p>Welche Sequenz haben Sie als natürlicher empfunden?</p>","key_press":70,"test_part":"response","test_stimulus":{"position":0,"left":"bvh/return-bottle-hold-training1-lines.txt","right":"bvh/vr_prediction_models/model(vcgpdm)-dataset(return-bottle-hold)-mode(ELBO)-parts(1)-dyn(30)-lvm(30)-hold(1)/final-lines.txt","att_check":false},"trial_type":"html-keyboard-response","trial_index":238,"time_elapsed":530563,"internal_node_id":"0.0-8.0-3.57","subject":"l9x4jhexve4azyb","sona":"5917"},{"rt":282.0000000001164,"stimulus":"<p>Bereit?</p>","key_press":32,"trial_type":"html-keyboard-response","trial_index":239,"time_elapsed":530849,"internal_node_id":"0.0-8.0-0.58","subject":"l9x4jhexve4azyb","sona":"5917"},{"rt":null,"stimulus":"<div style=\"font-size:60px;\">+</div>","key_press":null,"trial_type":"html-keyboard-response","trial_index":240,"time_elapsed":532851,"internal_node_id":"0.0-8.0-1.58","subject":"l9x4jhexve4azyb","sona":"5917"},{"trial_type":"turing-test","trial_index":241,"time_elapsed":536175,"internal_node_id":"0.0-8.0-2.58","subject":"l9x4jhexve4azyb","sona":"5917"},{"rt":532,"stimulus":"<p>Welche Sequenz haben Sie als natürlicher empfunden?</p>","key_press":74,"test_part":"response","test_stimulus":{"position":1,"left":"bvh/vr_prediction_models/model(dmp)-dataset(return-bottle-hold)-npsi(90)-hold(2)/final-lines.txt","right":"bvh/return-bottle-hold-training2-lines.txt","att_check":false},"trial_type":"html-keyboard-response","trial_index":242,"time_elapsed":536710,"internal_node_id":"0.0-8.0-3.58","subject":"l9x4jhexve4azyb","sona":"5917"},{"rt":377,"stimulus":"<p>Bereit?</p>","key_press":32,"trial_type":"html-keyboard-response","trial_index":243,"time_elapsed":537090,"internal_node_id":"0.0-8.0-0.59","subject":"l9x4jhexve4azyb","sona":"5917"},{"rt":null,"stimulus":"<div style=\"font-size:60px;\">+</div>","key_press":null,"trial_type":"html-keyboard-response","trial_index":244,"time_elapsed":539093,"internal_node_id":"0.0-8.0-1.59","subject":"l9x4jhexve4azyb","sona":"5917"},{"trial_type":"turing-test","trial_index":245,"time_elapsed":542439,"internal_node_id":"0.0-8.0-2.59","subject":"l9x4jhexve4azyb","sona":"5917"},{"rt":307,"stimulus":"<p>Welche Sequenz haben Sie als natürlicher empfunden?</p>","key_press":74,"test_part":"response","test_stimulus":{"position":0,"left":"bvh/pass-bottle-hold-training1-lines.txt","right":"bvh/vr_prediction_models/model(dmp)-dataset(pass-bottle-hold)-npsi(60)-hold(1)/final-lines.txt","att_check":false},"trial_type":"html-keyboard-response","trial_index":246,"time_elapsed":542749,"internal_node_id":"0.0-8.0-3.59","subject":"l9x4jhexve4azyb","sona":"5917"},{"rt":280,"stimulus":"<p>Bereit?</p>","key_press":32,"trial_type":"html-keyboard-response","trial_index":247,"time_elapsed":543031,"internal_node_id":"0.0-8.0-0.60","subject":"l9x4jhexve4azyb","sona":"5917"},{"rt":null,"stimulus":"<div style=\"font-size:60px;\">+</div>","key_press":null,"trial_type":"html-keyboard-response","trial_index":248,"time_elapsed":545034,"internal_node_id":"0.0-8.0-1.60","subject":"l9x4jhexve4azyb","sona":"5917"},{"trial_type":"turing-test","trial_index":249,"time_elapsed":551602,"internal_node_id":"0.0-8.0-2.60","subject":"l9x4jhexve4azyb","sona":"5917"},{"rt":416.0000000001164,"stimulus":"<p>Welche Sequenz haben Sie als natürlicher empfunden?</p>","key_press":74,"test_part":"response","test_stimulus":{"position":1,"left":"bvh/vr_prediction_models/model(vcgpdm)-dataset(return-bottle)-mode(ELBO)-parts(3)-dyn(35)-lvm(20)-hold(2)/final-lines.txt","right":"bvh/return-bottle-training2-lines.txt","att_check":false},"trial_type":"html-keyboard-response","trial_index":250,"time_elapsed":552021,"internal_node_id":"0.0-8.0-3.60","subject":"l9x4jhexve4azyb","sona":"5917"},{"rt":581,"stimulus":"<p>Bereit?</p>","key_press":32,"trial_type":"html-keyboard-response","trial_index":251,"time_elapsed":552605,"internal_node_id":"0.0-8.0-0.61","subject":"l9x4jhexve4azyb","sona":"5917"},{"rt":null,"stimulus":"<div style=\"font-size:60px;\">+</div>","key_press":null,"trial_type":"html-keyboard-response","trial_index":252,"time_elapsed":554608,"internal_node_id":"0.0-8.0-1.61","subject":"l9x4jhexve4azyb","sona":"5917"},{"trial_type":"turing-test","trial_index":253,"time_elapsed":558040,"internal_node_id":"0.0-8.0-2.61","subject":"l9x4jhexve4azyb","sona":"5917"},{"rt":387,"stimulus":"<p>Welche Sequenz haben Sie als natürlicher empfunden?</p>","key_press":70,"test_part":"response","test_stimulus":{"position":1,"left":"bvh/vr_prediction_models/model(vcgpdm)-dataset(pass-bottle-hold)-mode(ELBO)-parts(3)-dyn(10)-lvm(25)-hold(0)/final-lines.txt","right":"bvh/pass-bottle-hold-training0-lines.txt","att_check":false},"trial_type":"html-keyboard-response","trial_index":254,"time_elapsed":558430,"internal_node_id":"0.0-8.0-3.61","subject":"l9x4jhexve4azyb","sona":"5917"},{"rt":336,"stimulus":"<p>Bereit?</p>","key_press":32,"trial_type":"html-keyboard-response","trial_index":255,"time_elapsed":558769,"internal_node_id":"0.0-8.0-0.62","subject":"l9x4jhexve4azyb","sona":"5917"},{"rt":null,"stimulus":"<div style=\"font-size:60px;\">+</div>","key_press":null,"trial_type":"html-keyboard-response","trial_index":256,"time_elapsed":560772,"internal_node_id":"0.0-8.0-1.62","subject":"l9x4jhexve4azyb","sona":"5917"},{"trial_type":"turing-test","trial_index":257,"time_elapsed":564516,"internal_node_id":"0.0-8.0-2.62","subject":"l9x4jhexve4azyb","sona":"5917"},{"rt":328,"stimulus":"<p>Welche Sequenz haben Sie als natürlicher empfunden?</p>","key_press":74,"test_part":"response","test_stimulus":{"position":0,"left":"bvh/return-bottle-hold-training3-lines.txt","right":"bvh/vr_prediction_models/model(vcgpdm)-dataset(return-bottle-hold)-mode(ELBO)-parts(3)-dyn(20)-lvm(15)-hold(3)/final-lines.txt","att_check":false},"trial_type":"html-keyboard-response","trial_index":258,"time_elapsed":564847,"internal_node_id":"0.0-8.0-3.62","subject":"l9x4jhexve4azyb","sona":"5917"},{"rt":345,"stimulus":"<p>Bereit?</p>","key_press":32,"trial_type":"html-keyboard-response","trial_index":259,"time_elapsed":565195,"internal_node_id":"0.0-8.0-0.63","subject":"l9x4jhexve4azyb","sona":"5917"},{"rt":null,"stimulus":"<div style=\"font-size:60px;\">+</div>","key_press":null,"trial_type":"html-keyboard-response","trial_index":260,"time_elapsed":567198,"internal_node_id":"0.0-8.0-1.63","subject":"l9x4jhexve4azyb","sona":"5917"},{"trial_type":"turing-test","trial_index":261,"time_elapsed":572451,"internal_node_id":"0.0-8.0-2.63","subject":"l9x4jhexve4azyb","sona":"5917"},{"rt":288,"stimulus":"<p>Welche Sequenz haben Sie als natürlicher empfunden?</p>","key_press":74,"test_part":"response","test_stimulus":{"position":1,"left":"bvh/vr_prediction_models/model(vcgpdm)-dataset(return-bottle-hold)-mode(ELBO)-parts(3)-dyn(20)-lvm(20)-hold(0)/final-lines.txt","right":"bvh/return-bottle-hold-training0-lines.txt","att_check":false},"trial_type":"html-keyboard-response","trial_index":262,"time_elapsed":572742,"internal_node_id":"0.0-8.0-3.63","subject":"l9x4jhexve4azyb","sona":"5917"},{"rt":399,"stimulus":"<p>Bereit?</p>","key_press":32,"trial_type":"html-keyboard-response","trial_index":263,"time_elapsed":573144,"internal_node_id":"0.0-8.0-0.64","subject":"l9x4jhexve4azyb","sona":"5917"},{"rt":null,"stimulus":"<div style=\"font-size:60px;\">+</div>","key_press":null,"trial_type":"html-keyboard-response","trial_index":264,"time_elapsed":575147,"internal_node_id":"0.0-8.0-1.64","subject":"l9x4jhexve4azyb","sona":"5917"},{"trial_type":"turing-test","trial_index":265,"time_elapsed":578986,"internal_node_id":"0.0-8.0-2.64","subject":"l9x4jhexve4azyb","sona":"5917"},{"rt":1584,"stimulus":"<p>Welche Sequenz haben Sie als natürlicher empfunden?</p>","key_press":74,"test_part":"response","test_stimulus":{"position":1,"left":"bvh/vr_prediction_models/model(tmp)-dataset(return-bottle-hold)-numprim(9)-hold(3)/final-lines.txt","right":"bvh/return-bottle-hold-training3-lines.txt","att_check":false},"trial_type":"html-keyboard-response","trial_index":266,"time_elapsed":580577,"internal_node_id":"0.0-8.0-3.64","subject":"l9x4jhexve4azyb","sona":"5917"},{"rt":328,"stimulus":"<p>Bereit?</p>","key_press":32,"trial_type":"html-keyboard-response","trial_index":267,"time_elapsed":580907,"internal_node_id":"0.0-8.0-0.65","subject":"l9x4jhexve4azyb","sona":"5917"},{"rt":null,"stimulus":"<div style=\"font-size:60px;\">+</div>","key_press":null,"trial_type":"html-keyboard-response","trial_index":268,"time_elapsed":582910,"internal_node_id":"0.0-8.0-1.65","subject":"l9x4jhexve4azyb","sona":"5917"},{"trial_type":"turing-test","trial_index":269,"time_elapsed":588796,"internal_node_id":"0.0-8.0-2.65","subject":"l9x4jhexve4azyb","sona":"5917"},{"rt":460.9999999998836,"stimulus":"<p>Welche Sequenz haben Sie als natürlicher empfunden?</p>","key_press":74,"test_part":"response","test_stimulus":{"position":1,"left":"bvh/vr_prediction_models/model(dmp)-dataset(pass-bottle)-npsi(50)-hold(3)/final-lines.txt","right":"bvh/pass-bottle-training3-lines.txt","att_check":false},"trial_type":"html-keyboard-response","trial_index":270,"time_elapsed":589261,"internal_node_id":"0.0-8.0-3.65","subject":"l9x4jhexve4azyb","sona":"5917"},{"rt":347,"stimulus":"<p>Bereit?</p>","key_press":32,"trial_type":"html-keyboard-response","trial_index":271,"time_elapsed":589611,"internal_node_id":"0.0-8.0-0.66","subject":"l9x4jhexve4azyb","sona":"5917"},{"rt":null,"stimulus":"<div style=\"font-size:60px;\">+</div>","key_press":null,"trial_type":"html-keyboard-response","trial_index":272,"time_elapsed":591613,"internal_node_id":"0.0-8.0-1.66","subject":"l9x4jhexve4azyb","sona":"5917"},{"trial_type":"turing-test","trial_index":273,"time_elapsed":598010,"internal_node_id":"0.0-8.0-2.66","subject":"l9x4jhexve4azyb","sona":"5917"},{"rt":537.0000000001164,"stimulus":"<p>Welche Sequenz haben Sie als natürlicher empfunden?</p>","key_press":70,"test_part":"response","test_stimulus":{"position":0,"left":"bvh/pass-bottle-training2-lines.txt","right":"bvh/vr_prediction_models/model(vcgpdm)-dataset(pass-bottle)-mode(ELBO)-parts(3)-dyn(10)-lvm(10)-hold(2)/final-lines.txt","att_check":false},"trial_type":"html-keyboard-response","trial_index":274,"time_elapsed":598549,"internal_node_id":"0.0-8.0-3.66","subject":"l9x4jhexve4azyb","sona":"5917"},{"rt":1622.0000000001164,"stimulus":"<p>Bereit?</p>","key_press":32,"trial_type":"html-keyboard-response","trial_index":275,"time_elapsed":600175,"internal_node_id":"0.0-8.0-0.67","subject":"l9x4jhexve4azyb","sona":"5917"},{"rt":null,"stimulus":"<div style=\"font-size:60px;\">+</div>","key_press":null,"trial_type":"html-keyboard-response","trial_index":276,"time_elapsed":602183,"internal_node_id":"0.0-8.0-1.67","subject":"l9x4jhexve4azyb","sona":"5917"},{"trial_type":"turing-test","trial_index":277,"time_elapsed":605959,"internal_node_id":"0.0-8.0-2.67","subject":"l9x4jhexve4azyb","sona":"5917"},{"rt":247,"stimulus":"<p>Welche Sequenz haben Sie als natürlicher empfunden?</p>","key_press":74,"test_part":"response","test_stimulus":{"position":1,"left":"bvh/vr_prediction_models/model(vcgpdm)-dataset(pass-bottle-hold)-mode(ELBO)-parts(3)-dyn(10)-lvm(10)-hold(3)/final-lines.txt","right":"bvh/pass-bottle-hold-training3-lines.txt","att_check":false},"trial_type":"html-keyboard-response","trial_index":278,"time_elapsed":606210,"internal_node_id":"0.0-8.0-3.67","subject":"l9x4jhexve4azyb","sona":"5917"},{"rt":251,"stimulus":"<p>Bereit?</p>","key_press":32,"trial_type":"html-keyboard-response","trial_index":279,"time_elapsed":606464,"internal_node_id":"0.0-8.0-0.68","subject":"l9x4jhexve4azyb","sona":"5917"},{"rt":null,"stimulus":"<div style=\"font-size:60px;\">+</div>","key_press":null,"trial_type":"html-keyboard-response","trial_index":280,"time_elapsed":608467,"internal_node_id":"0.0-8.0-1.68","subject":"l9x4jhexve4azyb","sona":"5917"},{"trial_type":"turing-test","trial_index":281,"time_elapsed":612134,"internal_node_id":"0.0-8.0-2.68","subject":"l9x4jhexve4azyb","sona":"5917"},{"rt":358,"stimulus":"<p>Welche Sequenz haben Sie als natürlicher empfunden?</p>","key_press":74,"test_part":"response","test_stimulus":{"position":1,"left":"bvh/vr_prediction_models/model(tmp)-dataset(return-bottle-hold)-numprim(15)-hold(4)/final-lines.txt","right":"bvh/return-bottle-hold-training4-lines.txt","att_check":false},"trial_type":"html-keyboard-response","trial_index":282,"time_elapsed":612495,"internal_node_id":"0.0-8.0-3.68","subject":"l9x4jhexve4azyb","sona":"5917"},{"rt":250,"stimulus":"<p>Bereit?</p>","key_press":32,"trial_type":"html-keyboard-response","trial_index":283,"time_elapsed":612747,"internal_node_id":"0.0-8.0-0.69","subject":"l9x4jhexve4azyb","sona":"5917"},{"rt":null,"stimulus":"<div style=\"font-size:60px;\">+</div>","key_press":null,"trial_type":"html-keyboard-response","trial_index":284,"time_elapsed":614750,"internal_node_id":"0.0-8.0-1.69","subject":"l9x4jhexve4azyb","sona":"5917"},{"trial_type":"turing-test","trial_index":285,"time_elapsed":621054,"internal_node_id":"0.0-8.0-2.69","subject":"l9x4jhexve4azyb","sona":"5917"},{"rt":434,"stimulus":"<p>Welche Sequenz haben Sie als natürlicher empfunden?</p>","key_press":74,"test_part":"response","test_stimulus":{"position":1,"left":"bvh/vr_prediction_models/model(vcgpdm)-dataset(return-bottle)-mode(ELBO)-parts(1)-dyn(30)-lvm(30)-hold(1)/final-lines.txt","right":"bvh/return-bottle-training1-lines.txt","att_check":false},"trial_type":"html-keyboard-response","trial_index":286,"time_elapsed":621490,"internal_node_id":"0.0-8.0-3.69","subject":"l9x4jhexve4azyb","sona":"5917"},{"rt":330.0000000001164,"stimulus":"<p>Bereit?</p>","key_press":32,"trial_type":"html-keyboard-response","trial_index":287,"time_elapsed":621824,"internal_node_id":"0.0-8.0-0.70","subject":"l9x4jhexve4azyb","sona":"5917"},{"rt":null,"stimulus":"<div style=\"font-size:60px;\">+</div>","key_press":null,"trial_type":"html-keyboard-response","trial_index":288,"time_elapsed":623827,"internal_node_id":"0.0-8.0-1.70","subject":"l9x4jhexve4azyb","sona":"5917"},{"trial_type":"turing-test","trial_index":289,"time_elapsed":627770,"internal_node_id":"0.0-8.0-2.70","subject":"l9x4jhexve4azyb","sona":"5917"},{"rt":576,"stimulus":"<p>Welche Sequenz haben Sie als natürlicher empfunden?</p>","key_press":70,"test_part":"response","test_stimulus":{"position":0,"left":"bvh/return-bottle-hold-training3-lines.txt","right":"bvh/vr_prediction_models/model(vcgpdm)-dataset(return-bottle-hold)-mode(ELBO)-parts(1)-dyn(30)-lvm(30)-hold(3)/final-lines.txt","att_check":false},"trial_type":"html-keyboard-response","trial_index":290,"time_elapsed":628349,"internal_node_id":"0.0-8.0-3.70","subject":"l9x4jhexve4azyb","sona":"5917"},{"rt":442,"stimulus":"<p>Bereit?</p>","key_press":32,"trial_type":"html-keyboard-response","trial_index":291,"time_elapsed":628795,"internal_node_id":"0.0-8.0-0.71","subject":"l9x4jhexve4azyb","sona":"5917"},{"rt":null,"stimulus":"<div style=\"font-size:60px;\">+</div>","key_press":null,"trial_type":"html-keyboard-response","trial_index":292,"time_elapsed":630798,"internal_node_id":"0.0-8.0-1.71","subject":"l9x4jhexve4azyb","sona":"5917"},{"trial_type":"turing-test","trial_index":293,"time_elapsed":634174,"internal_node_id":"0.0-8.0-2.71","subject":"l9x4jhexve4azyb","sona":"5917"},{"rt":672,"stimulus":"<p>Welche Sequenz haben Sie als natürlicher empfunden?</p>","key_press":70,"test_part":"response","test_stimulus":{"position":1,"left":"bvh/vr_prediction_models/model(tmp)-dataset(pass-bottle-hold)-numprim(6)-hold(0)/final-lines.txt","right":"bvh/pass-bottle-hold-training0-lines.txt","att_check":false},"trial_type":"html-keyboard-response","trial_index":294,"time_elapsed":634850,"internal_node_id":"0.0-8.0-3.71","subject":"l9x4jhexve4azyb","sona":"5917"},{"rt":425.9999999998836,"stimulus":"<p>Bereit?</p>","key_press":32,"trial_type":"html-keyboard-response","trial_index":295,"time_elapsed":635278,"internal_node_id":"0.0-8.0-0.72","subject":"l9x4jhexve4azyb","sona":"5917"},{"rt":null,"stimulus":"<div style=\"font-size:60px;\">+</div>","key_press":null,"trial_type":"html-keyboard-response","trial_index":296,"time_elapsed":637281,"internal_node_id":"0.0-8.0-1.72","subject":"l9x4jhexve4azyb","sona":"5917"},{"trial_type":"turing-test","trial_index":297,"time_elapsed":642723,"internal_node_id":"0.0-8.0-2.72","subject":"l9x4jhexve4azyb","sona":"5917"},{"rt":463,"stimulus":"<p>Welche Sequenz haben Sie als natürlicher empfunden?</p>","key_press":70,"test_part":"response","test_stimulus":{"position":0,"left":"bvh/return-bottle-training0-lines.txt","right":"bvh/vr_prediction_models/model(dmp)-dataset(return-bottle)-npsi(70)-hold(0)/final-lines.txt","att_check":false},"trial_type":"html-keyboard-response","trial_index":298,"time_elapsed":643190,"internal_node_id":"0.0-8.0-3.72","subject":"l9x4jhexve4azyb","sona":"5917"},{"rt":411,"stimulus":"<p>Bereit?</p>","key_press":32,"trial_type":"html-keyboard-response","trial_index":299,"time_elapsed":643603,"internal_node_id":"0.0-8.0-0.73","subject":"l9x4jhexve4azyb","sona":"5917"},{"rt":null,"stimulus":"<div style=\"font-size:60px;\">+</div>","key_press":null,"trial_type":"html-keyboard-response","trial_index":300,"time_elapsed":645606,"internal_node_id":"0.0-8.0-1.73","subject":"l9x4jhexve4azyb","sona":"5917"},{"trial_type":"turing-test","trial_index":301,"time_elapsed":651564,"internal_node_id":"0.0-8.0-2.73","subject":"l9x4jhexve4azyb","sona":"5917"},{"rt":371,"stimulus":"<p>Welche Sequenz haben Sie als natürlicher empfunden?</p>","key_press":70,"test_part":"response","test_stimulus":{"position":1,"left":"bvh/vr_prediction_models/model(vcgpdm)-dataset(return-bottle)-mode(ELBO)-parts(3)-dyn(30)-lvm(15)-hold(4)/final-lines.txt","right":"bvh/return-bottle-training4-lines.txt","att_check":false},"trial_type":"html-keyboard-response","trial_index":302,"time_elapsed":651938,"internal_node_id":"0.0-8.0-3.73","subject":"l9x4jhexve4azyb","sona":"5917"},{"rt":546,"stimulus":"<p>Bereit?</p>","key_press":32,"trial_type":"html-keyboard-response","trial_index":303,"time_elapsed":652487,"internal_node_id":"0.0-8.0-0.74","subject":"l9x4jhexve4azyb","sona":"5917"},{"rt":null,"stimulus":"<div style=\"font-size:60px;\">+</div>","key_press":null,"trial_type":"html-keyboard-response","trial_index":304,"time_elapsed":654490,"internal_node_id":"0.0-8.0-1.74","subject":"l9x4jhexve4azyb","sona":"5917"},{"trial_type":"turing-test","trial_index":305,"time_elapsed":657978,"internal_node_id":"0.0-8.0-2.74","subject":"l9x4jhexve4azyb","sona":"5917"},{"rt":3195,"stimulus":"<p>Welche Sequenz haben Sie als natürlicher empfunden?</p>","key_press":70,"test_part":"response","test_stimulus":{"position":0,"left":"bvh/return-bottle-hold-training3-lines.txt","right":"bvh/vr_prediction_models/model(tmp)-dataset(return-bottle-hold)-numprim(9)-hold(3)/final-lines.txt","att_check":false},"trial_type":"html-keyboard-response","trial_index":306,"time_elapsed":661176,"internal_node_id":"0.0-8.0-3.74","subject":"l9x4jhexve4azyb","sona":"5917"},{"rt":374,"stimulus":"<p>Bereit?</p>","key_press":32,"trial_type":"html-keyboard-response","trial_index":307,"time_elapsed":661553,"internal_node_id":"0.0-8.0-0.75","subject":"l9x4jhexve4azyb","sona":"5917"},{"rt":null,"stimulus":"<div style=\"font-size:60px;\">+</div>","key_press":null,"trial_type":"html-keyboard-response","trial_index":308,"time_elapsed":663556,"internal_node_id":"0.0-8.0-1.75","subject":"l9x4jhexve4azyb","sona":"5917"},{"trial_type":"turing-test","trial_index":309,"time_elapsed":667445,"internal_node_id":"0.0-8.0-2.75","subject":"l9x4jhexve4azyb","sona":"5917"},{"rt":899.9999999998836,"stimulus":"<p>Welche Sequenz haben Sie als natürlicher empfunden?</p>","key_press":70,"test_part":"response","test_stimulus":{"position":0,"left":"bvh/return-bottle-hold-training3-lines.txt","right":"bvh/vr_prediction_models/model(tmp)-dataset(return-bottle-hold)-numprim(12)-hold(3)/final-lines.txt","att_check":false},"trial_type":"html-keyboard-response","trial_index":310,"time_elapsed":668348,"internal_node_id":"0.0-8.0-3.75","subject":"l9x4jhexve4azyb","sona":"5917"},{"rt":506,"stimulus":"<p>Bereit?</p>","key_press":32,"trial_type":"html-keyboard-response","trial_index":311,"time_elapsed":668857,"internal_node_id":"0.0-8.0-0.76","subject":"l9x4jhexve4azyb","sona":"5917"},{"rt":null,"stimulus":"<div style=\"font-size:60px;\">+</div>","key_press":null,"trial_type":"html-keyboard-response","trial_index":312,"time_elapsed":670859,"internal_node_id":"0.0-8.0-1.76","subject":"l9x4jhexve4azyb","sona":"5917"},{"trial_type":"turing-test","trial_index":313,"time_elapsed":676741,"internal_node_id":"0.0-8.0-2.76","subject":"l9x4jhexve4azyb","sona":"5917"},{"rt":404,"stimulus":"<p>Welche Sequenz haben Sie als natürlicher empfunden?</p>","key_press":74,"test_part":"response","test_stimulus":{"position":1,"left":"bvh/vr_prediction_models/model(vcgpdm)-dataset(return-bottle)-mode(ELBO)-parts(1)-dyn(30)-lvm(20)-hold(4)/final-lines.txt","right":"bvh/return-bottle-training4-lines.txt","att_check":false},"trial_type":"html-keyboard-response","trial_index":314,"time_elapsed":677149,"internal_node_id":"0.0-8.0-3.76","subject":"l9x4jhexve4azyb","sona":"5917"},{"rt":1012.9999999998836,"stimulus":"<p>Bereit?</p>","key_press":32,"trial_type":"html-keyboard-response","trial_index":315,"time_elapsed":678165,"internal_node_id":"0.0-8.0-0.77","subject":"l9x4jhexve4azyb","sona":"5917"},{"rt":null,"stimulus":"<div style=\"font-size:60px;\">+</div>","key_press":null,"trial_type":"html-keyboard-response","trial_index":316,"time_elapsed":680167,"internal_node_id":"0.0-8.0-1.77","subject":"l9x4jhexve4azyb","sona":"5917"},{"trial_type":"turing-test","trial_index":317,"time_elapsed":683714,"internal_node_id":"0.0-8.0-2.77","subject":"l9x4jhexve4azyb","sona":"5917"},{"rt":415,"stimulus":"<p>Welche Sequenz haben Sie als natürlicher empfunden?</p>","key_press":70,"test_part":"response","test_stimulus":{"position":1,"left":"bvh/vr_prediction_models/model(dmp)-dataset(pass-bottle-hold)-npsi(20)-hold(4)/final-lines.txt","right":"bvh/pass-bottle-hold-training4-lines.txt","att_check":false},"trial_type":"html-keyboard-response","trial_index":318,"time_elapsed":684132,"internal_node_id":"0.0-8.0-3.77","subject":"l9x4jhexve4azyb","sona":"5917"},{"rt":445,"stimulus":"<p>Bereit?</p>","key_press":32,"trial_type":"html-keyboard-response","trial_index":319,"time_elapsed":684581,"internal_node_id":"0.0-8.0-0.78","subject":"l9x4jhexve4azyb","sona":"5917"},{"rt":null,"stimulus":"<div style=\"font-size:60px;\">+</div>","key_press":null,"trial_type":"html-keyboard-response","trial_index":320,"time_elapsed":686583,"internal_node_id":"0.0-8.0-1.78","subject":"l9x4jhexve4azyb","sona":"5917"},{"trial_type":"turing-test","trial_index":321,"time_elapsed":690112,"internal_node_id":"0.0-8.0-2.78","subject":"l9x4jhexve4azyb","sona":"5917"},{"rt":767,"stimulus":"<p>Welche Sequenz haben Sie als natürlicher empfunden?</p>","key_press":74,"test_part":"response","test_stimulus":{"position":0,"left":"bvh/return-bottle-hold-training1-lines.txt","right":"bvh/vr_prediction_models/model(vcgpdm)-dataset(return-bottle-hold)-mode(ELBO)-parts(1)-dyn(20)-lvm(20)-hold(1)/final-lines.txt","att_check":false},"trial_type":"html-keyboard-response","trial_index":322,"time_elapsed":690882,"internal_node_id":"0.0-8.0-3.78","subject":"l9x4jhexve4azyb","sona":"5917"},{"rt":473,"stimulus":"<p>Bereit?</p>","key_press":32,"trial_type":"html-keyboard-response","trial_index":323,"time_elapsed":691358,"internal_node_id":"0.0-8.0-0.79","subject":"l9x4jhexve4azyb","sona":"5917"},{"rt":null,"stimulus":"<div style=\"font-size:60px;\">+</div>","key_press":null,"trial_type":"html-keyboard-response","trial_index":324,"time_elapsed":693361,"internal_node_id":"0.0-8.0-1.79","subject":"l9x4jhexve4azyb","sona":"5917"},{"trial_type":"turing-test","trial_index":325,"time_elapsed":696977,"internal_node_id":"0.0-8.0-2.79","subject":"l9x4jhexve4azyb","sona":"5917"},{"rt":472,"stimulus":"<p>Welche Sequenz haben Sie als natürlicher empfunden?</p>","key_press":74,"test_part":"response","test_stimulus":{"position":1,"left":"bvh/vr_prediction_models/model(dmp)-dataset(return-bottle-hold)-npsi(70)-hold(3)/final-lines.txt","right":"bvh/return-bottle-hold-training3-lines.txt","att_check":false},"trial_type":"html-keyboard-response","trial_index":326,"time_elapsed":697454,"internal_node_id":"0.0-8.0-3.79","subject":"l9x4jhexve4azyb","sona":"5917"},{"rt":7334,"responses":"{\"age\":\" 22\",\"gender\":\"weiblich\"}","trial_type":"survey-text","trial_index":327,"time_elapsed":704816,"internal_node_id":"0.0-10.0-0.0","subject":"l9x4jhexve4azyb","sona":"5917"},{"rt":55675.00000000012,"responses":"{\"area\":\"rechts\",\"Q1\":\"durch abgehacktheit \",\"Q2\":\"wenn die hin und her geschwungen sind\"}","trial_type":"survey-text","trial_index":328,"time_elapsed":760494,"internal_node_id":"0.0-10.0-1.0","subject":"l9x4jhexve4azyb","sona":"5917"}]