[{"rt":2539.9000000033993,"stimulus":"<p>Welcome!<br> Please choose your language to start the experiment in the chosen language.</p><p>Willkommen!<br> Bitte wählen Sie eine Sprache, um das Experiment in der ausgewählten Sprache zu starten</p>","button_pressed":"1","trial_type":"html-button-response","trial_index":0,"time_elapsed":2619,"internal_node_id":"0.0-0.0","subject":"cupylzxnfp5kgmv","sona":"7672"},{"view_history":"[{\"page_index\":0,\"viewing_time\":4124.710000003688},{\"page_index\":1,\"viewing_time\":2411.069999994652},{\"page_index\":2,\"viewing_time\":3762.075000006007},{\"page_index\":3,\"viewing_time\":5138.449999998556},{\"page_index\":4,\"viewing_time\":2712.025000000722}]","rt":18150.549999998475,"trial_type":"instructions","trial_index":1,"time_elapsed":20772,"internal_node_id":"0.0-1.0-0.0","subject":"cupylzxnfp5kgmv","sona":"7672"},{"rt":1222.9700000025332,"stimulus":"<p>Bereit?</p>","key_press":32,"trial_type":"html-keyboard-response","trial_index":2,"time_elapsed":21999,"internal_node_id":"0.0-3.0","subject":"cupylzxnfp5kgmv","sona":"7672"},{"rt":null,"stimulus":"<div style=\"font-size:60px;\">+</div>","key_press":null,"trial_type":"html-keyboard-response","trial_index":3,"time_elapsed":24012,"internal_node_id":"0.0-4.0","subject":"cupylzxnfp5kgmv","sona":"7672"},{"trial_type":"training","trial_index":4,"time_elapsed":27502,"internal_node_id":"0.0-5.0","subject":"cupylzxnfp5kgmv","sona":"7672"},{"rt":293.98999999830266,"stimulus":"<p>Welche Sequenz haben Sie als natürlicher empfunden?</p>","key_press":70,"trial_type":"html-keyboard-response","trial_index":5,"time_elapsed":27799,"internal_node_id":"0.0-6.0","subject":"cupylzxnfp5kgmv","sona":"7672"},{"rt":2704.8150000046007,"stimulus":"<p>Das Experiment startet nun.</p><p><small>Bitte drücken Sie den Knopf, wenn Sie bereit sind.</small></p>","button_pressed":"0","trial_type":"html-button-response","trial_index":6,"time_elapsed":30506,"internal_node_id":"0.0-7.0","subject":"cupylzxnfp5kgmv","sona":"7672"},{"rt":1439.3850000051316,"stimulus":"<p>Bereit?</p>","key_press":32,"trial_type":"html-keyboard-response","trial_index":7,"time_elapsed":31948,"internal_node_id":"0.0-8.0-0.0","subject":"cupylzxnfp5kgmv","sona":"7672"},{"rt":null,"stimulus":"<div style=\"font-size:60px;\">+</div>","key_press":null,"trial_type":"html-keyboard-response","trial_index":8,"time_elapsed":33975,"internal_node_id":"0.0-8.0-1.0","subject":"cupylzxnfp5kgmv","sona":"7672"},{"trial_type":"turing-test","trial_index":9,"time_elapsed":40883,"internal_node_id":"0.0-8.0-2.0","subject":"cupylzxnfp5kgmv","sona":"7672"},{"rt":312.89499999547843,"stimulus":"<p>Welche Sequenz haben Sie als natürlicher empfunden?</p>","key_press":74,"test_part":"response","test_stimulus":{"position":1,"left":"bvh/vr_prediction_models/model(vcgpdm)-dataset(return-bottle)-mode(ELBO)-parts(1)-dyn(10)-lvm(5)-hold(2)/final-lines.txt","right":"bvh/return-bottle-training2-lines.txt","att_check":false},"trial_type":"html-keyboard-response","trial_index":10,"time_elapsed":41204,"internal_node_id":"0.0-8.0-3.0","subject":"cupylzxnfp5kgmv","sona":"7672"},{"rt":979.139999995823,"stimulus":"<p>Bereit?</p>","key_press":32,"trial_type":"html-keyboard-response","trial_index":11,"time_elapsed":42187,"internal_node_id":"0.0-8.0-0.1","subject":"cupylzxnfp5kgmv","sona":"7672"},{"rt":null,"stimulus":"<div style=\"font-size:60px;\">+</div>","key_press":null,"trial_type":"html-keyboard-response","trial_index":12,"time_elapsed":44202,"internal_node_id":"0.0-8.0-1.1","subject":"cupylzxnfp5kgmv","sona":"7672"},{"trial_type":"turing-test","trial_index":13,"time_elapsed":50181,"internal_node_id":"0.0-8.0-2.1","subject":"cupylzxnfp5kgmv","sona":"7672"},{"rt":724.9400000000605,"stimulus":"<p>Welche Sequenz haben Sie als natürlicher empfunden?</p>","key_press":70,"test_part":"response","test_stimulus":{"position":1,"left":"bvh/vr_prediction_models/model(tmp)-dataset(pass-bottle)-numprim(13)-hold(4)/final-lines.txt","right":"bvh/pass-bottle-training4-lines.txt","att_check":false},"trial_type":"html-keyboard-response","trial_index":14,"time_elapsed":50911,"internal_node_id":"0.0-8.0-3.1","subject":"cupylzxnfp5kgmv","sona":"7672"},{"rt":569.1299999962212,"stimulus":"<p>Bereit?</p>","key_press":32,"trial_type":"html-keyboard-response","trial_index":15,"time_elapsed":51484,"internal_node_id":"0.0-8.0-0.2","subject":"cupylzxnfp5kgmv","sona":"7672"},{"rt":null,"stimulus":"<div style=\"font-size:60px;\">+</div>","key_press":null,"trial_type":"html-keyboard-response","trial_index":16,"time_elapsed":53495,"internal_node_id":"0.0-8.0-1.2","subject":"cupylzxnfp5kgmv","sona":"7672"},{"trial_type":"turing-test","trial_index":17,"time_elapsed":56984,"internal_node_id":"0.0-8.0-2.2","subject":"cupylzxnfp5kgmv","sona":"7672"},{"rt":114.63000000367174,"stimulus":"<p>Welche Sequenz haben Sie als natürlicher empfunden?</p>","key_press":74,"test_part":"response","test_stimulus":{"position":1,"left":"bvh/vr_prediction_models/model(tmp)-dataset(return-bottle-hold)-numprim(14)-hold(1)/final-lines.txt","right":"bvh/return-bottle-hold-training1-lines.txt","att_check":false},"trial_type":"html-keyboard-response","trial_index":18,"time_elapsed":57104,"internal_node_id":"0.0-8.0-3.2","subject":"cupylzxnfp5kgmv","sona":"7672"},{"rt":491.61499999900116,"stimulus":"<p>Bereit?</p>","key_press":32,"trial_type":"html-keyboard-response","trial_index":19,"time_elapsed":57599,"internal_node_id":"0.0-8.0-0.3","subject":"cupylzxnfp5kgmv","sona":"7672"},{"rt":null,"stimulus":"<div style=\"font-size:60px;\">+</div>","key_press":null,"trial_type":"html-keyboard-response","trial_index":20,"time_elapsed":59622,"internal_node_id":"0.0-8.0-1.3","subject":"cupylzxnfp5kgmv","sona":"7672"},{"trial_type":"turing-test","trial_index":21,"time_elapsed":62972,"internal_node_id":"0.0-8.0-2.3","subject":"cupylzxnfp5kgmv","sona":"7672"},{"rt":373.82500000239816,"stimulus":"<p>Welche Sequenz haben Sie als natürlicher empfunden?</p>","key_press":74,"test_part":"response","test_stimulus":{"position":1,"left":"bvh/vr_prediction_models/model(tmp)-dataset(pass-bottle-hold)-numprim(13)-hold(0)/final-lines.txt","right":"bvh/pass-bottle-hold-training0-lines.txt","att_check":false},"trial_type":"html-keyboard-response","trial_index":22,"time_elapsed":63351,"internal_node_id":"0.0-8.0-3.3","subject":"cupylzxnfp5kgmv","sona":"7672"},{"rt":295.1600000014878,"stimulus":"<p>Bereit?</p>","key_press":32,"trial_type":"html-keyboard-response","trial_index":23,"time_elapsed":63650,"internal_node_id":"0.0-8.0-0.4","subject":"cupylzxnfp5kgmv","sona":"7672"},{"rt":null,"stimulus":"<div style=\"font-size:60px;\">+</div>","key_press":null,"trial_type":"html-keyboard-response","trial_index":24,"time_elapsed":65666,"internal_node_id":"0.0-8.0-1.4","subject":"cupylzxnfp5kgmv","sona":"7672"},{"trial_type":"turing-test","trial_index":25,"time_elapsed":71287,"internal_node_id":"0.0-8.0-2.4","subject":"cupylzxnfp5kgmv","sona":"7672"},{"rt":8.03499999892665,"stimulus":"<p>Welche Sequenz haben Sie als natürlicher empfunden?</p>","key_press":70,"test_part":"response","test_stimulus":{"position":0,"left":"bvh/return-bottle-training0-lines.txt","right":"bvh/vr_prediction_models/model(vcgpdm)-dataset(return-bottle)-mode(ELBO)-parts(1)-dyn(35)-lvm(30)-hold(0)/final-lines.txt","att_check":false},"trial_type":"html-keyboard-response","trial_index":26,"time_elapsed":71302,"internal_node_id":"0.0-8.0-3.4","subject":"cupylzxnfp5kgmv","sona":"7672"},{"rt":438.1199999988894,"stimulus":"<p>Bereit?</p>","key_press":32,"trial_type":"html-keyboard-response","trial_index":27,"time_elapsed":71746,"internal_node_id":"0.0-8.0-0.5","subject":"cupylzxnfp5kgmv","sona":"7672"},{"rt":null,"stimulus":"<div style=\"font-size:60px;\">+</div>","key_press":null,"trial_type":"html-keyboard-response","trial_index":28,"time_elapsed":73752,"internal_node_id":"0.0-8.0-1.5","subject":"cupylzxnfp5kgmv","sona":"7672"},{"trial_type":"turing-test","trial_index":29,"time_elapsed":80394,"internal_node_id":"0.0-8.0-2.5","subject":"cupylzxnfp5kgmv","sona":"7672"},{"rt":192.56999999925029,"stimulus":"<p>Welche Sequenz haben Sie als natürlicher empfunden?</p>","key_press":74,"test_part":"response","test_stimulus":{"position":1,"left":"bvh/vr_prediction_models/model(tmp)-dataset(return-bottle)-numprim(8)-hold(2)/final-lines.txt","right":"bvh/return-bottle-training2-lines.txt","att_check":false},"trial_type":"html-keyboard-response","trial_index":30,"time_elapsed":80593,"internal_node_id":"0.0-8.0-3.5","subject":"cupylzxnfp5kgmv","sona":"7672"},{"rt":471.7949999976554,"stimulus":"<p>Bereit?</p>","key_press":32,"trial_type":"html-keyboard-response","trial_index":31,"time_elapsed":81069,"internal_node_id":"0.0-8.0-0.6","subject":"cupylzxnfp5kgmv","sona":"7672"},{"rt":null,"stimulus":"<div style=\"font-size:60px;\">+</div>","key_press":null,"trial_type":"html-keyboard-response","trial_index":32,"time_elapsed":83095,"internal_node_id":"0.0-8.0-1.6","subject":"cupylzxnfp5kgmv","sona":"7672"},{"trial_type":"turing-test","trial_index":33,"time_elapsed":86658,"internal_node_id":"0.0-8.0-2.6","subject":"cupylzxnfp5kgmv","sona":"7672"},{"rt":713.064999996277,"stimulus":"<p>Welche Sequenz haben Sie als natürlicher empfunden?</p>","key_press":70,"test_part":"response","test_stimulus":{"position":0,"left":"bvh/pass-bottle-hold-training2-lines.txt","right":"bvh/vr_prediction_models/model(vcgpdm)-dataset(pass-bottle-hold)-mode(ELBO)-parts(3)-dyn(20)-lvm(15)-hold(2)/final-lines.txt","att_check":false},"trial_type":"html-keyboard-response","trial_index":34,"time_elapsed":87374,"internal_node_id":"0.0-8.0-3.6","subject":"cupylzxnfp5kgmv","sona":"7672"},{"rt":585.0750000026892,"stimulus":"<p>Bereit?</p>","key_press":32,"trial_type":"html-keyboard-response","trial_index":35,"time_elapsed":87963,"internal_node_id":"0.0-8.0-0.7","subject":"cupylzxnfp5kgmv","sona":"7672"},{"rt":null,"stimulus":"<div style=\"font-size:60px;\">+</div>","key_press":null,"trial_type":"html-keyboard-response","trial_index":36,"time_elapsed":89985,"internal_node_id":"0.0-8.0-1.7","subject":"cupylzxnfp5kgmv","sona":"7672"},{"trial_type":"turing-test","trial_index":37,"time_elapsed":96177,"internal_node_id":"0.0-8.0-2.7","subject":"cupylzxnfp5kgmv","sona":"7672"},{"rt":429.9250000040047,"stimulus":"<p>Welche Sequenz haben Sie als natürlicher empfunden?</p>","key_press":70,"test_part":"response","test_stimulus":{"position":0,"left":"bvh/pass-bottle-training3-lines.txt","right":"bvh/vr_prediction_models/model(vcgpdm)-dataset(pass-bottle)-mode(ELBO)-parts(3)-dyn(20)-lvm(15)-hold(3)/final-lines.txt","att_check":false},"trial_type":"html-keyboard-response","trial_index":38,"time_elapsed":96613,"internal_node_id":"0.0-8.0-3.7","subject":"cupylzxnfp5kgmv","sona":"7672"},{"rt":350.6500000003143,"stimulus":"<p>Bereit?</p>","key_press":32,"trial_type":"html-keyboard-response","trial_index":39,"time_elapsed":96966,"internal_node_id":"0.0-8.0-0.8","subject":"cupylzxnfp5kgmv","sona":"7672"},{"rt":null,"stimulus":"<div style=\"font-size:60px;\">+</div>","key_press":null,"trial_type":"html-keyboard-response","trial_index":40,"time_elapsed":98977,"internal_node_id":"0.0-8.0-1.8","subject":"cupylzxnfp5kgmv","sona":"7672"},{"trial_type":"turing-test","trial_index":41,"time_elapsed":102545,"internal_node_id":"0.0-8.0-2.8","subject":"cupylzxnfp5kgmv","sona":"7672"},{"rt":254.4449999986682,"stimulus":"<p>Welche Sequenz haben Sie als natürlicher empfunden?</p>","key_press":70,"test_part":"response","test_stimulus":{"position":0,"left":"bvh/return-bottle-hold-training2-lines.txt","right":"bvh/vr_prediction_models/model(dmp)-dataset(return-bottle-hold)-npsi(60)-hold(2)/final-lines.txt","att_check":false},"trial_type":"html-keyboard-response","trial_index":42,"time_elapsed":102805,"internal_node_id":"0.0-8.0-3.8","subject":"cupylzxnfp5kgmv","sona":"7672"},{"rt":252.30500000179745,"stimulus":"<p>Bereit?</p>","key_press":32,"trial_type":"html-keyboard-response","trial_index":43,"time_elapsed":103064,"internal_node_id":"0.0-8.0-0.9","subject":"cupylzxnfp5kgmv","sona":"7672"},{"rt":null,"stimulus":"<div style=\"font-size:60px;\">+</div>","key_press":null,"trial_type":"html-keyboard-response","trial_index":44,"time_elapsed":105069,"internal_node_id":"0.0-8.0-1.9","subject":"cupylzxnfp5kgmv","sona":"7672"},{"trial_type":"turing-test","trial_index":45,"time_elapsed":108831,"internal_node_id":"0.0-8.0-2.9","subject":"cupylzxnfp5kgmv","sona":"7672"},{"rt":835.7650000034482,"stimulus":"<p>Welche Sequenz haben Sie als natürlicher empfunden?</p>","key_press":74,"test_part":"response","test_stimulus":{"position":0,"left":"bvh/pass-bottle-hold-training3-lines.txt","right":"bvh/vr_prediction_models/model(vcgpdm)-dataset(pass-bottle-hold)-mode(ELBO)-parts(1)-dyn(20)-lvm(5)-hold(3)/final-lines.txt","att_check":false},"trial_type":"html-keyboard-response","trial_index":46,"time_elapsed":109672,"internal_node_id":"0.0-8.0-3.9","subject":"cupylzxnfp5kgmv","sona":"7672"},{"rt":205.24999999906868,"stimulus":"<p>Bereit?</p>","key_press":32,"trial_type":"html-keyboard-response","trial_index":47,"time_elapsed":109881,"internal_node_id":"0.0-8.0-0.10","subject":"cupylzxnfp5kgmv","sona":"7672"},{"rt":null,"stimulus":"<div style=\"font-size:60px;\">+</div>","key_press":null,"trial_type":"html-keyboard-response","trial_index":48,"time_elapsed":111900,"internal_node_id":"0.0-8.0-1.10","subject":"cupylzxnfp5kgmv","sona":"7672"},{"trial_type":"turing-test","trial_index":49,"time_elapsed":118905,"internal_node_id":"0.0-8.0-2.10","subject":"cupylzxnfp5kgmv","sona":"7672"},{"rt":287.40499999548774,"stimulus":"<p>Welche Sequenz haben Sie als natürlicher empfunden?</p>","key_press":74,"test_part":"response","test_stimulus":{"position":1,"left":"bvh/vr_prediction_models/model(vcgpdm)-dataset(pass-bottle)-mode(ELBO)-parts(1)-dyn(10)-lvm(25)-hold(0)/final-lines.txt","right":"bvh/pass-bottle-training0-lines.txt","att_check":false},"trial_type":"html-keyboard-response","trial_index":50,"time_elapsed":119198,"internal_node_id":"0.0-8.0-3.10","subject":"cupylzxnfp5kgmv","sona":"7672"},{"rt":577.6800000021467,"stimulus":"<p>Bereit?</p>","key_press":32,"trial_type":"html-keyboard-response","trial_index":51,"time_elapsed":119781,"internal_node_id":"0.0-8.0-0.11","subject":"cupylzxnfp5kgmv","sona":"7672"},{"rt":null,"stimulus":"<div style=\"font-size:60px;\">+</div>","key_press":null,"trial_type":"html-keyboard-response","trial_index":52,"time_elapsed":121794,"internal_node_id":"0.0-8.0-1.11","subject":"cupylzxnfp5kgmv","sona":"7672"},{"trial_type":"turing-test","trial_index":53,"time_elapsed":125321,"internal_node_id":"0.0-8.0-2.11","subject":"cupylzxnfp5kgmv","sona":"7672"},{"rt":503.3350000012433,"stimulus":"<p>Welche Sequenz haben Sie als natürlicher empfunden?</p>","key_press":70,"test_part":"response","test_stimulus":{"position":1,"left":"bvh/vr_prediction_models/model(tmp)-dataset(return-bottle-hold)-numprim(8)-hold(2)/final-lines.txt","right":"bvh/return-bottle-hold-training2-lines.txt","att_check":false},"trial_type":"html-keyboard-response","trial_index":54,"time_elapsed":125828,"internal_node_id":"0.0-8.0-3.11","subject":"cupylzxnfp5kgmv","sona":"7672"},{"rt":264.035000000149,"stimulus":"<p>Bereit?</p>","key_press":32,"trial_type":"html-keyboard-response","trial_index":55,"time_elapsed":126096,"internal_node_id":"0.0-8.0-0.12","subject":"cupylzxnfp5kgmv","sona":"7672"},{"rt":null,"stimulus":"<div style=\"font-size:60px;\">+</div>","key_press":null,"trial_type":"html-keyboard-response","trial_index":56,"time_elapsed":128110,"internal_node_id":"0.0-8.0-1.12","subject":"cupylzxnfp5kgmv","sona":"7672"},{"trial_type":"turing-test","trial_index":57,"time_elapsed":131966,"internal_node_id":"0.0-8.0-2.12","subject":"cupylzxnfp5kgmv","sona":"7672"},{"rt":172.25499999767635,"stimulus":"<p>Welche Sequenz haben Sie als natürlicher empfunden?</p>","key_press":74,"test_part":"response","test_stimulus":{"position":1,"left":"bvh/vr_prediction_models/model(dmp)-dataset(return-bottle-hold)-npsi(30)-hold(4)/final-lines.txt","right":"bvh/return-bottle-hold-training4-lines.txt","att_check":false},"trial_type":"html-keyboard-response","trial_index":58,"time_elapsed":132145,"internal_node_id":"0.0-8.0-3.12","subject":"cupylzxnfp5kgmv","sona":"7672"},{"rt":280.7649999958812,"stimulus":"<p>Bereit?</p>","key_press":32,"trial_type":"html-keyboard-response","trial_index":59,"time_elapsed":132431,"internal_node_id":"0.0-8.0-0.13","subject":"cupylzxnfp5kgmv","sona":"7672"},{"rt":null,"stimulus":"<div style=\"font-size:60px;\">+</div>","key_press":null,"trial_type":"html-keyboard-response","trial_index":60,"time_elapsed":134451,"internal_node_id":"0.0-8.0-1.13","subject":"cupylzxnfp5kgmv","sona":"7672"},{"trial_type":"turing-test","trial_index":61,"time_elapsed":138068,"internal_node_id":"0.0-8.0-2.13","subject":"cupylzxnfp5kgmv","sona":"7672"},{"rt":78.75999999669148,"stimulus":"<p>Welche Sequenz haben Sie als natürlicher empfunden?</p>","key_press":74,"test_part":"response","test_stimulus":{"position":1,"left":"bvh/vr_prediction_models/model(vcgpdm)-dataset(pass-bottle-hold)-mode(ELBO)-parts(3)-dyn(20)-lvm(20)-hold(0)/final-lines.txt","right":"bvh/pass-bottle-hold-training0-lines.txt","att_check":false},"trial_type":"html-keyboard-response","trial_index":62,"time_elapsed":138152,"internal_node_id":"0.0-8.0-3.13","subject":"cupylzxnfp5kgmv","sona":"7672"},{"rt":232.07499999989523,"stimulus":"<p>Bereit?</p>","key_press":32,"trial_type":"html-keyboard-response","trial_index":63,"time_elapsed":138388,"internal_node_id":"0.0-8.0-0.14","subject":"cupylzxnfp5kgmv","sona":"7672"},{"rt":null,"stimulus":"<div style=\"font-size:60px;\">+</div>","key_press":null,"trial_type":"html-keyboard-response","trial_index":64,"time_elapsed":140407,"internal_node_id":"0.0-8.0-1.14","subject":"cupylzxnfp5kgmv","sona":"7672"},{"trial_type":"turing-test","trial_index":65,"time_elapsed":145694,"internal_node_id":"0.0-8.0-2.14","subject":"cupylzxnfp5kgmv","sona":"7672"},{"rt":52.06499999621883,"stimulus":"<p>Welche Sequenz haben Sie als natürlicher empfunden?</p>","key_press":74,"test_part":"response","test_stimulus":{"position":1,"left":"bvh/vr_prediction_models/model(vcgpdm)-dataset(return-bottle-hold)-mode(ELBO)-parts(1)-dyn(30)-lvm(20)-hold(0)/final-lines.txt","right":"bvh/return-bottle-hold-training0-lines.txt","att_check":false},"trial_type":"html-keyboard-response","trial_index":66,"time_elapsed":145753,"internal_node_id":"0.0-8.0-3.14","subject":"cupylzxnfp5kgmv","sona":"7672"},{"rt":260.89499999943655,"stimulus":"<p>Bereit?</p>","key_press":32,"trial_type":"html-keyboard-response","trial_index":67,"time_elapsed":146019,"internal_node_id":"0.0-8.0-0.15","subject":"cupylzxnfp5kgmv","sona":"7672"},{"rt":null,"stimulus":"<div style=\"font-size:60px;\">+</div>","key_press":null,"trial_type":"html-keyboard-response","trial_index":68,"time_elapsed":148036,"internal_node_id":"0.0-8.0-1.15","subject":"cupylzxnfp5kgmv","sona":"7672"},{"trial_type":"turing-test","trial_index":69,"time_elapsed":155064,"internal_node_id":"0.0-8.0-2.15","subject":"cupylzxnfp5kgmv","sona":"7672"},{"rt":388.23499999853084,"stimulus":"<p>Welche Sequenz haben Sie als natürlicher empfunden?</p>","key_press":70,"test_part":"response","test_stimulus":{"position":0,"left":"bvh/pass-bottle-training0-lines.txt","right":"bvh/vr_prediction_models/model(vcgpdm)-dataset(pass-bottle)-mode(ELBO)-parts(1)-dyn(20)-lvm(30)-hold(0)/final-lines.txt","att_check":false},"trial_type":"html-keyboard-response","trial_index":70,"time_elapsed":155459,"internal_node_id":"0.0-8.0-3.15","subject":"cupylzxnfp5kgmv","sona":"7672"},{"rt":245.47000000166008,"stimulus":"<p>Bereit?</p>","key_press":32,"trial_type":"html-keyboard-response","trial_index":71,"time_elapsed":155709,"internal_node_id":"0.0-8.0-0.16","subject":"cupylzxnfp5kgmv","sona":"7672"},{"rt":null,"stimulus":"<div style=\"font-size:60px;\">+</div>","key_press":null,"trial_type":"html-keyboard-response","trial_index":72,"time_elapsed":157729,"internal_node_id":"0.0-8.0-1.16","subject":"cupylzxnfp5kgmv","sona":"7672"},{"trial_type":"turing-test","trial_index":73,"time_elapsed":163688,"internal_node_id":"0.0-8.0-2.16","subject":"cupylzxnfp5kgmv","sona":"7672"},{"rt":433.9449999970384,"stimulus":"<p>Welche Sequenz haben Sie als natürlicher empfunden?</p>","key_press":74,"test_part":"response","test_stimulus":{"position":1,"left":"bvh/vr_prediction_models/model(vcgpdm)-dataset(pass-bottle)-mode(ELBO)-parts(1)-dyn(30)-lvm(30)-hold(4)/final-lines.txt","right":"bvh/pass-bottle-training4-lines.txt","att_check":false},"trial_type":"html-keyboard-response","trial_index":74,"time_elapsed":164129,"internal_node_id":"0.0-8.0-3.16","subject":"cupylzxnfp5kgmv","sona":"7672"},{"rt":469.1099999981816,"stimulus":"<p>Bereit?</p>","key_press":32,"trial_type":"html-keyboard-response","trial_index":75,"time_elapsed":164603,"internal_node_id":"0.0-8.0-0.17","subject":"cupylzxnfp5kgmv","sona":"7672"},{"rt":null,"stimulus":"<div style=\"font-size:60px;\">+</div>","key_press":null,"trial_type":"html-keyboard-response","trial_index":76,"time_elapsed":166622,"internal_node_id":"0.0-8.0-1.17","subject":"cupylzxnfp5kgmv","sona":"7672"},{"trial_type":"turing-test","trial_index":77,"time_elapsed":172354,"internal_node_id":"0.0-8.0-2.17","subject":"cupylzxnfp5kgmv","sona":"7672"},{"rt":1519.2250000036438,"stimulus":"<p>Welche Sequenz haben Sie als natürlicher empfunden?</p>","key_press":74,"test_part":"response","test_stimulus":{"position":1,"left":"bvh/vr_prediction_models/model(vcgpdm)-dataset(pass-bottle)-mode(ELBO)-parts(3)-dyn(20)-lvm(20)-hold(1)/final-lines.txt","right":"bvh/pass-bottle-training1-lines.txt","att_check":false},"trial_type":"html-keyboard-response","trial_index":78,"time_elapsed":173879,"internal_node_id":"0.0-8.0-3.17","subject":"cupylzxnfp5kgmv","sona":"7672"},{"rt":182.8700000041863,"stimulus":"<p>Bereit?</p>","key_press":32,"trial_type":"html-keyboard-response","trial_index":79,"time_elapsed":174067,"internal_node_id":"0.0-8.0-0.18","subject":"cupylzxnfp5kgmv","sona":"7672"},{"rt":null,"stimulus":"<div style=\"font-size:60px;\">+</div>","key_press":null,"trial_type":"html-keyboard-response","trial_index":80,"time_elapsed":176076,"internal_node_id":"0.0-8.0-1.18","subject":"cupylzxnfp5kgmv","sona":"7672"},{"trial_type":"turing-test","trial_index":81,"time_elapsed":179712,"internal_node_id":"0.0-8.0-2.18","subject":"cupylzxnfp5kgmv","sona":"7672"},{"rt":240.3749999939464,"stimulus":"<p>Welche Sequenz haben Sie als natürlicher empfunden?</p>","key_press":74,"test_part":"response","test_stimulus":{"position":0,"left":"bvh/pass-bottle-hold-training3-lines.txt","right":"bvh/vr_prediction_models/model(tmp)-dataset(pass-bottle-hold)-numprim(11)-hold(3)/final-lines.txt","att_check":false},"trial_type":"html-keyboard-response","trial_index":82,"time_elapsed":179962,"internal_node_id":"0.0-8.0-3.18","subject":"cupylzxnfp5kgmv","sona":"7672"},{"rt":220.2949999991688,"stimulus":"<p>Bereit?</p>","key_press":32,"trial_type":"html-keyboard-response","trial_index":83,"time_elapsed":180187,"internal_node_id":"0.0-8.0-0.19","subject":"cupylzxnfp5kgmv","sona":"7672"},{"rt":null,"stimulus":"<div style=\"font-size:60px;\">+</div>","key_press":null,"trial_type":"html-keyboard-response","trial_index":84,"time_elapsed":182210,"internal_node_id":"0.0-8.0-1.19","subject":"cupylzxnfp5kgmv","sona":"7672"},{"trial_type":"turing-test","trial_index":85,"time_elapsed":189057,"internal_node_id":"0.0-8.0-2.19","subject":"cupylzxnfp5kgmv","sona":"7672"},{"rt":365.6300000002375,"stimulus":"<p>Welche Sequenz haben Sie als natürlicher empfunden?</p>","key_press":74,"test_part":"response","test_stimulus":{"position":1,"left":"bvh/vr_prediction_models/model(vcgpdm)-dataset(pass-bottle)-mode(ELBO)-parts(3)-dyn(10)-lvm(30)-hold(0)/final-lines.txt","right":"bvh/pass-bottle-training0-lines.txt","att_check":false},"trial_type":"html-keyboard-response","trial_index":86,"time_elapsed":189428,"internal_node_id":"0.0-8.0-3.19","subject":"cupylzxnfp5kgmv","sona":"7672"},{"rt":469.890000000305,"stimulus":"<p>Bereit?</p>","key_press":32,"trial_type":"html-keyboard-response","trial_index":87,"time_elapsed":189903,"internal_node_id":"0.0-8.0-0.20","subject":"cupylzxnfp5kgmv","sona":"7672"},{"rt":null,"stimulus":"<div style=\"font-size:60px;\">+</div>","key_press":null,"trial_type":"html-keyboard-response","trial_index":88,"time_elapsed":191914,"internal_node_id":"0.0-8.0-1.20","subject":"cupylzxnfp5kgmv","sona":"7672"},{"trial_type":"turing-test","trial_index":89,"time_elapsed":197642,"internal_node_id":"0.0-8.0-2.20","subject":"cupylzxnfp5kgmv","sona":"7672"},{"rt":565.1100000031875,"stimulus":"<p>Welche Sequenz haben Sie als natürlicher empfunden?</p>","key_press":74,"test_part":"response","test_stimulus":{"position":1,"left":"bvh/vr_prediction_models/model(vcgpdm)-dataset(pass-bottle)-mode(ELBO)-parts(3)-dyn(25)-lvm(30)-hold(1)/final-lines.txt","right":"bvh/pass-bottle-training1-lines.txt","att_check":false},"trial_type":"html-keyboard-response","trial_index":90,"time_elapsed":198213,"internal_node_id":"0.0-8.0-3.20","subject":"cupylzxnfp5kgmv","sona":"7672"},{"rt":298.4199999991688,"stimulus":"<p>Bereit?</p>","key_press":32,"trial_type":"html-keyboard-response","trial_index":91,"time_elapsed":198519,"internal_node_id":"0.0-8.0-0.21","subject":"cupylzxnfp5kgmv","sona":"7672"},{"rt":null,"stimulus":"<div style=\"font-size:60px;\">+</div>","key_press":null,"trial_type":"html-keyboard-response","trial_index":92,"time_elapsed":200525,"internal_node_id":"0.0-8.0-1.21","subject":"cupylzxnfp5kgmv","sona":"7672"},{"trial_type":"turing-test","trial_index":93,"time_elapsed":205980,"internal_node_id":"0.0-8.0-2.21","subject":"cupylzxnfp5kgmv","sona":"7672"},{"rt":155.68500000517815,"stimulus":"<p>Welche Sequenz haben Sie als natürlicher empfunden?</p>","key_press":74,"test_part":"response","test_stimulus":{"position":1,"left":"bvh/vr_prediction_models/model(vcgpdm)-dataset(pass-bottle)-mode(ELBO)-parts(3)-dyn(25)-lvm(30)-hold(1)/final-lines.txt","right":"bvh/pass-bottle-training1-lines.txt","att_check":false},"trial_type":"html-keyboard-response","trial_index":94,"time_elapsed":206142,"internal_node_id":"0.0-8.0-3.21","subject":"cupylzxnfp5kgmv","sona":"7672"},{"rt":278.8300000029267,"stimulus":"<p>Bereit?</p>","key_press":32,"trial_type":"html-keyboard-response","trial_index":95,"time_elapsed":206426,"internal_node_id":"0.0-8.0-0.22","subject":"cupylzxnfp5kgmv","sona":"7672"},{"rt":null,"stimulus":"<div style=\"font-size:60px;\">+</div>","key_press":null,"trial_type":"html-keyboard-response","trial_index":96,"time_elapsed":208439,"internal_node_id":"0.0-8.0-1.22","subject":"cupylzxnfp5kgmv","sona":"7672"},{"trial_type":"turing-test","trial_index":97,"time_elapsed":214086,"internal_node_id":"0.0-8.0-2.22","subject":"cupylzxnfp5kgmv","sona":"7672"},{"rt":823.2349999962025,"stimulus":"<p>Welche Sequenz haben Sie als natürlicher empfunden?</p>","key_press":70,"test_part":"response","test_stimulus":{"position":0,"left":"bvh/pass-bottle-training1-lines.txt","right":"bvh/vr_prediction_models/model(vcgpdm)-dataset(pass-bottle)-mode(ELBO)-parts(3)-dyn(10)-lvm(30)-hold(1)/final-lines.txt","att_check":false},"trial_type":"html-keyboard-response","trial_index":98,"time_elapsed":214916,"internal_node_id":"0.0-8.0-3.22","subject":"cupylzxnfp5kgmv","sona":"7672"},{"rt":188.76499999896623,"stimulus":"<p>Bereit?</p>","key_press":32,"trial_type":"html-keyboard-response","trial_index":99,"time_elapsed":215112,"internal_node_id":"0.0-8.0-0.23","subject":"cupylzxnfp5kgmv","sona":"7672"},{"rt":null,"stimulus":"<div style=\"font-size:60px;\">+</div>","key_press":null,"trial_type":"html-keyboard-response","trial_index":100,"time_elapsed":217126,"internal_node_id":"0.0-8.0-1.23","subject":"cupylzxnfp5kgmv","sona":"7672"},{"trial_type":"turing-test","trial_index":101,"time_elapsed":221162,"internal_node_id":"0.0-8.0-2.23","subject":"cupylzxnfp5kgmv","sona":"7672"},{"rt":267.3350000040955,"stimulus":"<p>Welche Sequenz haben Sie als natürlicher empfunden?</p>","key_press":74,"test_part":"response","test_stimulus":{"position":1,"left":"bvh/vr_prediction_models/model(vcgpdm)-dataset(return-bottle-hold)-mode(ELBO)-parts(1)-dyn(30)-lvm(30)-hold(4)/final-lines.txt","right":"bvh/return-bottle-hold-training4-lines.txt","att_check":false},"trial_type":"html-keyboard-response","trial_index":102,"time_elapsed":221439,"internal_node_id":"0.0-8.0-3.23","subject":"cupylzxnfp5kgmv","sona":"7672"},{"rt":330.2800000019488,"stimulus":"<p>Bereit?</p>","key_press":32,"trial_type":"html-keyboard-response","trial_index":103,"time_elapsed":221773,"internal_node_id":"0.0-8.0-0.24","subject":"cupylzxnfp5kgmv","sona":"7672"},{"rt":null,"stimulus":"<div style=\"font-size:60px;\">+</div>","key_press":null,"trial_type":"html-keyboard-response","trial_index":104,"time_elapsed":223798,"internal_node_id":"0.0-8.0-1.24","subject":"cupylzxnfp5kgmv","sona":"7672"},{"trial_type":"turing-test","trial_index":105,"time_elapsed":227412,"internal_node_id":"0.0-8.0-2.24","subject":"cupylzxnfp5kgmv","sona":"7672"},{"rt":509.03500000276836,"stimulus":"<p>Welche Sequenz haben Sie als natürlicher empfunden?</p>","key_press":70,"test_part":"response","test_stimulus":{"position":1,"left":"bvh/vr_prediction_models/model(tmp)-dataset(pass-bottle-hold)-numprim(9)-hold(3)/final-lines.txt","right":"bvh/pass-bottle-hold-training3-lines.txt","att_check":false},"trial_type":"html-keyboard-response","trial_index":106,"time_elapsed":227927,"internal_node_id":"0.0-8.0-3.24","subject":"cupylzxnfp5kgmv","sona":"7672"},{"rt":107.98499999509659,"stimulus":"<p>Bereit?</p>","key_press":32,"trial_type":"html-keyboard-response","trial_index":107,"time_elapsed":228040,"internal_node_id":"0.0-8.0-0.25","subject":"cupylzxnfp5kgmv","sona":"7672"},{"rt":null,"stimulus":"<div style=\"font-size:60px;\">+</div>","key_press":null,"trial_type":"html-keyboard-response","trial_index":108,"time_elapsed":230045,"internal_node_id":"0.0-8.0-1.25","subject":"cupylzxnfp5kgmv","sona":"7672"},{"trial_type":"turing-test","trial_index":109,"time_elapsed":236656,"internal_node_id":"0.0-8.0-2.25","subject":"cupylzxnfp5kgmv","sona":"7672"},{"rt":275.36500000132946,"stimulus":"<p>Welche Sequenz haben Sie als natürlicher empfunden?</p>","key_press":74,"test_part":"response","test_stimulus":{"position":0,"left":"bvh/return-bottle-training2-lines.txt","right":"bvh/vr_prediction_models/model(tmp)-dataset(return-bottle)-numprim(14)-hold(2)/final-lines.txt","att_check":false},"trial_type":"html-keyboard-response","trial_index":110,"time_elapsed":236941,"internal_node_id":"0.0-8.0-3.25","subject":"cupylzxnfp5kgmv","sona":"7672"},{"rt":290.30999999667984,"stimulus":"<p>Bereit?</p>","key_press":32,"trial_type":"html-keyboard-response","trial_index":111,"time_elapsed":237237,"internal_node_id":"0.0-8.0-0.26","subject":"cupylzxnfp5kgmv","sona":"7672"},{"rt":null,"stimulus":"<div style=\"font-size:60px;\">+</div>","key_press":null,"trial_type":"html-keyboard-response","trial_index":112,"time_elapsed":239262,"internal_node_id":"0.0-8.0-1.26","subject":"cupylzxnfp5kgmv","sona":"7672"},{"trial_type":"turing-test","trial_index":113,"time_elapsed":244862,"internal_node_id":"0.0-8.0-2.26","subject":"cupylzxnfp5kgmv","sona":"7672"},{"rt":1561.8299999987357,"stimulus":"<p>Welche Sequenz haben Sie als natürlicher empfunden?</p>","key_press":70,"test_part":"response","test_stimulus":{"position":0,"left":"bvh/return-bottle-training0-lines.txt","right":"bvh/vr_prediction_models/model(dmp)-dataset(return-bottle)-npsi(30)-hold(0)/final-lines.txt","att_check":false},"trial_type":"html-keyboard-response","trial_index":114,"time_elapsed":246430,"internal_node_id":"0.0-8.0-3.26","subject":"cupylzxnfp5kgmv","sona":"7672"},{"rt":193.60500000038883,"stimulus":"<p>Bereit?</p>","key_press":32,"trial_type":"html-keyboard-response","trial_index":115,"time_elapsed":246629,"internal_node_id":"0.0-8.0-0.27","subject":"cupylzxnfp5kgmv","sona":"7672"},{"rt":null,"stimulus":"<div style=\"font-size:60px;\">+</div>","key_press":null,"trial_type":"html-keyboard-response","trial_index":116,"time_elapsed":248641,"internal_node_id":"0.0-8.0-1.27","subject":"cupylzxnfp5kgmv","sona":"7672"},{"trial_type":"turing-test","trial_index":117,"time_elapsed":254441,"internal_node_id":"0.0-8.0-2.27","subject":"cupylzxnfp5kgmv","sona":"7672"},{"rt":310.6649999972433,"stimulus":"<p>Welche Sequenz haben Sie als natürlicher empfunden?</p>","key_press":70,"test_part":"response","test_stimulus":{"position":0,"left":"bvh/pass-bottle-training1-lines.txt","right":"bvh/vr_prediction_models/model(vcgpdm)-dataset(pass-bottle)-mode(ELBO)-parts(1)-dyn(20)-lvm(20)-hold(1)/final-lines.txt","att_check":false},"trial_type":"html-keyboard-response","trial_index":118,"time_elapsed":254758,"internal_node_id":"0.0-8.0-3.27","subject":"cupylzxnfp5kgmv","sona":"7672"},{"rt":240.15499999950407,"stimulus":"<p>Bereit?</p>","key_press":32,"trial_type":"html-keyboard-response","trial_index":119,"time_elapsed":255001,"internal_node_id":"0.0-8.0-0.28","subject":"cupylzxnfp5kgmv","sona":"7672"},{"rt":null,"stimulus":"<div style=\"font-size:60px;\">+</div>","key_press":null,"trial_type":"html-keyboard-response","trial_index":120,"time_elapsed":257014,"internal_node_id":"0.0-8.0-1.28","subject":"cupylzxnfp5kgmv","sona":"7672"},{"trial_type":"turing-test","trial_index":121,"time_elapsed":260512,"internal_node_id":"0.0-8.0-2.28","subject":"cupylzxnfp5kgmv","sona":"7672"},{"rt":811.7899999997462,"stimulus":"<p>Welche Sequenz haben Sie als natürlicher empfunden?</p>","key_press":74,"test_part":"response","test_stimulus":{"position":0,"left":"bvh/pass-bottle-hold-training1-lines.txt","right":"bvh/vr_prediction_models/model(vcgpdm)-dataset(pass-bottle-hold)-mode(ELBO)-parts(3)-dyn(10)-lvm(30)-hold(1)/final-lines.txt","att_check":false},"trial_type":"html-keyboard-response","trial_index":122,"time_elapsed":261327,"internal_node_id":"0.0-8.0-3.28","subject":"cupylzxnfp5kgmv","sona":"7672"},{"rt":118.09999999968568,"stimulus":"<p>Bereit?</p>","key_press":32,"trial_type":"html-keyboard-response","trial_index":123,"time_elapsed":261447,"internal_node_id":"0.0-8.0-0.29","subject":"cupylzxnfp5kgmv","sona":"7672"},{"rt":null,"stimulus":"<div style=\"font-size:60px;\">+</div>","key_press":null,"trial_type":"html-keyboard-response","trial_index":124,"time_elapsed":263468,"internal_node_id":"0.0-8.0-1.29","subject":"cupylzxnfp5kgmv","sona":"7672"},{"trial_type":"turing-test","trial_index":125,"time_elapsed":269612,"internal_node_id":"0.0-8.0-2.29","subject":"cupylzxnfp5kgmv","sona":"7672"},{"rt":325.9299999990617,"stimulus":"<p>Welche Sequenz haben Sie als natürlicher empfunden?</p>","key_press":74,"test_part":"response","test_stimulus":{"position":1,"left":"bvh/vr_prediction_models/model(vcgpdm)-dataset(return-bottle)-mode(ELBO)-parts(1)-dyn(25)-lvm(35)-hold(4)/final-lines.txt","right":"bvh/return-bottle-training4-lines.txt","att_check":false},"trial_type":"html-keyboard-response","trial_index":126,"time_elapsed":269941,"internal_node_id":"0.0-8.0-3.29","subject":"cupylzxnfp5kgmv","sona":"7672"},{"rt":210.07499999541324,"stimulus":"<p>Bereit?</p>","key_press":32,"trial_type":"html-keyboard-response","trial_index":127,"time_elapsed":270154,"internal_node_id":"0.0-8.0-0.30","subject":"cupylzxnfp5kgmv","sona":"7672"},{"rt":null,"stimulus":"<div style=\"font-size:60px;\">+</div>","key_press":null,"trial_type":"html-keyboard-response","trial_index":128,"time_elapsed":272177,"internal_node_id":"0.0-8.0-1.30","subject":"cupylzxnfp5kgmv","sona":"7672"},{"trial_type":"turing-test","trial_index":129,"time_elapsed":275853,"internal_node_id":"0.0-8.0-2.30","subject":"cupylzxnfp5kgmv","sona":"7672"},{"rt":742.9249999986496,"stimulus":"<p>Welche Sequenz haben Sie als natürlicher empfunden?</p>","key_press":70,"test_part":"response","test_stimulus":{"position":0,"left":"bvh/return-bottle-hold-training3-lines.txt","right":"bvh/vr_prediction_models/model(dmp)-dataset(return-bottle-hold)-npsi(80)-hold(3)/final-lines.txt","att_check":false},"trial_type":"html-keyboard-response","trial_index":130,"time_elapsed":276598,"internal_node_id":"0.0-8.0-3.30","subject":"cupylzxnfp5kgmv","sona":"7672"},{"rt":170.83499999716878,"stimulus":"<p>Bereit?</p>","key_press":32,"trial_type":"html-keyboard-response","trial_index":131,"time_elapsed":276771,"internal_node_id":"0.0-8.0-0.31","subject":"cupylzxnfp5kgmv","sona":"7672"},{"rt":null,"stimulus":"<div style=\"font-size:60px;\">+</div>","key_press":null,"trial_type":"html-keyboard-response","trial_index":132,"time_elapsed":278779,"internal_node_id":"0.0-8.0-1.31","subject":"cupylzxnfp5kgmv","sona":"7672"},{"trial_type":"turing-test","trial_index":133,"time_elapsed":284967,"internal_node_id":"0.0-8.0-2.31","subject":"cupylzxnfp5kgmv","sona":"7672"},{"rt":1247.3050000044168,"stimulus":"<p>Welche Sequenz haben Sie als natürlicher empfunden?</p>","key_press":74,"test_part":"response","test_stimulus":{"position":1,"left":"bvh/vr_prediction_models/model(tmp)-dataset(pass-bottle)-numprim(9)-hold(2)/final-lines.txt","right":"bvh/pass-bottle-training2-lines.txt","att_check":false},"trial_type":"html-keyboard-response","trial_index":134,"time_elapsed":286219,"internal_node_id":"0.0-8.0-3.31","subject":"cupylzxnfp5kgmv","sona":"7672"},{"rt":157.1399999957066,"stimulus":"<p>Bereit?</p>","key_press":32,"trial_type":"html-keyboard-response","trial_index":135,"time_elapsed":286378,"internal_node_id":"0.0-8.0-0.32","subject":"cupylzxnfp5kgmv","sona":"7672"},{"rt":null,"stimulus":"<div style=\"font-size:60px;\">+</div>","key_press":null,"trial_type":"html-keyboard-response","trial_index":136,"time_elapsed":288400,"internal_node_id":"0.0-8.0-1.32","subject":"cupylzxnfp5kgmv","sona":"7672"},{"trial_type":"turing-test","trial_index":137,"time_elapsed":295211,"internal_node_id":"0.0-8.0-2.32","subject":"cupylzxnfp5kgmv","sona":"7672"},{"rt":1630.5849999989732,"stimulus":"<p>Welche Sequenz haben Sie als natürlicher empfunden?</p>","key_press":74,"test_part":"response","test_stimulus":{"position":1,"left":"bvh/vr_prediction_models/model(dmp)-dataset(pass-bottle)-npsi(20)-hold(0)/final-lines.txt","right":"bvh/pass-bottle-training0-lines.txt","att_check":false},"trial_type":"html-keyboard-response","trial_index":138,"time_elapsed":296847,"internal_node_id":"0.0-8.0-3.32","subject":"cupylzxnfp5kgmv","sona":"7672"},{"rt":129.8800000004121,"stimulus":"<p>Bereit?</p>","key_press":32,"trial_type":"html-keyboard-response","trial_index":139,"time_elapsed":296979,"internal_node_id":"0.0-8.0-0.33","subject":"cupylzxnfp5kgmv","sona":"7672"},{"rt":null,"stimulus":"<div style=\"font-size:60px;\">+</div>","key_press":null,"trial_type":"html-keyboard-response","trial_index":140,"time_elapsed":299007,"internal_node_id":"0.0-8.0-1.33","subject":"cupylzxnfp5kgmv","sona":"7672"},{"trial_type":"turing-test","trial_index":141,"time_elapsed":302593,"internal_node_id":"0.0-8.0-2.33","subject":"cupylzxnfp5kgmv","sona":"7672"},{"rt":495.9249999956228,"stimulus":"<p>Welche Sequenz haben Sie als natürlicher empfunden?</p>","key_press":74,"test_part":"response","test_stimulus":{"position":0,"left":"bvh/pass-bottle-hold-training3-lines.txt","right":"bvh/vr_prediction_models/model(dmp)-dataset(pass-bottle-hold)-npsi(40)-hold(3)/final-lines.txt","att_check":false},"trial_type":"html-keyboard-response","trial_index":142,"time_elapsed":303095,"internal_node_id":"0.0-8.0-3.33","subject":"cupylzxnfp5kgmv","sona":"7672"},{"rt":174.36499999894295,"stimulus":"<p>Bereit?</p>","key_press":32,"trial_type":"html-keyboard-response","trial_index":143,"time_elapsed":303275,"internal_node_id":"0.0-8.0-0.34","subject":"cupylzxnfp5kgmv","sona":"7672"},{"rt":null,"stimulus":"<div style=\"font-size:60px;\">+</div>","key_press":null,"trial_type":"html-keyboard-response","trial_index":144,"time_elapsed":305295,"internal_node_id":"0.0-8.0-1.34","subject":"cupylzxnfp5kgmv","sona":"7672"},{"trial_type":"turing-test","trial_index":145,"time_elapsed":308705,"internal_node_id":"0.0-8.0-2.34","subject":"cupylzxnfp5kgmv","sona":"7672"},{"rt":249.09499999921536,"stimulus":"<p>Welche Sequenz haben Sie als natürlicher empfunden?</p>","key_press":74,"test_part":"response","test_stimulus":{"position":1,"left":"bvh/vr_prediction_models/model(dmp)-dataset(return-bottle-hold)-npsi(100)-hold(1)/final-lines.txt","right":"bvh/return-bottle-hold-training1-lines.txt","att_check":false},"trial_type":"html-keyboard-response","trial_index":146,"time_elapsed":308961,"internal_node_id":"0.0-8.0-3.34","subject":"cupylzxnfp5kgmv","sona":"7672"},{"rt":178.58999999589287,"stimulus":"<p>Bereit?</p>","key_press":32,"trial_type":"html-keyboard-response","trial_index":147,"time_elapsed":309144,"internal_node_id":"0.0-8.0-0.35","subject":"cupylzxnfp5kgmv","sona":"7672"},{"rt":null,"stimulus":"<div style=\"font-size:60px;\">+</div>","key_press":null,"trial_type":"html-keyboard-response","trial_index":148,"time_elapsed":311159,"internal_node_id":"0.0-8.0-1.35","subject":"cupylzxnfp5kgmv","sona":"7672"},{"trial_type":"turing-test","trial_index":149,"time_elapsed":314576,"internal_node_id":"0.0-8.0-2.35","subject":"cupylzxnfp5kgmv","sona":"7672"},{"rt":853.8400000034017,"stimulus":"<p>Welche Sequenz haben Sie als natürlicher empfunden?</p>","key_press":70,"test_part":"response","test_stimulus":{"position":1,"left":"bvh/vr_prediction_models/model(dmp)-dataset(pass-bottle-hold)-npsi(90)-hold(0)/final-lines.txt","right":"bvh/pass-bottle-hold-training0-lines.txt","att_check":false},"trial_type":"html-keyboard-response","trial_index":150,"time_elapsed":315439,"internal_node_id":"0.0-8.0-3.35","subject":"cupylzxnfp5kgmv","sona":"7672"},{"rt":107.47999999875901,"stimulus":"<p>Bereit?</p>","key_press":32,"trial_type":"html-keyboard-response","trial_index":151,"time_elapsed":315551,"internal_node_id":"0.0-8.0-0.36","subject":"cupylzxnfp5kgmv","sona":"7672"},{"rt":null,"stimulus":"<div style=\"font-size:60px;\">+</div>","key_press":null,"trial_type":"html-keyboard-response","trial_index":152,"time_elapsed":317570,"internal_node_id":"0.0-8.0-1.36","subject":"cupylzxnfp5kgmv","sona":"7672"},{"trial_type":"turing-test","trial_index":153,"time_elapsed":321144,"internal_node_id":"0.0-8.0-2.36","subject":"cupylzxnfp5kgmv","sona":"7672"},{"rt":333.2850000006147,"stimulus":"<p>Welche Sequenz haben Sie als natürlicher empfunden?</p>","key_press":74,"test_part":"response","test_stimulus":{"position":1,"left":"bvh/vr_prediction_models/model(dmp)-dataset(return-bottle-hold)-npsi(100)-hold(2)/final-lines.txt","right":"bvh/return-bottle-hold-training2-lines.txt","att_check":false},"trial_type":"html-keyboard-response","trial_index":154,"time_elapsed":321485,"internal_node_id":"0.0-8.0-3.36","subject":"cupylzxnfp5kgmv","sona":"7672"},{"rt":145.53999999770895,"stimulus":"<p>Bereit?</p>","key_press":32,"trial_type":"html-keyboard-response","trial_index":155,"time_elapsed":321637,"internal_node_id":"0.0-8.0-0.37","subject":"cupylzxnfp5kgmv","sona":"7672"},{"rt":null,"stimulus":"<div style=\"font-size:60px;\">+</div>","key_press":null,"trial_type":"html-keyboard-response","trial_index":156,"time_elapsed":323662,"internal_node_id":"0.0-8.0-1.37","subject":"cupylzxnfp5kgmv","sona":"7672"},{"trial_type":"turing-test","trial_index":157,"time_elapsed":327072,"internal_node_id":"0.0-8.0-2.37","subject":"cupylzxnfp5kgmv","sona":"7672"},{"rt":219.5449999999255,"stimulus":"<p>Welche Sequenz haben Sie als natürlicher empfunden?</p>","key_press":74,"test_part":"response","test_stimulus":{"position":1,"left":"bvh/vr_prediction_models/model(tmp)-dataset(pass-bottle-hold)-numprim(4)-hold(2)/final-lines.txt","right":"bvh/pass-bottle-hold-training2-lines.txt","att_check":false},"trial_type":"html-keyboard-response","trial_index":158,"time_elapsed":327299,"internal_node_id":"0.0-8.0-3.37","subject":"cupylzxnfp5kgmv","sona":"7672"},{"rt":142.57500000530854,"stimulus":"<p>Bereit?</p>","key_press":32,"trial_type":"html-keyboard-response","trial_index":159,"time_elapsed":327447,"internal_node_id":"0.0-8.0-0.38","subject":"cupylzxnfp5kgmv","sona":"7672"},{"rt":null,"stimulus":"<div style=\"font-size:60px;\">+</div>","key_press":null,"trial_type":"html-keyboard-response","trial_index":160,"time_elapsed":329468,"internal_node_id":"0.0-8.0-1.38","subject":"cupylzxnfp5kgmv","sona":"7672"},{"trial_type":"turing-test","trial_index":161,"time_elapsed":333020,"internal_node_id":"0.0-8.0-2.38","subject":"cupylzxnfp5kgmv","sona":"7672"},{"rt":714.5999999993364,"stimulus":"<p>Welche Sequenz haben Sie als natürlicher empfunden?</p>","key_press":70,"test_part":"response","test_stimulus":{"position":0,"left":"bvh/pass-bottle-hold-training1-lines.txt","right":"bvh/vr_prediction_models/model(vcgpdm)-dataset(pass-bottle-hold)-mode(ELBO)-parts(3)-dyn(25)-lvm(25)-hold(1)/final-lines.txt","att_check":false},"trial_type":"html-keyboard-response","trial_index":162,"time_elapsed":333742,"internal_node_id":"0.0-8.0-3.38","subject":"cupylzxnfp5kgmv","sona":"7672"},{"rt":97.49500000179978,"stimulus":"<p>Bereit?</p>","key_press":32,"trial_type":"html-keyboard-response","trial_index":163,"time_elapsed":333846,"internal_node_id":"0.0-8.0-0.39","subject":"cupylzxnfp5kgmv","sona":"7672"},{"rt":null,"stimulus":"<div style=\"font-size:60px;\">+</div>","key_press":null,"trial_type":"html-keyboard-response","trial_index":164,"time_elapsed":335866,"internal_node_id":"0.0-8.0-1.39","subject":"cupylzxnfp5kgmv","sona":"7672"},{"trial_type":"turing-test","trial_index":165,"time_elapsed":339466,"internal_node_id":"0.0-8.0-2.39","subject":"cupylzxnfp5kgmv","sona":"7672"},{"rt":403.2450000013341,"stimulus":"<p>Welche Sequenz haben Sie als natürlicher empfunden?</p>","key_press":70,"test_part":"response","test_stimulus":{"position":0,"left":"bvh/return-bottle-hold-training1-lines.txt","right":"bvh/vr_prediction_models/model(vcgpdm)-dataset(return-bottle-hold)-mode(ELBO)-parts(3)-dyn(10)-lvm(25)-hold(1)/final-lines.txt","att_check":false},"trial_type":"html-keyboard-response","trial_index":166,"time_elapsed":339875,"internal_node_id":"0.0-8.0-3.39","subject":"cupylzxnfp5kgmv","sona":"7672"},{"rt":147.51500000420492,"stimulus":"<p>Bereit?</p>","key_press":32,"trial_type":"html-keyboard-response","trial_index":167,"time_elapsed":340028,"internal_node_id":"0.0-8.0-0.40","subject":"cupylzxnfp5kgmv","sona":"7672"},{"rt":null,"stimulus":"<div style=\"font-size:60px;\">+</div>","key_press":null,"trial_type":"html-keyboard-response","trial_index":168,"time_elapsed":342053,"internal_node_id":"0.0-8.0-1.40","subject":"cupylzxnfp5kgmv","sona":"7672"},{"trial_type":"turing-test","trial_index":169,"time_elapsed":348077,"internal_node_id":"0.0-8.0-2.40","subject":"cupylzxnfp5kgmv","sona":"7672"},{"rt":327.9049999982817,"stimulus":"<p>Welche Sequenz haben Sie als natürlicher empfunden?</p>","key_press":70,"test_part":"response","test_stimulus":{"position":0,"left":"bvh/return-bottle-training4-lines.txt","right":"bvh/vr_prediction_models/model(vcgpdm)-dataset(return-bottle)-mode(ELBO)-parts(3)-dyn(30)-lvm(15)-hold(4)/final-lines.txt","att_check":false},"trial_type":"html-keyboard-response","trial_index":170,"time_elapsed":348412,"internal_node_id":"0.0-8.0-3.40","subject":"cupylzxnfp5kgmv","sona":"7672"},{"rt":137.94499999494292,"stimulus":"<p>Bereit?</p>","key_press":32,"trial_type":"html-keyboard-response","trial_index":171,"time_elapsed":348556,"internal_node_id":"0.0-8.0-0.41","subject":"cupylzxnfp5kgmv","sona":"7672"},{"rt":null,"stimulus":"<div style=\"font-size:60px;\">+</div>","key_press":null,"trial_type":"html-keyboard-response","trial_index":172,"time_elapsed":350563,"internal_node_id":"0.0-8.0-1.41","subject":"cupylzxnfp5kgmv","sona":"7672"},{"trial_type":"turing-test","trial_index":173,"time_elapsed":354256,"internal_node_id":"0.0-8.0-2.41","subject":"cupylzxnfp5kgmv","sona":"7672"},{"rt":272.38499999657506,"stimulus":"<p>Welche Sequenz haben Sie als natürlicher empfunden?</p>","key_press":74,"test_part":"response","test_stimulus":{"position":0,"left":"bvh/return-bottle-hold-training2-lines.txt","right":"bvh/vr_prediction_models/model(vcgpdm)-dataset(return-bottle-hold)-mode(ELBO)-parts(3)-dyn(25)-lvm(15)-hold(2)/final-lines.txt","att_check":false},"trial_type":"html-keyboard-response","trial_index":174,"time_elapsed":354535,"internal_node_id":"0.0-8.0-3.41","subject":"cupylzxnfp5kgmv","sona":"7672"},{"rt":115.51499999768566,"stimulus":"<p>Bereit?</p>","key_press":32,"trial_type":"html-keyboard-response","trial_index":175,"time_elapsed":354656,"internal_node_id":"0.0-8.0-0.42","subject":"cupylzxnfp5kgmv","sona":"7672"},{"rt":null,"stimulus":"<div style=\"font-size:60px;\">+</div>","key_press":null,"trial_type":"html-keyboard-response","trial_index":176,"time_elapsed":356664,"internal_node_id":"0.0-8.0-1.42","subject":"cupylzxnfp5kgmv","sona":"7672"},{"trial_type":"turing-test","trial_index":177,"time_elapsed":360355,"internal_node_id":"0.0-8.0-2.42","subject":"cupylzxnfp5kgmv","sona":"7672"},{"rt":255.56499999947846,"stimulus":"<p>Welche Sequenz haben Sie als natürlicher empfunden?</p>","key_press":70,"test_part":"response","test_stimulus":{"position":0,"left":"bvh/pass-bottle-hold-training2-lines.txt","right":"bvh/vr_prediction_models/model(vcgpdm)-dataset(pass-bottle-hold)-mode(ELBO)-parts(1)-dyn(5)-lvm(5)-hold(2)/final-lines.txt","att_check":false},"trial_type":"html-keyboard-response","trial_index":178,"time_elapsed":360618,"internal_node_id":"0.0-8.0-3.42","subject":"cupylzxnfp5kgmv","sona":"7672"},{"rt":133.1650000065565,"stimulus":"<p>Bereit?</p>","key_press":32,"trial_type":"html-keyboard-response","trial_index":179,"time_elapsed":360757,"internal_node_id":"0.0-8.0-0.43","subject":"cupylzxnfp5kgmv","sona":"7672"},{"rt":null,"stimulus":"<div style=\"font-size:60px;\">+</div>","key_press":null,"trial_type":"html-keyboard-response","trial_index":180,"time_elapsed":362774,"internal_node_id":"0.0-8.0-1.43","subject":"cupylzxnfp5kgmv","sona":"7672"},{"trial_type":"turing-test","trial_index":181,"time_elapsed":366191,"internal_node_id":"0.0-8.0-2.43","subject":"cupylzxnfp5kgmv","sona":"7672"},{"rt":246.72499999724096,"stimulus":"<p>Welche Sequenz haben Sie als natürlicher empfunden?</p>","key_press":70,"test_part":"response","test_stimulus":{"position":0,"left":"bvh/pass-bottle-hold-training2-lines.txt","right":"bvh/vr_prediction_models/model(dmp)-dataset(pass-bottle-hold)-npsi(50)-hold(2)/final-lines.txt","att_check":true},"trial_type":"html-keyboard-response","trial_index":182,"time_elapsed":366444,"internal_node_id":"0.0-8.0-3.43","subject":"cupylzxnfp5kgmv","sona":"7672"},{"rt":136.20000000082655,"stimulus":"<p>Bereit?</p>","key_press":32,"trial_type":"html-keyboard-response","trial_index":183,"time_elapsed":366588,"internal_node_id":"0.0-8.0-0.44","subject":"cupylzxnfp5kgmv","sona":"7672"},{"rt":null,"stimulus":"<div style=\"font-size:60px;\">+</div>","key_press":null,"trial_type":"html-keyboard-response","trial_index":184,"time_elapsed":368598,"internal_node_id":"0.0-8.0-1.44","subject":"cupylzxnfp5kgmv","sona":"7672"},{"trial_type":"turing-test","trial_index":185,"time_elapsed":376000,"internal_node_id":"0.0-8.0-2.44","subject":"cupylzxnfp5kgmv","sona":"7672"},{"rt":789.8449999993318,"stimulus":"<p>Welche Sequenz haben Sie als natürlicher empfunden?</p>","key_press":74,"test_part":"response","test_stimulus":{"position":0,"left":"bvh/return-bottle-training2-lines.txt","right":"bvh/vr_prediction_models/model(dmp)-dataset(return-bottle)-npsi(70)-hold(2)/final-lines.txt","att_check":true},"trial_type":"html-keyboard-response","trial_index":186,"time_elapsed":376796,"internal_node_id":"0.0-8.0-3.44","subject":"cupylzxnfp5kgmv","sona":"7672"},{"rt":309.05499999789754,"stimulus":"<p>Bereit?</p>","key_press":32,"trial_type":"html-keyboard-response","trial_index":187,"time_elapsed":377112,"internal_node_id":"0.0-8.0-0.45","subject":"cupylzxnfp5kgmv","sona":"7672"},{"rt":null,"stimulus":"<div style=\"font-size:60px;\">+</div>","key_press":null,"trial_type":"html-keyboard-response","trial_index":188,"time_elapsed":379116,"internal_node_id":"0.0-8.0-1.45","subject":"cupylzxnfp5kgmv","sona":"7672"},{"trial_type":"turing-test","trial_index":189,"time_elapsed":384655,"internal_node_id":"0.0-8.0-2.45","subject":"cupylzxnfp5kgmv","sona":"7672"},{"rt":400.1399999979185,"stimulus":"<p>Welche Sequenz haben Sie als natürlicher empfunden?</p>","key_press":74,"test_part":"response","test_stimulus":{"position":1,"left":"bvh/vr_prediction_models/model(tmp)-dataset(pass-bottle)-numprim(12)-hold(1)/final-lines.txt","right":"bvh/pass-bottle-training1-lines.txt","att_check":false},"trial_type":"html-keyboard-response","trial_index":190,"time_elapsed":385063,"internal_node_id":"0.0-8.0-3.45","subject":"cupylzxnfp5kgmv","sona":"7672"},{"rt":136.44500000373228,"stimulus":"<p>Bereit?</p>","key_press":32,"trial_type":"html-keyboard-response","trial_index":191,"time_elapsed":385208,"internal_node_id":"0.0-8.0-0.46","subject":"cupylzxnfp5kgmv","sona":"7672"},{"rt":null,"stimulus":"<div style=\"font-size:60px;\">+</div>","key_press":null,"trial_type":"html-keyboard-response","trial_index":192,"time_elapsed":387240,"internal_node_id":"0.0-8.0-1.46","subject":"cupylzxnfp5kgmv","sona":"7672"},{"trial_type":"turing-test","trial_index":193,"time_elapsed":390724,"internal_node_id":"0.0-8.0-2.46","subject":"cupylzxnfp5kgmv","sona":"7672"},{"rt":385.4849999988801,"stimulus":"<p>Welche Sequenz haben Sie als natürlicher empfunden?</p>","key_press":70,"test_part":"response","test_stimulus":{"position":1,"left":"bvh/vr_prediction_models/model(dmp)-dataset(pass-bottle-hold)-npsi(40)-hold(0)/final-lines.txt","right":"bvh/pass-bottle-hold-training0-lines.txt","att_check":false},"trial_type":"html-keyboard-response","trial_index":194,"time_elapsed":391117,"internal_node_id":"0.0-8.0-3.46","subject":"cupylzxnfp5kgmv","sona":"7672"},{"rt":60.93999999575317,"stimulus":"<p>Bereit?</p>","key_press":32,"trial_type":"html-keyboard-response","trial_index":195,"time_elapsed":391184,"internal_node_id":"0.0-8.0-0.47","subject":"cupylzxnfp5kgmv","sona":"7672"},{"rt":null,"stimulus":"<div style=\"font-size:60px;\">+</div>","key_press":null,"trial_type":"html-keyboard-response","trial_index":196,"time_elapsed":393209,"internal_node_id":"0.0-8.0-1.47","subject":"cupylzxnfp5kgmv","sona":"7672"},{"trial_type":"turing-test","trial_index":197,"time_elapsed":396906,"internal_node_id":"0.0-8.0-2.47","subject":"cupylzxnfp5kgmv","sona":"7672"},{"rt":429.3249999973341,"stimulus":"<p>Welche Sequenz haben Sie als natürlicher empfunden?</p>","key_press":74,"test_part":"response","test_stimulus":{"position":1,"left":"bvh/vr_prediction_models/model(tmp)-dataset(return-bottle-hold)-numprim(9)-hold(3)/final-lines.txt","right":"bvh/return-bottle-hold-training3-lines.txt","att_check":false},"trial_type":"html-keyboard-response","trial_index":198,"time_elapsed":397346,"internal_node_id":"0.0-8.0-3.47","subject":"cupylzxnfp5kgmv","sona":"7672"},{"rt":256.09499999700347,"stimulus":"<p>Bereit?</p>","key_press":32,"trial_type":"html-keyboard-response","trial_index":199,"time_elapsed":397609,"internal_node_id":"0.0-8.0-0.48","subject":"cupylzxnfp5kgmv","sona":"7672"},{"rt":null,"stimulus":"<div style=\"font-size:60px;\">+</div>","key_press":null,"trial_type":"html-keyboard-response","trial_index":200,"time_elapsed":399622,"internal_node_id":"0.0-8.0-1.48","subject":"cupylzxnfp5kgmv","sona":"7672"},{"trial_type":"turing-test","trial_index":201,"time_elapsed":403028,"internal_node_id":"0.0-8.0-2.48","subject":"cupylzxnfp5kgmv","sona":"7672"},{"rt":389.72999999532476,"stimulus":"<p>Welche Sequenz haben Sie als natürlicher empfunden?</p>","key_press":70,"test_part":"response","test_stimulus":{"position":1,"left":"bvh/vr_prediction_models/model(tmp)-dataset(pass-bottle-hold)-numprim(15)-hold(0)/final-lines.txt","right":"bvh/pass-bottle-hold-training0-lines.txt","att_check":false},"trial_type":"html-keyboard-response","trial_index":202,"time_elapsed":403430,"internal_node_id":"0.0-8.0-3.48","subject":"cupylzxnfp5kgmv","sona":"7672"},{"rt":130.88499999867054,"stimulus":"<p>Bereit?</p>","key_press":32,"trial_type":"html-keyboard-response","trial_index":203,"time_elapsed":403567,"internal_node_id":"0.0-8.0-0.49","subject":"cupylzxnfp5kgmv","sona":"7672"},{"rt":null,"stimulus":"<div style=\"font-size:60px;\">+</div>","key_press":null,"trial_type":"html-keyboard-response","trial_index":204,"time_elapsed":405597,"internal_node_id":"0.0-8.0-1.49","subject":"cupylzxnfp5kgmv","sona":"7672"},{"trial_type":"turing-test","trial_index":205,"time_elapsed":409060,"internal_node_id":"0.0-8.0-2.49","subject":"cupylzxnfp5kgmv","sona":"7672"},{"rt":903.7349999998696,"stimulus":"<p>Welche Sequenz haben Sie als natürlicher empfunden?</p>","key_press":70,"test_part":"response","test_stimulus":{"position":1,"left":"bvh/vr_prediction_models/model(tmp)-dataset(pass-bottle-hold)-numprim(11)-hold(2)/final-lines.txt","right":"bvh/pass-bottle-hold-training2-lines.txt","att_check":false},"trial_type":"html-keyboard-response","trial_index":206,"time_elapsed":409974,"internal_node_id":"0.0-8.0-3.49","subject":"cupylzxnfp5kgmv","sona":"7672"},{"rt":70.82999999693129,"stimulus":"<p>Bereit?</p>","key_press":32,"trial_type":"html-keyboard-response","trial_index":207,"time_elapsed":410052,"internal_node_id":"0.0-8.0-0.50","subject":"cupylzxnfp5kgmv","sona":"7672"},{"rt":null,"stimulus":"<div style=\"font-size:60px;\">+</div>","key_press":null,"trial_type":"html-keyboard-response","trial_index":208,"time_elapsed":412075,"internal_node_id":"0.0-8.0-1.50","subject":"cupylzxnfp5kgmv","sona":"7672"},{"trial_type":"turing-test","trial_index":209,"time_elapsed":418468,"internal_node_id":"0.0-8.0-2.50","subject":"cupylzxnfp5kgmv","sona":"7672"},{"rt":289.4749999977648,"stimulus":"<p>Welche Sequenz haben Sie als natürlicher empfunden?</p>","key_press":70,"test_part":"response","test_stimulus":{"position":0,"left":"bvh/return-bottle-training1-lines.txt","right":"bvh/vr_prediction_models/model(vcgpdm)-dataset(return-bottle)-mode(ELBO)-parts(3)-dyn(10)-lvm(10)-hold(1)/final-lines.txt","att_check":false},"trial_type":"html-keyboard-response","trial_index":210,"time_elapsed":418768,"internal_node_id":"0.0-8.0-3.50","subject":"cupylzxnfp5kgmv","sona":"7672"},{"rt":140.03499999671476,"stimulus":"<p>Bereit?</p>","key_press":32,"trial_type":"html-keyboard-response","trial_index":211,"time_elapsed":418911,"internal_node_id":"0.0-8.0-0.51","subject":"cupylzxnfp5kgmv","sona":"7672"},{"rt":null,"stimulus":"<div style=\"font-size:60px;\">+</div>","key_press":null,"trial_type":"html-keyboard-response","trial_index":212,"time_elapsed":420921,"internal_node_id":"0.0-8.0-1.51","subject":"cupylzxnfp5kgmv","sona":"7672"},{"trial_type":"turing-test","trial_index":213,"time_elapsed":426123,"internal_node_id":"0.0-8.0-2.51","subject":"cupylzxnfp5kgmv","sona":"7672"},{"rt":494.2399999999907,"stimulus":"<p>Welche Sequenz haben Sie als natürlicher empfunden?</p>","key_press":70,"test_part":"response","test_stimulus":{"position":0,"left":"bvh/return-bottle-hold-training0-lines.txt","right":"bvh/vr_prediction_models/model(dmp)-dataset(return-bottle-hold)-npsi(80)-hold(0)/final-lines.txt","att_check":true},"trial_type":"html-keyboard-response","trial_index":214,"time_elapsed":426627,"internal_node_id":"0.0-8.0-3.51","subject":"cupylzxnfp5kgmv","sona":"7672"},{"rt":133.50000000355067,"stimulus":"<p>Bereit?</p>","key_press":32,"trial_type":"html-keyboard-response","trial_index":215,"time_elapsed":426766,"internal_node_id":"0.0-8.0-0.52","subject":"cupylzxnfp5kgmv","sona":"7672"},{"rt":null,"stimulus":"<div style=\"font-size:60px;\">+</div>","key_press":null,"trial_type":"html-keyboard-response","trial_index":216,"time_elapsed":428773,"internal_node_id":"0.0-8.0-1.52","subject":"cupylzxnfp5kgmv","sona":"7672"},{"trial_type":"turing-test","trial_index":217,"time_elapsed":434830,"internal_node_id":"0.0-8.0-2.52","subject":"cupylzxnfp5kgmv","sona":"7672"},{"rt":275.3450000018347,"stimulus":"<p>Welche Sequenz haben Sie als natürlicher empfunden?</p>","key_press":70,"test_part":"response","test_stimulus":{"position":0,"left":"bvh/pass-bottle-training4-lines.txt","right":"bvh/vr_prediction_models/model(vcgpdm)-dataset(pass-bottle)-mode(ELBO)-parts(1)-dyn(25)-lvm(35)-hold(4)/final-lines.txt","att_check":false},"trial_type":"html-keyboard-response","trial_index":218,"time_elapsed":435117,"internal_node_id":"0.0-8.0-3.52","subject":"cupylzxnfp5kgmv","sona":"7672"},{"rt":72.42499999847496,"stimulus":"<p>Bereit?</p>","key_press":32,"trial_type":"html-keyboard-response","trial_index":219,"time_elapsed":435195,"internal_node_id":"0.0-8.0-0.53","subject":"cupylzxnfp5kgmv","sona":"7672"},{"rt":null,"stimulus":"<div style=\"font-size:60px;\">+</div>","key_press":null,"trial_type":"html-keyboard-response","trial_index":220,"time_elapsed":437206,"internal_node_id":"0.0-8.0-1.53","subject":"cupylzxnfp5kgmv","sona":"7672"},{"trial_type":"turing-test","trial_index":221,"time_elapsed":440912,"internal_node_id":"0.0-8.0-2.53","subject":"cupylzxnfp5kgmv","sona":"7672"},{"rt":361.0400000034133,"stimulus":"<p>Welche Sequenz haben Sie als natürlicher empfunden?</p>","key_press":70,"test_part":"response","test_stimulus":{"position":0,"left":"bvh/pass-bottle-hold-training4-lines.txt","right":"bvh/vr_prediction_models/model(dmp)-dataset(pass-bottle-hold)-npsi(80)-hold(4)/final-lines.txt","att_check":false},"trial_type":"html-keyboard-response","trial_index":222,"time_elapsed":441284,"internal_node_id":"0.0-8.0-3.53","subject":"cupylzxnfp5kgmv","sona":"7672"},{"rt":133.56500000372762,"stimulus":"<p>Bereit?</p>","key_press":32,"trial_type":"html-keyboard-response","trial_index":223,"time_elapsed":441424,"internal_node_id":"0.0-8.0-0.54","subject":"cupylzxnfp5kgmv","sona":"7672"},{"rt":null,"stimulus":"<div style=\"font-size:60px;\">+</div>","key_press":null,"trial_type":"html-keyboard-response","trial_index":224,"time_elapsed":443433,"internal_node_id":"0.0-8.0-1.54","subject":"cupylzxnfp5kgmv","sona":"7672"},{"trial_type":"turing-test","trial_index":225,"time_elapsed":447321,"internal_node_id":"0.0-8.0-2.54","subject":"cupylzxnfp5kgmv","sona":"7672"},{"rt":213.5199999975157,"stimulus":"<p>Welche Sequenz haben Sie als natürlicher empfunden?</p>","key_press":74,"test_part":"response","test_stimulus":{"position":0,"left":"bvh/return-bottle-hold-training4-lines.txt","right":"bvh/vr_prediction_models/model(dmp)-dataset(return-bottle-hold)-npsi(60)-hold(4)/final-lines.txt","att_check":false},"trial_type":"html-keyboard-response","trial_index":226,"time_elapsed":447544,"internal_node_id":"0.0-8.0-3.54","subject":"cupylzxnfp5kgmv","sona":"7672"},{"rt":351.99500000453554,"stimulus":"<p>Bereit?</p>","key_press":32,"trial_type":"html-keyboard-response","trial_index":227,"time_elapsed":447904,"internal_node_id":"0.0-8.0-0.55","subject":"cupylzxnfp5kgmv","sona":"7672"},{"rt":null,"stimulus":"<div style=\"font-size:60px;\">+</div>","key_press":null,"trial_type":"html-keyboard-response","trial_index":228,"time_elapsed":449921,"internal_node_id":"0.0-8.0-1.55","subject":"cupylzxnfp5kgmv","sona":"7672"},{"trial_type":"turing-test","trial_index":229,"time_elapsed":453703,"internal_node_id":"0.0-8.0-2.55","subject":"cupylzxnfp5kgmv","sona":"7672"},{"rt":152.1050000010291,"stimulus":"<p>Welche Sequenz haben Sie als natürlicher empfunden?</p>","key_press":74,"test_part":"response","test_stimulus":{"position":1,"left":"bvh/vr_prediction_models/model(tmp)-dataset(return-bottle-hold)-numprim(15)-hold(4)/final-lines.txt","right":"bvh/return-bottle-hold-training4-lines.txt","att_check":false},"trial_type":"html-keyboard-response","trial_index":230,"time_elapsed":453863,"internal_node_id":"0.0-8.0-3.55","subject":"cupylzxnfp5kgmv","sona":"7672"},{"rt":133.88999999733642,"stimulus":"<p>Bereit?</p>","key_press":32,"trial_type":"html-keyboard-response","trial_index":231,"time_elapsed":454006,"internal_node_id":"0.0-8.0-0.56","subject":"cupylzxnfp5kgmv","sona":"7672"},{"rt":null,"stimulus":"<div style=\"font-size:60px;\">+</div>","key_press":null,"trial_type":"html-keyboard-response","trial_index":232,"time_elapsed":456015,"internal_node_id":"0.0-8.0-1.56","subject":"cupylzxnfp5kgmv","sona":"7672"},{"trial_type":"turing-test","trial_index":233,"time_elapsed":461684,"internal_node_id":"0.0-8.0-2.56","subject":"cupylzxnfp5kgmv","sona":"7672"},{"rt":5.255000003671739,"stimulus":"<p>Welche Sequenz haben Sie als natürlicher empfunden?</p>","key_press":74,"test_part":"response","test_stimulus":{"position":1,"left":"bvh/vr_prediction_models/model(vcgpdm)-dataset(return-bottle)-mode(ELBO)-parts(1)-dyn(10)-lvm(30)-hold(0)/final-lines.txt","right":"bvh/return-bottle-training0-lines.txt","att_check":false},"trial_type":"html-keyboard-response","trial_index":234,"time_elapsed":461698,"internal_node_id":"0.0-8.0-3.56","subject":"cupylzxnfp5kgmv","sona":"7672"},{"rt":609.7799999988638,"stimulus":"<p>Bereit?</p>","key_press":32,"trial_type":"html-keyboard-response","trial_index":235,"time_elapsed":462316,"internal_node_id":"0.0-8.0-0.57","subject":"cupylzxnfp5kgmv","sona":"7672"},{"rt":null,"stimulus":"<div style=\"font-size:60px;\">+</div>","key_press":null,"trial_type":"html-keyboard-response","trial_index":236,"time_elapsed":464321,"internal_node_id":"0.0-8.0-1.57","subject":"cupylzxnfp5kgmv","sona":"7672"},{"trial_type":"turing-test","trial_index":237,"time_elapsed":469851,"internal_node_id":"0.0-8.0-2.57","subject":"cupylzxnfp5kgmv","sona":"7672"},{"rt":353.0650000029709,"stimulus":"<p>Welche Sequenz haben Sie als natürlicher empfunden?</p>","key_press":70,"test_part":"response","test_stimulus":{"position":0,"left":"bvh/pass-bottle-training1-lines.txt","right":"bvh/vr_prediction_models/model(dmp)-dataset(pass-bottle)-npsi(30)-hold(1)/final-lines.txt","att_check":false},"trial_type":"html-keyboard-response","trial_index":238,"time_elapsed":470213,"internal_node_id":"0.0-8.0-3.57","subject":"cupylzxnfp5kgmv","sona":"7672"},{"rt":171.36000000027707,"stimulus":"<p>Bereit?</p>","key_press":32,"trial_type":"html-keyboard-response","trial_index":239,"time_elapsed":470394,"internal_node_id":"0.0-8.0-0.58","subject":"cupylzxnfp5kgmv","sona":"7672"},{"rt":null,"stimulus":"<div style=\"font-size:60px;\">+</div>","key_press":null,"trial_type":"html-keyboard-response","trial_index":240,"time_elapsed":472426,"internal_node_id":"0.0-8.0-1.58","subject":"cupylzxnfp5kgmv","sona":"7672"},{"trial_type":"turing-test","trial_index":241,"time_elapsed":479388,"internal_node_id":"0.0-8.0-2.58","subject":"cupylzxnfp5kgmv","sona":"7672"},{"rt":90.59500000148546,"stimulus":"<p>Welche Sequenz haben Sie als natürlicher empfunden?</p>","key_press":74,"test_part":"response","test_stimulus":{"position":1,"left":"bvh/vr_prediction_models/model(vcgpdm)-dataset(pass-bottle)-mode(ELBO)-parts(3)-dyn(10)-lvm(10)-hold(0)/final-lines.txt","right":"bvh/pass-bottle-training0-lines.txt","att_check":false},"trial_type":"html-keyboard-response","trial_index":242,"time_elapsed":479488,"internal_node_id":"0.0-8.0-3.58","subject":"cupylzxnfp5kgmv","sona":"7672"},{"rt":486.15499999868916,"stimulus":"<p>Bereit?</p>","key_press":32,"trial_type":"html-keyboard-response","trial_index":243,"time_elapsed":479980,"internal_node_id":"0.0-8.0-0.59","subject":"cupylzxnfp5kgmv","sona":"7672"},{"rt":null,"stimulus":"<div style=\"font-size:60px;\">+</div>","key_press":null,"trial_type":"html-keyboard-response","trial_index":244,"time_elapsed":481992,"internal_node_id":"0.0-8.0-1.59","subject":"cupylzxnfp5kgmv","sona":"7672"},{"trial_type":"turing-test","trial_index":245,"time_elapsed":488670,"internal_node_id":"0.0-8.0-2.59","subject":"cupylzxnfp5kgmv","sona":"7672"},{"rt":246.80500000249594,"stimulus":"<p>Welche Sequenz haben Sie als natürlicher empfunden?</p>","key_press":74,"test_part":"response","test_stimulus":{"position":1,"left":"bvh/vr_prediction_models/model(tmp)-dataset(return-bottle)-numprim(3)-hold(2)/final-lines.txt","right":"bvh/return-bottle-training2-lines.txt","att_check":false},"trial_type":"html-keyboard-response","trial_index":246,"time_elapsed":488926,"internal_node_id":"0.0-8.0-3.59","subject":"cupylzxnfp5kgmv","sona":"7672"},{"rt":923.0749999987893,"stimulus":"<p>Bereit?</p>","key_press":32,"trial_type":"html-keyboard-response","trial_index":247,"time_elapsed":489858,"internal_node_id":"0.0-8.0-0.60","subject":"cupylzxnfp5kgmv","sona":"7672"},{"rt":null,"stimulus":"<div style=\"font-size:60px;\">+</div>","key_press":null,"trial_type":"html-keyboard-response","trial_index":248,"time_elapsed":491869,"internal_node_id":"0.0-8.0-1.60","subject":"cupylzxnfp5kgmv","sona":"7672"},{"trial_type":"turing-test","trial_index":249,"time_elapsed":495123,"internal_node_id":"0.0-8.0-2.60","subject":"cupylzxnfp5kgmv","sona":"7672"},{"rt":218.58500000234926,"stimulus":"<p>Welche Sequenz haben Sie als natürlicher empfunden?</p>","key_press":74,"test_part":"response","test_stimulus":{"position":1,"left":"bvh/vr_prediction_models/model(tmp)-dataset(pass-bottle-hold)-numprim(5)-hold(1)/final-lines.txt","right":"bvh/pass-bottle-hold-training1-lines.txt","att_check":false},"trial_type":"html-keyboard-response","trial_index":250,"time_elapsed":495350,"internal_node_id":"0.0-8.0-3.60","subject":"cupylzxnfp5kgmv","sona":"7672"},{"rt":336.7500000022119,"stimulus":"<p>Bereit?</p>","key_press":32,"trial_type":"html-keyboard-response","trial_index":251,"time_elapsed":495693,"internal_node_id":"0.0-8.0-0.61","subject":"cupylzxnfp5kgmv","sona":"7672"},{"rt":null,"stimulus":"<div style=\"font-size:60px;\">+</div>","key_press":null,"trial_type":"html-keyboard-response","trial_index":252,"time_elapsed":497702,"internal_node_id":"0.0-8.0-1.61","subject":"cupylzxnfp5kgmv","sona":"7672"},{"trial_type":"turing-test","trial_index":253,"time_elapsed":501476,"internal_node_id":"0.0-8.0-2.61","subject":"cupylzxnfp5kgmv","sona":"7672"},{"rt":128.75999999960186,"stimulus":"<p>Welche Sequenz haben Sie als natürlicher empfunden?</p>","key_press":74,"test_part":"response","test_stimulus":{"position":1,"left":"bvh/vr_prediction_models/model(vcgpdm)-dataset(return-bottle-hold)-mode(ELBO)-parts(1)-dyn(10)-lvm(5)-hold(2)/final-lines.txt","right":"bvh/return-bottle-hold-training2-lines.txt","att_check":false},"trial_type":"html-keyboard-response","trial_index":254,"time_elapsed":501615,"internal_node_id":"0.0-8.0-3.61","subject":"cupylzxnfp5kgmv","sona":"7672"},{"rt":386.54500000120606,"stimulus":"<p>Bereit?</p>","key_press":32,"trial_type":"html-keyboard-response","trial_index":255,"time_elapsed":502007,"internal_node_id":"0.0-8.0-0.62","subject":"cupylzxnfp5kgmv","sona":"7672"},{"rt":null,"stimulus":"<div style=\"font-size:60px;\">+</div>","key_press":null,"trial_type":"html-keyboard-response","trial_index":256,"time_elapsed":504019,"internal_node_id":"0.0-8.0-1.62","subject":"cupylzxnfp5kgmv","sona":"7672"},{"trial_type":"turing-test","trial_index":257,"time_elapsed":507591,"internal_node_id":"0.0-8.0-2.62","subject":"cupylzxnfp5kgmv","sona":"7672"},{"rt":121.40499999804888,"stimulus":"<p>Welche Sequenz haben Sie als natürlicher empfunden?</p>","key_press":74,"test_part":"response","test_stimulus":{"position":1,"left":"bvh/vr_prediction_models/model(tmp)-dataset(pass-bottle-hold)-numprim(10)-hold(3)/final-lines.txt","right":"bvh/pass-bottle-hold-training3-lines.txt","att_check":false},"trial_type":"html-keyboard-response","trial_index":258,"time_elapsed":507721,"internal_node_id":"0.0-8.0-3.62","subject":"cupylzxnfp5kgmv","sona":"7672"},{"rt":363.9850000035949,"stimulus":"<p>Bereit?</p>","key_press":32,"trial_type":"html-keyboard-response","trial_index":259,"time_elapsed":508093,"internal_node_id":"0.0-8.0-0.63","subject":"cupylzxnfp5kgmv","sona":"7672"},{"rt":null,"stimulus":"<div style=\"font-size:60px;\">+</div>","key_press":null,"trial_type":"html-keyboard-response","trial_index":260,"time_elapsed":510111,"internal_node_id":"0.0-8.0-1.63","subject":"cupylzxnfp5kgmv","sona":"7672"},{"trial_type":"turing-test","trial_index":261,"time_elapsed":514008,"internal_node_id":"0.0-8.0-2.63","subject":"cupylzxnfp5kgmv","sona":"7672"},{"rt":309.850000005099,"stimulus":"<p>Welche Sequenz haben Sie als natürlicher empfunden?</p>","key_press":74,"test_part":"response","test_stimulus":{"position":1,"left":"bvh/vr_prediction_models/model(vcgpdm)-dataset(pass-bottle-hold)-mode(ELBO)-parts(3)-dyn(30)-lvm(15)-hold(3)/final-lines.txt","right":"bvh/pass-bottle-hold-training3-lines.txt","att_check":false},"trial_type":"html-keyboard-response","trial_index":262,"time_elapsed":514329,"internal_node_id":"0.0-8.0-3.63","subject":"cupylzxnfp5kgmv","sona":"7672"},{"rt":310.72999999742024,"stimulus":"<p>Bereit?</p>","key_press":32,"trial_type":"html-keyboard-response","trial_index":263,"time_elapsed":514646,"internal_node_id":"0.0-8.0-0.64","subject":"cupylzxnfp5kgmv","sona":"7672"},{"rt":null,"stimulus":"<div style=\"font-size:60px;\">+</div>","key_press":null,"trial_type":"html-keyboard-response","trial_index":264,"time_elapsed":516656,"internal_node_id":"0.0-8.0-1.64","subject":"cupylzxnfp5kgmv","sona":"7672"},{"trial_type":"turing-test","trial_index":265,"time_elapsed":520323,"internal_node_id":"0.0-8.0-2.64","subject":"cupylzxnfp5kgmv","sona":"7672"},{"rt":0.46999999904073775,"stimulus":"<p>Welche Sequenz haben Sie als natürlicher empfunden?</p>","key_press":74,"test_part":"response","test_stimulus":{"position":1,"left":"bvh/vr_prediction_models/model(vcgpdm)-dataset(pass-bottle-hold)-mode(ELBO)-parts(3)-dyn(35)-lvm(20)-hold(0)/final-lines.txt","right":"bvh/pass-bottle-hold-training0-lines.txt","att_check":false},"trial_type":"html-keyboard-response","trial_index":266,"time_elapsed":520332,"internal_node_id":"0.0-8.0-3.64","subject":"cupylzxnfp5kgmv","sona":"7672"},{"rt":1131.4899999997579,"stimulus":"<p>Bereit?</p>","key_press":32,"trial_type":"html-keyboard-response","trial_index":267,"time_elapsed":521471,"internal_node_id":"0.0-8.0-0.65","subject":"cupylzxnfp5kgmv","sona":"7672"},{"rt":null,"stimulus":"<div style=\"font-size:60px;\">+</div>","key_press":null,"trial_type":"html-keyboard-response","trial_index":268,"time_elapsed":523493,"internal_node_id":"0.0-8.0-1.65","subject":"cupylzxnfp5kgmv","sona":"7672"},{"trial_type":"turing-test","trial_index":269,"time_elapsed":527045,"internal_node_id":"0.0-8.0-2.65","subject":"cupylzxnfp5kgmv","sona":"7672"},{"rt":334.79000000073574,"stimulus":"<p>Welche Sequenz haben Sie als natürlicher empfunden?</p>","key_press":74,"test_part":"response","test_stimulus":{"position":1,"left":"bvh/vr_prediction_models/model(vcgpdm)-dataset(pass-bottle-hold)-mode(ELBO)-parts(1)-dyn(25)-lvm(35)-hold(0)/final-lines.txt","right":"bvh/pass-bottle-hold-training0-lines.txt","att_check":false},"trial_type":"html-keyboard-response","trial_index":270,"time_elapsed":527387,"internal_node_id":"0.0-8.0-3.65","subject":"cupylzxnfp5kgmv","sona":"7672"},{"rt":152.20000000414439,"stimulus":"<p>Bereit?</p>","key_press":32,"trial_type":"html-keyboard-response","trial_index":271,"time_elapsed":527545,"internal_node_id":"0.0-8.0-0.66","subject":"cupylzxnfp5kgmv","sona":"7672"},{"rt":null,"stimulus":"<div style=\"font-size:60px;\">+</div>","key_press":null,"trial_type":"html-keyboard-response","trial_index":272,"time_elapsed":529562,"internal_node_id":"0.0-8.0-1.66","subject":"cupylzxnfp5kgmv","sona":"7672"},{"trial_type":"turing-test","trial_index":273,"time_elapsed":533619,"internal_node_id":"0.0-8.0-2.66","subject":"cupylzxnfp5kgmv","sona":"7672"},{"rt":266.7150000052061,"stimulus":"<p>Welche Sequenz haben Sie als natürlicher empfunden?</p>","key_press":70,"test_part":"response","test_stimulus":{"position":0,"left":"bvh/return-bottle-hold-training4-lines.txt","right":"bvh/vr_prediction_models/model(vcgpdm)-dataset(return-bottle-hold)-mode(ELBO)-parts(1)-dyn(15)-lvm(35)-hold(4)/final-lines.txt","att_check":false},"trial_type":"html-keyboard-response","trial_index":274,"time_elapsed":533893,"internal_node_id":"0.0-8.0-3.66","subject":"cupylzxnfp5kgmv","sona":"7672"},{"rt":181.09499999997206,"stimulus":"<p>Bereit?</p>","key_press":32,"trial_type":"html-keyboard-response","trial_index":275,"time_elapsed":534081,"internal_node_id":"0.0-8.0-0.67","subject":"cupylzxnfp5kgmv","sona":"7672"},{"rt":null,"stimulus":"<div style=\"font-size:60px;\">+</div>","key_press":null,"trial_type":"html-keyboard-response","trial_index":276,"time_elapsed":536105,"internal_node_id":"0.0-8.0-1.67","subject":"cupylzxnfp5kgmv","sona":"7672"},{"trial_type":"turing-test","trial_index":277,"time_elapsed":539756,"internal_node_id":"0.0-8.0-2.67","subject":"cupylzxnfp5kgmv","sona":"7672"},{"rt":292.05499999807216,"stimulus":"<p>Welche Sequenz haben Sie als natürlicher empfunden?</p>","key_press":70,"test_part":"response","test_stimulus":{"position":0,"left":"bvh/return-bottle-hold-training3-lines.txt","right":"bvh/vr_prediction_models/model(tmp)-dataset(return-bottle-hold)-numprim(8)-hold(3)/final-lines.txt","att_check":false},"trial_type":"html-keyboard-response","trial_index":278,"time_elapsed":540057,"internal_node_id":"0.0-8.0-3.67","subject":"cupylzxnfp5kgmv","sona":"7672"},{"rt":172.90499999944586,"stimulus":"<p>Bereit?</p>","key_press":32,"trial_type":"html-keyboard-response","trial_index":279,"time_elapsed":540238,"internal_node_id":"0.0-8.0-0.68","subject":"cupylzxnfp5kgmv","sona":"7672"},{"rt":null,"stimulus":"<div style=\"font-size:60px;\">+</div>","key_press":null,"trial_type":"html-keyboard-response","trial_index":280,"time_elapsed":542263,"internal_node_id":"0.0-8.0-1.68","subject":"cupylzxnfp5kgmv","sona":"7672"},{"trial_type":"turing-test","trial_index":281,"time_elapsed":548426,"internal_node_id":"0.0-8.0-2.68","subject":"cupylzxnfp5kgmv","sona":"7672"},{"rt":345.8450000034645,"stimulus":"<p>Welche Sequenz haben Sie als natürlicher empfunden?</p>","key_press":74,"test_part":"response","test_stimulus":{"position":1,"left":"bvh/vr_prediction_models/model(tmp)-dataset(return-bottle)-numprim(8)-hold(1)/final-lines.txt","right":"bvh/return-bottle-training1-lines.txt","att_check":false},"trial_type":"html-keyboard-response","trial_index":282,"time_elapsed":548782,"internal_node_id":"0.0-8.0-3.68","subject":"cupylzxnfp5kgmv","sona":"7672"},{"rt":224.83500000089407,"stimulus":"<p>Bereit?</p>","key_press":32,"trial_type":"html-keyboard-response","trial_index":283,"time_elapsed":549016,"internal_node_id":"0.0-8.0-0.69","subject":"cupylzxnfp5kgmv","sona":"7672"},{"rt":null,"stimulus":"<div style=\"font-size:60px;\">+</div>","key_press":null,"trial_type":"html-keyboard-response","trial_index":284,"time_elapsed":551031,"internal_node_id":"0.0-8.0-1.69","subject":"cupylzxnfp5kgmv","sona":"7672"},{"trial_type":"turing-test","trial_index":285,"time_elapsed":554916,"internal_node_id":"0.0-8.0-2.69","subject":"cupylzxnfp5kgmv","sona":"7672"},{"rt":1293.1200000022072,"stimulus":"<p>Welche Sequenz haben Sie als natürlicher empfunden?</p>","key_press":74,"test_part":"response","test_stimulus":{"position":0,"left":"bvh/return-bottle-hold-training3-lines.txt","right":"bvh/vr_prediction_models/model(vcgpdm)-dataset(return-bottle-hold)-mode(ELBO)-parts(3)-dyn(25)-lvm(30)-hold(3)/final-lines.txt","att_check":false},"trial_type":"html-keyboard-response","trial_index":286,"time_elapsed":556213,"internal_node_id":"0.0-8.0-3.69","subject":"cupylzxnfp5kgmv","sona":"7672"},{"rt":235.33499999763444,"stimulus":"<p>Bereit?</p>","key_press":32,"trial_type":"html-keyboard-response","trial_index":287,"time_elapsed":556452,"internal_node_id":"0.0-8.0-0.70","subject":"cupylzxnfp5kgmv","sona":"7672"},{"rt":null,"stimulus":"<div style=\"font-size:60px;\">+</div>","key_press":null,"trial_type":"html-keyboard-response","trial_index":288,"time_elapsed":558472,"internal_node_id":"0.0-8.0-1.70","subject":"cupylzxnfp5kgmv","sona":"7672"},{"trial_type":"turing-test","trial_index":289,"time_elapsed":563962,"internal_node_id":"0.0-8.0-2.70","subject":"cupylzxnfp5kgmv","sona":"7672"},{"rt":358.7000000043772,"stimulus":"<p>Welche Sequenz haben Sie als natürlicher empfunden?</p>","key_press":70,"test_part":"response","test_stimulus":{"position":0,"left":"bvh/return-bottle-hold-training0-lines.txt","right":"bvh/vr_prediction_models/model(vcgpdm)-dataset(return-bottle-hold)-mode(ELBO)-parts(3)-dyn(10)-lvm(30)-hold(0)/final-lines.txt","att_check":false},"trial_type":"html-keyboard-response","trial_index":290,"time_elapsed":564325,"internal_node_id":"0.0-8.0-3.70","subject":"cupylzxnfp5kgmv","sona":"7672"},{"rt":157.9749999945052,"stimulus":"<p>Bereit?</p>","key_press":32,"trial_type":"html-keyboard-response","trial_index":291,"time_elapsed":564487,"internal_node_id":"0.0-8.0-0.71","subject":"cupylzxnfp5kgmv","sona":"7672"},{"rt":null,"stimulus":"<div style=\"font-size:60px;\">+</div>","key_press":null,"trial_type":"html-keyboard-response","trial_index":292,"time_elapsed":566510,"internal_node_id":"0.0-8.0-1.71","subject":"cupylzxnfp5kgmv","sona":"7672"},{"trial_type":"turing-test","trial_index":293,"time_elapsed":572889,"internal_node_id":"0.0-8.0-2.71","subject":"cupylzxnfp5kgmv","sona":"7672"},{"rt":312.1800000007497,"stimulus":"<p>Welche Sequenz haben Sie als natürlicher empfunden?</p>","key_press":74,"test_part":"response","test_stimulus":{"position":1,"left":"bvh/vr_prediction_models/model(vcgpdm)-dataset(pass-bottle)-mode(ELBO)-parts(1)-dyn(35)-lvm(30)-hold(2)/final-lines.txt","right":"bvh/pass-bottle-training2-lines.txt","att_check":false},"trial_type":"html-keyboard-response","trial_index":294,"time_elapsed":573208,"internal_node_id":"0.0-8.0-3.71","subject":"cupylzxnfp5kgmv","sona":"7672"},{"rt":198.2849999986356,"stimulus":"<p>Bereit?</p>","key_press":32,"trial_type":"html-keyboard-response","trial_index":295,"time_elapsed":573409,"internal_node_id":"0.0-8.0-0.72","subject":"cupylzxnfp5kgmv","sona":"7672"},{"rt":null,"stimulus":"<div style=\"font-size:60px;\">+</div>","key_press":null,"trial_type":"html-keyboard-response","trial_index":296,"time_elapsed":575423,"internal_node_id":"0.0-8.0-1.72","subject":"cupylzxnfp5kgmv","sona":"7672"},{"trial_type":"turing-test","trial_index":297,"time_elapsed":579229,"internal_node_id":"0.0-8.0-2.72","subject":"cupylzxnfp5kgmv","sona":"7672"},{"rt":258.1149999969639,"stimulus":"<p>Welche Sequenz haben Sie als natürlicher empfunden?</p>","key_press":74,"test_part":"response","test_stimulus":{"position":1,"left":"bvh/vr_prediction_models/model(vcgpdm)-dataset(return-bottle-hold)-mode(ELBO)-parts(1)-dyn(10)-lvm(30)-hold(3)/final-lines.txt","right":"bvh/return-bottle-hold-training3-lines.txt","att_check":false},"trial_type":"html-keyboard-response","trial_index":298,"time_elapsed":579491,"internal_node_id":"0.0-8.0-3.72","subject":"cupylzxnfp5kgmv","sona":"7672"},{"rt":183.1850000016857,"stimulus":"<p>Bereit?</p>","key_press":32,"trial_type":"html-keyboard-response","trial_index":299,"time_elapsed":579677,"internal_node_id":"0.0-8.0-0.73","subject":"cupylzxnfp5kgmv","sona":"7672"},{"rt":null,"stimulus":"<div style=\"font-size:60px;\">+</div>","key_press":null,"trial_type":"html-keyboard-response","trial_index":300,"time_elapsed":581713,"internal_node_id":"0.0-8.0-1.73","subject":"cupylzxnfp5kgmv","sona":"7672"},{"trial_type":"turing-test","trial_index":301,"time_elapsed":585459,"internal_node_id":"0.0-8.0-2.73","subject":"cupylzxnfp5kgmv","sona":"7672"},{"rt":563.1399999983842,"stimulus":"<p>Welche Sequenz haben Sie als natürlicher empfunden?</p>","key_press":70,"test_part":"response","test_stimulus":{"position":0,"left":"bvh/return-bottle-hold-training2-lines.txt","right":"bvh/vr_prediction_models/model(vcgpdm)-dataset(return-bottle-hold)-mode(ELBO)-parts(3)-dyn(25)-lvm(30)-hold(2)/final-lines.txt","att_check":false},"trial_type":"html-keyboard-response","trial_index":302,"time_elapsed":586027,"internal_node_id":"0.0-8.0-3.73","subject":"cupylzxnfp5kgmv","sona":"7672"},{"rt":187.95000000693835,"stimulus":"<p>Bereit?</p>","key_press":32,"trial_type":"html-keyboard-response","trial_index":303,"time_elapsed":586219,"internal_node_id":"0.0-8.0-0.74","subject":"cupylzxnfp5kgmv","sona":"7672"},{"rt":null,"stimulus":"<div style=\"font-size:60px;\">+</div>","key_press":null,"trial_type":"html-keyboard-response","trial_index":304,"time_elapsed":588241,"internal_node_id":"0.0-8.0-1.74","subject":"cupylzxnfp5kgmv","sona":"7672"},{"trial_type":"turing-test","trial_index":305,"time_elapsed":592028,"internal_node_id":"0.0-8.0-2.74","subject":"cupylzxnfp5kgmv","sona":"7672"},{"rt":279.90000000142027,"stimulus":"<p>Welche Sequenz haben Sie als natürlicher empfunden?</p>","key_press":70,"test_part":"response","test_stimulus":{"position":0,"left":"bvh/return-bottle-hold-training2-lines.txt","right":"bvh/vr_prediction_models/model(vcgpdm)-dataset(return-bottle-hold)-mode(ELBO)-parts(1)-dyn(30)-lvm(35)-hold(2)/final-lines.txt","att_check":false},"trial_type":"html-keyboard-response","trial_index":306,"time_elapsed":592310,"internal_node_id":"0.0-8.0-3.74","subject":"cupylzxnfp5kgmv","sona":"7672"},{"rt":346.06499999796506,"stimulus":"<p>Bereit?</p>","key_press":32,"trial_type":"html-keyboard-response","trial_index":307,"time_elapsed":592660,"internal_node_id":"0.0-8.0-0.75","subject":"cupylzxnfp5kgmv","sona":"7672"},{"rt":null,"stimulus":"<div style=\"font-size:60px;\">+</div>","key_press":null,"trial_type":"html-keyboard-response","trial_index":308,"time_elapsed":594679,"internal_node_id":"0.0-8.0-1.75","subject":"cupylzxnfp5kgmv","sona":"7672"},{"trial_type":"turing-test","trial_index":309,"time_elapsed":600757,"internal_node_id":"0.0-8.0-2.75","subject":"cupylzxnfp5kgmv","sona":"7672"},{"rt":97.6349999983795,"stimulus":"<p>Welche Sequenz haben Sie als natürlicher empfunden?</p>","key_press":70,"test_part":"response","test_stimulus":{"position":0,"left":"bvh/pass-bottle-training3-lines.txt","right":"bvh/vr_prediction_models/model(vcgpdm)-dataset(pass-bottle)-mode(ELBO)-parts(1)-dyn(30)-lvm(20)-hold(3)/final-lines.txt","att_check":false},"trial_type":"html-keyboard-response","trial_index":310,"time_elapsed":600859,"internal_node_id":"0.0-8.0-3.75","subject":"cupylzxnfp5kgmv","sona":"7672"},{"rt":517.0949999955483,"stimulus":"<p>Bereit?</p>","key_press":32,"trial_type":"html-keyboard-response","trial_index":311,"time_elapsed":601381,"internal_node_id":"0.0-8.0-0.76","subject":"cupylzxnfp5kgmv","sona":"7672"},{"rt":null,"stimulus":"<div style=\"font-size:60px;\">+</div>","key_press":null,"trial_type":"html-keyboard-response","trial_index":312,"time_elapsed":603408,"internal_node_id":"0.0-8.0-1.76","subject":"cupylzxnfp5kgmv","sona":"7672"},{"trial_type":"turing-test","trial_index":313,"time_elapsed":610152,"internal_node_id":"0.0-8.0-2.76","subject":"cupylzxnfp5kgmv","sona":"7672"},{"rt":474.5600000023842,"stimulus":"<p>Welche Sequenz haben Sie als natürlicher empfunden?</p>","key_press":74,"test_part":"response","test_stimulus":{"position":1,"left":"bvh/vr_prediction_models/model(vcgpdm)-dataset(return-bottle)-mode(ELBO)-parts(3)-dyn(25)-lvm(30)-hold(2)/final-lines.txt","right":"bvh/return-bottle-training2-lines.txt","att_check":false},"trial_type":"html-keyboard-response","trial_index":314,"time_elapsed":610633,"internal_node_id":"0.0-8.0-3.76","subject":"cupylzxnfp5kgmv","sona":"7672"},{"rt":383.65499999781605,"stimulus":"<p>Bereit?</p>","key_press":32,"trial_type":"html-keyboard-response","trial_index":315,"time_elapsed":611021,"internal_node_id":"0.0-8.0-0.77","subject":"cupylzxnfp5kgmv","sona":"7672"},{"rt":null,"stimulus":"<div style=\"font-size:60px;\">+</div>","key_press":null,"trial_type":"html-keyboard-response","trial_index":316,"time_elapsed":613035,"internal_node_id":"0.0-8.0-1.77","subject":"cupylzxnfp5kgmv","sona":"7672"},{"trial_type":"turing-test","trial_index":317,"time_elapsed":616395,"internal_node_id":"0.0-8.0-2.77","subject":"cupylzxnfp5kgmv","sona":"7672"},{"rt":304.9050000044517,"stimulus":"<p>Welche Sequenz haben Sie als natürlicher empfunden?</p>","key_press":74,"test_part":"response","test_stimulus":{"position":1,"left":"bvh/vr_prediction_models/model(dmp)-dataset(pass-bottle-hold)-npsi(80)-hold(2)/final-lines.txt","right":"bvh/pass-bottle-hold-training2-lines.txt","att_check":false},"trial_type":"html-keyboard-response","trial_index":318,"time_elapsed":616705,"internal_node_id":"0.0-8.0-3.77","subject":"cupylzxnfp5kgmv","sona":"7672"},{"rt":338.4299999960931,"stimulus":"<p>Bereit?</p>","key_press":32,"trial_type":"html-keyboard-response","trial_index":319,"time_elapsed":617048,"internal_node_id":"0.0-8.0-0.78","subject":"cupylzxnfp5kgmv","sona":"7672"},{"rt":null,"stimulus":"<div style=\"font-size:60px;\">+</div>","key_press":null,"trial_type":"html-keyboard-response","trial_index":320,"time_elapsed":619077,"internal_node_id":"0.0-8.0-1.78","subject":"cupylzxnfp5kgmv","sona":"7672"},{"trial_type":"turing-test","trial_index":321,"time_elapsed":622966,"internal_node_id":"0.0-8.0-2.78","subject":"cupylzxnfp5kgmv","sona":"7672"},{"rt":135.51499999454245,"stimulus":"<p>Welche Sequenz haben Sie als natürlicher empfunden?</p>","key_press":70,"test_part":"response","test_stimulus":{"position":0,"left":"bvh/return-bottle-hold-training4-lines.txt","right":"bvh/vr_prediction_models/model(vcgpdm)-dataset(return-bottle-hold)-mode(ELBO)-parts(1)-dyn(35)-lvm(10)-hold(4)/final-lines.txt","att_check":false},"trial_type":"html-keyboard-response","trial_index":322,"time_elapsed":623106,"internal_node_id":"0.0-8.0-3.78","subject":"cupylzxnfp5kgmv","sona":"7672"},{"rt":483.34999999497086,"stimulus":"<p>Bereit?</p>","key_press":32,"trial_type":"html-keyboard-response","trial_index":323,"time_elapsed":623593,"internal_node_id":"0.0-8.0-0.79","subject":"cupylzxnfp5kgmv","sona":"7672"},{"rt":null,"stimulus":"<div style=\"font-size:60px;\">+</div>","key_press":null,"trial_type":"html-keyboard-response","trial_index":324,"time_elapsed":625614,"internal_node_id":"0.0-8.0-1.79","subject":"cupylzxnfp5kgmv","sona":"7672"},{"trial_type":"turing-test","trial_index":325,"time_elapsed":631187,"internal_node_id":"0.0-8.0-2.79","subject":"cupylzxnfp5kgmv","sona":"7672"},{"rt":67.4799999978859,"stimulus":"<p>Welche Sequenz haben Sie als natürlicher empfunden?</p>","key_press":74,"test_part":"response","test_stimulus":{"position":1,"left":"bvh/vr_prediction_models/model(vcgpdm)-dataset(pass-bottle)-mode(ELBO)-parts(1)-dyn(10)-lvm(30)-hold(1)/final-lines.txt","right":"bvh/pass-bottle-training1-lines.txt","att_check":false},"trial_type":"html-keyboard-response","trial_index":326,"time_elapsed":631259,"internal_node_id":"0.0-8.0-3.79","subject":"cupylzxnfp5kgmv","sona":"7672"},{"rt":6721.590000001015,"responses":"{\"age\":\"24\",\"gender\":\"weiblich\"}","trial_type":"survey-text","trial_index":327,"time_elapsed":637994,"internal_node_id":"0.0-10.0-0.0","subject":"cupylzxnfp5kgmv","sona":"7672"},{"rt":101092.31500000169,"responses":"{\"area\":\"Arme und Knie\",\"Q1\":\"- Teilw. Bewegung zu steif\\n- Männchen teilw. in Bewegung \\\"eingefroren\\\"\\n- Unnatürliche Drehungen\",\"Q2\":\"- die \\\"eingefrorenen\\\" Bewegungen und die unnatürlichen Drehungen\"}","trial_type":"survey-text","trial_index":328,"time_elapsed":739104,"internal_node_id":"0.0-10.0-1.0","subject":"cupylzxnfp5kgmv","sona":"7672"}]