[{"rt":23664,"stimulus":"<p>Welcome!<br> Please choose your language to start the experiment in the chosen language.</p><p>Willkommen!<br> Bitte wählen Sie eine Sprache um das Experiment in der ausgewählten Sprache zu starten</p>","button_pressed":"1","trial_type":"html-button-response","trial_index":0,"time_elapsed":23674,"internal_node_id":"0.0-0.0","subject":"kknnbzndv252gun","sona":"THNS"},{"view_history":"[{\"page_index\":0,\"viewing_time\":5365},{\"page_index\":1,\"viewing_time\":4165},{\"page_index\":2,\"viewing_time\":3593},{\"page_index\":3,\"viewing_time\":2632}]","rt":15756,"trial_type":"instructions","trial_index":1,"time_elapsed":39432,"internal_node_id":"0.0-1.0-0.0","subject":"kknnbzndv252gun","sona":"THNS"},{"rt":1958,"stimulus":"<p>Bereit?</p>","button_pressed":"0","trial_type":"html-button-response","trial_index":2,"time_elapsed":41393,"internal_node_id":"0.0-3.0","subject":"kknnbzndv252gun","sona":"THNS"},{"rt":null,"stimulus":"<div style=\"font-size:60px;\">+</div>","key_press":null,"trial_type":"html-keyboard-response","trial_index":3,"time_elapsed":43395,"internal_node_id":"0.0-4.0","subject":"kknnbzndv252gun","sona":"THNS"},{"trial_type":"training","trial_index":4,"time_elapsed":47376,"internal_node_id":"0.0-5.0","subject":"kknnbzndv252gun","sona":"THNS"},{"rt":2479,"stimulus":"<p>Welche Sequenz haben Sie als natürlicher empfunden?</p>","button_pressed":"0","trial_type":"html-button-response","trial_index":5,"time_elapsed":49855,"internal_node_id":"0.0-6.0","subject":"kknnbzndv252gun","sona":"THNS"},{"rt":3351,"stimulus":"<p>Das Experiment startet nun.</p><p> Bitte drücken Sie den Knopf, wenn Sie bereit sind.</p>","button_pressed":"0","trial_type":"html-button-response","trial_index":6,"time_elapsed":53209,"internal_node_id":"0.0-7.0","subject":"kknnbzndv252gun","sona":"THNS"},{"rt":1344,"stimulus":"<p>Bereit?</p>","button_pressed":"0","trial_type":"html-button-response","trial_index":7,"time_elapsed":54555,"internal_node_id":"0.0-8.0-0.0","subject":"kknnbzndv252gun","sona":"THNS"},{"rt":null,"stimulus":"<div style=\"font-size:60px;\">+</div>","key_press":null,"trial_type":"html-keyboard-response","trial_index":8,"time_elapsed":56557,"internal_node_id":"0.0-8.0-1.0","subject":"kknnbzndv252gun","sona":"THNS"},{"trial_type":"turing-test","trial_index":9,"time_elapsed":63614,"internal_node_id":"0.0-8.0-2.0","subject":"kknnbzndv252gun","sona":"THNS"},{"rt":2365,"stimulus":"<p>Welche Sequenz haben Sie als natürlicher empfunden?</p>","button_pressed":"0","test_part":"response","test_stimulus":{"position":0,"left":"bvh/pass-bottle-training0-lines.txt","right":"bvh/vr_prediction_models/model(dmp)-dataset(pass-bottle)-npsi(30)-hold(0)/final-lines.txt","att_check":false},"trial_type":"html-button-response","trial_index":10,"time_elapsed":65983,"internal_node_id":"0.0-8.0-3.0","subject":"kknnbzndv252gun","sona":"THNS"},{"rt":1031,"stimulus":"<p>Bereit?</p>","button_pressed":"0","trial_type":"html-button-response","trial_index":11,"time_elapsed":67016,"internal_node_id":"0.0-8.0-0.1","subject":"kknnbzndv252gun","sona":"THNS"},{"rt":null,"stimulus":"<div style=\"font-size:60px;\">+</div>","key_press":null,"trial_type":"html-keyboard-response","trial_index":12,"time_elapsed":69018,"internal_node_id":"0.0-8.0-1.1","subject":"kknnbzndv252gun","sona":"THNS"},{"trial_type":"turing-test","trial_index":13,"time_elapsed":77764,"internal_node_id":"0.0-8.0-2.1","subject":"kknnbzndv252gun","sona":"THNS"},{"rt":2217,"stimulus":"<p>Welche Sequenz haben Sie als natürlicher empfunden?</p>","button_pressed":"1","test_part":"response","test_stimulus":{"position":0,"left":"bvh/pass-bottle-training4-lines.txt","right":"bvh/vr_prediction_models/model(tmp)-dataset(pass-bottle)-numprim(10)-hold(4)/final-lines.txt","att_check":false},"trial_type":"html-button-response","trial_index":14,"time_elapsed":79983,"internal_node_id":"0.0-8.0-3.1","subject":"kknnbzndv252gun","sona":"THNS"},{"rt":1146,"stimulus":"<p>Bereit?</p>","button_pressed":"0","trial_type":"html-button-response","trial_index":15,"time_elapsed":81131,"internal_node_id":"0.0-8.0-0.2","subject":"kknnbzndv252gun","sona":"THNS"},{"rt":null,"stimulus":"<div style=\"font-size:60px;\">+</div>","key_press":null,"trial_type":"html-keyboard-response","trial_index":16,"time_elapsed":83133,"internal_node_id":"0.0-8.0-1.2","subject":"kknnbzndv252gun","sona":"THNS"},{"trial_type":"turing-test","trial_index":17,"time_elapsed":91802,"internal_node_id":"0.0-8.0-2.2","subject":"kknnbzndv252gun","sona":"THNS"},{"rt":1665,"stimulus":"<p>Welche Sequenz haben Sie als natürlicher empfunden?</p>","button_pressed":"0","test_part":"response","test_stimulus":{"position":1,"left":"bvh/vr_prediction_models/model(tmp)-dataset(pass-bottle)-numprim(14)-hold(2)/final-lines.txt","right":"bvh/pass-bottle-training2-lines.txt","att_check":false},"trial_type":"html-button-response","trial_index":18,"time_elapsed":93469,"internal_node_id":"0.0-8.0-3.2","subject":"kknnbzndv252gun","sona":"THNS"},{"rt":796,"stimulus":"<p>Bereit?</p>","button_pressed":"0","trial_type":"html-button-response","trial_index":19,"time_elapsed":94267,"internal_node_id":"0.0-8.0-0.3","subject":"kknnbzndv252gun","sona":"THNS"},{"rt":null,"stimulus":"<div style=\"font-size:60px;\">+</div>","key_press":null,"trial_type":"html-keyboard-response","trial_index":20,"time_elapsed":96271,"internal_node_id":"0.0-8.0-1.3","subject":"kknnbzndv252gun","sona":"THNS"},{"trial_type":"turing-test","trial_index":21,"time_elapsed":101413,"internal_node_id":"0.0-8.0-2.3","subject":"kknnbzndv252gun","sona":"THNS"},{"rt":1570,"stimulus":"<p>Welche Sequenz haben Sie als natürlicher empfunden?</p>","button_pressed":"0","test_part":"response","test_stimulus":{"position":0,"left":"bvh/pass-bottle-hold-training0-lines.txt","right":"bvh/vr_prediction_models/model(vcgpdm)-dataset(pass-bottle-hold)-mode(ELBO)-parts(3)-dyn(10)-lvm(25)-hold(0)/final-lines.txt","att_check":false},"trial_type":"html-button-response","trial_index":22,"time_elapsed":102986,"internal_node_id":"0.0-8.0-3.3","subject":"kknnbzndv252gun","sona":"THNS"},{"rt":687,"stimulus":"<p>Bereit?</p>","button_pressed":"0","trial_type":"html-button-response","trial_index":23,"time_elapsed":103675,"internal_node_id":"0.0-8.0-0.4","subject":"kknnbzndv252gun","sona":"THNS"},{"rt":null,"stimulus":"<div style=\"font-size:60px;\">+</div>","key_press":null,"trial_type":"html-keyboard-response","trial_index":24,"time_elapsed":105678,"internal_node_id":"0.0-8.0-1.4","subject":"kknnbzndv252gun","sona":"THNS"},{"trial_type":"turing-test","trial_index":25,"time_elapsed":109490,"internal_node_id":"0.0-8.0-2.4","subject":"kknnbzndv252gun","sona":"THNS"},{"rt":1497,"stimulus":"<p>Welche Sequenz haben Sie als natürlicher empfunden?</p>","button_pressed":"0","test_part":"response","test_stimulus":{"position":1,"left":"bvh/vr_prediction_models/model(tmp)-dataset(pass-bottle-hold)-numprim(4)-hold(2)/final-lines.txt","right":"bvh/pass-bottle-hold-training2-lines.txt","att_check":false},"trial_type":"html-button-response","trial_index":26,"time_elapsed":110989,"internal_node_id":"0.0-8.0-3.4","subject":"kknnbzndv252gun","sona":"THNS"},{"rt":645,"stimulus":"<p>Bereit?</p>","button_pressed":"0","trial_type":"html-button-response","trial_index":27,"time_elapsed":111636,"internal_node_id":"0.0-8.0-0.5","subject":"kknnbzndv252gun","sona":"THNS"},{"rt":null,"stimulus":"<div style=\"font-size:60px;\">+</div>","key_press":null,"trial_type":"html-keyboard-response","trial_index":28,"time_elapsed":113637,"internal_node_id":"0.0-8.0-1.5","subject":"kknnbzndv252gun","sona":"THNS"},{"trial_type":"turing-test","trial_index":29,"time_elapsed":119083,"internal_node_id":"0.0-8.0-2.5","subject":"kknnbzndv252gun","sona":"THNS"},{"rt":1289,"stimulus":"<p>Welche Sequenz haben Sie als natürlicher empfunden?</p>","button_pressed":"1","test_part":"response","test_stimulus":{"position":0,"left":"bvh/pass-bottle-training1-lines.txt","right":"bvh/vr_prediction_models/model(tmp)-dataset(pass-bottle)-numprim(11)-hold(1)/final-lines.txt","att_check":false},"trial_type":"html-button-response","trial_index":30,"time_elapsed":120373,"internal_node_id":"0.0-8.0-3.5","subject":"kknnbzndv252gun","sona":"THNS"},{"rt":1111,"stimulus":"<p>Bereit?</p>","button_pressed":"0","trial_type":"html-button-response","trial_index":31,"time_elapsed":121486,"internal_node_id":"0.0-8.0-0.6","subject":"kknnbzndv252gun","sona":"THNS"},{"rt":null,"stimulus":"<div style=\"font-size:60px;\">+</div>","key_press":null,"trial_type":"html-keyboard-response","trial_index":32,"time_elapsed":123488,"internal_node_id":"0.0-8.0-1.6","subject":"kknnbzndv252gun","sona":"THNS"},{"trial_type":"turing-test","trial_index":33,"time_elapsed":129277,"internal_node_id":"0.0-8.0-2.6","subject":"kknnbzndv252gun","sona":"THNS"},{"rt":1429,"stimulus":"<p>Welche Sequenz haben Sie als natürlicher empfunden?</p>","button_pressed":"1","test_part":"response","test_stimulus":{"position":1,"left":"bvh/vr_prediction_models/model(vcgpdm)-dataset(return-bottle-hold)-mode(ELBO)-parts(1)-dyn(20)-lvm(5)-hold(2)/final-lines.txt","right":"bvh/return-bottle-hold-training2-lines.txt","att_check":false},"trial_type":"html-button-response","trial_index":34,"time_elapsed":130707,"internal_node_id":"0.0-8.0-3.6","subject":"kknnbzndv252gun","sona":"THNS"},{"rt":1384,"stimulus":"<p>Bereit?</p>","button_pressed":"0","trial_type":"html-button-response","trial_index":35,"time_elapsed":132094,"internal_node_id":"0.0-8.0-0.7","subject":"kknnbzndv252gun","sona":"THNS"},{"rt":null,"stimulus":"<div style=\"font-size:60px;\">+</div>","key_press":null,"trial_type":"html-keyboard-response","trial_index":36,"time_elapsed":134096,"internal_node_id":"0.0-8.0-1.7","subject":"kknnbzndv252gun","sona":"THNS"},{"trial_type":"turing-test","trial_index":37,"time_elapsed":137860,"internal_node_id":"0.0-8.0-2.7","subject":"kknnbzndv252gun","sona":"THNS"},{"rt":2935,"stimulus":"<p>Welche Sequenz haben Sie als natürlicher empfunden?</p>","button_pressed":"1","test_part":"response","test_stimulus":{"position":0,"left":"bvh/return-bottle-hold-training1-lines.txt","right":"bvh/vr_prediction_models/model(tmp)-dataset(return-bottle-hold)-numprim(7)-hold(1)/final-lines.txt","att_check":false},"trial_type":"html-button-response","trial_index":38,"time_elapsed":140796,"internal_node_id":"0.0-8.0-3.7","subject":"kknnbzndv252gun","sona":"THNS"},{"rt":1437,"stimulus":"<p>Bereit?</p>","button_pressed":"0","trial_type":"html-button-response","trial_index":39,"time_elapsed":142236,"internal_node_id":"0.0-8.0-0.8","subject":"kknnbzndv252gun","sona":"THNS"},{"rt":null,"stimulus":"<div style=\"font-size:60px;\">+</div>","key_press":null,"trial_type":"html-keyboard-response","trial_index":40,"time_elapsed":144238,"internal_node_id":"0.0-8.0-1.8","subject":"kknnbzndv252gun","sona":"THNS"},{"trial_type":"turing-test","trial_index":41,"time_elapsed":148691,"internal_node_id":"0.0-8.0-2.8","subject":"kknnbzndv252gun","sona":"THNS"},{"rt":1374,"stimulus":"<p>Welche Sequenz haben Sie als natürlicher empfunden?</p>","button_pressed":"0","test_part":"response","test_stimulus":{"position":0,"left":"bvh/pass-bottle-hold-training4-lines.txt","right":"bvh/vr_prediction_models/model(dmp)-dataset(pass-bottle-hold)-npsi(50)-hold(4)/final-lines.txt","att_check":false},"trial_type":"html-button-response","trial_index":42,"time_elapsed":150068,"internal_node_id":"0.0-8.0-3.8","subject":"kknnbzndv252gun","sona":"THNS"},{"rt":1382,"stimulus":"<p>Bereit?</p>","button_pressed":"0","trial_type":"html-button-response","trial_index":43,"time_elapsed":151453,"internal_node_id":"0.0-8.0-0.9","subject":"kknnbzndv252gun","sona":"THNS"},{"rt":null,"stimulus":"<div style=\"font-size:60px;\">+</div>","key_press":null,"trial_type":"html-keyboard-response","trial_index":44,"time_elapsed":153454,"internal_node_id":"0.0-8.0-1.9","subject":"kknnbzndv252gun","sona":"THNS"},{"trial_type":"turing-test","trial_index":45,"time_elapsed":158031,"internal_node_id":"0.0-8.0-2.9","subject":"kknnbzndv252gun","sona":"THNS"},{"rt":1410,"stimulus":"<p>Welche Sequenz haben Sie als natürlicher empfunden?</p>","button_pressed":"1","test_part":"response","test_stimulus":{"position":1,"left":"bvh/vr_prediction_models/model(tmp)-dataset(pass-bottle-hold)-numprim(9)-hold(3)/final-lines.txt","right":"bvh/pass-bottle-hold-training3-lines.txt","att_check":false},"trial_type":"html-button-response","trial_index":46,"time_elapsed":159442,"internal_node_id":"0.0-8.0-3.9","subject":"kknnbzndv252gun","sona":"THNS"},{"rt":1198,"stimulus":"<p>Bereit?</p>","button_pressed":"0","trial_type":"html-button-response","trial_index":47,"time_elapsed":160643,"internal_node_id":"0.0-8.0-0.10","subject":"kknnbzndv252gun","sona":"THNS"},{"rt":null,"stimulus":"<div style=\"font-size:60px;\">+</div>","key_press":null,"trial_type":"html-keyboard-response","trial_index":48,"time_elapsed":162644,"internal_node_id":"0.0-8.0-1.10","subject":"kknnbzndv252gun","sona":"THNS"},{"trial_type":"turing-test","trial_index":49,"time_elapsed":170923,"internal_node_id":"0.0-8.0-2.10","subject":"kknnbzndv252gun","sona":"THNS"},{"rt":1903,"stimulus":"<p>Welche Sequenz haben Sie als natürlicher empfunden?</p>","button_pressed":"0","test_part":"response","test_stimulus":{"position":0,"left":"bvh/pass-bottle-training3-lines.txt","right":"bvh/vr_prediction_models/model(vcgpdm)-dataset(pass-bottle)-mode(ELBO)-parts(1)-dyn(30)-lvm(20)-hold(3)/final-lines.txt","att_check":false},"trial_type":"html-button-response","trial_index":50,"time_elapsed":172829,"internal_node_id":"0.0-8.0-3.10","subject":"kknnbzndv252gun","sona":"THNS"},{"rt":1266,"stimulus":"<p>Bereit?</p>","button_pressed":"0","trial_type":"html-button-response","trial_index":51,"time_elapsed":174097,"internal_node_id":"0.0-8.0-0.11","subject":"kknnbzndv252gun","sona":"THNS"},{"rt":null,"stimulus":"<div style=\"font-size:60px;\">+</div>","key_press":null,"trial_type":"html-keyboard-response","trial_index":52,"time_elapsed":176099,"internal_node_id":"0.0-8.0-1.11","subject":"kknnbzndv252gun","sona":"THNS"},{"trial_type":"turing-test","trial_index":53,"time_elapsed":179425,"internal_node_id":"0.0-8.0-2.11","subject":"kknnbzndv252gun","sona":"THNS"},{"rt":1601,"stimulus":"<p>Welche Sequenz haben Sie als natürlicher empfunden?</p>","button_pressed":"1","test_part":"response","test_stimulus":{"position":0,"left":"bvh/pass-bottle-hold-training0-lines.txt","right":"bvh/vr_prediction_models/model(dmp)-dataset(pass-bottle-hold)-npsi(10)-hold(0)/final-lines.txt","att_check":true},"trial_type":"html-button-response","trial_index":54,"time_elapsed":181027,"internal_node_id":"0.0-8.0-3.11","subject":"kknnbzndv252gun","sona":"THNS"},{"rt":822,"stimulus":"<p>Bereit?</p>","button_pressed":"0","trial_type":"html-button-response","trial_index":55,"time_elapsed":181852,"internal_node_id":"0.0-8.0-0.12","subject":"kknnbzndv252gun","sona":"THNS"},{"rt":null,"stimulus":"<div style=\"font-size:60px;\">+</div>","key_press":null,"trial_type":"html-keyboard-response","trial_index":56,"time_elapsed":183855,"internal_node_id":"0.0-8.0-1.12","subject":"kknnbzndv252gun","sona":"THNS"},{"trial_type":"turing-test","trial_index":57,"time_elapsed":189094,"internal_node_id":"0.0-8.0-2.12","subject":"kknnbzndv252gun","sona":"THNS"},{"rt":2127,"stimulus":"<p>Welche Sequenz haben Sie als natürlicher empfunden?</p>","button_pressed":"0","test_part":"response","test_stimulus":{"position":0,"left":"bvh/return-bottle-hold-training0-lines.txt","right":"bvh/vr_prediction_models/model(vcgpdm)-dataset(return-bottle-hold)-mode(ELBO)-parts(1)-dyn(30)-lvm(35)-hold(0)/final-lines.txt","att_check":false},"trial_type":"html-button-response","trial_index":58,"time_elapsed":191222,"internal_node_id":"0.0-8.0-3.12","subject":"kknnbzndv252gun","sona":"THNS"},{"rt":932,"stimulus":"<p>Bereit?</p>","button_pressed":"0","trial_type":"html-button-response","trial_index":59,"time_elapsed":192159,"internal_node_id":"0.0-8.0-0.13","subject":"kknnbzndv252gun","sona":"THNS"},{"rt":null,"stimulus":"<div style=\"font-size:60px;\">+</div>","key_press":null,"trial_type":"html-keyboard-response","trial_index":60,"time_elapsed":194161,"internal_node_id":"0.0-8.0-1.13","subject":"kknnbzndv252gun","sona":"THNS"},{"trial_type":"turing-test","trial_index":61,"time_elapsed":198796,"internal_node_id":"0.0-8.0-2.13","subject":"kknnbzndv252gun","sona":"THNS"},{"rt":1261,"stimulus":"<p>Welche Sequenz haben Sie als natürlicher empfunden?</p>","button_pressed":"0","test_part":"response","test_stimulus":{"position":0,"left":"bvh/pass-bottle-hold-training0-lines.txt","right":"bvh/vr_prediction_models/model(vcgpdm)-dataset(pass-bottle-hold)-mode(ELBO)-parts(1)-dyn(30)-lvm(35)-hold(0)/final-lines.txt","att_check":false},"trial_type":"html-button-response","trial_index":62,"time_elapsed":200060,"internal_node_id":"0.0-8.0-3.13","subject":"kknnbzndv252gun","sona":"THNS"},{"rt":1155,"stimulus":"<p>Bereit?</p>","button_pressed":"0","trial_type":"html-button-response","trial_index":63,"time_elapsed":201217,"internal_node_id":"0.0-8.0-0.14","subject":"kknnbzndv252gun","sona":"THNS"},{"rt":null,"stimulus":"<div style=\"font-size:60px;\">+</div>","key_press":null,"trial_type":"html-keyboard-response","trial_index":64,"time_elapsed":203219,"internal_node_id":"0.0-8.0-1.14","subject":"kknnbzndv252gun","sona":"THNS"},{"trial_type":"turing-test","trial_index":65,"time_elapsed":210339,"internal_node_id":"0.0-8.0-2.14","subject":"kknnbzndv252gun","sona":"THNS"},{"rt":3666,"stimulus":"<p>Welche Sequenz haben Sie als natürlicher empfunden?</p>","button_pressed":"1","test_part":"response","test_stimulus":{"position":1,"left":"bvh/vr_prediction_models/model(vcgpdm)-dataset(pass-bottle-hold)-mode(ELBO)-parts(3)-dyn(25)-lvm(15)-hold(4)/final-lines.txt","right":"bvh/pass-bottle-hold-training4-lines.txt","att_check":false},"trial_type":"html-button-response","trial_index":66,"time_elapsed":214007,"internal_node_id":"0.0-8.0-3.14","subject":"kknnbzndv252gun","sona":"THNS"},{"rt":1525,"stimulus":"<p>Bereit?</p>","button_pressed":"0","trial_type":"html-button-response","trial_index":67,"time_elapsed":215534,"internal_node_id":"0.0-8.0-0.15","subject":"kknnbzndv252gun","sona":"THNS"},{"rt":null,"stimulus":"<div style=\"font-size:60px;\">+</div>","key_press":null,"trial_type":"html-keyboard-response","trial_index":68,"time_elapsed":217535,"internal_node_id":"0.0-8.0-1.15","subject":"kknnbzndv252gun","sona":"THNS"},{"trial_type":"turing-test","trial_index":69,"time_elapsed":222484,"internal_node_id":"0.0-8.0-2.15","subject":"kknnbzndv252gun","sona":"THNS"},{"rt":1788,"stimulus":"<p>Welche Sequenz haben Sie als natürlicher empfunden?</p>","button_pressed":"1","test_part":"response","test_stimulus":{"position":1,"left":"bvh/vr_prediction_models/model(tmp)-dataset(pass-bottle-hold)-numprim(7)-hold(0)/final-lines.txt","right":"bvh/pass-bottle-hold-training0-lines.txt","att_check":false},"trial_type":"html-button-response","trial_index":70,"time_elapsed":224274,"internal_node_id":"0.0-8.0-3.15","subject":"kknnbzndv252gun","sona":"THNS"},{"rt":844,"stimulus":"<p>Bereit?</p>","button_pressed":"0","trial_type":"html-button-response","trial_index":71,"time_elapsed":225120,"internal_node_id":"0.0-8.0-0.16","subject":"kknnbzndv252gun","sona":"THNS"},{"rt":null,"stimulus":"<div style=\"font-size:60px;\">+</div>","key_press":null,"trial_type":"html-keyboard-response","trial_index":72,"time_elapsed":227123,"internal_node_id":"0.0-8.0-1.16","subject":"kknnbzndv252gun","sona":"THNS"},{"trial_type":"turing-test","trial_index":73,"time_elapsed":232780,"internal_node_id":"0.0-8.0-2.16","subject":"kknnbzndv252gun","sona":"THNS"},{"rt":1744,"stimulus":"<p>Welche Sequenz haben Sie als natürlicher empfunden?</p>","button_pressed":"0","test_part":"response","test_stimulus":{"position":0,"left":"bvh/pass-bottle-training1-lines.txt","right":"bvh/vr_prediction_models/model(vcgpdm)-dataset(pass-bottle)-mode(ELBO)-parts(1)-dyn(35)-lvm(10)-hold(1)/final-lines.txt","att_check":false},"trial_type":"html-button-response","trial_index":74,"time_elapsed":234527,"internal_node_id":"0.0-8.0-3.16","subject":"kknnbzndv252gun","sona":"THNS"},{"rt":669,"stimulus":"<p>Bereit?</p>","button_pressed":"0","trial_type":"html-button-response","trial_index":75,"time_elapsed":235198,"internal_node_id":"0.0-8.0-0.17","subject":"kknnbzndv252gun","sona":"THNS"},{"rt":null,"stimulus":"<div style=\"font-size:60px;\">+</div>","key_press":null,"trial_type":"html-keyboard-response","trial_index":76,"time_elapsed":237201,"internal_node_id":"0.0-8.0-1.17","subject":"kknnbzndv252gun","sona":"THNS"},{"trial_type":"turing-test","trial_index":77,"time_elapsed":242036,"internal_node_id":"0.0-8.0-2.17","subject":"kknnbzndv252gun","sona":"THNS"},{"rt":1012,"stimulus":"<p>Welche Sequenz haben Sie als natürlicher empfunden?</p>","button_pressed":"1","test_part":"response","test_stimulus":{"position":1,"left":"bvh/vr_prediction_models/model(vcgpdm)-dataset(return-bottle-hold)-mode(ELBO)-parts(3)-dyn(20)-lvm(35)-hold(4)/final-lines.txt","right":"bvh/return-bottle-hold-training4-lines.txt","att_check":false},"trial_type":"html-button-response","trial_index":78,"time_elapsed":243050,"internal_node_id":"0.0-8.0-3.17","subject":"kknnbzndv252gun","sona":"THNS"},{"rt":1032,"stimulus":"<p>Bereit?</p>","button_pressed":"0","trial_type":"html-button-response","trial_index":79,"time_elapsed":244085,"internal_node_id":"0.0-8.0-0.18","subject":"kknnbzndv252gun","sona":"THNS"},{"rt":null,"stimulus":"<div style=\"font-size:60px;\">+</div>","key_press":null,"trial_type":"html-keyboard-response","trial_index":80,"time_elapsed":246086,"internal_node_id":"0.0-8.0-1.18","subject":"kknnbzndv252gun","sona":"THNS"},{"trial_type":"turing-test","trial_index":81,"time_elapsed":250145,"internal_node_id":"0.0-8.0-2.18","subject":"kknnbzndv252gun","sona":"THNS"},{"rt":1847,"stimulus":"<p>Welche Sequenz haben Sie als natürlicher empfunden?</p>","button_pressed":"0","test_part":"response","test_stimulus":{"position":1,"left":"bvh/vr_prediction_models/model(vcgpdm)-dataset(pass-bottle-hold)-mode(ELBO)-parts(3)-dyn(20)-lvm(15)-hold(2)/final-lines.txt","right":"bvh/pass-bottle-hold-training2-lines.txt","att_check":false},"trial_type":"html-button-response","trial_index":82,"time_elapsed":251995,"internal_node_id":"0.0-8.0-3.18","subject":"kknnbzndv252gun","sona":"THNS"},{"rt":684,"stimulus":"<p>Bereit?</p>","button_pressed":"0","trial_type":"html-button-response","trial_index":83,"time_elapsed":252682,"internal_node_id":"0.0-8.0-0.19","subject":"kknnbzndv252gun","sona":"THNS"},{"rt":null,"stimulus":"<div style=\"font-size:60px;\">+</div>","key_press":null,"trial_type":"html-keyboard-response","trial_index":84,"time_elapsed":254685,"internal_node_id":"0.0-8.0-1.19","subject":"kknnbzndv252gun","sona":"THNS"},{"trial_type":"turing-test","trial_index":85,"time_elapsed":258190,"internal_node_id":"0.0-8.0-2.19","subject":"kknnbzndv252gun","sona":"THNS"},{"rt":1289,"stimulus":"<p>Welche Sequenz haben Sie als natürlicher empfunden?</p>","button_pressed":"1","test_part":"response","test_stimulus":{"position":1,"left":"bvh/vr_prediction_models/model(dmp)-dataset(pass-bottle-hold)-npsi(50)-hold(4)/final-lines.txt","right":"bvh/pass-bottle-hold-training4-lines.txt","att_check":false},"trial_type":"html-button-response","trial_index":86,"time_elapsed":259480,"internal_node_id":"0.0-8.0-3.19","subject":"kknnbzndv252gun","sona":"THNS"},{"rt":1277,"stimulus":"<p>Bereit?</p>","button_pressed":"0","trial_type":"html-button-response","trial_index":87,"time_elapsed":260761,"internal_node_id":"0.0-8.0-0.20","subject":"kknnbzndv252gun","sona":"THNS"},{"rt":null,"stimulus":"<div style=\"font-size:60px;\">+</div>","key_press":null,"trial_type":"html-keyboard-response","trial_index":88,"time_elapsed":262762,"internal_node_id":"0.0-8.0-1.20","subject":"kknnbzndv252gun","sona":"THNS"},{"trial_type":"turing-test","trial_index":89,"time_elapsed":266334,"internal_node_id":"0.0-8.0-2.20","subject":"kknnbzndv252gun","sona":"THNS"},{"rt":1365,"stimulus":"<p>Welche Sequenz haben Sie als natürlicher empfunden?</p>","button_pressed":"1","test_part":"response","test_stimulus":{"position":0,"left":"bvh/return-bottle-hold-training2-lines.txt","right":"bvh/vr_prediction_models/model(vcgpdm)-dataset(return-bottle-hold)-mode(ELBO)-parts(3)-dyn(30)-lvm(15)-hold(2)/final-lines.txt","att_check":false},"trial_type":"html-button-response","trial_index":90,"time_elapsed":267703,"internal_node_id":"0.0-8.0-3.20","subject":"kknnbzndv252gun","sona":"THNS"},{"rt":1170,"stimulus":"<p>Bereit?</p>","button_pressed":"0","trial_type":"html-button-response","trial_index":91,"time_elapsed":268875,"internal_node_id":"0.0-8.0-0.21","subject":"kknnbzndv252gun","sona":"THNS"},{"rt":null,"stimulus":"<div style=\"font-size:60px;\">+</div>","key_press":null,"trial_type":"html-keyboard-response","trial_index":92,"time_elapsed":270877,"internal_node_id":"0.0-8.0-1.21","subject":"kknnbzndv252gun","sona":"THNS"},{"trial_type":"turing-test","trial_index":93,"time_elapsed":275958,"internal_node_id":"0.0-8.0-2.21","subject":"kknnbzndv252gun","sona":"THNS"},{"rt":1611,"stimulus":"<p>Welche Sequenz haben Sie als natürlicher empfunden?</p>","button_pressed":"1","test_part":"response","test_stimulus":{"position":1,"left":"bvh/vr_prediction_models/model(dmp)-dataset(return-bottle-hold)-npsi(80)-hold(0)/final-lines.txt","right":"bvh/return-bottle-hold-training0-lines.txt","att_check":false},"trial_type":"html-button-response","trial_index":94,"time_elapsed":277571,"internal_node_id":"0.0-8.0-3.21","subject":"kknnbzndv252gun","sona":"THNS"},{"rt":1241,"stimulus":"<p>Bereit?</p>","button_pressed":"0","trial_type":"html-button-response","trial_index":95,"time_elapsed":278814,"internal_node_id":"0.0-8.0-0.22","subject":"kknnbzndv252gun","sona":"THNS"},{"rt":null,"stimulus":"<div style=\"font-size:60px;\">+</div>","key_press":null,"trial_type":"html-keyboard-response","trial_index":96,"time_elapsed":280817,"internal_node_id":"0.0-8.0-1.22","subject":"kknnbzndv252gun","sona":"THNS"},{"trial_type":"turing-test","trial_index":97,"time_elapsed":287000,"internal_node_id":"0.0-8.0-2.22","subject":"kknnbzndv252gun","sona":"THNS"},{"rt":1866,"stimulus":"<p>Welche Sequenz haben Sie als natürlicher empfunden?</p>","button_pressed":"1","test_part":"response","test_stimulus":{"position":1,"left":"bvh/vr_prediction_models/model(vcgpdm)-dataset(pass-bottle)-mode(ELBO)-parts(1)-dyn(10)-lvm(30)-hold(4)/final-lines.txt","right":"bvh/pass-bottle-training4-lines.txt","att_check":false},"trial_type":"html-button-response","trial_index":98,"time_elapsed":288867,"internal_node_id":"0.0-8.0-3.22","subject":"kknnbzndv252gun","sona":"THNS"},{"rt":663,"stimulus":"<p>Bereit?</p>","button_pressed":"0","trial_type":"html-button-response","trial_index":99,"time_elapsed":289535,"internal_node_id":"0.0-8.0-0.23","subject":"kknnbzndv252gun","sona":"THNS"},{"rt":null,"stimulus":"<div style=\"font-size:60px;\">+</div>","key_press":null,"trial_type":"html-keyboard-response","trial_index":100,"time_elapsed":291537,"internal_node_id":"0.0-8.0-1.23","subject":"kknnbzndv252gun","sona":"THNS"},{"trial_type":"turing-test","trial_index":101,"time_elapsed":297391,"internal_node_id":"0.0-8.0-2.23","subject":"kknnbzndv252gun","sona":"THNS"},{"rt":1113,"stimulus":"<p>Welche Sequenz haben Sie als natürlicher empfunden?</p>","button_pressed":"1","test_part":"response","test_stimulus":{"position":1,"left":"bvh/vr_prediction_models/model(vcgpdm)-dataset(pass-bottle)-mode(ELBO)-parts(1)-dyn(30)-lvm(30)-hold(4)/final-lines.txt","right":"bvh/pass-bottle-training4-lines.txt","att_check":false},"trial_type":"html-button-response","trial_index":102,"time_elapsed":298507,"internal_node_id":"0.0-8.0-3.23","subject":"kknnbzndv252gun","sona":"THNS"},{"rt":559,"stimulus":"<p>Bereit?</p>","button_pressed":"0","trial_type":"html-button-response","trial_index":103,"time_elapsed":299069,"internal_node_id":"0.0-8.0-0.24","subject":"kknnbzndv252gun","sona":"THNS"},{"rt":null,"stimulus":"<div style=\"font-size:60px;\">+</div>","key_press":null,"trial_type":"html-keyboard-response","trial_index":104,"time_elapsed":301072,"internal_node_id":"0.0-8.0-1.24","subject":"kknnbzndv252gun","sona":"THNS"},{"trial_type":"turing-test","trial_index":105,"time_elapsed":310609,"internal_node_id":"0.0-8.0-2.24","subject":"kknnbzndv252gun","sona":"THNS"},{"rt":1182,"stimulus":"<p>Welche Sequenz haben Sie als natürlicher empfunden?</p>","button_pressed":"1","test_part":"response","test_stimulus":{"position":1,"left":"bvh/vr_prediction_models/model(dmp)-dataset(pass-bottle)-npsi(90)-hold(0)/final-lines.txt","right":"bvh/pass-bottle-training0-lines.txt","att_check":true},"trial_type":"html-button-response","trial_index":106,"time_elapsed":311795,"internal_node_id":"0.0-8.0-3.24","subject":"kknnbzndv252gun","sona":"THNS"},{"rt":1281,"stimulus":"<p>Bereit?</p>","button_pressed":"0","trial_type":"html-button-response","trial_index":107,"time_elapsed":313079,"internal_node_id":"0.0-8.0-0.25","subject":"kknnbzndv252gun","sona":"THNS"},{"rt":null,"stimulus":"<div style=\"font-size:60px;\">+</div>","key_press":null,"trial_type":"html-keyboard-response","trial_index":108,"time_elapsed":315081,"internal_node_id":"0.0-8.0-1.25","subject":"kknnbzndv252gun","sona":"THNS"},{"trial_type":"turing-test","trial_index":109,"time_elapsed":319590,"internal_node_id":"0.0-8.0-2.25","subject":"kknnbzndv252gun","sona":"THNS"},{"rt":1773,"stimulus":"<p>Welche Sequenz haben Sie als natürlicher empfunden?</p>","button_pressed":"1","test_part":"response","test_stimulus":{"position":1,"left":"bvh/vr_prediction_models/model(tmp)-dataset(return-bottle-hold)-numprim(7)-hold(4)/final-lines.txt","right":"bvh/return-bottle-hold-training4-lines.txt","att_check":false},"trial_type":"html-button-response","trial_index":110,"time_elapsed":321365,"internal_node_id":"0.0-8.0-3.25","subject":"kknnbzndv252gun","sona":"THNS"},{"rt":2124,"stimulus":"<p>Bereit?</p>","button_pressed":"0","trial_type":"html-button-response","trial_index":111,"time_elapsed":323493,"internal_node_id":"0.0-8.0-0.26","subject":"kknnbzndv252gun","sona":"THNS"},{"rt":null,"stimulus":"<div style=\"font-size:60px;\">+</div>","key_press":null,"trial_type":"html-keyboard-response","trial_index":112,"time_elapsed":325494,"internal_node_id":"0.0-8.0-1.26","subject":"kknnbzndv252gun","sona":"THNS"},{"trial_type":"turing-test","trial_index":113,"time_elapsed":331970,"internal_node_id":"0.0-8.0-2.26","subject":"kknnbzndv252gun","sona":"THNS"},{"rt":1715,"stimulus":"<p>Welche Sequenz haben Sie als natürlicher empfunden?</p>","button_pressed":"0","test_part":"response","test_stimulus":{"position":0,"left":"bvh/pass-bottle-hold-training2-lines.txt","right":"bvh/vr_prediction_models/model(vcgpdm)-dataset(pass-bottle-hold)-mode(ELBO)-parts(3)-dyn(30)-lvm(15)-hold(2)/final-lines.txt","att_check":false},"trial_type":"html-button-response","trial_index":114,"time_elapsed":333687,"internal_node_id":"0.0-8.0-3.26","subject":"kknnbzndv252gun","sona":"THNS"},{"rt":949,"stimulus":"<p>Bereit?</p>","button_pressed":"0","trial_type":"html-button-response","trial_index":115,"time_elapsed":334639,"internal_node_id":"0.0-8.0-0.27","subject":"kknnbzndv252gun","sona":"THNS"},{"rt":null,"stimulus":"<div style=\"font-size:60px;\">+</div>","key_press":null,"trial_type":"html-keyboard-response","trial_index":116,"time_elapsed":336641,"internal_node_id":"0.0-8.0-1.27","subject":"kknnbzndv252gun","sona":"THNS"},{"trial_type":"turing-test","trial_index":117,"time_elapsed":342860,"internal_node_id":"0.0-8.0-2.27","subject":"kknnbzndv252gun","sona":"THNS"},{"rt":1749,"stimulus":"<p>Welche Sequenz haben Sie als natürlicher empfunden?</p>","button_pressed":"1","test_part":"response","test_stimulus":{"position":0,"left":"bvh/return-bottle-training1-lines.txt","right":"bvh/vr_prediction_models/model(vcgpdm)-dataset(return-bottle)-mode(ELBO)-parts(1)-dyn(10)-lvm(30)-hold(1)/final-lines.txt","att_check":false},"trial_type":"html-button-response","trial_index":118,"time_elapsed":344612,"internal_node_id":"0.0-8.0-3.27","subject":"kknnbzndv252gun","sona":"THNS"},{"rt":670,"stimulus":"<p>Bereit?</p>","button_pressed":"0","trial_type":"html-button-response","trial_index":119,"time_elapsed":345285,"internal_node_id":"0.0-8.0-0.28","subject":"kknnbzndv252gun","sona":"THNS"},{"rt":null,"stimulus":"<div style=\"font-size:60px;\">+</div>","key_press":null,"trial_type":"html-keyboard-response","trial_index":120,"time_elapsed":347287,"internal_node_id":"0.0-8.0-1.28","subject":"kknnbzndv252gun","sona":"THNS"},{"trial_type":"turing-test","trial_index":121,"time_elapsed":352818,"internal_node_id":"0.0-8.0-2.28","subject":"kknnbzndv252gun","sona":"THNS"},{"rt":1521,"stimulus":"<p>Welche Sequenz haben Sie als natürlicher empfunden?</p>","button_pressed":"1","test_part":"response","test_stimulus":{"position":1,"left":"bvh/vr_prediction_models/model(vcgpdm)-dataset(pass-bottle-hold)-mode(ELBO)-parts(3)-dyn(10)-lvm(25)-hold(2)/final-lines.txt","right":"bvh/pass-bottle-hold-training2-lines.txt","att_check":false},"trial_type":"html-button-response","trial_index":122,"time_elapsed":354341,"internal_node_id":"0.0-8.0-3.28","subject":"kknnbzndv252gun","sona":"THNS"},{"rt":1159,"stimulus":"<p>Bereit?</p>","button_pressed":"0","trial_type":"html-button-response","trial_index":123,"time_elapsed":355503,"internal_node_id":"0.0-8.0-0.29","subject":"kknnbzndv252gun","sona":"THNS"},{"rt":null,"stimulus":"<div style=\"font-size:60px;\">+</div>","key_press":null,"trial_type":"html-keyboard-response","trial_index":124,"time_elapsed":357505,"internal_node_id":"0.0-8.0-1.29","subject":"kknnbzndv252gun","sona":"THNS"},{"trial_type":"turing-test","trial_index":125,"time_elapsed":365701,"internal_node_id":"0.0-8.0-2.29","subject":"kknnbzndv252gun","sona":"THNS"},{"rt":1227,"stimulus":"<p>Welche Sequenz haben Sie als natürlicher empfunden?</p>","button_pressed":"1","test_part":"response","test_stimulus":{"position":1,"left":"bvh/vr_prediction_models/model(vcgpdm)-dataset(pass-bottle)-mode(ELBO)-parts(1)-dyn(30)-lvm(35)-hold(0)/final-lines.txt","right":"bvh/pass-bottle-training0-lines.txt","att_check":false},"trial_type":"html-button-response","trial_index":126,"time_elapsed":366931,"internal_node_id":"0.0-8.0-3.29","subject":"kknnbzndv252gun","sona":"THNS"},{"rt":1339,"stimulus":"<p>Bereit?</p>","button_pressed":"0","trial_type":"html-button-response","trial_index":127,"time_elapsed":368273,"internal_node_id":"0.0-8.0-0.30","subject":"kknnbzndv252gun","sona":"THNS"},{"rt":null,"stimulus":"<div style=\"font-size:60px;\">+</div>","key_press":null,"trial_type":"html-keyboard-response","trial_index":128,"time_elapsed":370275,"internal_node_id":"0.0-8.0-1.30","subject":"kknnbzndv252gun","sona":"THNS"},{"trial_type":"turing-test","trial_index":129,"time_elapsed":379266,"internal_node_id":"0.0-8.0-2.30","subject":"kknnbzndv252gun","sona":"THNS"},{"rt":1284,"stimulus":"<p>Welche Sequenz haben Sie als natürlicher empfunden?</p>","button_pressed":"0","test_part":"response","test_stimulus":{"position":0,"left":"bvh/return-bottle-training2-lines.txt","right":"bvh/vr_prediction_models/model(vcgpdm)-dataset(return-bottle)-mode(ELBO)-parts(3)-dyn(25)-lvm(30)-hold(2)/final-lines.txt","att_check":false},"trial_type":"html-button-response","trial_index":130,"time_elapsed":380553,"internal_node_id":"0.0-8.0-3.30","subject":"kknnbzndv252gun","sona":"THNS"},{"rt":849,"stimulus":"<p>Bereit?</p>","button_pressed":"0","trial_type":"html-button-response","trial_index":131,"time_elapsed":381405,"internal_node_id":"0.0-8.0-0.31","subject":"kknnbzndv252gun","sona":"THNS"},{"rt":null,"stimulus":"<div style=\"font-size:60px;\">+</div>","key_press":null,"trial_type":"html-keyboard-response","trial_index":132,"time_elapsed":383409,"internal_node_id":"0.0-8.0-1.31","subject":"kknnbzndv252gun","sona":"THNS"},{"trial_type":"turing-test","trial_index":133,"time_elapsed":388510,"internal_node_id":"0.0-8.0-2.31","subject":"kknnbzndv252gun","sona":"THNS"},{"rt":1379,"stimulus":"<p>Welche Sequenz haben Sie als natürlicher empfunden?</p>","button_pressed":"0","test_part":"response","test_stimulus":{"position":0,"left":"bvh/return-bottle-hold-training1-lines.txt","right":"bvh/vr_prediction_models/model(vcgpdm)-dataset(return-bottle-hold)-mode(ELBO)-parts(3)-dyn(20)-lvm(20)-hold(1)/final-lines.txt","att_check":false},"trial_type":"html-button-response","trial_index":134,"time_elapsed":389891,"internal_node_id":"0.0-8.0-3.31","subject":"kknnbzndv252gun","sona":"THNS"},{"rt":747,"stimulus":"<p>Bereit?</p>","button_pressed":"0","trial_type":"html-button-response","trial_index":135,"time_elapsed":390642,"internal_node_id":"0.0-8.0-0.32","subject":"kknnbzndv252gun","sona":"THNS"},{"rt":null,"stimulus":"<div style=\"font-size:60px;\">+</div>","key_press":null,"trial_type":"html-keyboard-response","trial_index":136,"time_elapsed":392644,"internal_node_id":"0.0-8.0-1.32","subject":"kknnbzndv252gun","sona":"THNS"},{"trial_type":"turing-test","trial_index":137,"time_elapsed":398485,"internal_node_id":"0.0-8.0-2.32","subject":"kknnbzndv252gun","sona":"THNS"},{"rt":1811,"stimulus":"<p>Welche Sequenz haben Sie als natürlicher empfunden?</p>","button_pressed":"0","test_part":"response","test_stimulus":{"position":0,"left":"bvh/return-bottle-training4-lines.txt","right":"bvh/vr_prediction_models/model(tmp)-dataset(return-bottle)-numprim(4)-hold(4)/final-lines.txt","att_check":false},"trial_type":"html-button-response","trial_index":138,"time_elapsed":400299,"internal_node_id":"0.0-8.0-3.32","subject":"kknnbzndv252gun","sona":"THNS"},{"rt":1370,"stimulus":"<p>Bereit?</p>","button_pressed":"0","trial_type":"html-button-response","trial_index":139,"time_elapsed":401671,"internal_node_id":"0.0-8.0-0.33","subject":"kknnbzndv252gun","sona":"THNS"},{"rt":null,"stimulus":"<div style=\"font-size:60px;\">+</div>","key_press":null,"trial_type":"html-keyboard-response","trial_index":140,"time_elapsed":403673,"internal_node_id":"0.0-8.0-1.33","subject":"kknnbzndv252gun","sona":"THNS"},{"trial_type":"turing-test","trial_index":141,"time_elapsed":411784,"internal_node_id":"0.0-8.0-2.33","subject":"kknnbzndv252gun","sona":"THNS"},{"rt":1673,"stimulus":"<p>Welche Sequenz haben Sie als natürlicher empfunden?</p>","button_pressed":"1","test_part":"response","test_stimulus":{"position":1,"left":"bvh/vr_prediction_models/model(vcgpdm)-dataset(return-bottle)-mode(ELBO)-parts(1)-dyn(30)-lvm(35)-hold(1)/final-lines.txt","right":"bvh/return-bottle-training1-lines.txt","att_check":false},"trial_type":"html-button-response","trial_index":142,"time_elapsed":413459,"internal_node_id":"0.0-8.0-3.33","subject":"kknnbzndv252gun","sona":"THNS"},{"rt":615,"stimulus":"<p>Bereit?</p>","button_pressed":"0","trial_type":"html-button-response","trial_index":143,"time_elapsed":414078,"internal_node_id":"0.0-8.0-0.34","subject":"kknnbzndv252gun","sona":"THNS"},{"rt":null,"stimulus":"<div style=\"font-size:60px;\">+</div>","key_press":null,"trial_type":"html-keyboard-response","trial_index":144,"time_elapsed":416080,"internal_node_id":"0.0-8.0-1.34","subject":"kknnbzndv252gun","sona":"THNS"},{"trial_type":"turing-test","trial_index":145,"time_elapsed":419999,"internal_node_id":"0.0-8.0-2.34","subject":"kknnbzndv252gun","sona":"THNS"},{"rt":1221,"stimulus":"<p>Welche Sequenz haben Sie als natürlicher empfunden?</p>","button_pressed":"1","test_part":"response","test_stimulus":{"position":0,"left":"bvh/pass-bottle-hold-training4-lines.txt","right":"bvh/vr_prediction_models/model(tmp)-dataset(pass-bottle-hold)-numprim(8)-hold(4)/final-lines.txt","att_check":false},"trial_type":"html-button-response","trial_index":146,"time_elapsed":421223,"internal_node_id":"0.0-8.0-3.34","subject":"kknnbzndv252gun","sona":"THNS"},{"rt":531,"stimulus":"<p>Bereit?</p>","button_pressed":"0","trial_type":"html-button-response","trial_index":147,"time_elapsed":421759,"internal_node_id":"0.0-8.0-0.35","subject":"kknnbzndv252gun","sona":"THNS"},{"rt":null,"stimulus":"<div style=\"font-size:60px;\">+</div>","key_press":null,"trial_type":"html-keyboard-response","trial_index":148,"time_elapsed":423760,"internal_node_id":"0.0-8.0-1.35","subject":"kknnbzndv252gun","sona":"THNS"},{"trial_type":"turing-test","trial_index":149,"time_elapsed":430500,"internal_node_id":"0.0-8.0-2.35","subject":"kknnbzndv252gun","sona":"THNS"},{"rt":1272,"stimulus":"<p>Welche Sequenz haben Sie als natürlicher empfunden?</p>","button_pressed":"0","test_part":"response","test_stimulus":{"position":0,"left":"bvh/return-bottle-hold-training0-lines.txt","right":"bvh/vr_prediction_models/model(vcgpdm)-dataset(return-bottle-hold)-mode(ELBO)-parts(3)-dyn(15)-lvm(30)-hold(0)/final-lines.txt","att_check":false},"trial_type":"html-button-response","trial_index":150,"time_elapsed":431774,"internal_node_id":"0.0-8.0-3.35","subject":"kknnbzndv252gun","sona":"THNS"},{"rt":691,"stimulus":"<p>Bereit?</p>","button_pressed":"0","trial_type":"html-button-response","trial_index":151,"time_elapsed":432468,"internal_node_id":"0.0-8.0-0.36","subject":"kknnbzndv252gun","sona":"THNS"},{"rt":null,"stimulus":"<div style=\"font-size:60px;\">+</div>","key_press":null,"trial_type":"html-keyboard-response","trial_index":152,"time_elapsed":434471,"internal_node_id":"0.0-8.0-1.36","subject":"kknnbzndv252gun","sona":"THNS"},{"trial_type":"turing-test","trial_index":153,"time_elapsed":438354,"internal_node_id":"0.0-8.0-2.36","subject":"kknnbzndv252gun","sona":"THNS"},{"rt":1202,"stimulus":"<p>Welche Sequenz haben Sie als natürlicher empfunden?</p>","button_pressed":"1","test_part":"response","test_stimulus":{"position":1,"left":"bvh/vr_prediction_models/model(vcgpdm)-dataset(pass-bottle-hold)-mode(ELBO)-parts(1)-dyn(20)-lvm(30)-hold(4)/final-lines.txt","right":"bvh/pass-bottle-hold-training4-lines.txt","att_check":false},"trial_type":"html-button-response","trial_index":154,"time_elapsed":439560,"internal_node_id":"0.0-8.0-3.36","subject":"kknnbzndv252gun","sona":"THNS"},{"rt":492,"stimulus":"<p>Bereit?</p>","button_pressed":"0","trial_type":"html-button-response","trial_index":155,"time_elapsed":440056,"internal_node_id":"0.0-8.0-0.37","subject":"kknnbzndv252gun","sona":"THNS"},{"rt":null,"stimulus":"<div style=\"font-size:60px;\">+</div>","key_press":null,"trial_type":"html-keyboard-response","trial_index":156,"time_elapsed":442057,"internal_node_id":"0.0-8.0-1.37","subject":"kknnbzndv252gun","sona":"THNS"},{"trial_type":"turing-test","trial_index":157,"time_elapsed":447729,"internal_node_id":"0.0-8.0-2.37","subject":"kknnbzndv252gun","sona":"THNS"},{"rt":1558,"stimulus":"<p>Welche Sequenz haben Sie als natürlicher empfunden?</p>","button_pressed":"0","test_part":"response","test_stimulus":{"position":1,"left":"bvh/vr_prediction_models/model(tmp)-dataset(return-bottle)-numprim(4)-hold(4)/final-lines.txt","right":"bvh/return-bottle-training4-lines.txt","att_check":false},"trial_type":"html-button-response","trial_index":158,"time_elapsed":449290,"internal_node_id":"0.0-8.0-3.37","subject":"kknnbzndv252gun","sona":"THNS"},{"rt":504,"stimulus":"<p>Bereit?</p>","button_pressed":"0","trial_type":"html-button-response","trial_index":159,"time_elapsed":449799,"internal_node_id":"0.0-8.0-0.38","subject":"kknnbzndv252gun","sona":"THNS"},{"rt":null,"stimulus":"<div style=\"font-size:60px;\">+</div>","key_press":null,"trial_type":"html-keyboard-response","trial_index":160,"time_elapsed":451799,"internal_node_id":"0.0-8.0-1.38","subject":"kknnbzndv252gun","sona":"THNS"},{"trial_type":"turing-test","trial_index":161,"time_elapsed":455086,"internal_node_id":"0.0-8.0-2.38","subject":"kknnbzndv252gun","sona":"THNS"},{"rt":1578,"stimulus":"<p>Welche Sequenz haben Sie als natürlicher empfunden?</p>","button_pressed":"1","test_part":"response","test_stimulus":{"position":0,"left":"bvh/pass-bottle-hold-training2-lines.txt","right":"bvh/vr_prediction_models/model(tmp)-dataset(pass-bottle-hold)-numprim(9)-hold(2)/final-lines.txt","att_check":false},"trial_type":"html-button-response","trial_index":162,"time_elapsed":456666,"internal_node_id":"0.0-8.0-3.38","subject":"kknnbzndv252gun","sona":"THNS"},{"rt":471,"stimulus":"<p>Bereit?</p>","button_pressed":"0","trial_type":"html-button-response","trial_index":163,"time_elapsed":457140,"internal_node_id":"0.0-8.0-0.39","subject":"kknnbzndv252gun","sona":"THNS"},{"rt":null,"stimulus":"<div style=\"font-size:60px;\">+</div>","key_press":null,"trial_type":"html-keyboard-response","trial_index":164,"time_elapsed":459144,"internal_node_id":"0.0-8.0-1.39","subject":"kknnbzndv252gun","sona":"THNS"},{"trial_type":"turing-test","trial_index":165,"time_elapsed":465325,"internal_node_id":"0.0-8.0-2.39","subject":"kknnbzndv252gun","sona":"THNS"},{"rt":1287,"stimulus":"<p>Welche Sequenz haben Sie als natürlicher empfunden?</p>","button_pressed":"1","test_part":"response","test_stimulus":{"position":1,"left":"bvh/vr_prediction_models/model(tmp)-dataset(pass-bottle)-numprim(12)-hold(2)/final-lines.txt","right":"bvh/pass-bottle-training2-lines.txt","att_check":false},"trial_type":"html-button-response","trial_index":166,"time_elapsed":466614,"internal_node_id":"0.0-8.0-3.39","subject":"kknnbzndv252gun","sona":"THNS"},{"rt":719,"stimulus":"<p>Bereit?</p>","button_pressed":"0","trial_type":"html-button-response","trial_index":167,"time_elapsed":467336,"internal_node_id":"0.0-8.0-0.40","subject":"kknnbzndv252gun","sona":"THNS"},{"rt":null,"stimulus":"<div style=\"font-size:60px;\">+</div>","key_press":null,"trial_type":"html-keyboard-response","trial_index":168,"time_elapsed":469338,"internal_node_id":"0.0-8.0-1.40","subject":"kknnbzndv252gun","sona":"THNS"},{"trial_type":"turing-test","trial_index":169,"time_elapsed":475217,"internal_node_id":"0.0-8.0-2.40","subject":"kknnbzndv252gun","sona":"THNS"},{"rt":1389,"stimulus":"<p>Welche Sequenz haben Sie als natürlicher empfunden?</p>","button_pressed":"1","test_part":"response","test_stimulus":{"position":0,"left":"bvh/pass-bottle-training4-lines.txt","right":"bvh/vr_prediction_models/model(tmp)-dataset(pass-bottle)-numprim(7)-hold(4)/final-lines.txt","att_check":false},"trial_type":"html-button-response","trial_index":170,"time_elapsed":476610,"internal_node_id":"0.0-8.0-3.40","subject":"kknnbzndv252gun","sona":"THNS"},{"rt":491,"stimulus":"<p>Bereit?</p>","button_pressed":"0","trial_type":"html-button-response","trial_index":171,"time_elapsed":477103,"internal_node_id":"0.0-8.0-0.41","subject":"kknnbzndv252gun","sona":"THNS"},{"rt":null,"stimulus":"<div style=\"font-size:60px;\">+</div>","key_press":null,"trial_type":"html-keyboard-response","trial_index":172,"time_elapsed":479106,"internal_node_id":"0.0-8.0-1.41","subject":"kknnbzndv252gun","sona":"THNS"},{"trial_type":"turing-test","trial_index":173,"time_elapsed":485150,"internal_node_id":"0.0-8.0-2.41","subject":"kknnbzndv252gun","sona":"THNS"},{"rt":1154,"stimulus":"<p>Welche Sequenz haben Sie als natürlicher empfunden?</p>","button_pressed":"1","test_part":"response","test_stimulus":{"position":0,"left":"bvh/return-bottle-training4-lines.txt","right":"bvh/vr_prediction_models/model(vcgpdm)-dataset(return-bottle)-mode(ELBO)-parts(1)-dyn(10)-lvm(25)-hold(4)/final-lines.txt","att_check":false},"trial_type":"html-button-response","trial_index":174,"time_elapsed":486308,"internal_node_id":"0.0-8.0-3.41","subject":"kknnbzndv252gun","sona":"THNS"},{"rt":628,"stimulus":"<p>Bereit?</p>","button_pressed":"0","trial_type":"html-button-response","trial_index":175,"time_elapsed":486939,"internal_node_id":"0.0-8.0-0.42","subject":"kknnbzndv252gun","sona":"THNS"},{"rt":null,"stimulus":"<div style=\"font-size:60px;\">+</div>","key_press":null,"trial_type":"html-keyboard-response","trial_index":176,"time_elapsed":488941,"internal_node_id":"0.0-8.0-1.42","subject":"kknnbzndv252gun","sona":"THNS"},{"trial_type":"turing-test","trial_index":177,"time_elapsed":494678,"internal_node_id":"0.0-8.0-2.42","subject":"kknnbzndv252gun","sona":"THNS"},{"rt":1488,"stimulus":"<p>Welche Sequenz haben Sie als natürlicher empfunden?</p>","button_pressed":"0","test_part":"response","test_stimulus":{"position":1,"left":"bvh/vr_prediction_models/model(tmp)-dataset(return-bottle)-numprim(12)-hold(4)/final-lines.txt","right":"bvh/return-bottle-training4-lines.txt","att_check":false},"trial_type":"html-button-response","trial_index":178,"time_elapsed":496170,"internal_node_id":"0.0-8.0-3.42","subject":"kknnbzndv252gun","sona":"THNS"},{"rt":760,"stimulus":"<p>Bereit?</p>","button_pressed":"0","trial_type":"html-button-response","trial_index":179,"time_elapsed":496935,"internal_node_id":"0.0-8.0-0.43","subject":"kknnbzndv252gun","sona":"THNS"},{"rt":null,"stimulus":"<div style=\"font-size:60px;\">+</div>","key_press":null,"trial_type":"html-keyboard-response","trial_index":180,"time_elapsed":498938,"internal_node_id":"0.0-8.0-1.43","subject":"kknnbzndv252gun","sona":"THNS"},{"trial_type":"turing-test","trial_index":181,"time_elapsed":502610,"internal_node_id":"0.0-8.0-2.43","subject":"kknnbzndv252gun","sona":"THNS"},{"rt":1373,"stimulus":"<p>Welche Sequenz haben Sie als natürlicher empfunden?</p>","button_pressed":"0","test_part":"response","test_stimulus":{"position":0,"left":"bvh/return-bottle-hold-training4-lines.txt","right":"bvh/vr_prediction_models/model(tmp)-dataset(return-bottle-hold)-numprim(8)-hold(4)/final-lines.txt","att_check":false},"trial_type":"html-button-response","trial_index":182,"time_elapsed":503986,"internal_node_id":"0.0-8.0-3.43","subject":"kknnbzndv252gun","sona":"THNS"},{"rt":731,"stimulus":"<p>Bereit?</p>","button_pressed":"0","trial_type":"html-button-response","trial_index":183,"time_elapsed":504720,"internal_node_id":"0.0-8.0-0.44","subject":"kknnbzndv252gun","sona":"THNS"},{"rt":null,"stimulus":"<div style=\"font-size:60px;\">+</div>","key_press":null,"trial_type":"html-keyboard-response","trial_index":184,"time_elapsed":506721,"internal_node_id":"0.0-8.0-1.44","subject":"kknnbzndv252gun","sona":"THNS"},{"trial_type":"turing-test","trial_index":185,"time_elapsed":510290,"internal_node_id":"0.0-8.0-2.44","subject":"kknnbzndv252gun","sona":"THNS"},{"rt":1391,"stimulus":"<p>Welche Sequenz haben Sie als natürlicher empfunden?</p>","button_pressed":"0","test_part":"response","test_stimulus":{"position":1,"left":"bvh/vr_prediction_models/model(dmp)-dataset(pass-bottle-hold)-npsi(60)-hold(4)/final-lines.txt","right":"bvh/pass-bottle-hold-training4-lines.txt","att_check":false},"trial_type":"html-button-response","trial_index":186,"time_elapsed":511684,"internal_node_id":"0.0-8.0-3.44","subject":"kknnbzndv252gun","sona":"THNS"},{"rt":472,"stimulus":"<p>Bereit?</p>","button_pressed":"0","trial_type":"html-button-response","trial_index":187,"time_elapsed":512159,"internal_node_id":"0.0-8.0-0.45","subject":"kknnbzndv252gun","sona":"THNS"},{"rt":null,"stimulus":"<div style=\"font-size:60px;\">+</div>","key_press":null,"trial_type":"html-keyboard-response","trial_index":188,"time_elapsed":514161,"internal_node_id":"0.0-8.0-1.45","subject":"kknnbzndv252gun","sona":"THNS"},{"trial_type":"turing-test","trial_index":189,"time_elapsed":520185,"internal_node_id":"0.0-8.0-2.45","subject":"kknnbzndv252gun","sona":"THNS"},{"rt":2504,"stimulus":"<p>Welche Sequenz haben Sie als natürlicher empfunden?</p>","button_pressed":"0","test_part":"response","test_stimulus":{"position":0,"left":"bvh/return-bottle-training1-lines.txt","right":"bvh/vr_prediction_models/model(dmp)-dataset(return-bottle)-npsi(20)-hold(1)/final-lines.txt","att_check":false},"trial_type":"html-button-response","trial_index":190,"time_elapsed":522692,"internal_node_id":"0.0-8.0-3.45","subject":"kknnbzndv252gun","sona":"THNS"},{"rt":1220,"stimulus":"<p>Bereit?</p>","button_pressed":"0","trial_type":"html-button-response","trial_index":191,"time_elapsed":523915,"internal_node_id":"0.0-8.0-0.46","subject":"kknnbzndv252gun","sona":"THNS"},{"rt":null,"stimulus":"<div style=\"font-size:60px;\">+</div>","key_press":null,"trial_type":"html-keyboard-response","trial_index":192,"time_elapsed":525917,"internal_node_id":"0.0-8.0-1.46","subject":"kknnbzndv252gun","sona":"THNS"},{"trial_type":"turing-test","trial_index":193,"time_elapsed":532516,"internal_node_id":"0.0-8.0-2.46","subject":"kknnbzndv252gun","sona":"THNS"},{"rt":1306,"stimulus":"<p>Welche Sequenz haben Sie als natürlicher empfunden?</p>","button_pressed":"1","test_part":"response","test_stimulus":{"position":1,"left":"bvh/vr_prediction_models/model(dmp)-dataset(pass-bottle)-npsi(100)-hold(3)/final-lines.txt","right":"bvh/pass-bottle-training3-lines.txt","att_check":true},"trial_type":"html-button-response","trial_index":194,"time_elapsed":533825,"internal_node_id":"0.0-8.0-3.46","subject":"kknnbzndv252gun","sona":"THNS"},{"rt":728,"stimulus":"<p>Bereit?</p>","button_pressed":"0","trial_type":"html-button-response","trial_index":195,"time_elapsed":534555,"internal_node_id":"0.0-8.0-0.47","subject":"kknnbzndv252gun","sona":"THNS"},{"rt":null,"stimulus":"<div style=\"font-size:60px;\">+</div>","key_press":null,"trial_type":"html-keyboard-response","trial_index":196,"time_elapsed":536558,"internal_node_id":"0.0-8.0-1.47","subject":"kknnbzndv252gun","sona":"THNS"},{"trial_type":"turing-test","trial_index":197,"time_elapsed":541562,"internal_node_id":"0.0-8.0-2.47","subject":"kknnbzndv252gun","sona":"THNS"},{"rt":1636,"stimulus":"<p>Welche Sequenz haben Sie als natürlicher empfunden?</p>","button_pressed":"0","test_part":"response","test_stimulus":{"position":0,"left":"bvh/return-bottle-hold-training0-lines.txt","right":"bvh/vr_prediction_models/model(dmp)-dataset(return-bottle-hold)-npsi(80)-hold(0)/final-lines.txt","att_check":true},"trial_type":"html-button-response","trial_index":198,"time_elapsed":543201,"internal_node_id":"0.0-8.0-3.47","subject":"kknnbzndv252gun","sona":"THNS"},{"rt":411,"stimulus":"<p>Bereit?</p>","button_pressed":"0","trial_type":"html-button-response","trial_index":199,"time_elapsed":543616,"internal_node_id":"0.0-8.0-0.48","subject":"kknnbzndv252gun","sona":"THNS"},{"rt":null,"stimulus":"<div style=\"font-size:60px;\">+</div>","key_press":null,"trial_type":"html-keyboard-response","trial_index":200,"time_elapsed":545618,"internal_node_id":"0.0-8.0-1.48","subject":"kknnbzndv252gun","sona":"THNS"},{"trial_type":"turing-test","trial_index":201,"time_elapsed":550537,"internal_node_id":"0.0-8.0-2.48","subject":"kknnbzndv252gun","sona":"THNS"},{"rt":1582,"stimulus":"<p>Welche Sequenz haben Sie als natürlicher empfunden?</p>","button_pressed":"0","test_part":"response","test_stimulus":{"position":1,"left":"bvh/vr_prediction_models/model(tmp)-dataset(pass-bottle-hold)-numprim(6)-hold(0)/final-lines.txt","right":"bvh/pass-bottle-hold-training0-lines.txt","att_check":false},"trial_type":"html-button-response","trial_index":202,"time_elapsed":552123,"internal_node_id":"0.0-8.0-3.48","subject":"kknnbzndv252gun","sona":"THNS"},{"rt":639,"stimulus":"<p>Bereit?</p>","button_pressed":"0","trial_type":"html-button-response","trial_index":203,"time_elapsed":552764,"internal_node_id":"0.0-8.0-0.49","subject":"kknnbzndv252gun","sona":"THNS"},{"rt":null,"stimulus":"<div style=\"font-size:60px;\">+</div>","key_press":null,"trial_type":"html-keyboard-response","trial_index":204,"time_elapsed":554765,"internal_node_id":"0.0-8.0-1.49","subject":"kknnbzndv252gun","sona":"THNS"},{"trial_type":"turing-test","trial_index":205,"time_elapsed":559011,"internal_node_id":"0.0-8.0-2.49","subject":"kknnbzndv252gun","sona":"THNS"},{"rt":828,"stimulus":"<p>Welche Sequenz haben Sie als natürlicher empfunden?</p>","button_pressed":"0","test_part":"response","test_stimulus":{"position":1,"left":"bvh/vr_prediction_models/model(vcgpdm)-dataset(return-bottle-hold)-mode(ELBO)-parts(1)-dyn(20)-lvm(20)-hold(3)/final-lines.txt","right":"bvh/return-bottle-hold-training3-lines.txt","att_check":false},"trial_type":"html-button-response","trial_index":206,"time_elapsed":559841,"internal_node_id":"0.0-8.0-3.49","subject":"kknnbzndv252gun","sona":"THNS"},{"rt":486,"stimulus":"<p>Bereit?</p>","button_pressed":"0","trial_type":"html-button-response","trial_index":207,"time_elapsed":560330,"internal_node_id":"0.0-8.0-0.50","subject":"kknnbzndv252gun","sona":"THNS"},{"rt":null,"stimulus":"<div style=\"font-size:60px;\">+</div>","key_press":null,"trial_type":"html-keyboard-response","trial_index":208,"time_elapsed":562332,"internal_node_id":"0.0-8.0-1.50","subject":"kknnbzndv252gun","sona":"THNS"},{"trial_type":"turing-test","trial_index":209,"time_elapsed":565883,"internal_node_id":"0.0-8.0-2.50","subject":"kknnbzndv252gun","sona":"THNS"},{"rt":1487,"stimulus":"<p>Welche Sequenz haben Sie als natürlicher empfunden?</p>","button_pressed":"1","test_part":"response","test_stimulus":{"position":0,"left":"bvh/pass-bottle-hold-training3-lines.txt","right":"bvh/vr_prediction_models/model(tmp)-dataset(pass-bottle-hold)-numprim(10)-hold(3)/final-lines.txt","att_check":false},"trial_type":"html-button-response","trial_index":210,"time_elapsed":567374,"internal_node_id":"0.0-8.0-3.50","subject":"kknnbzndv252gun","sona":"THNS"},{"rt":460,"stimulus":"<p>Bereit?</p>","button_pressed":"0","trial_type":"html-button-response","trial_index":211,"time_elapsed":567836,"internal_node_id":"0.0-8.0-0.51","subject":"kknnbzndv252gun","sona":"THNS"},{"rt":null,"stimulus":"<div style=\"font-size:60px;\">+</div>","key_press":null,"trial_type":"html-keyboard-response","trial_index":212,"time_elapsed":569838,"internal_node_id":"0.0-8.0-1.51","subject":"kknnbzndv252gun","sona":"THNS"},{"trial_type":"turing-test","trial_index":213,"time_elapsed":575213,"internal_node_id":"0.0-8.0-2.51","subject":"kknnbzndv252gun","sona":"THNS"},{"rt":1152,"stimulus":"<p>Welche Sequenz haben Sie als natürlicher empfunden?</p>","button_pressed":"0","test_part":"response","test_stimulus":{"position":1,"left":"bvh/vr_prediction_models/model(tmp)-dataset(pass-bottle-hold)-numprim(14)-hold(4)/final-lines.txt","right":"bvh/pass-bottle-hold-training4-lines.txt","att_check":false},"trial_type":"html-button-response","trial_index":214,"time_elapsed":576369,"internal_node_id":"0.0-8.0-3.51","subject":"kknnbzndv252gun","sona":"THNS"},{"rt":402,"stimulus":"<p>Bereit?</p>","button_pressed":"0","trial_type":"html-button-response","trial_index":215,"time_elapsed":576776,"internal_node_id":"0.0-8.0-0.52","subject":"kknnbzndv252gun","sona":"THNS"},{"rt":null,"stimulus":"<div style=\"font-size:60px;\">+</div>","key_press":null,"trial_type":"html-keyboard-response","trial_index":216,"time_elapsed":578777,"internal_node_id":"0.0-8.0-1.52","subject":"kknnbzndv252gun","sona":"THNS"},{"trial_type":"turing-test","trial_index":217,"time_elapsed":584636,"internal_node_id":"0.0-8.0-2.52","subject":"kknnbzndv252gun","sona":"THNS"},{"rt":1552,"stimulus":"<p>Welche Sequenz haben Sie als natürlicher empfunden?</p>","button_pressed":"0","test_part":"response","test_stimulus":{"position":0,"left":"bvh/pass-bottle-training4-lines.txt","right":"bvh/vr_prediction_models/model(vcgpdm)-dataset(pass-bottle)-mode(ELBO)-parts(1)-dyn(10)-lvm(25)-hold(4)/final-lines.txt","att_check":false},"trial_type":"html-button-response","trial_index":218,"time_elapsed":586191,"internal_node_id":"0.0-8.0-3.52","subject":"kknnbzndv252gun","sona":"THNS"},{"rt":685,"stimulus":"<p>Bereit?</p>","button_pressed":"0","trial_type":"html-button-response","trial_index":219,"time_elapsed":586879,"internal_node_id":"0.0-8.0-0.53","subject":"kknnbzndv252gun","sona":"THNS"},{"rt":null,"stimulus":"<div style=\"font-size:60px;\">+</div>","key_press":null,"trial_type":"html-keyboard-response","trial_index":220,"time_elapsed":588880,"internal_node_id":"0.0-8.0-1.53","subject":"kknnbzndv252gun","sona":"THNS"},{"trial_type":"turing-test","trial_index":221,"time_elapsed":594632,"internal_node_id":"0.0-8.0-2.53","subject":"kknnbzndv252gun","sona":"THNS"},{"rt":2384,"stimulus":"<p>Welche Sequenz haben Sie als natürlicher empfunden?</p>","button_pressed":"1","test_part":"response","test_stimulus":{"position":1,"left":"bvh/vr_prediction_models/model(tmp)-dataset(return-bottle)-numprim(6)-hold(0)/final-lines.txt","right":"bvh/return-bottle-training0-lines.txt","att_check":false},"trial_type":"html-button-response","trial_index":222,"time_elapsed":597019,"internal_node_id":"0.0-8.0-3.53","subject":"kknnbzndv252gun","sona":"THNS"},{"rt":615,"stimulus":"<p>Bereit?</p>","button_pressed":"0","trial_type":"html-button-response","trial_index":223,"time_elapsed":597637,"internal_node_id":"0.0-8.0-0.54","subject":"kknnbzndv252gun","sona":"THNS"},{"rt":null,"stimulus":"<div style=\"font-size:60px;\">+</div>","key_press":null,"trial_type":"html-keyboard-response","trial_index":224,"time_elapsed":599639,"internal_node_id":"0.0-8.0-1.54","subject":"kknnbzndv252gun","sona":"THNS"},{"trial_type":"turing-test","trial_index":225,"time_elapsed":603173,"internal_node_id":"0.0-8.0-2.54","subject":"kknnbzndv252gun","sona":"THNS"},{"rt":1451,"stimulus":"<p>Welche Sequenz haben Sie als natürlicher empfunden?</p>","button_pressed":"1","test_part":"response","test_stimulus":{"position":0,"left":"bvh/pass-bottle-hold-training3-lines.txt","right":"bvh/vr_prediction_models/model(dmp)-dataset(pass-bottle-hold)-npsi(70)-hold(3)/final-lines.txt","att_check":true},"trial_type":"html-button-response","trial_index":226,"time_elapsed":604627,"internal_node_id":"0.0-8.0-3.54","subject":"kknnbzndv252gun","sona":"THNS"},{"rt":386,"stimulus":"<p>Bereit?</p>","button_pressed":"0","trial_type":"html-button-response","trial_index":227,"time_elapsed":605017,"internal_node_id":"0.0-8.0-0.55","subject":"kknnbzndv252gun","sona":"THNS"},{"rt":null,"stimulus":"<div style=\"font-size:60px;\">+</div>","key_press":null,"trial_type":"html-keyboard-response","trial_index":228,"time_elapsed":607019,"internal_node_id":"0.0-8.0-1.55","subject":"kknnbzndv252gun","sona":"THNS"},{"trial_type":"turing-test","trial_index":229,"time_elapsed":613031,"internal_node_id":"0.0-8.0-2.55","subject":"kknnbzndv252gun","sona":"THNS"},{"rt":1112,"stimulus":"<p>Welche Sequenz haben Sie als natürlicher empfunden?</p>","button_pressed":"0","test_part":"response","test_stimulus":{"position":1,"left":"bvh/vr_prediction_models/model(tmp)-dataset(return-bottle-hold)-numprim(6)-hold(0)/final-lines.txt","right":"bvh/return-bottle-hold-training0-lines.txt","att_check":false},"trial_type":"html-button-response","trial_index":230,"time_elapsed":614145,"internal_node_id":"0.0-8.0-3.55","subject":"kknnbzndv252gun","sona":"THNS"},{"rt":730,"stimulus":"<p>Bereit?</p>","button_pressed":"0","trial_type":"html-button-response","trial_index":231,"time_elapsed":614879,"internal_node_id":"0.0-8.0-0.56","subject":"kknnbzndv252gun","sona":"THNS"},{"rt":null,"stimulus":"<div style=\"font-size:60px;\">+</div>","key_press":null,"trial_type":"html-keyboard-response","trial_index":232,"time_elapsed":616883,"internal_node_id":"0.0-8.0-1.56","subject":"kknnbzndv252gun","sona":"THNS"},{"trial_type":"turing-test","trial_index":233,"time_elapsed":622753,"internal_node_id":"0.0-8.0-2.56","subject":"kknnbzndv252gun","sona":"THNS"},{"rt":964,"stimulus":"<p>Welche Sequenz haben Sie als natürlicher empfunden?</p>","button_pressed":"0","test_part":"response","test_stimulus":{"position":0,"left":"bvh/return-bottle-training4-lines.txt","right":"bvh/vr_prediction_models/model(vcgpdm)-dataset(return-bottle)-mode(ELBO)-parts(1)-dyn(25)-lvm(35)-hold(4)/final-lines.txt","att_check":false},"trial_type":"html-button-response","trial_index":234,"time_elapsed":623721,"internal_node_id":"0.0-8.0-3.56","subject":"kknnbzndv252gun","sona":"THNS"},{"rt":718,"stimulus":"<p>Bereit?</p>","button_pressed":"0","trial_type":"html-button-response","trial_index":235,"time_elapsed":624442,"internal_node_id":"0.0-8.0-0.57","subject":"kknnbzndv252gun","sona":"THNS"},{"rt":null,"stimulus":"<div style=\"font-size:60px;\">+</div>","key_press":null,"trial_type":"html-keyboard-response","trial_index":236,"time_elapsed":626443,"internal_node_id":"0.0-8.0-1.57","subject":"kknnbzndv252gun","sona":"THNS"},{"trial_type":"turing-test","trial_index":237,"time_elapsed":633728,"internal_node_id":"0.0-8.0-2.57","subject":"kknnbzndv252gun","sona":"THNS"},{"rt":1617,"stimulus":"<p>Welche Sequenz haben Sie als natürlicher empfunden?</p>","button_pressed":"0","test_part":"response","test_stimulus":{"position":0,"left":"bvh/return-bottle-training2-lines.txt","right":"bvh/vr_prediction_models/model(vcgpdm)-dataset(return-bottle)-mode(ELBO)-parts(1)-dyn(30)-lvm(35)-hold(2)/final-lines.txt","att_check":false},"trial_type":"html-button-response","trial_index":238,"time_elapsed":635349,"internal_node_id":"0.0-8.0-3.57","subject":"kknnbzndv252gun","sona":"THNS"},{"rt":692,"stimulus":"<p>Bereit?</p>","button_pressed":"0","trial_type":"html-button-response","trial_index":239,"time_elapsed":636045,"internal_node_id":"0.0-8.0-0.58","subject":"kknnbzndv252gun","sona":"THNS"},{"rt":null,"stimulus":"<div style=\"font-size:60px;\">+</div>","key_press":null,"trial_type":"html-keyboard-response","trial_index":240,"time_elapsed":638046,"internal_node_id":"0.0-8.0-1.58","subject":"kknnbzndv252gun","sona":"THNS"},{"trial_type":"turing-test","trial_index":241,"time_elapsed":641592,"internal_node_id":"0.0-8.0-2.58","subject":"kknnbzndv252gun","sona":"THNS"},{"rt":1292,"stimulus":"<p>Welche Sequenz haben Sie als natürlicher empfunden?</p>","button_pressed":"0","test_part":"response","test_stimulus":{"position":1,"left":"bvh/vr_prediction_models/model(tmp)-dataset(pass-bottle-hold)-numprim(6)-hold(4)/final-lines.txt","right":"bvh/pass-bottle-hold-training4-lines.txt","att_check":false},"trial_type":"html-button-response","trial_index":242,"time_elapsed":642888,"internal_node_id":"0.0-8.0-3.58","subject":"kknnbzndv252gun","sona":"THNS"},{"rt":385,"stimulus":"<p>Bereit?</p>","button_pressed":"0","trial_type":"html-button-response","trial_index":243,"time_elapsed":643276,"internal_node_id":"0.0-8.0-0.59","subject":"kknnbzndv252gun","sona":"THNS"},{"rt":null,"stimulus":"<div style=\"font-size:60px;\">+</div>","key_press":null,"trial_type":"html-keyboard-response","trial_index":244,"time_elapsed":645277,"internal_node_id":"0.0-8.0-1.59","subject":"kknnbzndv252gun","sona":"THNS"},{"trial_type":"turing-test","trial_index":245,"time_elapsed":648581,"internal_node_id":"0.0-8.0-2.59","subject":"kknnbzndv252gun","sona":"THNS"},{"rt":1468,"stimulus":"<p>Welche Sequenz haben Sie als natürlicher empfunden?</p>","button_pressed":"1","test_part":"response","test_stimulus":{"position":1,"left":"bvh/vr_prediction_models/model(tmp)-dataset(return-bottle-hold)-numprim(10)-hold(1)/final-lines.txt","right":"bvh/return-bottle-hold-training1-lines.txt","att_check":false},"trial_type":"html-button-response","trial_index":246,"time_elapsed":650053,"internal_node_id":"0.0-8.0-3.59","subject":"kknnbzndv252gun","sona":"THNS"},{"rt":412,"stimulus":"<p>Bereit?</p>","button_pressed":"0","trial_type":"html-button-response","trial_index":247,"time_elapsed":650468,"internal_node_id":"0.0-8.0-0.60","subject":"kknnbzndv252gun","sona":"THNS"},{"rt":null,"stimulus":"<div style=\"font-size:60px;\">+</div>","key_press":null,"trial_type":"html-keyboard-response","trial_index":248,"time_elapsed":652470,"internal_node_id":"0.0-8.0-1.60","subject":"kknnbzndv252gun","sona":"THNS"},{"trial_type":"turing-test","trial_index":249,"time_elapsed":656159,"internal_node_id":"0.0-8.0-2.60","subject":"kknnbzndv252gun","sona":"THNS"},{"rt":1305,"stimulus":"<p>Welche Sequenz haben Sie als natürlicher empfunden?</p>","button_pressed":"1","test_part":"response","test_stimulus":{"position":0,"left":"bvh/pass-bottle-hold-training3-lines.txt","right":"bvh/vr_prediction_models/model(vcgpdm)-dataset(pass-bottle-hold)-mode(ELBO)-parts(3)-dyn(25)-lvm(30)-hold(3)/final-lines.txt","att_check":false},"trial_type":"html-button-response","trial_index":250,"time_elapsed":657467,"internal_node_id":"0.0-8.0-3.60","subject":"kknnbzndv252gun","sona":"THNS"},{"rt":739,"stimulus":"<p>Bereit?</p>","button_pressed":"0","trial_type":"html-button-response","trial_index":251,"time_elapsed":658210,"internal_node_id":"0.0-8.0-0.61","subject":"kknnbzndv252gun","sona":"THNS"},{"rt":null,"stimulus":"<div style=\"font-size:60px;\">+</div>","key_press":null,"trial_type":"html-keyboard-response","trial_index":252,"time_elapsed":660214,"internal_node_id":"0.0-8.0-1.61","subject":"kknnbzndv252gun","sona":"THNS"},{"trial_type":"turing-test","trial_index":253,"time_elapsed":663538,"internal_node_id":"0.0-8.0-2.61","subject":"kknnbzndv252gun","sona":"THNS"},{"rt":1194,"stimulus":"<p>Welche Sequenz haben Sie als natürlicher empfunden?</p>","button_pressed":"1","test_part":"response","test_stimulus":{"position":1,"left":"bvh/vr_prediction_models/model(dmp)-dataset(return-bottle-hold)-npsi(10)-hold(1)/final-lines.txt","right":"bvh/return-bottle-hold-training1-lines.txt","att_check":true},"trial_type":"html-button-response","trial_index":254,"time_elapsed":664736,"internal_node_id":"0.0-8.0-3.61","subject":"kknnbzndv252gun","sona":"THNS"},{"rt":603,"stimulus":"<p>Bereit?</p>","button_pressed":"0","trial_type":"html-button-response","trial_index":255,"time_elapsed":665342,"internal_node_id":"0.0-8.0-0.62","subject":"kknnbzndv252gun","sona":"THNS"},{"rt":null,"stimulus":"<div style=\"font-size:60px;\">+</div>","key_press":null,"trial_type":"html-keyboard-response","trial_index":256,"time_elapsed":667345,"internal_node_id":"0.0-8.0-1.62","subject":"kknnbzndv252gun","sona":"THNS"},{"trial_type":"turing-test","trial_index":257,"time_elapsed":672899,"internal_node_id":"0.0-8.0-2.62","subject":"kknnbzndv252gun","sona":"THNS"},{"rt":989,"stimulus":"<p>Welche Sequenz haben Sie als natürlicher empfunden?</p>","button_pressed":"0","test_part":"response","test_stimulus":{"position":0,"left":"bvh/return-bottle-hold-training3-lines.txt","right":"bvh/vr_prediction_models/model(vcgpdm)-dataset(return-bottle-hold)-mode(ELBO)-parts(3)-dyn(25)-lvm(25)-hold(3)/final-lines.txt","att_check":false},"trial_type":"html-button-response","trial_index":258,"time_elapsed":673893,"internal_node_id":"0.0-8.0-3.62","subject":"kknnbzndv252gun","sona":"THNS"},{"rt":432,"stimulus":"<p>Bereit?</p>","button_pressed":"0","trial_type":"html-button-response","trial_index":259,"time_elapsed":674329,"internal_node_id":"0.0-8.0-0.63","subject":"kknnbzndv252gun","sona":"THNS"},{"rt":null,"stimulus":"<div style=\"font-size:60px;\">+</div>","key_press":null,"trial_type":"html-keyboard-response","trial_index":260,"time_elapsed":676331,"internal_node_id":"0.0-8.0-1.63","subject":"kknnbzndv252gun","sona":"THNS"},{"trial_type":"turing-test","trial_index":261,"time_elapsed":679859,"internal_node_id":"0.0-8.0-2.63","subject":"kknnbzndv252gun","sona":"THNS"},{"rt":1603,"stimulus":"<p>Welche Sequenz haben Sie als natürlicher empfunden?</p>","button_pressed":"1","test_part":"response","test_stimulus":{"position":1,"left":"bvh/vr_prediction_models/model(vcgpdm)-dataset(pass-bottle-hold)-mode(ELBO)-parts(1)-dyn(30)-lvm(20)-hold(0)/final-lines.txt","right":"bvh/pass-bottle-hold-training0-lines.txt","att_check":false},"trial_type":"html-button-response","trial_index":262,"time_elapsed":681463,"internal_node_id":"0.0-8.0-3.63","subject":"kknnbzndv252gun","sona":"THNS"},{"rt":419,"stimulus":"<p>Bereit?</p>","button_pressed":"0","trial_type":"html-button-response","trial_index":263,"time_elapsed":681886,"internal_node_id":"0.0-8.0-0.64","subject":"kknnbzndv252gun","sona":"THNS"},{"rt":null,"stimulus":"<div style=\"font-size:60px;\">+</div>","key_press":null,"trial_type":"html-keyboard-response","trial_index":264,"time_elapsed":683889,"internal_node_id":"0.0-8.0-1.64","subject":"kknnbzndv252gun","sona":"THNS"},{"trial_type":"turing-test","trial_index":265,"time_elapsed":687143,"internal_node_id":"0.0-8.0-2.64","subject":"kknnbzndv252gun","sona":"THNS"},{"rt":1459,"stimulus":"<p>Welche Sequenz haben Sie als natürlicher empfunden?</p>","button_pressed":"0","test_part":"response","test_stimulus":{"position":0,"left":"bvh/return-bottle-hold-training1-lines.txt","right":"bvh/vr_prediction_models/model(tmp)-dataset(return-bottle-hold)-numprim(7)-hold(1)/final-lines.txt","att_check":false},"trial_type":"html-button-response","trial_index":266,"time_elapsed":688605,"internal_node_id":"0.0-8.0-3.64","subject":"kknnbzndv252gun","sona":"THNS"},{"rt":691,"stimulus":"<p>Bereit?</p>","button_pressed":"0","trial_type":"html-button-response","trial_index":267,"time_elapsed":689299,"internal_node_id":"0.0-8.0-0.65","subject":"kknnbzndv252gun","sona":"THNS"},{"rt":null,"stimulus":"<div style=\"font-size:60px;\">+</div>","key_press":null,"trial_type":"html-keyboard-response","trial_index":268,"time_elapsed":691302,"internal_node_id":"0.0-8.0-1.65","subject":"kknnbzndv252gun","sona":"THNS"},{"trial_type":"turing-test","trial_index":269,"time_elapsed":700041,"internal_node_id":"0.0-8.0-2.65","subject":"kknnbzndv252gun","sona":"THNS"},{"rt":1560,"stimulus":"<p>Welche Sequenz haben Sie als natürlicher empfunden?</p>","button_pressed":"0","test_part":"response","test_stimulus":{"position":1,"left":"bvh/vr_prediction_models/model(tmp)-dataset(pass-bottle)-numprim(7)-hold(0)/final-lines.txt","right":"bvh/pass-bottle-training0-lines.txt","att_check":false},"trial_type":"html-button-response","trial_index":270,"time_elapsed":701604,"internal_node_id":"0.0-8.0-3.65","subject":"kknnbzndv252gun","sona":"THNS"},{"rt":534,"stimulus":"<p>Bereit?</p>","button_pressed":"0","trial_type":"html-button-response","trial_index":271,"time_elapsed":702141,"internal_node_id":"0.0-8.0-0.66","subject":"kknnbzndv252gun","sona":"THNS"},{"rt":null,"stimulus":"<div style=\"font-size:60px;\">+</div>","key_press":null,"trial_type":"html-keyboard-response","trial_index":272,"time_elapsed":704142,"internal_node_id":"0.0-8.0-1.66","subject":"kknnbzndv252gun","sona":"THNS"},{"trial_type":"turing-test","trial_index":273,"time_elapsed":712352,"internal_node_id":"0.0-8.0-2.66","subject":"kknnbzndv252gun","sona":"THNS"},{"rt":1373,"stimulus":"<p>Welche Sequenz haben Sie als natürlicher empfunden?</p>","button_pressed":"1","test_part":"response","test_stimulus":{"position":1,"left":"bvh/vr_prediction_models/model(vcgpdm)-dataset(pass-bottle)-mode(ELBO)-parts(1)-dyn(20)-lvm(30)-hold(3)/final-lines.txt","right":"bvh/pass-bottle-training3-lines.txt","att_check":false},"trial_type":"html-button-response","trial_index":274,"time_elapsed":713728,"internal_node_id":"0.0-8.0-3.66","subject":"kknnbzndv252gun","sona":"THNS"},{"rt":398,"stimulus":"<p>Bereit?</p>","button_pressed":"0","trial_type":"html-button-response","trial_index":275,"time_elapsed":714129,"internal_node_id":"0.0-8.0-0.67","subject":"kknnbzndv252gun","sona":"THNS"},{"rt":null,"stimulus":"<div style=\"font-size:60px;\">+</div>","key_press":null,"trial_type":"html-keyboard-response","trial_index":276,"time_elapsed":716131,"internal_node_id":"0.0-8.0-1.67","subject":"kknnbzndv252gun","sona":"THNS"},{"trial_type":"turing-test","trial_index":277,"time_elapsed":724746,"internal_node_id":"0.0-8.0-2.67","subject":"kknnbzndv252gun","sona":"THNS"},{"rt":918,"stimulus":"<p>Welche Sequenz haben Sie als natürlicher empfunden?</p>","button_pressed":"0","test_part":"response","test_stimulus":{"position":1,"left":"bvh/vr_prediction_models/model(vcgpdm)-dataset(pass-bottle)-mode(ELBO)-parts(3)-dyn(25)-lvm(25)-hold(2)/final-lines.txt","right":"bvh/pass-bottle-training2-lines.txt","att_check":false},"trial_type":"html-button-response","trial_index":278,"time_elapsed":725668,"internal_node_id":"0.0-8.0-3.67","subject":"kknnbzndv252gun","sona":"THNS"},{"rt":584,"stimulus":"<p>Bereit?</p>","button_pressed":"0","trial_type":"html-button-response","trial_index":279,"time_elapsed":726256,"internal_node_id":"0.0-8.0-0.68","subject":"kknnbzndv252gun","sona":"THNS"},{"rt":null,"stimulus":"<div style=\"font-size:60px;\">+</div>","key_press":null,"trial_type":"html-keyboard-response","trial_index":280,"time_elapsed":728257,"internal_node_id":"0.0-8.0-1.68","subject":"kknnbzndv252gun","sona":"THNS"},{"trial_type":"turing-test","trial_index":281,"time_elapsed":734818,"internal_node_id":"0.0-8.0-2.68","subject":"kknnbzndv252gun","sona":"THNS"},{"rt":1777,"stimulus":"<p>Welche Sequenz haben Sie als natürlicher empfunden?</p>","button_pressed":"1","test_part":"response","test_stimulus":{"position":1,"left":"bvh/vr_prediction_models/model(vcgpdm)-dataset(return-bottle-hold)-mode(MAP)-parts(3)-hold(4)/final-lines.txt","right":"bvh/return-bottle-hold-training4-lines.txt","att_check":false},"trial_type":"html-button-response","trial_index":282,"time_elapsed":736600,"internal_node_id":"0.0-8.0-3.68","subject":"kknnbzndv252gun","sona":"THNS"},{"rt":410,"stimulus":"<p>Bereit?</p>","button_pressed":"0","trial_type":"html-button-response","trial_index":283,"time_elapsed":737014,"internal_node_id":"0.0-8.0-0.69","subject":"kknnbzndv252gun","sona":"THNS"},{"rt":null,"stimulus":"<div style=\"font-size:60px;\">+</div>","key_press":null,"trial_type":"html-keyboard-response","trial_index":284,"time_elapsed":739016,"internal_node_id":"0.0-8.0-1.69","subject":"kknnbzndv252gun","sona":"THNS"},{"trial_type":"turing-test","trial_index":285,"time_elapsed":744963,"internal_node_id":"0.0-8.0-2.69","subject":"kknnbzndv252gun","sona":"THNS"},{"rt":2009,"stimulus":"<p>Welche Sequenz haben Sie als natürlicher empfunden?</p>","button_pressed":"1","test_part":"response","test_stimulus":{"position":1,"left":"bvh/vr_prediction_models/model(vcgpdm)-dataset(return-bottle)-mode(ELBO)-parts(1)-dyn(20)-lvm(5)-hold(4)/final-lines.txt","right":"bvh/return-bottle-training4-lines.txt","att_check":false},"trial_type":"html-button-response","trial_index":286,"time_elapsed":746976,"internal_node_id":"0.0-8.0-3.69","subject":"kknnbzndv252gun","sona":"THNS"},{"rt":937,"stimulus":"<p>Bereit?</p>","button_pressed":"0","trial_type":"html-button-response","trial_index":287,"time_elapsed":747917,"internal_node_id":"0.0-8.0-0.70","subject":"kknnbzndv252gun","sona":"THNS"},{"rt":null,"stimulus":"<div style=\"font-size:60px;\">+</div>","key_press":null,"trial_type":"html-keyboard-response","trial_index":288,"time_elapsed":749918,"internal_node_id":"0.0-8.0-1.70","subject":"kknnbzndv252gun","sona":"THNS"},{"trial_type":"turing-test","trial_index":289,"time_elapsed":755304,"internal_node_id":"0.0-8.0-2.70","subject":"kknnbzndv252gun","sona":"THNS"},{"rt":1623,"stimulus":"<p>Welche Sequenz haben Sie als natürlicher empfunden?</p>","button_pressed":"1","test_part":"response","test_stimulus":{"position":1,"left":"bvh/vr_prediction_models/model(dmp)-dataset(return-bottle)-npsi(10)-hold(0)/final-lines.txt","right":"bvh/return-bottle-training0-lines.txt","att_check":true},"trial_type":"html-button-response","trial_index":290,"time_elapsed":756932,"internal_node_id":"0.0-8.0-3.70","subject":"kknnbzndv252gun","sona":"THNS"},{"rt":590,"stimulus":"<p>Bereit?</p>","button_pressed":"0","trial_type":"html-button-response","trial_index":291,"time_elapsed":757527,"internal_node_id":"0.0-8.0-0.71","subject":"kknnbzndv252gun","sona":"THNS"},{"rt":null,"stimulus":"<div style=\"font-size:60px;\">+</div>","key_press":null,"trial_type":"html-keyboard-response","trial_index":292,"time_elapsed":759528,"internal_node_id":"0.0-8.0-1.71","subject":"kknnbzndv252gun","sona":"THNS"},{"trial_type":"turing-test","trial_index":293,"time_elapsed":766341,"internal_node_id":"0.0-8.0-2.71","subject":"kknnbzndv252gun","sona":"THNS"},{"rt":1044,"stimulus":"<p>Welche Sequenz haben Sie als natürlicher empfunden?</p>","button_pressed":"1","test_part":"response","test_stimulus":{"position":0,"left":"bvh/return-bottle-hold-training0-lines.txt","right":"bvh/vr_prediction_models/model(vcgpdm)-dataset(return-bottle-hold)-mode(ELBO)-parts(3)-dyn(25)-lvm(25)-hold(0)/final-lines.txt","att_check":false},"trial_type":"html-button-response","trial_index":294,"time_elapsed":767388,"internal_node_id":"0.0-8.0-3.71","subject":"kknnbzndv252gun","sona":"THNS"},{"rt":495,"stimulus":"<p>Bereit?</p>","button_pressed":"0","trial_type":"html-button-response","trial_index":295,"time_elapsed":767885,"internal_node_id":"0.0-8.0-0.72","subject":"kknnbzndv252gun","sona":"THNS"},{"rt":null,"stimulus":"<div style=\"font-size:60px;\">+</div>","key_press":null,"trial_type":"html-keyboard-response","trial_index":296,"time_elapsed":769887,"internal_node_id":"0.0-8.0-1.72","subject":"kknnbzndv252gun","sona":"THNS"},{"trial_type":"turing-test","trial_index":297,"time_elapsed":773216,"internal_node_id":"0.0-8.0-2.72","subject":"kknnbzndv252gun","sona":"THNS"},{"rt":1606,"stimulus":"<p>Welche Sequenz haben Sie als natürlicher empfunden?</p>","button_pressed":"1","test_part":"response","test_stimulus":{"position":1,"left":"bvh/vr_prediction_models/model(dmp)-dataset(pass-bottle-hold)-npsi(30)-hold(0)/final-lines.txt","right":"bvh/pass-bottle-hold-training0-lines.txt","att_check":true},"trial_type":"html-button-response","trial_index":298,"time_elapsed":774825,"internal_node_id":"0.0-8.0-3.72","subject":"kknnbzndv252gun","sona":"THNS"},{"rt":536,"stimulus":"<p>Bereit?</p>","button_pressed":"0","trial_type":"html-button-response","trial_index":299,"time_elapsed":775366,"internal_node_id":"0.0-8.0-0.73","subject":"kknnbzndv252gun","sona":"THNS"},{"rt":null,"stimulus":"<div style=\"font-size:60px;\">+</div>","key_press":null,"trial_type":"html-keyboard-response","trial_index":300,"time_elapsed":777368,"internal_node_id":"0.0-8.0-1.73","subject":"kknnbzndv252gun","sona":"THNS"},{"trial_type":"turing-test","trial_index":301,"time_elapsed":781933,"internal_node_id":"0.0-8.0-2.73","subject":"kknnbzndv252gun","sona":"THNS"},{"rt":1352,"stimulus":"<p>Welche Sequenz haben Sie als natürlicher empfunden?</p>","button_pressed":"0","test_part":"response","test_stimulus":{"position":0,"left":"bvh/pass-bottle-hold-training1-lines.txt","right":"bvh/vr_prediction_models/model(dmp)-dataset(pass-bottle-hold)-npsi(70)-hold(1)/final-lines.txt","att_check":false},"trial_type":"html-button-response","trial_index":302,"time_elapsed":783289,"internal_node_id":"0.0-8.0-3.73","subject":"kknnbzndv252gun","sona":"THNS"},{"rt":528,"stimulus":"<p>Bereit?</p>","button_pressed":"0","trial_type":"html-button-response","trial_index":303,"time_elapsed":783821,"internal_node_id":"0.0-8.0-0.74","subject":"kknnbzndv252gun","sona":"THNS"},{"rt":null,"stimulus":"<div style=\"font-size:60px;\">+</div>","key_press":null,"trial_type":"html-keyboard-response","trial_index":304,"time_elapsed":785822,"internal_node_id":"0.0-8.0-1.74","subject":"kknnbzndv252gun","sona":"THNS"},{"trial_type":"turing-test","trial_index":305,"time_elapsed":792106,"internal_node_id":"0.0-8.0-2.74","subject":"kknnbzndv252gun","sona":"THNS"},{"rt":1157,"stimulus":"<p>Welche Sequenz haben Sie als natürlicher empfunden?</p>","button_pressed":"1","test_part":"response","test_stimulus":{"position":1,"left":"bvh/vr_prediction_models/model(vcgpdm)-dataset(pass-bottle)-mode(ELBO)-parts(3)-dyn(30)-lvm(15)-hold(2)/final-lines.txt","right":"bvh/pass-bottle-training2-lines.txt","att_check":false},"trial_type":"html-button-response","trial_index":306,"time_elapsed":793266,"internal_node_id":"0.0-8.0-3.74","subject":"kknnbzndv252gun","sona":"THNS"},{"rt":443,"stimulus":"<p>Bereit?</p>","button_pressed":"0","trial_type":"html-button-response","trial_index":307,"time_elapsed":793713,"internal_node_id":"0.0-8.0-0.75","subject":"kknnbzndv252gun","sona":"THNS"},{"rt":null,"stimulus":"<div style=\"font-size:60px;\">+</div>","key_press":null,"trial_type":"html-keyboard-response","trial_index":308,"time_elapsed":795715,"internal_node_id":"0.0-8.0-1.75","subject":"kknnbzndv252gun","sona":"THNS"},{"trial_type":"turing-test","trial_index":309,"time_elapsed":800060,"internal_node_id":"0.0-8.0-2.75","subject":"kknnbzndv252gun","sona":"THNS"},{"rt":1424,"stimulus":"<p>Welche Sequenz haben Sie als natürlicher empfunden?</p>","button_pressed":"0","test_part":"response","test_stimulus":{"position":0,"left":"bvh/return-bottle-hold-training4-lines.txt","right":"bvh/vr_prediction_models/model(vcgpdm)-dataset(return-bottle-hold)-mode(ELBO)-parts(3)-dyn(10)-lvm(30)-hold(4)/final-lines.txt","att_check":false},"trial_type":"html-button-response","trial_index":310,"time_elapsed":801488,"internal_node_id":"0.0-8.0-3.75","subject":"kknnbzndv252gun","sona":"THNS"},{"rt":636,"stimulus":"<p>Bereit?</p>","button_pressed":"0","trial_type":"html-button-response","trial_index":311,"time_elapsed":802128,"internal_node_id":"0.0-8.0-0.76","subject":"kknnbzndv252gun","sona":"THNS"},{"rt":null,"stimulus":"<div style=\"font-size:60px;\">+</div>","key_press":null,"trial_type":"html-keyboard-response","trial_index":312,"time_elapsed":804130,"internal_node_id":"0.0-8.0-1.76","subject":"kknnbzndv252gun","sona":"THNS"},{"trial_type":"turing-test","trial_index":313,"time_elapsed":807310,"internal_node_id":"0.0-8.0-2.76","subject":"kknnbzndv252gun","sona":"THNS"},{"rt":1718,"stimulus":"<p>Welche Sequenz haben Sie als natürlicher empfunden?</p>","button_pressed":"1","test_part":"response","test_stimulus":{"position":0,"left":"bvh/pass-bottle-hold-training1-lines.txt","right":"bvh/vr_prediction_models/model(dmp)-dataset(pass-bottle-hold)-npsi(80)-hold(1)/final-lines.txt","att_check":true},"trial_type":"html-button-response","trial_index":314,"time_elapsed":809033,"internal_node_id":"0.0-8.0-3.76","subject":"kknnbzndv252gun","sona":"THNS"},{"rt":443,"stimulus":"<p>Bereit?</p>","button_pressed":"0","trial_type":"html-button-response","trial_index":315,"time_elapsed":809481,"internal_node_id":"0.0-8.0-0.77","subject":"kknnbzndv252gun","sona":"THNS"},{"rt":null,"stimulus":"<div style=\"font-size:60px;\">+</div>","key_press":null,"trial_type":"html-keyboard-response","trial_index":316,"time_elapsed":811483,"internal_node_id":"0.0-8.0-1.77","subject":"kknnbzndv252gun","sona":"THNS"},{"trial_type":"turing-test","trial_index":317,"time_elapsed":816936,"internal_node_id":"0.0-8.0-2.77","subject":"kknnbzndv252gun","sona":"THNS"},{"rt":1608,"stimulus":"<p>Welche Sequenz haben Sie als natürlicher empfunden?</p>","button_pressed":"0","test_part":"response","test_stimulus":{"position":0,"left":"bvh/return-bottle-training0-lines.txt","right":"bvh/vr_prediction_models/model(tmp)-dataset(return-bottle)-numprim(11)-hold(0)/final-lines.txt","att_check":false},"trial_type":"html-button-response","trial_index":318,"time_elapsed":818548,"internal_node_id":"0.0-8.0-3.77","subject":"kknnbzndv252gun","sona":"THNS"},{"rt":381,"stimulus":"<p>Bereit?</p>","button_pressed":"0","trial_type":"html-button-response","trial_index":319,"time_elapsed":818932,"internal_node_id":"0.0-8.0-0.78","subject":"kknnbzndv252gun","sona":"THNS"},{"rt":null,"stimulus":"<div style=\"font-size:60px;\">+</div>","key_press":null,"trial_type":"html-keyboard-response","trial_index":320,"time_elapsed":820935,"internal_node_id":"0.0-8.0-1.78","subject":"kknnbzndv252gun","sona":"THNS"},{"trial_type":"turing-test","trial_index":321,"time_elapsed":824474,"internal_node_id":"0.0-8.0-2.78","subject":"kknnbzndv252gun","sona":"THNS"},{"rt":1384,"stimulus":"<p>Welche Sequenz haben Sie als natürlicher empfunden?</p>","button_pressed":"1","test_part":"response","test_stimulus":{"position":1,"left":"bvh/vr_prediction_models/model(dmp)-dataset(pass-bottle-hold)-npsi(40)-hold(4)/final-lines.txt","right":"bvh/pass-bottle-hold-training4-lines.txt","att_check":false},"trial_type":"html-button-response","trial_index":322,"time_elapsed":825863,"internal_node_id":"0.0-8.0-3.78","subject":"kknnbzndv252gun","sona":"THNS"},{"rt":699,"stimulus":"<p>Bereit?</p>","button_pressed":"0","trial_type":"html-button-response","trial_index":323,"time_elapsed":826564,"internal_node_id":"0.0-8.0-0.79","subject":"kknnbzndv252gun","sona":"THNS"},{"rt":null,"stimulus":"<div style=\"font-size:60px;\">+</div>","key_press":null,"trial_type":"html-keyboard-response","trial_index":324,"time_elapsed":828567,"internal_node_id":"0.0-8.0-1.79","subject":"kknnbzndv252gun","sona":"THNS"},{"trial_type":"turing-test","trial_index":325,"time_elapsed":831862,"internal_node_id":"0.0-8.0-2.79","subject":"kknnbzndv252gun","sona":"THNS"},{"rt":1433,"stimulus":"<p>Welche Sequenz haben Sie als natürlicher empfunden?</p>","button_pressed":"1","test_part":"response","test_stimulus":{"position":0,"left":"bvh/pass-bottle-hold-training0-lines.txt","right":"bvh/vr_prediction_models/model(dmp)-dataset(pass-bottle-hold)-npsi(90)-hold(0)/final-lines.txt","att_check":false},"trial_type":"html-button-response","trial_index":326,"time_elapsed":833299,"internal_node_id":"0.0-8.0-3.79","subject":"kknnbzndv252gun","sona":"THNS"},{"rt":537,"stimulus":"<p>Bereit?</p>","button_pressed":"0","trial_type":"html-button-response","trial_index":327,"time_elapsed":833841,"internal_node_id":"0.0-8.0-0.80","subject":"kknnbzndv252gun","sona":"THNS"},{"rt":null,"stimulus":"<div style=\"font-size:60px;\">+</div>","key_press":null,"trial_type":"html-keyboard-response","trial_index":328,"time_elapsed":835843,"internal_node_id":"0.0-8.0-1.80","subject":"kknnbzndv252gun","sona":"THNS"},{"trial_type":"turing-test","trial_index":329,"time_elapsed":841258,"internal_node_id":"0.0-8.0-2.80","subject":"kknnbzndv252gun","sona":"THNS"},{"rt":1560,"stimulus":"<p>Welche Sequenz haben Sie als natürlicher empfunden?</p>","button_pressed":"1","test_part":"response","test_stimulus":{"position":1,"left":"bvh/vr_prediction_models/model(tmp)-dataset(return-bottle)-numprim(3)-hold(0)/final-lines.txt","right":"bvh/return-bottle-training0-lines.txt","att_check":false},"trial_type":"html-button-response","trial_index":330,"time_elapsed":842823,"internal_node_id":"0.0-8.0-3.80","subject":"kknnbzndv252gun","sona":"THNS"},{"rt":427,"stimulus":"<p>Bereit?</p>","button_pressed":"0","trial_type":"html-button-response","trial_index":331,"time_elapsed":843252,"internal_node_id":"0.0-8.0-0.81","subject":"kknnbzndv252gun","sona":"THNS"},{"rt":null,"stimulus":"<div style=\"font-size:60px;\">+</div>","key_press":null,"trial_type":"html-keyboard-response","trial_index":332,"time_elapsed":845253,"internal_node_id":"0.0-8.0-1.81","subject":"kknnbzndv252gun","sona":"THNS"},{"trial_type":"turing-test","trial_index":333,"time_elapsed":849053,"internal_node_id":"0.0-8.0-2.81","subject":"kknnbzndv252gun","sona":"THNS"},{"rt":1855,"stimulus":"<p>Welche Sequenz haben Sie als natürlicher empfunden?</p>","button_pressed":"1","test_part":"response","test_stimulus":{"position":0,"left":"bvh/pass-bottle-hold-training4-lines.txt","right":"bvh/vr_prediction_models/model(vcgpdm)-dataset(pass-bottle-hold)-mode(ELBO)-parts(3)-dyn(10)-lvm(25)-hold(4)/final-lines.txt","att_check":false},"trial_type":"html-button-response","trial_index":334,"time_elapsed":850912,"internal_node_id":"0.0-8.0-3.81","subject":"kknnbzndv252gun","sona":"THNS"},{"rt":428,"stimulus":"<p>Bereit?</p>","button_pressed":"0","trial_type":"html-button-response","trial_index":335,"time_elapsed":851344,"internal_node_id":"0.0-8.0-0.82","subject":"kknnbzndv252gun","sona":"THNS"},{"rt":null,"stimulus":"<div style=\"font-size:60px;\">+</div>","key_press":null,"trial_type":"html-keyboard-response","trial_index":336,"time_elapsed":853347,"internal_node_id":"0.0-8.0-1.82","subject":"kknnbzndv252gun","sona":"THNS"},{"trial_type":"turing-test","trial_index":337,"time_elapsed":859372,"internal_node_id":"0.0-8.0-2.82","subject":"kknnbzndv252gun","sona":"THNS"},{"rt":1497,"stimulus":"<p>Welche Sequenz haben Sie als natürlicher empfunden?</p>","button_pressed":"0","test_part":"response","test_stimulus":{"position":1,"left":"bvh/vr_prediction_models/model(vcgpdm)-dataset(pass-bottle)-mode(ELBO)-parts(3)-dyn(25)-lvm(15)-hold(3)/final-lines.txt","right":"bvh/pass-bottle-training3-lines.txt","att_check":false},"trial_type":"html-button-response","trial_index":338,"time_elapsed":860873,"internal_node_id":"0.0-8.0-3.82","subject":"kknnbzndv252gun","sona":"THNS"},{"rt":649,"stimulus":"<p>Bereit?</p>","button_pressed":"0","trial_type":"html-button-response","trial_index":339,"time_elapsed":861526,"internal_node_id":"0.0-8.0-0.83","subject":"kknnbzndv252gun","sona":"THNS"},{"rt":null,"stimulus":"<div style=\"font-size:60px;\">+</div>","key_press":null,"trial_type":"html-keyboard-response","trial_index":340,"time_elapsed":863528,"internal_node_id":"0.0-8.0-1.83","subject":"kknnbzndv252gun","sona":"THNS"},{"trial_type":"turing-test","trial_index":341,"time_elapsed":867149,"internal_node_id":"0.0-8.0-2.83","subject":"kknnbzndv252gun","sona":"THNS"},{"rt":1258,"stimulus":"<p>Welche Sequenz haben Sie als natürlicher empfunden?</p>","button_pressed":"1","test_part":"response","test_stimulus":{"position":0,"left":"bvh/pass-bottle-hold-training2-lines.txt","right":"bvh/vr_prediction_models/model(tmp)-dataset(pass-bottle-hold)-numprim(8)-hold(2)/final-lines.txt","att_check":false},"trial_type":"html-button-response","trial_index":342,"time_elapsed":868411,"internal_node_id":"0.0-8.0-3.83","subject":"kknnbzndv252gun","sona":"THNS"},{"rt":467,"stimulus":"<p>Bereit?</p>","button_pressed":"0","trial_type":"html-button-response","trial_index":343,"time_elapsed":868881,"internal_node_id":"0.0-8.0-0.84","subject":"kknnbzndv252gun","sona":"THNS"},{"rt":null,"stimulus":"<div style=\"font-size:60px;\">+</div>","key_press":null,"trial_type":"html-keyboard-response","trial_index":344,"time_elapsed":870882,"internal_node_id":"0.0-8.0-1.84","subject":"kknnbzndv252gun","sona":"THNS"},{"trial_type":"turing-test","trial_index":345,"time_elapsed":875939,"internal_node_id":"0.0-8.0-2.84","subject":"kknnbzndv252gun","sona":"THNS"},{"rt":1372,"stimulus":"<p>Welche Sequenz haben Sie als natürlicher empfunden?</p>","button_pressed":"0","test_part":"response","test_stimulus":{"position":0,"left":"bvh/return-bottle-hold-training0-lines.txt","right":"bvh/vr_prediction_models/model(dmp)-dataset(return-bottle-hold)-npsi(100)-hold(0)/final-lines.txt","att_check":false},"trial_type":"html-button-response","trial_index":346,"time_elapsed":877315,"internal_node_id":"0.0-8.0-3.84","subject":"kknnbzndv252gun","sona":"THNS"},{"rt":662,"stimulus":"<p>Bereit?</p>","button_pressed":"0","trial_type":"html-button-response","trial_index":347,"time_elapsed":877981,"internal_node_id":"0.0-8.0-0.85","subject":"kknnbzndv252gun","sona":"THNS"},{"rt":null,"stimulus":"<div style=\"font-size:60px;\">+</div>","key_press":null,"trial_type":"html-keyboard-response","trial_index":348,"time_elapsed":879983,"internal_node_id":"0.0-8.0-1.85","subject":"kknnbzndv252gun","sona":"THNS"},{"trial_type":"turing-test","trial_index":349,"time_elapsed":883837,"internal_node_id":"0.0-8.0-2.85","subject":"kknnbzndv252gun","sona":"THNS"},{"rt":1609,"stimulus":"<p>Welche Sequenz haben Sie als natürlicher empfunden?</p>","button_pressed":"1","test_part":"response","test_stimulus":{"position":1,"left":"bvh/vr_prediction_models/model(vcgpdm)-dataset(return-bottle-hold)-mode(ELBO)-parts(3)-dyn(25)-lvm(30)-hold(3)/final-lines.txt","right":"bvh/return-bottle-hold-training3-lines.txt","att_check":false},"trial_type":"html-button-response","trial_index":350,"time_elapsed":885449,"internal_node_id":"0.0-8.0-3.85","subject":"kknnbzndv252gun","sona":"THNS"},{"rt":610,"stimulus":"<p>Bereit?</p>","button_pressed":"0","trial_type":"html-button-response","trial_index":351,"time_elapsed":886062,"internal_node_id":"0.0-8.0-0.86","subject":"kknnbzndv252gun","sona":"THNS"},{"rt":null,"stimulus":"<div style=\"font-size:60px;\">+</div>","key_press":null,"trial_type":"html-keyboard-response","trial_index":352,"time_elapsed":888065,"internal_node_id":"0.0-8.0-1.86","subject":"kknnbzndv252gun","sona":"THNS"},{"trial_type":"turing-test","trial_index":353,"time_elapsed":893373,"internal_node_id":"0.0-8.0-2.86","subject":"kknnbzndv252gun","sona":"THNS"},{"rt":1071,"stimulus":"<p>Welche Sequenz haben Sie als natürlicher empfunden?</p>","button_pressed":"1","test_part":"response","test_stimulus":{"position":1,"left":"bvh/vr_prediction_models/model(dmp)-dataset(return-bottle-hold)-npsi(70)-hold(0)/final-lines.txt","right":"bvh/return-bottle-hold-training0-lines.txt","att_check":false},"trial_type":"html-button-response","trial_index":354,"time_elapsed":894448,"internal_node_id":"0.0-8.0-3.86","subject":"kknnbzndv252gun","sona":"THNS"},{"rt":609,"stimulus":"<p>Bereit?</p>","button_pressed":"0","trial_type":"html-button-response","trial_index":355,"time_elapsed":895061,"internal_node_id":"0.0-8.0-0.87","subject":"kknnbzndv252gun","sona":"THNS"},{"rt":null,"stimulus":"<div style=\"font-size:60px;\">+</div>","key_press":null,"trial_type":"html-keyboard-response","trial_index":356,"time_elapsed":897063,"internal_node_id":"0.0-8.0-1.87","subject":"kknnbzndv252gun","sona":"THNS"},{"trial_type":"turing-test","trial_index":357,"time_elapsed":902897,"internal_node_id":"0.0-8.0-2.87","subject":"kknnbzndv252gun","sona":"THNS"},{"rt":1350,"stimulus":"<p>Welche Sequenz haben Sie als natürlicher empfunden?</p>","button_pressed":"0","test_part":"response","test_stimulus":{"position":0,"left":"bvh/return-bottle-training4-lines.txt","right":"bvh/vr_prediction_models/model(vcgpdm)-dataset(return-bottle)-mode(ELBO)-parts(1)-dyn(30)-lvm(20)-hold(4)/final-lines.txt","att_check":false},"trial_type":"html-button-response","trial_index":358,"time_elapsed":904251,"internal_node_id":"0.0-8.0-3.87","subject":"kknnbzndv252gun","sona":"THNS"},{"rt":406,"stimulus":"<p>Bereit?</p>","button_pressed":"0","trial_type":"html-button-response","trial_index":359,"time_elapsed":904661,"internal_node_id":"0.0-8.0-0.88","subject":"kknnbzndv252gun","sona":"THNS"},{"rt":null,"stimulus":"<div style=\"font-size:60px;\">+</div>","key_press":null,"trial_type":"html-keyboard-response","trial_index":360,"time_elapsed":906664,"internal_node_id":"0.0-8.0-1.88","subject":"kknnbzndv252gun","sona":"THNS"},{"trial_type":"turing-test","trial_index":361,"time_elapsed":912585,"internal_node_id":"0.0-8.0-2.88","subject":"kknnbzndv252gun","sona":"THNS"},{"rt":1192,"stimulus":"<p>Welche Sequenz haben Sie als natürlicher empfunden?</p>","button_pressed":"1","test_part":"response","test_stimulus":{"position":0,"left":"bvh/pass-bottle-training4-lines.txt","right":"bvh/vr_prediction_models/model(vcgpdm)-dataset(pass-bottle)-mode(ELBO)-parts(3)-dyn(30)-lvm(15)-hold(4)/final-lines.txt","att_check":false},"trial_type":"html-button-response","trial_index":362,"time_elapsed":913780,"internal_node_id":"0.0-8.0-3.88","subject":"kknnbzndv252gun","sona":"THNS"},{"rt":382,"stimulus":"<p>Bereit?</p>","button_pressed":"0","trial_type":"html-button-response","trial_index":363,"time_elapsed":914167,"internal_node_id":"0.0-8.0-0.89","subject":"kknnbzndv252gun","sona":"THNS"},{"rt":null,"stimulus":"<div style=\"font-size:60px;\">+</div>","key_press":null,"trial_type":"html-keyboard-response","trial_index":364,"time_elapsed":916169,"internal_node_id":"0.0-8.0-1.89","subject":"kknnbzndv252gun","sona":"THNS"},{"trial_type":"turing-test","trial_index":365,"time_elapsed":919998,"internal_node_id":"0.0-8.0-2.89","subject":"kknnbzndv252gun","sona":"THNS"},{"rt":1282,"stimulus":"<p>Welche Sequenz haben Sie als natürlicher empfunden?</p>","button_pressed":"0","test_part":"response","test_stimulus":{"position":0,"left":"bvh/pass-bottle-hold-training4-lines.txt","right":"bvh/vr_prediction_models/model(vcgpdm)-dataset(pass-bottle-hold)-mode(ELBO)-parts(1)-dyn(10)-lvm(30)-hold(4)/final-lines.txt","att_check":false},"trial_type":"html-button-response","trial_index":366,"time_elapsed":921283,"internal_node_id":"0.0-8.0-3.89","subject":"kknnbzndv252gun","sona":"THNS"},{"rt":411,"stimulus":"<p>Bereit?</p>","button_pressed":"0","trial_type":"html-button-response","trial_index":367,"time_elapsed":921699,"internal_node_id":"0.0-8.0-0.90","subject":"kknnbzndv252gun","sona":"THNS"},{"rt":null,"stimulus":"<div style=\"font-size:60px;\">+</div>","key_press":null,"trial_type":"html-keyboard-response","trial_index":368,"time_elapsed":9237