[{"rt":2705.934999976307,"stimulus":"<p>Welcome!<br> Please choose your language to start the experiment in the chosen language.</p><p>Willkommen!<br> Bitte wählen Sie eine Sprache, um das Experiment in der ausgewählten Sprache zu starten</p>","button_pressed":"1","trial_type":"html-button-response","trial_index":0,"time_elapsed":2763,"internal_node_id":"0.0-0.0","subject":"3py6qej3235ykmz","sona":"9583"},{"view_history":"[{\"page_index\":0,\"viewing_time\":5483.1549999071285},{\"page_index\":1,\"viewing_time\":4479.535000049509},{\"page_index\":2,\"viewing_time\":11655.934999929741},{\"page_index\":3,\"viewing_time\":6887.610000092536},{\"page_index\":4,\"viewing_time\":2192.3099999548867}]","rt":30700.524999992922,"trial_type":"instructions","trial_index":1,"time_elapsed":33466,"internal_node_id":"0.0-1.0-0.0","subject":"3py6qej3235ykmz","sona":"9583"},{"rt":1554.2900000000373,"stimulus":"<p>Bereit?</p>","key_press":32,"trial_type":"html-keyboard-response","trial_index":2,"time_elapsed":35023,"internal_node_id":"0.0-3.0","subject":"3py6qej3235ykmz","sona":"9583"},{"rt":null,"stimulus":"<div style=\"font-size:60px;\">+</div>","key_press":null,"trial_type":"html-keyboard-response","trial_index":3,"time_elapsed":37027,"internal_node_id":"0.0-4.0","subject":"3py6qej3235ykmz","sona":"9583"},{"trial_type":"training","trial_index":4,"time_elapsed":40595,"internal_node_id":"0.0-5.0","subject":"3py6qej3235ykmz","sona":"9583"},{"rt":1538.8449999736622,"stimulus":"<p>Welche Sequenz haben Sie als natürlicher empfunden?</p>","key_press":70,"trial_type":"html-keyboard-response","trial_index":5,"time_elapsed":42135,"internal_node_id":"0.0-6.0","subject":"3py6qej3235ykmz","sona":"9583"},{"rt":2919.3250000244007,"stimulus":"<p>Das Experiment startet nun.</p><p><small>Bitte drücken Sie den Knopf, wenn Sie bereit sind.</small></p>","button_pressed":"0","trial_type":"html-button-response","trial_index":6,"time_elapsed":45056,"internal_node_id":"0.0-7.0","subject":"3py6qej3235ykmz","sona":"9583"},{"rt":1586.875000037253,"stimulus":"<p>Bereit?</p>","key_press":32,"trial_type":"html-keyboard-response","trial_index":7,"time_elapsed":46645,"internal_node_id":"0.0-8.0-0.0","subject":"3py6qej3235ykmz","sona":"9583"},{"rt":null,"stimulus":"<div style=\"font-size:60px;\">+</div>","key_press":null,"trial_type":"html-keyboard-response","trial_index":8,"time_elapsed":48649,"internal_node_id":"0.0-8.0-1.0","subject":"3py6qej3235ykmz","sona":"9583"},{"trial_type":"turing-test","trial_index":9,"time_elapsed":52538,"internal_node_id":"0.0-8.0-2.0","subject":"3py6qej3235ykmz","sona":"9583"},{"rt":1456.9549999432638,"stimulus":"<p>Welche Sequenz haben Sie als natürlicher empfunden?</p>","key_press":74,"test_part":"response","test_stimulus":{"position":0,"left":"bvh/pass-bottle-hold-training4-lines.txt","right":"bvh/vr_prediction_models/model(vcgpdm)-dataset(pass-bottle-hold)-mode(ELBO)-parts(1)-dyn(10)-lvm(30)-hold(4)/final-lines.txt","att_check":false},"trial_type":"html-keyboard-response","trial_index":10,"time_elapsed":54000,"internal_node_id":"0.0-8.0-3.0","subject":"3py6qej3235ykmz","sona":"9583"},{"rt":973.0950000230223,"stimulus":"<p>Bereit?</p>","key_press":32,"trial_type":"html-keyboard-response","trial_index":11,"time_elapsed":54978,"internal_node_id":"0.0-8.0-0.1","subject":"3py6qej3235ykmz","sona":"9583"},{"rt":null,"stimulus":"<div style=\"font-size:60px;\">+</div>","key_press":null,"trial_type":"html-keyboard-response","trial_index":12,"time_elapsed":56981,"internal_node_id":"0.0-8.0-1.1","subject":"3py6qej3235ykmz","sona":"9583"},{"trial_type":"turing-test","trial_index":13,"time_elapsed":64011,"internal_node_id":"0.0-8.0-2.1","subject":"3py6qej3235ykmz","sona":"9583"},{"rt":1278.070000000298,"stimulus":"<p>Welche Sequenz haben Sie als natürlicher empfunden?</p>","key_press":70,"test_part":"response","test_stimulus":{"position":0,"left":"bvh/pass-bottle-training0-lines.txt","right":"bvh/vr_prediction_models/model(vcgpdm)-dataset(pass-bottle)-mode(ELBO)-parts(3)-dyn(10)-lvm(10)-hold(0)/final-lines.txt","att_check":false},"trial_type":"html-keyboard-response","trial_index":14,"time_elapsed":65297,"internal_node_id":"0.0-8.0-3.1","subject":"3py6qej3235ykmz","sona":"9583"},{"rt":535.2000000420958,"stimulus":"<p>Bereit?</p>","key_press":32,"trial_type":"html-keyboard-response","trial_index":15,"time_elapsed":65836,"internal_node_id":"0.0-8.0-0.2","subject":"3py6qej3235ykmz","sona":"9583"},{"rt":null,"stimulus":"<div style=\"font-size:60px;\">+</div>","key_press":null,"trial_type":"html-keyboard-response","trial_index":16,"time_elapsed":67839,"internal_node_id":"0.0-8.0-1.2","subject":"3py6qej3235ykmz","sona":"9583"},{"trial_type":"turing-test","trial_index":17,"time_elapsed":71703,"internal_node_id":"0.0-8.0-2.2","subject":"3py6qej3235ykmz","sona":"9583"},{"rt":1511.5399999776855,"stimulus":"<p>Welche Sequenz haben Sie als natürlicher empfunden?</p>","key_press":74,"test_part":"response","test_stimulus":{"position":0,"left":"bvh/pass-bottle-hold-training4-lines.txt","right":"bvh/vr_prediction_models/model(vcgpdm)-dataset(pass-bottle-hold)-mode(ELBO)-parts(3)-dyn(10)-lvm(30)-hold(4)/final-lines.txt","att_check":false},"trial_type":"html-keyboard-response","trial_index":18,"time_elapsed":73222,"internal_node_id":"0.0-8.0-3.2","subject":"3py6qej3235ykmz","sona":"9583"},{"rt":3169.635000056587,"stimulus":"<p>Bereit?</p>","key_press":32,"trial_type":"html-keyboard-response","trial_index":19,"time_elapsed":76395,"internal_node_id":"0.0-8.0-0.3","subject":"3py6qej3235ykmz","sona":"9583"},{"rt":null,"stimulus":"<div style=\"font-size:60px;\">+</div>","key_press":null,"trial_type":"html-keyboard-response","trial_index":20,"time_elapsed":78398,"internal_node_id":"0.0-8.0-1.3","subject":"3py6qej3235ykmz","sona":"9583"},{"trial_type":"turing-test","trial_index":21,"time_elapsed":84486,"internal_node_id":"0.0-8.0-2.3","subject":"3py6qej3235ykmz","sona":"9583"},{"rt":726.7249999567866,"stimulus":"<p>Welche Sequenz haben Sie als natürlicher empfunden?</p>","key_press":70,"test_part":"response","test_stimulus":{"position":0,"left":"bvh/return-bottle-training4-lines.txt","right":"bvh/vr_prediction_models/model(tmp)-dataset(return-bottle)-numprim(8)-hold(4)/final-lines.txt","att_check":false},"trial_type":"html-keyboard-response","trial_index":22,"time_elapsed":85216,"internal_node_id":"0.0-8.0-3.3","subject":"3py6qej3235ykmz","sona":"9583"},{"rt":474.89999991375953,"stimulus":"<p>Bereit?</p>","key_press":32,"trial_type":"html-keyboard-response","trial_index":23,"time_elapsed":85697,"internal_node_id":"0.0-8.0-0.4","subject":"3py6qej3235ykmz","sona":"9583"},{"rt":null,"stimulus":"<div style=\"font-size:60px;\">+</div>","key_press":null,"trial_type":"html-keyboard-response","trial_index":24,"time_elapsed":87698,"internal_node_id":"0.0-8.0-1.4","subject":"3py6qej3235ykmz","sona":"9583"},{"trial_type":"turing-test","trial_index":25,"time_elapsed":91837,"internal_node_id":"0.0-8.0-2.4","subject":"3py6qej3235ykmz","sona":"9583"},{"rt":837.6700000371784,"stimulus":"<p>Welche Sequenz haben Sie als natürlicher empfunden?</p>","key_press":70,"test_part":"response","test_stimulus":{"position":0,"left":"bvh/pass-bottle-hold-training3-lines.txt","right":"bvh/vr_prediction_models/model(vcgpdm)-dataset(pass-bottle-hold)-mode(ELBO)-parts(1)-dyn(25)-lvm(35)-hold(3)/final-lines.txt","att_check":false},"trial_type":"html-keyboard-response","trial_index":26,"time_elapsed":92680,"internal_node_id":"0.0-8.0-3.4","subject":"3py6qej3235ykmz","sona":"9583"},{"rt":424.15500001516193,"stimulus":"<p>Bereit?</p>","key_press":32,"trial_type":"html-keyboard-response","trial_index":27,"time_elapsed":93106,"internal_node_id":"0.0-8.0-0.5","subject":"3py6qej3235ykmz","sona":"9583"},{"rt":null,"stimulus":"<div style=\"font-size:60px;\">+</div>","key_press":null,"trial_type":"html-keyboard-response","trial_index":28,"time_elapsed":95108,"internal_node_id":"0.0-8.0-1.5","subject":"3py6qej3235ykmz","sona":"9583"},{"trial_type":"turing-test","trial_index":29,"time_elapsed":98476,"internal_node_id":"0.0-8.0-2.5","subject":"3py6qej3235ykmz","sona":"9583"},{"rt":412.1899999445304,"stimulus":"<p>Welche Sequenz haben Sie als natürlicher empfunden?</p>","key_press":70,"test_part":"response","test_stimulus":{"position":0,"left":"bvh/return-bottle-hold-training1-lines.txt","right":"bvh/vr_prediction_models/model(tmp)-dataset(return-bottle-hold)-numprim(9)-hold(1)/final-lines.txt","att_check":false},"trial_type":"html-keyboard-response","trial_index":30,"time_elapsed":98894,"internal_node_id":"0.0-8.0-3.5","subject":"3py6qej3235ykmz","sona":"9583"},{"rt":416.6599999880418,"stimulus":"<p>Bereit?</p>","key_press":32,"trial_type":"html-keyboard-response","trial_index":31,"time_elapsed":99314,"internal_node_id":"0.0-8.0-0.6","subject":"3py6qej3235ykmz","sona":"9583"},{"rt":null,"stimulus":"<div style=\"font-size:60px;\">+</div>","key_press":null,"trial_type":"html-keyboard-response","trial_index":32,"time_elapsed":101317,"internal_node_id":"0.0-8.0-1.6","subject":"3py6qej3235ykmz","sona":"9583"},{"trial_type":"turing-test","trial_index":33,"time_elapsed":107416,"internal_node_id":"0.0-8.0-2.6","subject":"3py6qej3235ykmz","sona":"9583"},{"rt":337.9499999573454,"stimulus":"<p>Welche Sequenz haben Sie als natürlicher empfunden?</p>","key_press":74,"test_part":"response","test_stimulus":{"position":1,"left":"bvh/vr_prediction_models/model(vcgpdm)-dataset(pass-bottle)-mode(ELBO)-parts(1)-dyn(20)-lvm(5)-hold(4)/final-lines.txt","right":"bvh/pass-bottle-training4-lines.txt","att_check":false},"trial_type":"html-keyboard-response","trial_index":34,"time_elapsed":107760,"internal_node_id":"0.0-8.0-3.6","subject":"3py6qej3235ykmz","sona":"9583"},{"rt":456.2649999279529,"stimulus":"<p>Bereit?</p>","key_press":32,"trial_type":"html-keyboard-response","trial_index":35,"time_elapsed":108219,"internal_node_id":"0.0-8.0-0.7","subject":"3py6qej3235ykmz","sona":"9583"},{"rt":null,"stimulus":"<div style=\"font-size:60px;\">+</div>","key_press":null,"trial_type":"html-keyboard-response","trial_index":36,"time_elapsed":110221,"internal_node_id":"0.0-8.0-1.7","subject":"3py6qej3235ykmz","sona":"9583"},{"trial_type":"turing-test","trial_index":37,"time_elapsed":114936,"internal_node_id":"0.0-8.0-2.7","subject":"3py6qej3235ykmz","sona":"9583"},{"rt":862.375000026077,"stimulus":"<p>Welche Sequenz haben Sie als natürlicher empfunden?</p>","key_press":70,"test_part":"response","test_stimulus":{"position":1,"left":"bvh/vr_prediction_models/model(vcgpdm)-dataset(pass-bottle-hold)-mode(ELBO)-parts(1)-dyn(15)-lvm(35)-hold(2)/final-lines.txt","right":"bvh/pass-bottle-hold-training2-lines.txt","att_check":false},"trial_type":"html-keyboard-response","trial_index":38,"time_elapsed":115805,"internal_node_id":"0.0-8.0-3.7","subject":"3py6qej3235ykmz","sona":"9583"},{"rt":421.59499996341765,"stimulus":"<p>Bereit?</p>","key_press":32,"trial_type":"html-keyboard-response","trial_index":39,"time_elapsed":116229,"internal_node_id":"0.0-8.0-0.8","subject":"3py6qej3235ykmz","sona":"9583"},{"rt":null,"stimulus":"<div style=\"font-size:60px;\">+</div>","key_press":null,"trial_type":"html-keyboard-response","trial_index":40,"time_elapsed":118231,"internal_node_id":"0.0-8.0-1.8","subject":"3py6qej3235ykmz","sona":"9583"},{"trial_type":"turing-test","trial_index":41,"time_elapsed":124194,"internal_node_id":"0.0-8.0-2.8","subject":"3py6qej3235ykmz","sona":"9583"},{"rt":274.63999995961785,"stimulus":"<p>Welche Sequenz haben Sie als natürlicher empfunden?</p>","key_press":74,"test_part":"response","test_stimulus":{"position":1,"left":"bvh/vr_prediction_models/model(vcgpdm)-dataset(pass-bottle)-mode(ELBO)-parts(1)-dyn(30)-lvm(30)-hold(4)/final-lines.txt","right":"bvh/pass-bottle-training4-lines.txt","att_check":false},"trial_type":"html-keyboard-response","trial_index":42,"time_elapsed":124477,"internal_node_id":"0.0-8.0-3.8","subject":"3py6qej3235ykmz","sona":"9583"},{"rt":528.8999999174848,"stimulus":"<p>Bereit?</p>","key_press":32,"trial_type":"html-keyboard-response","trial_index":43,"time_elapsed":125009,"internal_node_id":"0.0-8.0-0.9","subject":"3py6qej3235ykmz","sona":"9583"},{"rt":null,"stimulus":"<div style=\"font-size:60px;\">+</div>","key_press":null,"trial_type":"html-keyboard-response","trial_index":44,"time_elapsed":127011,"internal_node_id":"0.0-8.0-1.9","subject":"3py6qej3235ykmz","sona":"9583"},{"trial_type":"turing-test","trial_index":45,"time_elapsed":133402,"internal_node_id":"0.0-8.0-2.9","subject":"3py6qej3235ykmz","sona":"9583"},{"rt":324.6900000376627,"stimulus":"<p>Welche Sequenz haben Sie als natürlicher empfunden?</p>","key_press":70,"test_part":"response","test_stimulus":{"position":0,"left":"bvh/return-bottle-training1-lines.txt","right":"bvh/vr_prediction_models/model(vcgpdm)-dataset(return-bottle)-mode(ELBO)-parts(3)-dyn(20)-lvm(35)-hold(1)/final-lines.txt","att_check":false},"trial_type":"html-keyboard-response","trial_index":46,"time_elapsed":133732,"internal_node_id":"0.0-8.0-3.9","subject":"3py6qej3235ykmz","sona":"9583"},{"rt":373.4600000316277,"stimulus":"<p>Bereit?</p>","key_press":32,"trial_type":"html-keyboard-response","trial_index":47,"time_elapsed":134109,"internal_node_id":"0.0-8.0-0.10","subject":"3py6qej3235ykmz","sona":"9583"},{"rt":null,"stimulus":"<div style=\"font-size:60px;\">+</div>","key_press":null,"trial_type":"html-keyboard-response","trial_index":48,"time_elapsed":136112,"internal_node_id":"0.0-8.0-1.10","subject":"3py6qej3235ykmz","sona":"9583"},{"trial_type":"turing-test","trial_index":49,"time_elapsed":143046,"internal_node_id":"0.0-8.0-2.10","subject":"3py6qej3235ykmz","sona":"9583"},{"rt":219.17000005487353,"stimulus":"<p>Welche Sequenz haben Sie als natürlicher empfunden?</p>","key_press":74,"test_part":"response","test_stimulus":{"position":1,"left":"bvh/vr_prediction_models/model(vcgpdm)-dataset(pass-bottle)-mode(ELBO)-parts(1)-dyn(10)-lvm(30)-hold(0)/final-lines.txt","right":"bvh/pass-bottle-training0-lines.txt","att_check":false},"trial_type":"html-keyboard-response","trial_index":50,"time_elapsed":143274,"internal_node_id":"0.0-8.0-3.10","subject":"3py6qej3235ykmz","sona":"9583"}]