[{"rt":1528,"stimulus":"<p>Welcome!<br> Please choose your language to start the experiment in the chosen language.</p><p>Willkommen!<br> Bitte wählen Sie eine Sprache, um das Experiment in der ausgewählten Sprache zu starten</p>","button_pressed":"1","trial_type":"html-button-response","trial_index":0,"time_elapsed":1549,"internal_node_id":"0.0-0.0","subject":"ba3cg7m5t771okf","sona":"7735"},{"view_history":"[{\"page_index\":0,\"viewing_time\":767},{\"page_index\":1,\"viewing_time\":1353},{\"page_index\":2,\"viewing_time\":473.0000000000009},{\"page_index\":3,\"viewing_time\":9594},{\"page_index\":4,\"viewing_time\":2251}]","rt":14439,"trial_type":"instructions","trial_index":1,"time_elapsed":15989,"internal_node_id":"0.0-1.0-0.0","subject":"ba3cg7m5t771okf","sona":"7735"},{"rt":1561,"stimulus":"<p>Bereit?</p>","key_press":32,"trial_type":"html-keyboard-response","trial_index":2,"time_elapsed":17553,"internal_node_id":"0.0-3.0","subject":"ba3cg7m5t771okf","sona":"7735"},{"rt":null,"stimulus":"<div style=\"font-size:60px;\">+</div>","key_press":null,"trial_type":"html-keyboard-response","trial_index":3,"time_elapsed":19556,"internal_node_id":"0.0-4.0","subject":"ba3cg7m5t771okf","sona":"7735"},{"trial_type":"training","trial_index":4,"time_elapsed":23162,"internal_node_id":"0.0-5.0","subject":"ba3cg7m5t771okf","sona":"7735"},{"rt":2998.9999999999964,"stimulus":"<p>Welche Sequenz haben Sie als natürlicher empfunden?</p>","key_press":74,"trial_type":"html-keyboard-response","trial_index":5,"time_elapsed":26163,"internal_node_id":"0.0-6.0","subject":"ba3cg7m5t771okf","sona":"7735"},{"rt":2207.9999999999964,"stimulus":"<p>Das Experiment startet nun.</p><p><small>Bitte drücken Sie den Knopf, wenn Sie bereit sind.</small></p>","button_pressed":"0","trial_type":"html-button-response","trial_index":6,"time_elapsed":28372,"internal_node_id":"0.0-7.0","subject":"ba3cg7m5t771okf","sona":"7735"},{"rt":1677,"stimulus":"<p>Bereit?</p>","key_press":32,"trial_type":"html-keyboard-response","trial_index":7,"time_elapsed":30050,"internal_node_id":"0.0-8.0-0.0","subject":"ba3cg7m5t771okf","sona":"7735"},{"rt":null,"stimulus":"<div style=\"font-size:60px;\">+</div>","key_press":null,"trial_type":"html-keyboard-response","trial_index":8,"time_elapsed":32054,"internal_node_id":"0.0-8.0-1.0","subject":"ba3cg7m5t771okf","sona":"7735"},{"trial_type":"turing-test","trial_index":9,"time_elapsed":38144,"internal_node_id":"0.0-8.0-2.0","subject":"ba3cg7m5t771okf","sona":"7735"},{"rt":926,"stimulus":"<p>Welche Sequenz haben Sie als natürlicher empfunden?</p>","key_press":70,"test_part":"response","test_stimulus":{"position":0,"left":"bvh/return-bottle-training1-lines.txt","right":"bvh/vr_prediction_models/model(tmp)-dataset(return-bottle)-numprim(14)-hold(1)/final-lines.txt","att_check":false},"trial_type":"html-keyboard-response","trial_index":10,"time_elapsed":39072,"internal_node_id":"0.0-8.0-3.0","subject":"ba3cg7m5t771okf","sona":"7735"},{"rt":3278,"stimulus":"<p>Bereit?</p>","key_press":32,"trial_type":"html-keyboard-response","trial_index":11,"time_elapsed":42352,"internal_node_id":"0.0-8.0-0.1","subject":"ba3cg7m5t771okf","sona":"7735"},{"rt":null,"stimulus":"<div style=\"font-size:60px;\">+</div>","key_press":null,"trial_type":"html-keyboard-response","trial_index":12,"time_elapsed":44354,"internal_node_id":"0.0-8.0-1.1","subject":"ba3cg7m5t771okf","sona":"7735"},{"trial_type":"turing-test","trial_index":13,"time_elapsed":49872,"internal_node_id":"0.0-8.0-2.1","subject":"ba3cg7m5t771okf","sona":"7735"},{"rt":190.00000000000728,"stimulus":"<p>Welche Sequenz haben Sie als natürlicher empfunden?</p>","key_press":74,"test_part":"response","test_stimulus":{"position":1,"left":"bvh/vr_prediction_models/model(tmp)-dataset(pass-bottle)-numprim(12)-hold(1)/final-lines.txt","right":"bvh/pass-bottle-training1-lines.txt","att_check":false},"trial_type":"html-keyboard-response","trial_index":14,"time_elapsed":50064,"internal_node_id":"0.0-8.0-3.1","subject":"ba3cg7m5t771okf","sona":"7735"},{"rt":1011,"stimulus":"<p>Bereit?</p>","key_press":32,"trial_type":"html-keyboard-response","trial_index":15,"time_elapsed":51078,"internal_node_id":"0.0-8.0-0.2","subject":"ba3cg7m5t771okf","sona":"7735"},{"rt":null,"stimulus":"<div style=\"font-size:60px;\">+</div>","key_press":null,"trial_type":"html-keyboard-response","trial_index":16,"time_elapsed":53081,"internal_node_id":"0.0-8.0-1.2","subject":"ba3cg7m5t771okf","sona":"7735"},{"trial_type":"turing-test","trial_index":17,"time_elapsed":59718,"internal_node_id":"0.0-8.0-2.2","subject":"ba3cg7m5t771okf","sona":"7735"},{"rt":1823,"stimulus":"<p>Welche Sequenz haben Sie als natürlicher empfunden?</p>","key_press":74,"test_part":"response","test_stimulus":{"position":0,"left":"bvh/return-bottle-training2-lines.txt","right":"bvh/vr_prediction_models/model(dmp)-dataset(return-bottle)-npsi(70)-hold(2)/final-lines.txt","att_check":false},"trial_type":"html-keyboard-response","trial_index":18,"time_elapsed":61542,"internal_node_id":"0.0-8.0-3.2","subject":"ba3cg7m5t771okf","sona":"7735"},{"rt":2160,"stimulus":"<p>Bereit?</p>","key_press":32,"trial_type":"html-keyboard-response","trial_index":19,"time_elapsed":63708,"internal_node_id":"0.0-8.0-0.3","subject":"ba3cg7m5t771okf","sona":"7735"},{"rt":null,"stimulus":"<div style=\"font-size:60px;\">+</div>","key_press":null,"trial_type":"html-keyboard-response","trial_index":20,"time_elapsed":65712,"internal_node_id":"0.0-8.0-1.3","subject":"ba3cg7m5t771okf","sona":"7735"},{"trial_type":"turing-test","trial_index":21,"time_elapsed":69511,"internal_node_id":"0.0-8.0-2.3","subject":"ba3cg7m5t771okf","sona":"7735"},{"rt":1310,"stimulus":"<p>Welche Sequenz haben Sie als natürlicher empfunden?</p>","key_press":74,"test_part":"response","test_stimulus":{"position":1,"left":"bvh/vr_prediction_models/model(tmp)-dataset(return-bottle-hold)-numprim(9)-hold(4)/final-lines.txt","right":"bvh/return-bottle-hold-training4-lines.txt","att_check":false},"trial_type":"html-keyboard-response","trial_index":22,"time_elapsed":70823,"internal_node_id":"0.0-8.0-3.3","subject":"ba3cg7m5t771okf","sona":"7735"},{"rt":1055,"stimulus":"<p>Bereit?</p>","key_press":32,"trial_type":"html-keyboard-response","trial_index":23,"time_elapsed":71880,"internal_node_id":"0.0-8.0-0.4","subject":"ba3cg7m5t771okf","sona":"7735"},{"rt":null,"stimulus":"<div style=\"font-size:60px;\">+</div>","key_press":null,"trial_type":"html-keyboard-response","trial_index":24,"time_elapsed":73883,"internal_node_id":"0.0-8.0-1.4","subject":"ba3cg7m5t771okf","sona":"7735"},{"trial_type":"turing-test","trial_index":25,"time_elapsed":77186,"internal_node_id":"0.0-8.0-2.4","subject":"ba3cg7m5t771okf","sona":"7735"},{"rt":261,"stimulus":"<p>Welche Sequenz haben Sie als natürlicher empfunden?</p>","key_press":70,"test_part":"response","test_stimulus":{"position":1,"left":"bvh/vr_prediction_models/model(vcgpdm)-dataset(pass-bottle-hold)-mode(MAP)-parts(3)-hold(1)/final-lines.txt","right":"bvh/pass-bottle-hold-training1-lines.txt","att_check":false},"trial_type":"html-keyboard-response","trial_index":26,"time_elapsed":77448,"internal_node_id":"0.0-8.0-3.4","subject":"ba3cg7m5t771okf","sona":"7735"},{"rt":403.00000000001455,"stimulus":"<p>Bereit?</p>","key_press":32,"trial_type":"html-keyboard-response","trial_index":27,"time_elapsed":77853,"internal_node_id":"0.0-8.0-0.5","subject":"ba3cg7m5t771okf","sona":"7735"},{"rt":null,"stimulus":"<div style=\"font-size:60px;\">+</div>","key_press":null,"trial_type":"html-keyboard-response","trial_index":28,"time_elapsed":79855,"internal_node_id":"0.0-8.0-1.5","subject":"ba3cg7m5t771okf","sona":"7735"},{"trial_type":"turing-test","trial_index":29,"time_elapsed":85864,"internal_node_id":"0.0-8.0-2.5","subject":"ba3cg7m5t771okf","sona":"7735"},{"rt":1266,"stimulus":"<p>Welche Sequenz haben Sie als natürlicher empfunden?</p>","key_press":74,"test_part":"response","test_stimulus":{"position":1,"left":"bvh/vr_prediction_models/model(tmp)-dataset(return-bottle)-numprim(6)-hold(1)/final-lines.txt","right":"bvh/return-bottle-training1-lines.txt","att_check":false},"trial_type":"html-keyboard-response","trial_index":30,"time_elapsed":87132,"internal_node_id":"0.0-8.0-3.5","subject":"ba3cg7m5t771okf","sona":"7735"},{"rt":699,"stimulus":"<p>Bereit?</p>","key_press":32,"trial_type":"html-keyboard-response","trial_index":31,"time_elapsed":87833,"internal_node_id":"0.0-8.0-0.6","subject":"ba3cg7m5t771okf","sona":"7735"},{"rt":null,"stimulus":"<div style=\"font-size:60px;\">+</div>","key_press":null,"trial_type":"html-keyboard-response","trial_index":32,"time_elapsed":89836,"internal_node_id":"0.0-8.0-1.6","subject":"ba3cg7m5t771okf","sona":"7735"},{"trial_type":"turing-test","trial_index":33,"time_elapsed":93150,"internal_node_id":"0.0-8.0-2.6","subject":"ba3cg7m5t771okf","sona":"7735"},{"rt":1199.0000000000146,"stimulus":"<p>Welche Sequenz haben Sie als natürlicher empfunden?</p>","key_press":74,"test_part":"response","test_stimulus":{"position":0,"left":"bvh/return-bottle-hold-training1-lines.txt","right":"bvh/vr_prediction_models/model(dmp)-dataset(return-bottle-hold)-npsi(80)-hold(1)/final-lines.txt","att_check":false},"trial_type":"html-keyboard-response","trial_index":34,"time_elapsed":94351,"internal_node_id":"0.0-8.0-3.6","subject":"ba3cg7m5t771okf","sona":"7735"},{"rt":4759,"stimulus":"<p>Bereit?</p>","key_press":32,"trial_type":"html-keyboard-response","trial_index":35,"time_elapsed":99112,"internal_node_id":"0.0-8.0-0.7","subject":"ba3cg7m5t771okf","sona":"7735"},{"rt":null,"stimulus":"<div style=\"font-size:60px;\">+</div>","key_press":null,"trial_type":"html-keyboard-response","trial_index":36,"time_elapsed":101115,"internal_node_id":"0.0-8.0-1.7","subject":"ba3cg7m5t771okf","sona":"7735"},{"trial_type":"turing-test","trial_index":37,"time_elapsed":104778,"internal_node_id":"0.0-8.0-2.7","subject":"ba3cg7m5t771okf","sona":"7735"},{"rt":523,"stimulus":"<p>Welche Sequenz haben Sie als natürlicher empfunden?</p>","key_press":74,"test_part":"response","test_stimulus":{"position":0,"left":"bvh/pass-bottle-hold-training4-lines.txt","right":"bvh/vr_prediction_models/model(vcgpdm)-dataset(pass-bottle-hold)-mode(ELBO)-parts(3)-dyn(20)-lvm(35)-hold(4)/final-lines.txt","att_check":false},"trial_type":"html-keyboard-response","trial_index":38,"time_elapsed":105303,"internal_node_id":"0.0-8.0-3.7","subject":"ba3cg7m5t771okf","sona":"7735"},{"rt":2116,"stimulus":"<p>Bereit?</p>","key_press":32,"trial_type":"html-keyboard-response","trial_index":39,"time_elapsed":107421,"internal_node_id":"0.0-8.0-0.8","subject":"ba3cg7m5t771okf","sona":"7735"},{"rt":null,"stimulus":"<div style=\"font-size:60px;\">+</div>","key_press":null,"trial_type":"html-keyboard-response","trial_index":40,"time_elapsed":109424,"internal_node_id":"0.0-8.0-1.8","subject":"ba3cg7m5t771okf","sona":"7735"},{"trial_type":"turing-test","trial_index":41,"time_elapsed":114586,"internal_node_id":"0.0-8.0-2.8","subject":"ba3cg7m5t771okf","sona":"7735"},{"rt":783,"stimulus":"<p>Welche Sequenz haben Sie als natürlicher empfunden?</p>","key_press":74,"test_part":"response","test_stimulus":{"position":1,"left":"bvh/vr_prediction_models/model(dmp)-dataset(return-bottle-hold)-npsi(90)-hold(0)/final-lines.txt","right":"bvh/return-bottle-hold-training0-lines.txt","att_check":false},"trial_type":"html-keyboard-response","trial_index":42,"time_elapsed":115371,"internal_node_id":"0.0-8.0-3.8","subject":"ba3cg7m5t771okf","sona":"7735"},{"rt":301,"stimulus":"<p>Bereit?</p>","key_press":32,"trial_type":"html-keyboard-response","trial_index":43,"time_elapsed":115674,"internal_node_id":"0.0-8.0-0.9","subject":"ba3cg7m5t771okf","sona":"7735"},{"rt":null,"stimulus":"<div style=\"font-size:60px;\">+</div>","key_press":null,"trial_type":"html-keyboard-response","trial_index":44,"time_elapsed":117677,"internal_node_id":"0.0-8.0-1.9","subject":"ba3cg7m5t771okf","sona":"7735"},{"trial_type":"turing-test","trial_index":45,"time_elapsed":123225,"internal_node_id":"0.0-8.0-2.9","subject":"ba3cg7m5t771okf","sona":"7735"},{"rt":366,"stimulus":"<p>Welche Sequenz haben Sie als natürlicher empfunden?</p>","key_press":70,"test_part":"response","test_stimulus":{"position":0,"left":"bvh/pass-bottle-training1-lines.txt","right":"bvh/vr_prediction_models/model(vcgpdm)-dataset(pass-bottle)-mode(ELBO)-parts(1)-dyn(35)-lvm(30)-hold(1)/final-lines.txt","att_check":false},"trial_type":"html-keyboard-response","trial_index":46,"time_elapsed":123594,"internal_node_id":"0.0-8.0-3.9","subject":"ba3cg7m5t771okf","sona":"7735"},{"rt":741,"stimulus":"<p>Bereit?</p>","key_press":32,"trial_type":"html-keyboard-response","trial_index":47,"time_elapsed":124338,"internal_node_id":"0.0-8.0-0.10","subject":"ba3cg7m5t771okf","sona":"7735"},{"rt":null,"stimulus":"<div style=\"font-size:60px;\">+</div>","key_press":null,"trial_type":"html-keyboard-response","trial_index":48,"time_elapsed":126341,"internal_node_id":"0.0-8.0-1.10","subject":"ba3cg7m5t771okf","sona":"7735"},{"trial_type":"turing-test","trial_index":49,"time_elapsed":129977,"internal_node_id":"0.0-8.0-2.10","subject":"ba3cg7m5t771okf","sona":"7735"},{"rt":1396,"stimulus":"<p>Welche Sequenz haben Sie als natürlicher empfunden?</p>","key_press":70,"test_part":"response","test_stimulus":{"position":1,"left":"bvh/vr_prediction_models/model(dmp)-dataset(return-bottle-hold)-npsi(100)-hold(3)/final-lines.txt","right":"bvh/return-bottle-hold-training3-lines.txt","att_check":false},"trial_type":"html-keyboard-response","trial_index":50,"time_elapsed":131375,"internal_node_id":"0.0-8.0-3.10","subject":"ba3cg7m5t771okf","sona":"7735"},{"rt":340,"stimulus":"<p>Bereit?</p>","key_press":32,"trial_type":"html-keyboard-response","trial_index":51,"time_elapsed":131718,"internal_node_id":"0.0-8.0-0.11","subject":"ba3cg7m5t771okf","sona":"7735"},{"rt":null,"stimulus":"<div style=\"font-size:60px;\">+</div>","key_press":null,"trial_type":"html-keyboard-response","trial_index":52,"time_elapsed":133721,"internal_node_id":"0.0-8.0-1.11","subject":"ba3cg7m5t771okf","sona":"7735"},{"trial_type":"turing-test","trial_index":53,"time_elapsed":139626,"internal_node_id":"0.0-8.0-2.11","subject":"ba3cg7m5t771okf","sona":"7735"}]