[{"rt":4966.42000018619,"stimulus":"<p>Welcome!<br> Please choose your language to start the experiment in the chosen language.</p><p>Willkommen!<br> Bitte wählen Sie eine Sprache, um das Experiment in der ausgewählten Sprache zu starten</p>","button_pressed":"1","trial_type":"html-button-response","trial_index":0,"time_elapsed":5058,"internal_node_id":"0.0-0.0","subject":"10615vm8rtupbaq","sona":"7573"},{"view_history":"[{\"page_index\":0,\"viewing_time\":6843.630000017583},{\"page_index\":1,\"viewing_time\":3679.360000183806},{\"page_index\":2,\"viewing_time\":5801.429999992251},{\"page_index\":3,\"viewing_time\":9991.249999962747},{\"page_index\":4,\"viewing_time\":3133.4849998820573}]","rt":29452.664999989793,"trial_type":"instructions","trial_index":1,"time_elapsed":34516,"internal_node_id":"0.0-1.0-0.0","subject":"10615vm8rtupbaq","sona":"7573"},{"rt":1748.6499999649823,"stimulus":"<p>Bereit?</p>","key_press":32,"trial_type":"html-keyboard-response","trial_index":2,"time_elapsed":36274,"internal_node_id":"0.0-3.0","subject":"10615vm8rtupbaq","sona":"7573"},{"rt":null,"stimulus":"<div style=\"font-size:60px;\">+</div>","key_press":null,"trial_type":"html-keyboard-response","trial_index":3,"time_elapsed":38295,"internal_node_id":"0.0-4.0","subject":"10615vm8rtupbaq","sona":"7573"},{"trial_type":"training","trial_index":4,"time_elapsed":41886,"internal_node_id":"0.0-5.0","subject":"10615vm8rtupbaq","sona":"7573"},{"rt":969.4799999706447,"stimulus":"<p>Welche Sequenz haben Sie als natürlicher empfunden?</p>","key_press":70,"trial_type":"html-keyboard-response","trial_index":5,"time_elapsed":42865,"internal_node_id":"0.0-6.0","subject":"10615vm8rtupbaq","sona":"7573"},{"rt":6268.515000119805,"stimulus":"<p>Das Experiment startet nun.</p><p><small>Bitte drücken Sie den Knopf, wenn Sie bereit sind.</small></p>","button_pressed":"0","trial_type":"html-button-response","trial_index":6,"time_elapsed":49139,"internal_node_id":"0.0-7.0","subject":"10615vm8rtupbaq","sona":"7573"},{"rt":1508.2300000358373,"stimulus":"<p>Bereit?</p>","key_press":32,"trial_type":"html-keyboard-response","trial_index":7,"time_elapsed":50653,"internal_node_id":"0.0-8.0-0.0","subject":"10615vm8rtupbaq","sona":"7573"},{"rt":null,"stimulus":"<div style=\"font-size:60px;\">+</div>","key_press":null,"trial_type":"html-keyboard-response","trial_index":8,"time_elapsed":52685,"internal_node_id":"0.0-8.0-1.0","subject":"10615vm8rtupbaq","sona":"7573"},{"trial_type":"turing-test","trial_index":9,"time_elapsed":56277,"internal_node_id":"0.0-8.0-2.0","subject":"10615vm8rtupbaq","sona":"7573"},{"rt":1301.6399999614805,"stimulus":"<p>Welche Sequenz haben Sie als natürlicher empfunden?</p>","key_press":74,"test_part":"response","test_stimulus":{"position":1,"left":"bvh/vr_prediction_models/model(dmp)-dataset(pass-bottle-hold)-npsi(10)-hold(2)/final-lines.txt","right":"bvh/pass-bottle-hold-training2-lines.txt","att_check":false},"trial_type":"html-keyboard-response","trial_index":10,"time_elapsed":57608,"internal_node_id":"0.0-8.0-3.0","subject":"10615vm8rtupbaq","sona":"7573"},{"rt":3091.054999968037,"stimulus":"<p>Bereit?</p>","key_press":32,"trial_type":"html-keyboard-response","trial_index":11,"time_elapsed":60720,"internal_node_id":"0.0-8.0-0.1","subject":"10615vm8rtupbaq","sona":"7573"},{"rt":null,"stimulus":"<div style=\"font-size:60px;\">+</div>","key_press":null,"trial_type":"html-keyboard-response","trial_index":12,"time_elapsed":62753,"internal_node_id":"0.0-8.0-1.1","subject":"10615vm8rtupbaq","sona":"7573"},{"trial_type":"turing-test","trial_index":13,"time_elapsed":68628,"internal_node_id":"0.0-8.0-2.1","subject":"10615vm8rtupbaq","sona":"7573"},{"rt":4502.110000001267,"stimulus":"<p>Welche Sequenz haben Sie als natürlicher empfunden?</p>","key_press":70,"test_part":"response","test_stimulus":{"position":0,"left":"bvh/return-bottle-hold-training0-lines.txt","right":"bvh/vr_prediction_models/model(vcgpdm)-dataset(return-bottle-hold)-mode(ELBO)-parts(3)-dyn(10)-lvm(30)-hold(0)/final-lines.txt","att_check":false},"trial_type":"html-keyboard-response","trial_index":14,"time_elapsed":73154,"internal_node_id":"0.0-8.0-3.1","subject":"10615vm8rtupbaq","sona":"7573"},{"rt":1665.0399998761714,"stimulus":"<p>Bereit?</p>","key_press":32,"trial_type":"html-keyboard-response","trial_index":15,"time_elapsed":74836,"internal_node_id":"0.0-8.0-0.2","subject":"10615vm8rtupbaq","sona":"7573"},{"rt":null,"stimulus":"<div style=\"font-size:60px;\">+</div>","key_press":null,"trial_type":"html-keyboard-response","trial_index":16,"time_elapsed":76865,"internal_node_id":"0.0-8.0-1.2","subject":"10615vm8rtupbaq","sona":"7573"},{"trial_type":"turing-test","trial_index":17,"time_elapsed":82949,"internal_node_id":"0.0-8.0-2.2","subject":"10615vm8rtupbaq","sona":"7573"},{"rt":986.7350000422448,"stimulus":"<p>Welche Sequenz haben Sie als natürlicher empfunden?</p>","key_press":74,"test_part":"response","test_stimulus":{"position":0,"left":"bvh/return-bottle-training3-lines.txt","right":"bvh/vr_prediction_models/model(dmp)-dataset(return-bottle)-npsi(50)-hold(3)/final-lines.txt","att_check":false},"trial_type":"html-keyboard-response","trial_index":18,"time_elapsed":83962,"internal_node_id":"0.0-8.0-3.2","subject":"10615vm8rtupbaq","sona":"7573"},{"rt":1310.6249999254942,"stimulus":"<p>Bereit?</p>","key_press":32,"trial_type":"html-keyboard-response","trial_index":19,"time_elapsed":85292,"internal_node_id":"0.0-8.0-0.3","subject":"10615vm8rtupbaq","sona":"7573"},{"rt":null,"stimulus":"<div style=\"font-size:60px;\">+</div>","key_press":null,"trial_type":"html-keyboard-response","trial_index":20,"time_elapsed":87317,"internal_node_id":"0.0-8.0-1.3","subject":"10615vm8rtupbaq","sona":"7573"},{"trial_type":"turing-test","trial_index":21,"time_elapsed":91330,"internal_node_id":"0.0-8.0-2.3","subject":"10615vm8rtupbaq","sona":"7573"},{"rt":595.644999993965,"stimulus":"<p>Welche Sequenz haben Sie als natürlicher empfunden?</p>","key_press":74,"test_part":"response","test_stimulus":{"position":0,"left":"bvh/pass-bottle-hold-training4-lines.txt","right":"bvh/vr_prediction_models/model(vcgpdm)-dataset(pass-bottle-hold)-mode(ELBO)-parts(1)-dyn(35)-lvm(30)-hold(4)/final-lines.txt","att_check":false},"trial_type":"html-keyboard-response","trial_index":22,"time_elapsed":91949,"internal_node_id":"0.0-8.0-3.3","subject":"10615vm8rtupbaq","sona":"7573"},{"rt":1960.1750001311302,"stimulus":"<p>Bereit?</p>","key_press":32,"trial_type":"html-keyboard-response","trial_index":23,"time_elapsed":93923,"internal_node_id":"0.0-8.0-0.4","subject":"10615vm8rtupbaq","sona":"7573"},{"rt":null,"stimulus":"<div style=\"font-size:60px;\">+</div>","key_press":null,"trial_type":"html-keyboard-response","trial_index":24,"time_elapsed":95935,"internal_node_id":"0.0-8.0-1.4","subject":"10615vm8rtupbaq","sona":"7573"},{"trial_type":"turing-test","trial_index":25,"time_elapsed":99626,"internal_node_id":"0.0-8.0-2.4","subject":"10615vm8rtupbaq","sona":"7573"},{"rt":1023.1600000988692,"stimulus":"<p>Welche Sequenz haben Sie als natürlicher empfunden?</p>","key_press":74,"test_part":"response","test_stimulus":{"position":1,"left":"bvh/vr_prediction_models/model(vcgpdm)-dataset(pass-bottle-hold)-mode(ELBO)-parts(3)-dyn(10)-lvm(10)-hold(2)/final-lines.txt","right":"bvh/pass-bottle-hold-training2-lines.txt","att_check":false},"trial_type":"html-keyboard-response","trial_index":26,"time_elapsed":100674,"internal_node_id":"0.0-8.0-3.4","subject":"10615vm8rtupbaq","sona":"7573"},{"rt":628.5050001461059,"stimulus":"<p>Bereit?</p>","key_press":32,"trial_type":"html-keyboard-response","trial_index":27,"time_elapsed":101318,"internal_node_id":"0.0-8.0-0.5","subject":"10615vm8rtupbaq","sona":"7573"},{"rt":null,"stimulus":"<div style=\"font-size:60px;\">+</div>","key_press":null,"trial_type":"html-keyboard-response","trial_index":28,"time_elapsed":103354,"internal_node_id":"0.0-8.0-1.5","subject":"10615vm8rtupbaq","sona":"7573"},{"trial_type":"turing-test","trial_index":29,"time_elapsed":109441,"internal_node_id":"0.0-8.0-2.5","subject":"10615vm8rtupbaq","sona":"7573"},{"rt":527.01500011608,"stimulus":"<p>Welche Sequenz haben Sie als natürlicher empfunden?</p>","key_press":74,"test_part":"response","test_stimulus":{"position":1,"left":"bvh/vr_prediction_models/model(tmp)-dataset(pass-bottle)-numprim(6)-hold(3)/final-lines.txt","right":"bvh/pass-bottle-training3-lines.txt","att_check":false},"trial_type":"html-keyboard-response","trial_index":30,"time_elapsed":109989,"internal_node_id":"0.0-8.0-3.5","subject":"10615vm8rtupbaq","sona":"7573"},{"rt":738.4850000962615,"stimulus":"<p>Bereit?</p>","key_press":32,"trial_type":"html-keyboard-response","trial_index":31,"time_elapsed":110747,"internal_node_id":"0.0-8.0-0.6","subject":"10615vm8rtupbaq","sona":"7573"},{"rt":null,"stimulus":"<div style=\"font-size:60px;\">+</div>","key_press":null,"trial_type":"html-keyboard-response","trial_index":32,"time_elapsed":112763,"internal_node_id":"0.0-8.0-1.6","subject":"10615vm8rtupbaq","sona":"7573"},{"trial_type":"turing-test","trial_index":33,"time_elapsed":118785,"internal_node_id":"0.0-8.0-2.6","subject":"10615vm8rtupbaq","sona":"7573"},{"rt":576.9550001714379,"stimulus":"<p>Welche Sequenz haben Sie als natürlicher empfunden?</p>","key_press":74,"test_part":"response","test_stimulus":{"position":1,"left":"bvh/vr_prediction_models/model(vcgpdm)-dataset(return-bottle)-mode(ELBO)-parts(1)-dyn(20)-lvm(5)-hold(0)/final-lines.txt","right":"bvh/return-bottle-training0-lines.txt","att_check":false},"trial_type":"html-keyboard-response","trial_index":34,"time_elapsed":119396,"internal_node_id":"0.0-8.0-3.6","subject":"10615vm8rtupbaq","sona":"7573"},{"rt":1403.0049999710172,"stimulus":"<p>Bereit?</p>","key_press":32,"trial_type":"html-keyboard-response","trial_index":35,"time_elapsed":120812,"internal_node_id":"0.0-8.0-0.7","subject":"10615vm8rtupbaq","sona":"7573"},{"rt":null,"stimulus":"<div style=\"font-size:60px;\">+</div>","key_press":null,"trial_type":"html-keyboard-response","trial_index":36,"time_elapsed":122840,"internal_node_id":"0.0-8.0-1.7","subject":"10615vm8rtupbaq","sona":"7573"},{"trial_type":"turing-test","trial_index":37,"time_elapsed":130023,"internal_node_id":"0.0-8.0-2.7","subject":"10615vm8rtupbaq","sona":"7573"},{"rt":295.47499981708825,"stimulus":"<p>Welche Sequenz haben Sie als natürlicher empfunden?</p>","key_press":70,"test_part":"response","test_stimulus":{"position":0,"left":"bvh/pass-bottle-training0-lines.txt","right":"bvh/vr_prediction_models/model(vcgpdm)-dataset(pass-bottle)-mode(ELBO)-parts(3)-dyn(25)-lvm(25)-hold(0)/final-lines.txt","att_check":false},"trial_type":"html-keyboard-response","trial_index":38,"time_elapsed":130342,"internal_node_id":"0.0-8.0-3.7","subject":"10615vm8rtupbaq","sona":"7573"},{"rt":871.0299998056144,"stimulus":"<p>Bereit?</p>","key_press":32,"trial_type":"html-keyboard-response","trial_index":39,"time_elapsed":131228,"internal_node_id":"0.0-8.0-0.8","subject":"10615vm8rtupbaq","sona":"7573"},{"rt":null,"stimulus":"<div style=\"font-size:60px;\">+</div>","key_press":null,"trial_type":"html-keyboard-response","trial_index":40,"time_elapsed":133247,"internal_node_id":"0.0-8.0-1.8","subject":"10615vm8rtupbaq","sona":"7573"},{"trial_type":"turing-test","trial_index":41,"time_elapsed":136923,"internal_node_id":"0.0-8.0-2.8","subject":"10615vm8rtupbaq","sona":"7573"},{"rt":511.5450001321733,"stimulus":"<p>Welche Sequenz haben Sie als natürlicher empfunden?</p>","key_press":70,"test_part":"response","test_stimulus":{"position":0,"left":"bvh/pass-bottle-hold-training0-lines.txt","right":"bvh/vr_prediction_models/model(vcgpdm)-dataset(pass-bottle-hold)-mode(ELBO)-parts(1)-dyn(10)-lvm(5)-hold(0)/final-lines.txt","att_check":false},"trial_type":"html-keyboard-response","trial_index":42,"time_elapsed":137455,"internal_node_id":"0.0-8.0-3.8","subject":"10615vm8rtupbaq","sona":"7573"},{"rt":633.0200000666082,"stimulus":"<p>Bereit?</p>","key_press":32,"trial_type":"html-keyboard-response","trial_index":43,"time_elapsed":138107,"internal_node_id":"0.0-8.0-0.9","subject":"10615vm8rtupbaq","sona":"7573"},{"rt":null,"stimulus":"<div style=\"font-size:60px;\">+</div>","key_press":null,"trial_type":"html-keyboard-response","trial_index":44,"time_elapsed":140127,"internal_node_id":"0.0-8.0-1.9","subject":"10615vm8rtupbaq","sona":"7573"},{"trial_type":"turing-test","trial_index":45,"time_elapsed":143846,"internal_node_id":"0.0-8.0-2.9","subject":"10615vm8rtupbaq","sona":"7573"},{"rt":1067.0249999966472,"stimulus":"<p>Welche Sequenz haben Sie als natürlicher empfunden?</p>","key_press":74,"test_part":"response","test_stimulus":{"position":1,"left":"bvh/vr_prediction_models/model(vcgpdm)-dataset(pass-bottle-hold)-mode(ELBO)-parts(1)-dyn(35)-lvm(10)-hold(0)/final-lines.txt","right":"bvh/pass-bottle-hold-training0-lines.txt","att_check":false},"trial_type":"html-keyboard-response","trial_index":46,"time_elapsed":144935,"internal_node_id":"0.0-8.0-3.9","subject":"10615vm8rtupbaq","sona":"7573"},{"rt":520.8050000946969,"stimulus":"<p>Bereit?</p>","key_press":32,"trial_type":"html-keyboard-response","trial_index":47,"time_elapsed":145474,"internal_node_id":"0.0-8.0-0.10","subject":"10615vm8rtupbaq","sona":"7573"},{"rt":null,"stimulus":"<div style=\"font-size:60px;\">+</div>","key_press":null,"trial_type":"html-keyboard-response","trial_index":48,"time_elapsed":147496,"internal_node_id":"0.0-8.0-1.10","subject":"10615vm8rtupbaq","sona":"7573"},{"trial_type":"turing-test","trial_index":49,"time_elapsed":153020,"internal_node_id":"0.0-8.0-2.10","subject":"10615vm8rtupbaq","sona":"7573"},{"rt":1068.6999999452382,"stimulus":"<p>Welche Sequenz haben Sie als natürlicher empfunden?</p>","key_press":74,"test_part":"response","test_stimulus":{"position":1,"left":"bvh/vr_prediction_models/model(vcgpdm)-dataset(return-bottle)-mode(ELBO)-parts(1)-dyn(20)-lvm(5)-hold(0)/final-lines.txt","right":"bvh/return-bottle-training0-lines.txt","att_check":false},"trial_type":"html-keyboard-response","trial_index":50,"time_elapsed":154111,"internal_node_id":"0.0-8.0-3.10","subject":"10615vm8rtupbaq","sona":"7573"},{"rt":722.6050000172108,"stimulus":"<p>Bereit?</p>","key_press":32,"trial_type":"html-keyboard-response","trial_index":51,"time_elapsed":154856,"internal_node_id":"0.0-8.0-0.11","subject":"10615vm8rtupbaq","sona":"7573"},{"rt":null,"stimulus":"<div style=\"font-size:60px;\">+</div>","key_press":null,"trial_type":"html-keyboard-response","trial_index":52,"time_elapsed":156874,"internal_node_id":"0.0-8.0-1.11","subject":"10615vm8rtupbaq","sona":"7573"},{"trial_type":"turing-test","trial_index":53,"time_elapsed":160365,"internal_node_id":"0.0-8.0-2.11","subject":"10615vm8rtupbaq","sona":"7573"},{"rt":878.349999897182,"stimulus":"<p>Welche Sequenz haben Sie als natürlicher empfunden?</p>","key_press":70,"test_part":"response","test_stimulus":{"position":1,"left":"bvh/vr_prediction_models/model(tmp)-dataset(pass-bottle-hold)-numprim(14)-hold(2)/final-lines.txt","right":"bvh/pass-bottle-hold-training2-lines.txt","att_check":false},"trial_type":"html-keyboard-response","trial_index":54,"time_elapsed":161263,"internal_node_id":"0.0-8.0-3.11","subject":"10615vm8rtupbaq","sona":"7573"},{"rt":921.1500000674278,"stimulus":"<p>Bereit?</p>","key_press":32,"trial_type":"html-keyboard-response","trial_index":55,"time_elapsed":162199,"internal_node_id":"0.0-8.0-0.12","subject":"10615vm8rtupbaq","sona":"7573"},{"rt":null,"stimulus":"<div style=\"font-size:60px;\">+</div>","key_press":null,"trial_type":"html-keyboard-response","trial_index":56,"time_elapsed":164233,"internal_node_id":"0.0-8.0-1.12","subject":"10615vm8rtupbaq","sona":"7573"},{"trial_type":"turing-test","trial_index":57,"time_elapsed":170230,"internal_node_id":"0.0-8.0-2.12","subject":"10615vm8rtupbaq","sona":"7573"},{"rt":1378.4649998415262,"stimulus":"<p>Welche Sequenz haben Sie als natürlicher empfunden?</p>","key_press":74,"test_part":"response","test_stimulus":{"position":1,"left":"bvh/vr_prediction_models/model(tmp)-dataset(return-bottle)-numprim(3)-hold(3)/final-lines.txt","right":"bvh/return-bottle-training3-lines.txt","att_check":false},"trial_type":"html-keyboard-response","trial_index":58,"time_elapsed":171627,"internal_node_id":"0.0-8.0-3.12","subject":"10615vm8rtupbaq","sona":"7573"},{"rt":434.099999954924,"stimulus":"<p>Bereit?</p>","key_press":32,"trial_type":"html-keyboard-response","trial_index":59,"time_elapsed":172080,"internal_node_id":"0.0-8.0-0.13","subject":"10615vm8rtupbaq","sona":"7573"},{"rt":null,"stimulus":"<div style=\"font-size:60px;\">+</div>","key_press":null,"trial_type":"html-keyboard-response","trial_index":60,"time_elapsed":174131,"internal_node_id":"0.0-8.0-1.13","subject":"10615vm8rtupbaq","sona":"7573"},{"trial_type":"turing-test","trial_index":61,"time_elapsed":177904,"internal_node_id":"0.0-8.0-2.13","subject":"10615vm8rtupbaq","sona":"7573"},{"rt":434.9299999885261,"stimulus":"<p>Welche Sequenz haben Sie als natürlicher empfunden?</p>","key_press":70,"test_part":"response","test_stimulus":{"position":1,"left":"bvh/vr_prediction_models/model(vcgpdm)-dataset(pass-bottle-hold)-mode(ELBO)-parts(1)-dyn(30)-lvm(20)-hold(2)/final-lines.txt","right":"bvh/pass-bottle-hold-training2-lines.txt","att_check":false},"trial_type":"html-keyboard-response","trial_index":62,"time_elapsed":178367,"internal_node_id":"0.0-8.0-3.13","subject":"10615vm8rtupbaq","sona":"7573"},{"rt":667.600000044331,"stimulus":"<p>Bereit?</p>","key_press":32,"trial_type":"html-keyboard-response","trial_index":63,"time_elapsed":179046,"internal_node_id":"0.0-8.0-0.14","subject":"10615vm8rtupbaq","sona":"7573"},{"rt":null,"stimulus":"<div style=\"font-size:60px;\">+</div>","key_press":null,"trial_type":"html-keyboard-response","trial_index":64,"time_elapsed":181065,"internal_node_id":"0.0-8.0-1.14","subject":"10615vm8rtupbaq","sona":"7573"},{"trial_type":"turing-test","trial_index":65,"time_elapsed":187283,"internal_node_id":"0.0-8.0-2.14","subject":"10615vm8rtupbaq","sona":"7573"},{"rt":1027.405000058934,"stimulus":"<p>Welche Sequenz haben Sie als natürlicher empfunden?</p>","key_press":70,"test_part":"response","test_stimulus":{"position":1,"left":"bvh/vr_prediction_models/model(vcgpdm)-dataset(pass-bottle)-mode(ELBO)-parts(1)-dyn(35)-lvm(10)-hold(4)/final-lines.txt","right":"bvh/pass-bottle-training4-lines.txt","att_check":false},"trial_type":"html-keyboard-response","trial_index":66,"time_elapsed":188338,"internal_node_id":"0.0-8.0-3.14","subject":"10615vm8rtupbaq","sona":"7573"},{"rt":490.99499988369644,"stimulus":"<p>Bereit?</p>","key_press":32,"trial_type":"html-keyboard-response","trial_index":67,"time_elapsed":188843,"internal_node_id":"0.0-8.0-0.15","subject":"10615vm8rtupbaq","sona":"7573"},{"rt":null,"stimulus":"<div style=\"font-size:60px;\">+</div>","key_press":null,"trial_type":"html-keyboard-response","trial_index":68,"time_elapsed":190868,"internal_node_id":"0.0-8.0-1.15","subject":"10615vm8rtupbaq","sona":"7573"},{"trial_type":"turing-test","trial_index":69,"time_elapsed":198013,"internal_node_id":"0.0-8.0-2.15","subject":"10615vm8rtupbaq","sona":"7573"},{"rt":760.5000000912696,"stimulus":"<p>Welche Sequenz haben Sie als natürlicher empfunden?</p>","key_press":74,"test_part":"response","test_stimulus":{"position":1,"left":"bvh/vr_prediction_models/model(vcgpdm)-dataset(return-bottle)-mode(ELBO)-parts(3)-dyn(20)-lvm(20)-hold(2)/final-lines.txt","right":"bvh/return-bottle-training2-lines.txt","att_check":false},"trial_type":"html-keyboard-response","trial_index":70,"time_elapsed":198801,"internal_node_id":"0.0-8.0-3.15","subject":"10615vm8rtupbaq","sona":"7573"},{"rt":361.8899998255074,"stimulus":"<p>Bereit?</p>","key_press":32,"trial_type":"html-keyboard-response","trial_index":71,"time_elapsed":199183,"internal_node_id":"0.0-8.0-0.16","subject":"10615vm8rtupbaq","sona":"7573"},{"rt":null,"stimulus":"<div style=\"font-size:60px;\">+</div>","key_press":null,"trial_type":"html-keyboard-response","trial_index":72,"time_elapsed":201208,"internal_node_id":"0.0-8.0-1.16","subject":"10615vm8rtupbaq","sona":"7573"},{"trial_type":"turing-test","trial_index":73,"time_elapsed":204643,"internal_node_id":"0.0-8.0-2.16","subject":"10615vm8rtupbaq","sona":"7573"},{"rt":2725.8249998558313,"stimulus":"<p>Welche Sequenz haben Sie als natürlicher empfunden?</p>","key_press":74,"test_part":"response","test_stimulus":{"position":1,"left":"bvh/vr_prediction_models/model(vcgpdm)-dataset(pass-bottle-hold)-mode(ELBO)-parts(1)-dyn(30)-lvm(20)-hold(2)/final-lines.txt","right":"bvh/pass-bottle-hold-training2-lines.txt","att_check":false},"trial_type":"html-keyboard-response","trial_index":74,"time_elapsed":207392,"internal_node_id":"0.0-8.0-3.16","subject":"10615vm8rtupbaq","sona":"7573"},{"rt":431.9450000766665,"stimulus":"<p>Bereit?</p>","key_press":32,"trial_type":"html-keyboard-response","trial_index":75,"time_elapsed":207842,"internal_node_id":"0.0-8.0-0.17","subject":"10615vm8rtupbaq","sona":"7573"},{"rt":null,"stimulus":"<div style=\"font-size:60px;\">+</div>","key_press":null,"trial_type":"html-keyboard-response","trial_index":76,"time_elapsed":209850,"internal_node_id":"0.0-8.0-1.17","subject":"10615vm8rtupbaq","sona":"7573"},{"trial_type":"turing-test","trial_index":77,"time_elapsed":216532,"internal_node_id":"0.0-8.0-2.17","subject":"10615vm8rtupbaq","sona":"7573"},{"rt":494.2300000693649,"stimulus":"<p>Welche Sequenz haben Sie als natürlicher empfunden?</p>","key_press":74,"test_part":"response","test_stimulus":{"position":1,"left":"bvh/vr_prediction_models/model(vcgpdm)-dataset(return-bottle)-mode(ELBO)-parts(3)-dyn(20)-lvm(20)-hold(2)/final-lines.txt","right":"bvh/return-bottle-training2-lines.txt","att_check":false},"trial_type":"html-keyboard-response","trial_index":78,"time_elapsed":217047,"internal_node_id":"0.0-8.0-3.17","subject":"10615vm8rtupbaq","sona":"7573"},{"rt":427.57000005804,"stimulus":"<p>Bereit?</p>","key_press":32,"trial_type":"html-keyboard-response","trial_index":79,"time_elapsed":217494,"internal_node_id":"0.0-8.0-0.18","subject":"10615vm8rtupbaq","sona":"7573"},{"rt":null,"stimulus":"<div style=\"font-size:60px;\">+</div>","key_press":null,"trial_type":"html-keyboard-response","trial_index":80,"time_elapsed":219511,"internal_node_id":"0.0-8.0-1.18","subject":"10615vm8rtupbaq","sona":"7573"},{"trial_type":"turing-test","trial_index":81,"time_elapsed":226450,"internal_node_id":"0.0-8.0-2.18","subject":"10615vm8rtupbaq","sona":"7573"},{"rt":356.00499995052814,"stimulus":"<p>Welche Sequenz haben Sie als natürlicher empfunden?</p>","key_press":70,"test_part":"response","test_stimulus":{"position":0,"left":"bvh/pass-bottle-training0-lines.txt","right":"bvh/vr_prediction_models/model(dmp)-dataset(pass-bottle)-npsi(60)-hold(0)/final-lines.txt","att_check":false},"trial_type":"html-keyboard-response","trial_index":82,"time_elapsed":226821,"internal_node_id":"0.0-8.0-3.18","subject":"10615vm8rtupbaq","sona":"7573"},{"rt":433.20000008679926,"stimulus":"<p>Bereit?</p>","key_press":32,"trial_type":"html-keyboard-response","trial_index":83,"time_elapsed":227261,"internal_node_id":"0.0-8.0-0.19","subject":"10615vm8rtupbaq","sona":"7573"},{"rt":null,"stimulus":"<div style=\"font-size:60px;\">+</div>","key_press":null,"trial_type":"html-keyboard-response","trial_index":84,"time_elapsed":229278,"internal_node_id":"0.0-8.0-1.19","subject":"10615vm8rtupbaq","sona":"7573"},{"trial_type":"turing-test","trial_index":85,"time_elapsed":232996,"internal_node_id":"0.0-8.0-2.19","subject":"10615vm8rtupbaq","sona":"7573"},{"rt":1114.3900000024587,"stimulus":"<p>Welche Sequenz haben Sie als natürlicher empfunden?</p>","key_press":70,"test_part":"response","test_stimulus":{"position":0,"left":"bvh/return-bottle-hold-training2-lines.txt","right":"bvh/vr_prediction_models/model(tmp)-dataset(return-bottle-hold)-numprim(11)-hold(2)/final-lines.txt","att_check":false},"trial_type":"html-keyboard-response","trial_index":86,"time_elapsed":234134,"internal_node_id":"0.0-8.0-3.19","subject":"10615vm8rtupbaq","sona":"7573"},{"rt":264.7649999707937,"stimulus":"<p>Bereit?</p>","key_press":32,"trial_type":"html-keyboard-response","trial_index":87,"time_elapsed":234409,"internal_node_id":"0.0-8.0-0.20","subject":"10615vm8rtupbaq","sona":"7573"},{"rt":null,"stimulus":"<div style=\"font-size:60px;\">+</div>","key_press":null,"trial_type":"html-keyboard-response","trial_index":88,"time_elapsed":236437,"internal_node_id":"0.0-8.0-1.20","subject":"10615vm8rtupbaq","sona":"7573"},{"trial_type":"turing-test","trial_index":89,"time_elapsed":242594,"internal_node_id":"0.0-8.0-2.20","subject":"10615vm8rtupbaq","sona":"7573"},{"rt":490.5199999921024,"stimulus":"<p>Welche Sequenz haben Sie als natürlicher empfunden?</p>","key_press":74,"test_part":"response","test_stimulus":{"position":1,"left":"bvh/vr_prediction_models/model(vcgpdm)-dataset(pass-bottle)-mode(ELBO)-parts(3)-dyn(20)-lvm(15)-hold(3)/final-lines.txt","right":"bvh/pass-bottle-training3-lines.txt","att_check":false},"trial_type":"html-keyboard-response","trial_index":90,"time_elapsed":243093,"internal_node_id":"0.0-8.0-3.20","subject":"10615vm8rtupbaq","sona":"7573"},{"rt":423.05000009946525,"stimulus":"<p>Bereit?</p>","key_press":32,"trial_type":"html-keyboard-response","trial_index":91,"time_elapsed":243538,"internal_node_id":"0.0-8.0-0.21","subject":"10615vm8rtupbaq","sona":"7573"},{"rt":null,"stimulus":"<div style=\"font-size:60px;\">+</div>","key_press":null,"trial_type":"html-keyboard-response","trial_index":92,"time_elapsed":245560,"internal_node_id":"0.0-8.0-1.21","subject":"10615vm8rtupbaq","sona":"7573"},{"trial_type":"turing-test","trial_index":93,"time_elapsed":251643,"internal_node_id":"0.0-8.0-2.21","subject":"10615vm8rtupbaq","sona":"7573"},{"rt":2786.659999983385,"stimulus":"<p>Welche Sequenz haben Sie als natürlicher empfunden?</p>","key_press":74,"test_part":"response","test_stimulus":{"position":1,"left":"bvh/vr_prediction_models/model(vcgpdm)-dataset(pass-bottle)-mode(ELBO)-parts(3)-dyn(20)-lvm(20)-hold(1)/final-lines.txt","right":"bvh/pass-bottle-training1-lines.txt","att_check":false},"trial_type":"html-keyboard-response","trial_index":94,"time_elapsed":254461,"internal_node_id":"0.0-8.0-3.21","subject":"10615vm8rtupbaq","sona":"7573"},{"rt":552.1849999204278,"stimulus":"<p>Bereit?</p>","key_press":32,"trial_type":"html-keyboard-response","trial_index":95,"time_elapsed":255032,"internal_node_id":"0.0-8.0-0.22","subject":"10615vm8rtupbaq","sona":"7573"},{"rt":null,"stimulus":"<div style=\"font-size:60px;\">+</div>","key_press":null,"trial_type":"html-keyboard-response","trial_index":96,"time_elapsed":257062,"internal_node_id":"0.0-8.0-1.22","subject":"10615vm8rtupbaq","sona":"7573"},{"trial_type":"turing-test","trial_index":97,"time_elapsed":263718,"internal_node_id":"0.0-8.0-2.22","subject":"10615vm8rtupbaq","sona":"7573"},{"rt":1057.204999960959,"stimulus":"<p>Welche Sequenz haben Sie als natürlicher empfunden?</p>","key_press":70,"test_part":"response","test_stimulus":{"position":0,"left":"bvh/return-bottle-training1-lines.txt","right":"bvh/vr_prediction_models/model(vcgpdm)-dataset(return-bottle)-mode(MAP)-parts(3)-hold(1)/final-lines.txt","att_check":false},"trial_type":"html-keyboard-response","trial_index":98,"time_elapsed":264802,"internal_node_id":"0.0-8.0-3.22","subject":"10615vm8rtupbaq","sona":"7573"},{"rt":364.58000005222857,"stimulus":"<p>Bereit?</p>","key_press":32,"trial_type":"html-keyboard-response","trial_index":99,"time_elapsed":265181,"internal_node_id":"0.0-8.0-0.23","subject":"10615vm8rtupbaq","sona":"7573"},{"rt":null,"stimulus":"<div style=\"font-size:60px;\">+</div>","key_press":null,"trial_type":"html-keyboard-response","trial_index":100,"time_elapsed":267205,"internal_node_id":"0.0-8.0-1.23","subject":"10615vm8rtupbaq","sona":"7573"},{"trial_type":"turing-test","trial_index":101,"time_elapsed":270715,"internal_node_id":"0.0-8.0-2.23","subject":"10615vm8rtupbaq","sona":"7573"},{"rt":1883.9650000445545,"stimulus":"<p>Welche Sequenz haben Sie als natürlicher empfunden?</p>","key_press":74,"test_part":"response","test_stimulus":{"position":1,"left":"bvh/vr_prediction_models/model(tmp)-dataset(pass-bottle-hold)-numprim(11)-hold(0)/final-lines.txt","right":"bvh/pass-bottle-hold-training0-lines.txt","att_check":false},"trial_type":"html-keyboard-response","trial_index":102,"time_elapsed":272619,"internal_node_id":"0.0-8.0-3.23","subject":"10615vm8rtupbaq","sona":"7573"},{"rt":329.9849999602884,"stimulus":"<p>Bereit?</p>","key_press":32,"trial_type":"html-keyboard-response","trial_index":103,"time_elapsed":272970,"internal_node_id":"0.0-8.0-0.24","subject":"10615vm8rtupbaq","sona":"7573"},{"rt":null,"stimulus":"<div style=\"font-size:60px;\">+</div>","key_press":null,"trial_type":"html-keyboard-response","trial_index":104,"time_elapsed":274990,"internal_node_id":"0.0-8.0-1.24","subject":"10615vm8rtupbaq","sona":"7573"},{"trial_type":"turing-test","trial_index":105,"time_elapsed":280506,"internal_node_id":"0.0-8.0-2.24","subject":"10615vm8rtupbaq","sona":"7573"},{"rt":131.37999991886318,"stimulus":"<p>Welche Sequenz haben Sie als natürlicher empfunden?</p>","key_press":74,"test_part":"response","test_stimulus":{"position":1,"left":"bvh/vr_prediction_models/model(vcgpdm)-dataset(return-bottle-hold)-mode(ELBO)-parts(3)-dyn(25)-lvm(15)-hold(0)/final-lines.txt","right":"bvh/return-bottle-hold-training0-lines.txt","att_check":false},"trial_type":"html-keyboard-response","trial_index":106,"time_elapsed":280667,"internal_node_id":"0.0-8.0-3.24","subject":"10615vm8rtupbaq","sona":"7573"},{"rt":403.3400001935661,"stimulus":"<p>Bereit?</p>","key_press":32,"trial_type":"html-keyboard-response","trial_index":107,"time_elapsed":281094,"internal_node_id":"0.0-8.0-0.25","subject":"10615vm8rtupbaq","sona":"7573"},{"rt":null,"stimulus":"<div style=\"font-size:60px;\">+</div>","key_press":null,"trial_type":"html-keyboard-response","trial_index":108,"time_elapsed":283112,"internal_node_id":"0.0-8.0-1.25","subject":"10615vm8rtupbaq","sona":"7573"},{"trial_type":"turing-test","trial_index":109,"time_elapsed":286972,"internal_node_id":"0.0-8.0-2.25","subject":"10615vm8rtupbaq","sona":"7573"},{"rt":452.67000002786517,"stimulus":"<p>Welche Sequenz haben Sie als natürlicher empfunden?</p>","key_press":74,"test_part":"response","test_stimulus":{"position":1,"left":"bvh/vr_prediction_models/model(vcgpdm)-dataset(pass-bottle-hold)-mode(ELBO)-parts(3)-dyn(25)-lvm(15)-hold(2)/final-lines.txt","right":"bvh/pass-bottle-hold-training2-lines.txt","att_check":false},"trial_type":"html-keyboard-response","trial_index":110,"time_elapsed":287453,"internal_node_id":"0.0-8.0-3.25","subject":"10615vm8rtupbaq","sona":"7573"},{"rt":318.8799999188632,"stimulus":"<p>Bereit?</p>","key_press":32,"trial_type":"html-keyboard-response","trial_index":111,"time_elapsed":287793,"internal_node_id":"0.0-8.0-0.26","subject":"10615vm8rtupbaq","sona":"7573"},{"rt":null,"stimulus":"<div style=\"font-size:60px;\">+</div>","key_press":null,"trial_type":"html-keyboard-response","trial_index":112,"time_elapsed":289815,"internal_node_id":"0.0-8.0-1.26","subject":"10615vm8rtupbaq","sona":"7573"},{"trial_type":"turing-test","trial_index":113,"time_elapsed":295674,"internal_node_id":"0.0-8.0-2.26","subject":"10615vm8rtupbaq","sona":"7573"},{"rt":2317.860000068322,"stimulus":"<p>Welche Sequenz haben Sie als natürlicher empfunden?</p>","key_press":74,"test_part":"response","test_stimulus":{"position":1,"left":"bvh/vr_prediction_models/model(vcgpdm)-dataset(pass-bottle)-mode(ELBO)-parts(3)-dyn(25)-lvm(25)-hold(1)/final-lines.txt","right":"bvh/pass-bottle-training1-lines.txt","att_check":false},"trial_type":"html-keyboard-response","trial_index":114,"time_elapsed":298017,"internal_node_id":"0.0-8.0-3.26","subject":"10615vm8rtupbaq","sona":"7573"},{"rt":486.4850000012666,"stimulus":"<p>Bereit?</p>","key_press":32,"trial_type":"html-keyboard-response","trial_index":115,"time_elapsed":298526,"internal_node_id":"0.0-8.0-0.27","subject":"10615vm8rtupbaq","sona":"7573"},{"rt":null,"stimulus":"<div style=\"font-size:60px;\">+</div>","key_press":null,"trial_type":"html-keyboard-response","trial_index":116,"time_elapsed":300539,"internal_node_id":"0.0-8.0-1.27","subject":"10615vm8rtupbaq","sona":"7573"},{"trial_type":"turing-test","trial_index":117,"time_elapsed":306676,"internal_node_id":"0.0-8.0-2.27","subject":"10615vm8rtupbaq","sona":"7573"},{"rt":702.6750000659376,"stimulus":"<p>Welche Sequenz haben Sie als natürlicher empfunden?</p>","key_press":74,"test_part":"response","test_stimulus":{"position":1,"left":"bvh/vr_prediction_models/model(vcgpdm)-dataset(return-bottle)-mode(ELBO)-parts(3)-dyn(20)-lvm(15)-hold(3)/final-lines.txt","right":"bvh/return-bottle-training3-lines.txt","att_check":false},"trial_type":"html-keyboard-response","trial_index":118,"time_elapsed":307408,"internal_node_id":"0.0-8.0-3.27","subject":"10615vm8rtupbaq","sona":"7573"},{"rt":321.8700001016259,"stimulus":"<p>Bereit?</p>","key_press":32,"trial_type":"html-keyboard-response","trial_index":119,"time_elapsed":307741,"internal_node_id":"0.0-8.0-0.28","subject":"10615vm8rtupbaq","sona":"7573"},{"rt":null,"stimulus":"<div style=\"font-size:60px;\">+</div>","key_press":null,"trial_type":"html-keyboard-response","trial_index":120,"time_elapsed":309759,"internal_node_id":"0.0-8.0-1.28","subject":"10615vm8rtupbaq","sona":"7573"},{"trial_type":"turing-test","trial_index":121,"time_elapsed":315239,"internal_node_id":"0.0-8.0-2.28","subject":"10615vm8rtupbaq","sona":"7573"},{"rt":392.0499999076128,"stimulus":"<p>Welche Sequenz haben Sie als natürlicher empfunden?</p>","key_press":74,"test_part":"response","test_stimulus":{"position":1,"left":"bvh/vr_prediction_models/model(vcgpdm)-dataset(return-bottle-hold)-mode(ELBO)-parts(1)-dyn(20)-lvm(5)-hold(0)/final-lines.txt","right":"bvh/return-bottle-hold-training0-lines.txt","att_check":false},"trial_type":"html-keyboard-response","trial_index":122,"time_elapsed":315665,"internal_node_id":"0.0-8.0-3.28","subject":"10615vm8rtupbaq","sona":"7573"},{"rt":292.60999988764524,"stimulus":"<p>Bereit?</p>","key_press":32,"trial_type":"html-keyboard-response","trial_index":123,"time_elapsed":315979,"internal_node_id":"0.0-8.0-0.29","subject":"10615vm8rtupbaq","sona":"7573"},{"rt":null,"stimulus":"<div style=\"font-size:60px;\">+</div>","key_press":null,"trial_type":"html-keyboard-response","trial_index":124,"time_elapsed":318002,"internal_node_id":"0.0-8.0-1.29","subject":"10615vm8rtupbaq","sona":"7573"},{"trial_type":"turing-test","trial_index":125,"time_elapsed":322173,"internal_node_id":"0.0-8.0-2.29","subject":"10615vm8rtupbaq","sona":"7573"},{"rt":547.3850001581013,"stimulus":"<p>Welche Sequenz haben Sie als natürlicher empfunden?</p>","key_press":70,"test_part":"response","test_stimulus":{"position":1,"left":"bvh/vr_prediction_models/model(vcgpdm)-dataset(return-bottle-hold)-mode(ELBO)-parts(1)-dyn(30)-lvm(30)-hold(4)/final-lines.txt","right":"bvh/return-bottle-hold-training4-lines.txt","att_check":false},"trial_type":"html-keyboard-response","trial_index":126,"time_elapsed":322750,"internal_node_id":"0.0-8.0-3.29","subject":"10615vm8rtupbaq","sona":"7573"},{"rt":473.4499999321997,"stimulus":"<p>Bereit?</p>","key_press":32,"trial_type":"html-keyboard-response","trial_index":127,"time_elapsed":323246,"internal_node_id":"0.0-8.0-0.30","subject":"10615vm8rtupbaq","sona":"7573"},{"rt":null,"stimulus":"<div style=\"font-size:60px;\">+</div>","key_press":null,"trial_type":"html-keyboard-response","trial_index":128,"time_elapsed":325270,"internal_node_id":"0.0-8.0-1.30","subject":"10615vm8rtupbaq","sona":"7573"},{"trial_type":"turing-test","trial_index":129,"time_elapsed":329330,"internal_node_id":"0.0-8.0-2.30","subject":"10615vm8rtupbaq","sona":"7573"},{"rt":2493.60500019975,"stimulus":"<p>Welche Sequenz haben Sie als natürlicher empfunden?</p>","key_press":74,"test_part":"response","test_stimulus":{"position":1,"left":"bvh/vr_prediction_models/model(vcgpdm)-dataset(return-bottle-hold)-mode(ELBO)-parts(1)-dyn(10)-lvm(5)-hold(3)/final-lines.txt","right":"bvh/return-bottle-hold-training3-lines.txt","att_check":false},"trial_type":"html-keyboard-response","trial_index":130,"time_elapsed":331845,"internal_node_id":"0.0-8.0-3.30","subject":"10615vm8rtupbaq","sona":"7573"},{"rt":259.614999871701,"stimulus":"<p>Bereit?</p>","key_press":32,"trial_type":"html-keyboard-response","trial_index":131,"time_elapsed":332122,"internal_node_id":"0.0-8.0-0.31","subject":"10615vm8rtupbaq","sona":"7573"},{"rt":null,"stimulus":"<div style=\"font-size:60px;\">+</div>","key_press":null,"trial_type":"html-keyboard-response","trial_index":132,"time_elapsed":334132,"internal_node_id":"0.0-8.0-1.31","subject":"10615vm8rtupbaq","sona":"7573"},{"trial_type":"turing-test","trial_index":133,"time_elapsed":340935,"internal_node_id":"0.0-8.0-2.31","subject":"10615vm8rtupbaq","sona":"7573"},{"rt":517.5799999851733,"stimulus":"<p>Welche Sequenz haben Sie als natürlicher empfunden?</p>","key_press":74,"test_part":"response","test_stimulus":{"position":1,"left":"bvh/vr_prediction_models/model(dmp)-dataset(return-bottle)-npsi(100)-hold(2)/final-lines.txt","right":"bvh/return-bottle-training2-lines.txt","att_check":false},"trial_type":"html-keyboard-response","trial_index":134,"time_elapsed":341483,"internal_node_id":"0.0-8.0-3.31","subject":"10615vm8rtupbaq","sona":"7573"},{"rt":523.0999998748302,"stimulus":"<p>Bereit?</p>","key_press":32,"trial_type":"html-keyboard-response","trial_index":135,"time_elapsed":342025,"internal_node_id":"0.0-8.0-0.32","subject":"10615vm8rtupbaq","sona":"7573"},{"rt":null,"stimulus":"<div style=\"font-size:60px;\">+</div>","key_press":null,"trial_type":"html-keyboard-response","trial_index":136,"time_elapsed":344056,"internal_node_id":"0.0-8.0-1.32","subject":"10615vm8rtupbaq","sona":"7573"},{"trial_type":"turing-test","trial_index":137,"time_elapsed":347867,"internal_node_id":"0.0-8.0-2.32","subject":"10615vm8rtupbaq","sona":"7573"},{"rt":982.2099998127669,"stimulus":"<p>Welche Sequenz haben Sie als natürlicher empfunden?</p>","key_press":74,"test_part":"response","test_stimulus":{"position":1,"left":"bvh/vr_prediction_models/model(vcgpdm)-dataset(return-bottle-hold)-mode(ELBO)-parts(3)-dyn(25)-lvm(25)-hold(1)/final-lines.txt","right":"bvh/return-bottle-hold-training1-lines.txt","att_check":false},"trial_type":"html-keyboard-response","trial_index":138,"time_elapsed":348879,"internal_node_id":"0.0-8.0-3.32","subject":"10615vm8rtupbaq","sona":"7573"},{"rt":350.7850000169128,"stimulus":"<p>Bereit?</p>","key_press":32,"trial_type":"html-keyboard-response","trial_index":139,"time_elapsed":349252,"internal_node_id":"0.0-8.0-0.33","subject":"10615vm8rtupbaq","sona":"7573"},{"rt":null,"stimulus":"<div style=\"font-size:60px;\">+</div>","key_press":null,"trial_type":"html-keyboard-response","trial_index":140,"time_elapsed":351286,"internal_node_id":"0.0-8.0-1.33","subject":"10615vm8rtupbaq","sona":"7573"},{"trial_type":"turing-test","trial_index":141,"time_elapsed":354742,"internal_node_id":"0.0-8.0-2.33","subject":"10615vm8rtupbaq","sona":"7573"},{"rt":782.3000000789762,"stimulus":"<p>Welche Sequenz haben Sie als natürlicher empfunden?</p>","key_press":70,"test_part":"response","test_stimulus":{"position":0,"left":"bvh/pass-bottle-hold-training1-lines.txt","right":"bvh/vr_prediction_models/model(dmp)-dataset(pass-bottle-hold)-npsi(20)-hold(1)/final-lines.txt","att_check":false},"trial_type":"html-keyboard-response","trial_index":142,"time_elapsed":355569,"internal_node_id":"0.0-8.0-3.33","subject":"10615vm8rtupbaq","sona":"7573"},{"rt":294.5649998728186,"stimulus":"<p>Bereit?</p>","key_press":32,"trial_type":"html-keyboard-response","trial_index":143,"time_elapsed":355887,"internal_node_id":"0.0-8.0-0.34","subject":"10615vm8rtupbaq","sona":"7573"},{"rt":null,"stimulus":"<div style=\"font-size:60px;\">+</div>","key_press":null,"trial_type":"html-keyboard-response","trial_index":144,"time_elapsed":357902,"internal_node_id":"0.0-8.0-1.34","subject":"10615vm8rtupbaq","sona":"7573"},{"trial_type":"turing-test","trial_index":145,"time_elapsed":363516,"internal_node_id":"0.0-8.0-2.34","subject":"10615vm8rtupbaq","sona":"7573"},{"rt":381.84499996714294,"stimulus":"<p>Welche Sequenz haben Sie als natürlicher empfunden?</p>","key_press":74,"test_part":"response","test_stimulus":{"position":1,"left":"bvh/vr_prediction_models/model(dmp)-dataset(return-bottle)-npsi(60)-hold(0)/final-lines.txt","right":"bvh/return-bottle-training0-lines.txt","att_check":true},"trial_type":"html-keyboard-response","trial_index":146,"time_elapsed":363926,"internal_node_id":"0.0-8.0-3.34","subject":"10615vm8rtupbaq","sona":"7573"},{"rt":258.78000003285706,"stimulus":"<p>Bereit?</p>","key_press":32,"trial_type":"html-keyboard-response","trial_index":147,"time_elapsed":364215,"internal_node_id":"0.0-8.0-0.35","subject":"10615vm8rtupbaq","sona":"7573"},{"rt":null,"stimulus":"<div style=\"font-size:60px;\">+</div>","key_press":null,"trial_type":"html-keyboard-response","trial_index":148,"time_elapsed":366243,"internal_node_id":"0.0-8.0-1.35","subject":"10615vm8rtupbaq","sona":"7573"},{"trial_type":"turing-test","trial_index":149,"time_elapsed":369716,"internal_node_id":"0.0-8.0-2.35","subject":"10615vm8rtupbaq","sona":"7573"},{"rt":1467.2099999152124,"stimulus":"<p>Welche Sequenz haben Sie als natürlicher empfunden?</p>","key_press":70,"test_part":"response","test_stimulus":{"position":1,"left":"bvh/vr_prediction_models/model(dmp)-dataset(pass-bottle-hold)-npsi(90)-hold(2)/final-lines.txt","right":"bvh/pass-bottle-hold-training2-lines.txt","att_check":false},"trial_type":"html-keyboard-response","trial_index":150,"time_elapsed":371215,"internal_node_id":"0.0-8.0-3.35","subject":"10615vm8rtupbaq","sona":"7573"},{"rt":277.0450001116842,"stimulus":"<p>Bereit?</p>","key_press":32,"trial_type":"html-keyboard-response","trial_index":151,"time_elapsed":371517,"internal_node_id":"0.0-8.0-0.36","subject":"10615vm8rtupbaq","sona":"7573"},{"rt":null,"stimulus":"<div style=\"font-size:60px;\">+</div>","key_press":null,"trial_type":"html-keyboard-response","trial_index":152,"time_elapsed":373549,"internal_node_id":"0.0-8.0-1.36","subject":"10615vm8rtupbaq","sona":"7573"},{"trial_type":"turing-test","trial_index":153,"time_elapsed":377219,"internal_node_id":"0.0-8.0-2.36","subject":"10615vm8rtupbaq","sona":"7573"},{"rt":753.5600000992417,"stimulus":"<p>Welche Sequenz haben Sie als natürlicher empfunden?</p>","key_press":70,"test_part":"response","test_stimulus":{"position":1,"left":"bvh/vr_prediction_models/model(vcgpdm)-dataset(pass-bottle-hold)-mode(ELBO)-parts(3)-dyn(35)-lvm(20)-hold(1)/final-lines.txt","right":"bvh/pass-bottle-hold-training1-lines.txt","att_check":false},"trial_type":"html-keyboard-response","trial_index":154,"time_elapsed":377991,"internal_node_id":"0.0-8.0-3.36","subject":"10615vm8rtupbaq","sona":"7573"},{"rt":258.84500006213784,"stimulus":"<p>Bereit?</p>","key_press":32,"trial_type":"html-keyboard-response","trial_index":155,"time_elapsed":378269,"internal_node_id":"0.0-8.0-0.37","subject":"10615vm8rtupbaq","sona":"7573"},{"rt":null,"stimulus":"<div style=\"font-size:60px;\">+</div>","key_press":null,"trial_type":"html-keyboard-response","trial_index":156,"time_elapsed":380303,"internal_node_id":"0.0-8.0-1.37","subject":"10615vm8rtupbaq","sona":"7573"},{"trial_type":"turing-test","trial_index":157,"time_elapsed":387023,"internal_node_id":"0.0-8.0-2.37","subject":"10615vm8rtupbaq","sona":"7573"},{"rt":469.95000005699694,"stimulus":"<p>Welche Sequenz haben Sie als natürlicher empfunden?</p>","key_press":70,"test_part":"response","test_stimulus":{"position":0,"left":"bvh/pass-bottle-training2-lines.txt","right":"bvh/vr_prediction_models/model(vcgpdm)-dataset(pass-bottle)-mode(ELBO)-parts(3)-dyn(25)-lvm(25)-hold(2)/final-lines.txt","att_check":false},"trial_type":"html-keyboard-response","trial_index":158,"time_elapsed":387527,"internal_node_id":"0.0-8.0-3.37","subject":"10615vm8rtupbaq","sona":"7573"},{"rt":436.17499992251396,"stimulus":"<p>Bereit?</p>","key_press":32,"trial_type":"html-keyboard-response","trial_index":159,"time_elapsed":387990,"internal_node_id":"0.0-8.0-0.38","subject":"10615vm8rtupbaq","sona":"7573"},{"rt":null,"stimulus":"<div style=\"font-size:60px;\">+</div>","key_press":null,"trial_type":"html-keyboard-response","trial_index":160,"time_elapsed":390020,"internal_node_id":"0.0-8.0-1.38","subject":"10615vm8rtupbaq","sona":"7573"},{"trial_type":"turing-test","trial_index":161,"time_elapsed":393374,"internal_node_id":"0.0-8.0-2.38","subject":"10615vm8rtupbaq","sona":"7573"},{"rt":3044.430000009015,"stimulus":"<p>Welche Sequenz haben Sie als natürlicher empfunden?</p>","key_press":74,"test_part":"response","test_stimulus":{"position":0,"left":"bvh/pass-bottle-hold-training1-lines.txt","right":"bvh/vr_prediction_models/model(dmp)-dataset(pass-bottle-hold)-npsi(50)-hold(1)/final-lines.txt","att_check":false},"trial_type":"html-keyboard-response","trial_index":162,"time_elapsed":396446,"internal_node_id":"0.0-8.0-3.38","subject":"10615vm8rtupbaq","sona":"7573"},{"rt":475.5050002131611,"stimulus":"<p>Bereit?</p>","key_press":32,"trial_type":"html-keyboard-response","trial_index":163,"time_elapsed":396949,"internal_node_id":"0.0-8.0-0.39","subject":"10615vm8rtupbaq","sona":"7573"},{"rt":null,"stimulus":"<div style=\"font-size:60px;\">+</div>","key_press":null,"trial_type":"html-keyboard-response","trial_index":164,"time_elapsed":398975,"internal_node_id":"0.0-8.0-1.39","subject":"10615vm8rtupbaq","sona":"7573"},{"trial_type":"turing-test","trial_index":165,"time_elapsed":405223,"internal_node_id":"0.0-8.0-2.39","subject":"10615vm8rtupbaq","sona":"7573"},{"rt":460.0150000769645,"stimulus":"<p>Welche Sequenz haben Sie als natürlicher empfunden?</p>","key_press":70,"test_part":"response","test_stimulus":{"position":0,"left":"bvh/return-bottle-training1-lines.txt","right":"bvh/vr_prediction_models/model(dmp)-dataset(return-bottle)-npsi(70)-hold(1)/final-lines.txt","att_check":false},"trial_type":"html-keyboard-response","trial_index":166,"time_elapsed":405725,"internal_node_id":"0.0-8.0-3.39","subject":"10615vm8rtupbaq","sona":"7573"},{"rt":369.78500010445714,"stimulus":"<p>Bereit?</p>","key_press":32,"trial_type":"html-keyboard-response","trial_index":167,"time_elapsed":406118,"internal_node_id":"0.0-8.0-0.40","subject":"10615vm8rtupbaq","sona":"7573"},{"rt":null,"stimulus":"<div style=\"font-size:60px;\">+</div>","key_press":null,"trial_type":"html-keyboard-response","trial_index":168,"time_elapsed":408146,"internal_node_id":"0.0-8.0-1.40","subject":"10615vm8rtupbaq","sona":"7573"},{"trial_type":"turing-test","trial_index":169,"time_elapsed":411862,"internal_node_id":"0.0-8.0-2.40","subject":"10615vm8rtupbaq","sona":"7573"},{"rt":1463.895000051707,"stimulus":"<p>Welche Sequenz haben Sie als natürlicher empfunden?</p>","key_press":70,"test_part":"response","test_stimulus":{"position":0,"left":"bvh/pass-bottle-hold-training2-lines.txt","right":"bvh/vr_prediction_models/model(vcgpdm)-dataset(pass-bottle-hold)-mode(ELBO)-parts(3)-dyn(35)-lvm(20)-hold(2)/final-lines.txt","att_check":false},"trial_type":"html-keyboard-response","trial_index":170,"time_elapsed":413354,"internal_node_id":"0.0-8.0-3.40","subject":"10615vm8rtupbaq","sona":"7573"},{"rt":338.78500014543533,"stimulus":"<p>Bereit?</p>","key_press":32,"trial_type":"html-keyboard-response","trial_index":171,"time_elapsed":413719,"internal_node_id":"0.0-8.0-0.41","subject":"10615vm8rtupbaq","sona":"7573"},{"rt":null,"stimulus":"<div style=\"font-size:60px;\">+</div>","key_press":null,"trial_type":"html-keyboard-response","trial_index":172,"time_elapsed":415739,"internal_node_id":"0.0-8.0-1.41","subject":"10615vm8rtupbaq","sona":"7573"},{"trial_type":"turing-test","trial_index":173,"time_elapsed":422664,"internal_node_id":"0.0-8.0-2.41","subject":"10615vm8rtupbaq","sona":"7573"},{"rt":459.4550000037998,"stimulus":"<p>Welche Sequenz haben Sie als natürlicher empfunden?</p>","key_press":74,"test_part":"response","test_stimulus":{"position":0,"left":"bvh/return-bottle-training2-lines.txt","right":"bvh/vr_prediction_models/model(vcgpdm)-dataset(return-bottle)-mode(ELBO)-parts(3)-dyn(10)-lvm(25)-hold(2)/final-lines.txt","att_check":false},"trial_type":"html-keyboard-response","trial_index":174,"time_elapsed":423154,"internal_node_id":"0.0-8.0-3.41","subject":"10615vm8rtupbaq","sona":"7573"},{"rt":550.6349999923259,"stimulus":"<p>Bereit?</p>","key_press":32,"trial_type":"html-keyboard-response","trial_index":175,"time_elapsed":423727,"internal_node_id":"0.0-8.0-0.42","subject":"10615vm8rtupbaq","sona":"7573"},{"rt":null,"stimulus":"<div style=\"font-size:60px;\">+</div>","key_press":null,"trial_type":"html-keyboard-response","trial_index":176,"time_elapsed":425754,"internal_node_id":"0.0-8.0-1.42","subject":"10615vm8rtupbaq","sona":"7573"},{"trial_type":"turing-test","trial_index":177,"time_elapsed":429618,"internal_node_id":"0.0-8.0-2.42","subject":"10615vm8rtupbaq","sona":"7573"},{"rt":20.14999999664724,"stimulus":"<p>Welche Sequenz haben Sie als natürlicher empfunden?</p>","key_press":70,"test_part":"response","test_stimulus":{"position":0,"left":"bvh/return-bottle-hold-training2-lines.txt","right":"bvh/vr_prediction_models/model(vcgpdm)-dataset(return-bottle-hold)-mode(ELBO)-parts(3)-dyn(25)-lvm(15)-hold(2)/final-lines.txt","att_check":false},"trial_type":"html-keyboard-response","trial_index":178,"time_elapsed":429666,"internal_node_id":"0.0-8.0-3.42","subject":"10615vm8rtupbaq","sona":"7573"},{"rt":447.82999996095896,"stimulus":"<p>Bereit?</p>","key_press":32,"trial_type":"html-keyboard-response","trial_index":179,"time_elapsed":430121,"internal_node_id":"0.0-8.0-0.43","subject":"10615vm8rtupbaq","sona":"7573"},{"rt":null,"stimulus":"<div style=\"font-size:60px;\">+</div>","key_press":null,"trial_type":"html-keyboard-response","trial_index":180,"time_elapsed":432150,"internal_node_id":"0.0-8.0-1.43","subject":"10615vm8rtupbaq","sona":"7573"},{"trial_type":"turing-test","trial_index":181,"time_elapsed":436098,"internal_node_id":"0.0-8.0-2.43","subject":"10615vm8rtupbaq","sona":"7573"},{"rt":825.829999987036,"stimulus":"<p>Welche Sequenz haben Sie als natürlicher empfunden?</p>","key_press":70,"test_part":"response","test_stimulus":{"position":0,"left":"bvh/pass-bottle-hold-training3-lines.txt","right":"bvh/vr_prediction_models/model(vcgpdm)-dataset(pass-bottle-hold)-mode(ELBO)-parts(3)-dyn(20)-lvm(15)-hold(3)/final-lines.txt","att_check":false},"trial_type":"html-keyboard-response","trial_index":182,"time_elapsed":436952,"internal_node_id":"0.0-8.0-3.43","subject":"10615vm8rtupbaq","sona":"7573"},{"rt":617.5149998161942,"stimulus":"<p>Bereit?</p>","key_press":32,"trial_type":"html-keyboard-response","trial_index":183,"time_elapsed":437600,"internal_node_id":"0.0-8.0-0.44","subject":"10615vm8rtupbaq","sona":"7573"},{"rt":null,"stimulus":"<div style=\"font-size:60px;\">+</div>","key_press":null,"trial_type":"html-keyboard-response","trial_index":184,"time_elapsed":439621,"internal_node_id":"0.0-8.0-1.44","subject":"10615vm8rtupbaq","sona":"7573"},{"trial_type":"turing-test","trial_index":185,"time_elapsed":446616,"internal_node_id":"0.0-8.0-2.44","subject":"10615vm8rtupbaq","sona":"7573"},{"rt":1070.6400000490248,"stimulus":"<p>Welche Sequenz haben Sie als natürlicher empfunden?</p>","key_press":70,"test_part":"response","test_stimulus":{"position":0,"left":"bvh/return-bottle-training2-lines.txt","right":"bvh/vr_prediction_models/model(vcgpdm)-dataset(return-bottle)-mode(ELBO)-parts(3)-dyn(10)-lvm(30)-hold(2)/final-lines.txt","att_check":false},"trial_type":"html-keyboard-response","trial_index":186,"time_elapsed":447700,"internal_node_id":"0.0-8.0-3.44","subject":"10615vm8rtupbaq","sona":"7573"},{"rt":408.33499981090426,"stimulus":"<p>Bereit?</p>","key_press":32,"trial_type":"html-keyboard-response","trial_index":187,"time_elapsed":448137,"internal_node_id":"0.0-8.0-0.45","subject":"10615vm8rtupbaq","sona":"7573"},{"rt":null,"stimulus":"<div style=\"font-size:60px;\">+</div>","key_press":null,"trial_type":"html-keyboard-response","trial_index":188,"time_elapsed":450164,"internal_node_id":"0.0-8.0-1.45","subject":"10615vm8rtupbaq","sona":"7573"},{"trial_type":"turing-test","trial_index":189,"time_elapsed":456180,"internal_node_id":"0.0-8.0-2.45","subject":"10615vm8rtupbaq","sona":"7573"},{"rt":394.02000000700355,"stimulus":"<p>Welche Sequenz haben Sie als natürlicher empfunden?</p>","key_press":70,"test_part":"response","test_stimulus":{"position":0,"left":"bvh/return-bottle-training4-lines.txt","right":"bvh/vr_prediction_models/model(dmp)-dataset(return-bottle)-npsi(90)-hold(4)/final-lines.txt","att_check":false},"trial_type":"html-keyboard-response","trial_index":190,"time_elapsed":456595,"internal_node_id":"0.0-8.0-3.45","subject":"10615vm8rtupbaq","sona":"7573"},{"rt":449.5099999476224,"stimulus":"<p>Bereit?</p>","key_press":32,"trial_type":"html-keyboard-response","trial_index":191,"time_elapsed":457081,"internal_node_id":"0.0-8.0-0.46","subject":"10615vm8rtupbaq","sona":"7573"},{"rt":null,"stimulus":"<div style=\"font-size:60px;\">+</div>","key_press":null,"trial_type":"html-keyboard-response","trial_index":192,"time_elapsed":459114,"internal_node_id":"0.0-8.0-1.46","subject":"10615vm8rtupbaq","sona":"7573"},{"trial_type":"turing-test","trial_index":193,"time_elapsed":462926,"internal_node_id":"0.0-8.0-2.46","subject":"10615vm8rtupbaq","sona":"7573"},{"rt":421.9849999062717,"stimulus":"<p>Welche Sequenz haben Sie als natürlicher empfunden?</p>","key_press":74,"test_part":"response","test_stimulus":{"position":1,"left":"bvh/vr_prediction_models/model(tmp)-dataset(pass-bottle-hold)-numprim(14)-hold(3)/final-lines.txt","right":"bvh/pass-bottle-hold-training3-lines.txt","att_check":false},"trial_type":"html-keyboard-response","trial_index":194,"time_elapsed":463383,"internal_node_id":"0.0-8.0-3.46","subject":"10615vm8rtupbaq","sona":"7573"},{"rt":945.8350001368672,"stimulus":"<p>Bereit?</p>","key_press":32,"trial_type":"html-keyboard-response","trial_index":195,"time_elapsed":464355,"internal_node_id":"0.0-8.0-0.47","subject":"10615vm8rtupbaq","sona":"7573"},{"rt":null,"stimulus":"<div style=\"font-size:60px;\">+</div>","key_press":null,"trial_type":"html-keyboard-response","trial_index":196,"time_elapsed":466382,"internal_node_id":"0.0-8.0-1.47","subject":"10615vm8rtupbaq","sona":"7573"},{"trial_type":"turing-test","trial_index":197,"time_elapsed":472208,"internal_node_id":"0.0-8.0-2.47","subject":"10615vm8rtupbaq","sona":"7573"},{"rt":590.9599999431521,"stimulus":"<p>Welche Sequenz haben Sie als natürlicher empfunden?</p>","key_press":70,"test_part":"response","test_stimulus":{"position":0,"left":"bvh/return-bottle-training0-lines.txt","right":"bvh/vr_prediction_models/model(vcgpdm)-dataset(return-bottle)-mode(MAP)-parts(1)-hold(0)/final-lines.txt","att_check":false},"trial_type":"html-keyboard-response","trial_index":198,"time_elapsed":472831,"internal_node_id":"0.0-8.0-3.47","subject":"10615vm8rtupbaq","sona":"7573"},{"rt":296.2050000205636,"stimulus":"<p>Bereit?</p>","key_press":32,"trial_type":"html-keyboard-response","trial_index":199,"time_elapsed":473147,"internal_node_id":"0.0-8.0-0.48","subject":"10615vm8rtupbaq","sona":"7573"},{"rt":null,"stimulus":"<div style=\"font-size:60px;\">+</div>","key_press":null,"trial_type":"html-keyboard-response","trial_index":200,"time_elapsed":475177,"internal_node_id":"0.0-8.0-1.48","subject":"10615vm8rtupbaq","sona":"7573"},{"trial_type":"turing-test","trial_index":201,"time_elapsed":478815,"internal_node_id":"0.0-8.0-2.48","subject":"10615vm8rtupbaq","sona":"7573"},{"rt":349.9350000638515,"stimulus":"<p>Welche Sequenz haben Sie als natürlicher empfunden?</p>","key_press":70,"test_part":"response","test_stimulus":{"position":0,"left":"bvh/return-bottle-hold-training2-lines.txt","right":"bvh/vr_prediction_models/model(dmp)-dataset(return-bottle-hold)-npsi(70)-hold(2)/final-lines.txt","att_check":true},"trial_type":"html-keyboard-response","trial_index":202,"time_elapsed":479212,"internal_node_id":"0.0-8.0-3.48","subject":"10615vm8rtupbaq","sona":"7573"},{"rt":350.6599999964237,"stimulus":"<p>Bereit?</p>","key_press":32,"trial_type":"html-keyboard-response","trial_index":203,"time_elapsed":479584,"internal_node_id":"0.0-8.0-0.49","subject":"10615vm8rtupbaq","sona":"7573"},{"rt":null,"stimulus":"<div style=\"font-size:60px;\">+</div>","key_press":null,"trial_type":"html-keyboard-response","trial_index":204,"time_elapsed":481611,"internal_node_id":"0.0-8.0-1.49","subject":"10615vm8rtupbaq","sona":"7573"},{"trial_type":"turing-test","trial_index":205,"time_elapsed":485477,"internal_node_id":"0.0-8.0-2.49","subject":"10615vm8rtupbaq","sona":"7573"},{"rt":398.8100001588464,"stimulus":"<p>Welche Sequenz haben Sie als natürlicher empfunden?</p>","key_press":70,"test_part":"response","test_stimulus":{"position":0,"left":"bvh/return-bottle-hold-training4-lines.txt","right":"bvh/vr_prediction_models/model(tmp)-dataset(return-bottle-hold)-numprim(6)-hold(4)/final-lines.txt","att_check":false},"trial_type":"html-keyboard-response","trial_index":206,"time_elapsed":485901,"internal_node_id":"0.0-8.0-3.49","subject":"10615vm8rtupbaq","sona":"7573"},{"rt":361.34500009939075,"stimulus":"<p>Bereit?</p>","key_press":32,"trial_type":"html-keyboard-response","trial_index":207,"time_elapsed":486286,"internal_node_id":"0.0-8.0-0.50","subject":"10615vm8rtupbaq","sona":"7573"},{"rt":null,"stimulus":"<div style=\"font-size:60px;\">+</div>","key_press":null,"trial_type":"html-keyboard-response","trial_index":208,"time_elapsed":488320,"internal_node_id":"0.0-8.0-1.50","subject":"10615vm8rtupbaq","sona":"7573"},{"trial_type":"turing-test","trial_index":209,"time_elapsed":492305,"internal_node_id":"0.0-8.0-2.50","subject":"10615vm8rtupbaq","sona":"7573"},{"rt":828.2350001391023,"stimulus":"<p>Welche Sequenz haben Sie als natürlicher empfunden?</p>","key_press":74,"test_part":"response","test_stimulus":{"position":1,"left":"bvh/vr_prediction_models/model(vcgpdm)-dataset(pass-bottle-hold)-mode(ELBO)-parts(3)-dyn(20)-lvm(35)-hold(4)/final-lines.txt","right":"bvh/pass-bottle-hold-training4-lines.txt","att_check":false},"trial_type":"html-keyboard-response","trial_index":210,"time_elapsed":493174,"internal_node_id":"0.0-8.0-3.50","subject":"10615vm8rtupbaq","sona":"7573"},{"rt":388.54000018909574,"stimulus":"<p>Bereit?</p>","key_press":32,"trial_type":"html-keyboard-response","trial_index":211,"time_elapsed":493585,"internal_node_id":"0.0-8.0-0.51","subject":"10615vm8rtupbaq","sona":"7573"},{"rt":null,"stimulus":"<div style=\"font-size:60px;\">+</div>","key_press":null,"trial_type":"html-keyboard-response","trial_index":212,"time_elapsed":495608,"internal_node_id":"0.0-8.0-1.51","subject":"10615vm8rtupbaq","sona":"7573"},{"trial_type":"turing-test","trial_index":213,"time_elapsed":499247,"internal_node_id":"0.0-8.0-2.51","subject":"10615vm8rtupbaq","sona":"7573"},{"rt":818.2950001209974,"stimulus":"<p>Welche Sequenz haben Sie als natürlicher empfunden?</p>","key_press":70,"test_part":"response","test_stimulus":{"position":0,"left":"bvh/return-bottle-hold-training2-lines.txt","right":"bvh/vr_prediction_models/model(dmp)-dataset(return-bottle-hold)-npsi(80)-hold(2)/final-lines.txt","att_check":false},"trial_type":"html-keyboard-response","trial_index":214,"time_elapsed":500105,"internal_node_id":"0.0-8.0-3.51","subject":"10615vm8rtupbaq","sona":"7573"},{"rt":1197.0349999610335,"stimulus":"<p>Bereit?</p>","key_press":32,"trial_type":"html-keyboard-response","trial_index":215,"time_elapsed":501330,"internal_node_id":"0.0-8.0-0.52","subject":"10615vm8rtupbaq","sona":"7573"},{"rt":null,"stimulus":"<div style=\"font-size:60px;\">+</div>","key_press":null,"trial_type":"html-keyboard-response","trial_index":216,"time_elapsed":503349,"internal_node_id":"0.0-8.0-1.52","subject":"10615vm8rtupbaq","sona":"7573"},{"trial_type":"turing-test","trial_index":217,"time_elapsed":507105,"internal_node_id":"0.0-8.0-2.52","subject":"10615vm8rtupbaq","sona":"7573"},{"rt":278.84499984793365,"stimulus":"<p>Welche Sequenz haben Sie als natürlicher empfunden?</p>","key_press":70,"test_part":"response","test_stimulus":{"position":1,"left":"bvh/vr_prediction_models/model(dmp)-dataset(pass-bottle-hold)-npsi(40)-hold(4)/final-lines.txt","right":"bvh/pass-bottle-hold-training4-lines.txt","att_check":false},"trial_type":"html-keyboard-response","trial_index":218,"time_elapsed":507426,"internal_node_id":"0.0-8.0-3.52","subject":"10615vm8rtupbaq","sona":"7573"},{"rt":763.7849999591708,"stimulus":"<p>Bereit?</p>","key_press":32,"trial_type":"html-keyboard-response","trial_index":219,"time_elapsed":508217,"internal_node_id":"0.0-8.0-0.53","subject":"10615vm8rtupbaq","sona":"7573"},{"rt":null,"stimulus":"<div style=\"font-size:60px;\">+</div>","key_press":null,"trial_type":"html-keyboard-response","trial_index":220,"time_elapsed":510238,"internal_node_id":"0.0-8.0-1.53","subject":"10615vm8rtupbaq","sona":"7573"},{"trial_type":"turing-test","trial_index":221,"time_elapsed":514283,"internal_node_id":"0.0-8.0-2.53","subject":"10615vm8rtupbaq","sona":"7573"},{"rt":495.6399998627603,"stimulus":"<p>Welche Sequenz haben Sie als natürlicher empfunden?</p>","key_press":74,"test_part":"response","test_stimulus":{"position":1,"left":"bvh/vr_prediction_models/model(vcgpdm)-dataset(pass-bottle-hold)-mode(ELBO)-parts(3)-dyn(35)-lvm(20)-hold(3)/final-lines.txt","right":"bvh/pass-bottle-hold-training3-lines.txt","att_check":false},"trial_type":"html-keyboard-response","trial_index":222,"time_elapsed":514811,"internal_node_id":"0.0-8.0-3.53","subject":"10615vm8rtupbaq","sona":"7573"},{"rt":380.729999858886,"stimulus":"<p>Bereit?</p>","key_press":32,"trial_type":"html-keyboard-response","trial_index":223,"time_elapsed":515221,"internal_node_id":"0.0-8.0-0.54","subject":"10615vm8rtupbaq","sona":"7573"},{"rt":null,"stimulus":"<div style=\"font-size:60px;\">+</div>","key_press":null,"trial_type":"html-keyboard-response","trial_index":224,"time_elapsed":517239,"internal_node_id":"0.0-8.0-1.54","subject":"10615vm8rtupbaq","sona":"7573"},{"trial_type":"turing-test","trial_index":225,"time_elapsed":521054,"internal_node_id":"0.0-8.0-2.54","subject":"10615vm8rtupbaq","sona":"7573"},{"rt":175.00000004656613,"stimulus":"<p>Welche Sequenz haben Sie als natürlicher empfunden?</p>","key_press":74,"test_part":"response","test_stimulus":{"position":1,"left":"bvh/vr_prediction_models/model(vcgpdm)-dataset(return-bottle-hold)-mode(ELBO)-parts(1)-dyn(30)-lvm(20)-hold(1)/final-lines.txt","right":"bvh/return-bottle-hold-training1-lines.txt","att_check":false},"trial_type":"html-keyboard-response","trial_index":226,"time_elapsed":521275,"internal_node_id":"0.0-8.0-3.54","subject":"10615vm8rtupbaq","sona":"7573"},{"rt":534.175000153482,"stimulus":"<p>Bereit?</p>","key_press":32,"trial_type":"html-keyboard-response","trial_index":227,"time_elapsed":521835,"internal_node_id":"0.0-8.0-0.55","subject":"10615vm8rtupbaq","sona":"7573"},{"rt":null,"stimulus":"<div style=\"font-size:60px;\">+</div>","key_press":null,"trial_type":"html-keyboard-response","trial_index":228,"time_elapsed":523868,"internal_node_id":"0.0-8.0-1.55","subject":"10615vm8rtupbaq","sona":"7573"},{"trial_type":"turing-test","trial_index":229,"time_elapsed":527885,"internal_node_id":"0.0-8.0-2.55","subject":"10615vm8rtupbaq","sona":"7573"},{"rt":1068.6600001063198,"stimulus":"<p>Welche Sequenz haben Sie als natürlicher empfunden?</p>","key_press":74,"test_part":"response","test_stimulus":{"position":0,"left":"bvh/pass-bottle-hold-training3-lines.txt","right":"bvh/vr_prediction_models/model(vcgpdm)-dataset(pass-bottle-hold)-mode(ELBO)-parts(3)-dyn(20)-lvm(35)-hold(3)/final-lines.txt","att_check":false},"trial_type":"html-keyboard-response","trial_index":230,"time_elapsed":528986,"internal_node_id":"0.0-8.0-3.55","subject":"10615vm8rtupbaq","sona":"7573"},{"rt":294.2449999973178,"stimulus":"<p>Bereit?</p>","key_press":32,"trial_type":"html-keyboard-response","trial_index":231,"time_elapsed":529304,"internal_node_id":"0.0-8.0-0.56","subject":"10615vm8rtupbaq","sona":"7573"},{"rt":null,"stimulus":"<div style=\"font-size:60px;\">+</div>","key_press":null,"trial_type":"html-keyboard-response","trial_index":232,"time_elapsed":531340,"internal_node_id":"0.0-8.0-1.56","subject":"10615vm8rtupbaq","sona":"7573"},{"trial_type":"turing-test","trial_index":233,"time_elapsed":534782,"internal_node_id":"0.0-8.0-2.56","subject":"10615vm8rtupbaq","sona":"7573"},{"rt":43.89999993145466,"stimulus":"<p>Welche Sequenz haben Sie als natürlicher empfunden?</p>","key_press":70,"test_part":"response","test_stimulus":{"position":1,"left":"bvh/vr_prediction_models/model(vcgpdm)-dataset(pass-bottle-hold)-mode(ELBO)-parts(3)-dyn(25)-lvm(15)-hold(2)/final-lines.txt","right":"bvh/pass-bottle-hold-training2-lines.txt","att_check":false},"trial_type":"html-keyboard-response","trial_index":234,"time_elapsed":534856,"internal_node_id":"0.0-8.0-3.56","subject":"10615vm8rtupbaq","sona":"7573"},{"rt":1323.015000205487,"stimulus":"<p>Bereit?</p>","key_press":32,"trial_type":"html-keyboard-response","trial_index":235,"time_elapsed":536197,"internal_node_id":"0.0-8.0-0.57","subject":"10615vm8rtupbaq","sona":"7573"},{"rt":null,"stimulus":"<div style=\"font-size:60px;\">+</div>","key_press":null,"trial_type":"html-keyboard-response","trial_index":236,"time_elapsed":538230,"internal_node_id":"0.0-8.0-1.57","subject":"10615vm8rtupbaq","sona":"7573"},{"trial_type":"turing-test","trial_index":237,"time_elapsed":541792,"internal_node_id":"0.0-8.0-2.57","subject":"10615vm8rtupbaq","sona":"7573"},{"rt":1643.3749999850988,"stimulus":"<p>Welche Sequenz haben Sie als natürlicher empfunden?</p>","key_press":74,"test_part":"response","test_stimulus":{"position":0,"left":"bvh/return-bottle-hold-training2-lines.txt","right":"bvh/vr_prediction_models/model(tmp)-dataset(return-bottle-hold)-numprim(8)-hold(2)/final-lines.txt","att_check":false},"trial_type":"html-keyboard-response","trial_index":238,"time_elapsed":543445,"internal_node_id":"0.0-8.0-3.57","subject":"10615vm8rtupbaq","sona":"7573"},{"rt":240.64500001259148,"stimulus":"<p>Bereit?</p>","key_press":32,"trial_type":"html-keyboard-response","trial_index":239,"time_elapsed":543693,"internal_node_id":"0.0-8.0-0.58","subject":"10615vm8rtupbaq","sona":"7573"},{"rt":null,"stimulus":"<div style=\"font-size:60px;\">+</div>","key_press":null,"trial_type":"html-keyboard-response","trial_index":240,"time_elapsed":545710,"internal_node_id":"0.0-8.0-1.58","subject":"10615vm8rtupbaq","sona":"7573"},{"trial_type":"turing-test","trial_index":241,"time_elapsed":549417,"internal_node_id":"0.0-8.0-2.58","subject":"10615vm8rtupbaq","sona":"7573"},{"rt":414.3050001002848,"stimulus":"<p>Welche Sequenz haben Sie als natürlicher empfunden?</p>","key_press":74,"test_part":"response","test_stimulus":{"position":1,"left":"bvh/vr_prediction_models/model(vcgpdm)-dataset(pass-bottle-hold)-mode(ELBO)-parts(3)-dyn(20)-lvm(15)-hold(2)/final-lines.txt","right":"bvh/pass-bottle-hold-training2-lines.txt","att_check":false},"trial_type":"html-keyboard-response","trial_index":242,"time_elapsed":549869,"internal_node_id":"0.0-8.0-3.58","subject":"10615vm8rtupbaq","sona":"7573"},{"rt":303.2899999525398,"stimulus":"<p>Bereit?</p>","key_press":32,"trial_type":"html-keyboard-response","trial_index":243,"time_elapsed":550193,"internal_node_id":"0.0-8.0-0.59","subject":"10615vm8rtupbaq","sona":"7573"},{"rt":null,"stimulus":"<div style=\"font-size:60px;\">+</div>","key_press":null,"trial_type":"html-keyboard-response","trial_index":244,"time_elapsed":552223,"internal_node_id":"0.0-8.0-1.59","subject":"10615vm8rtupbaq","sona":"7573"},{"trial_type":"turing-test","trial_index":245,"time_elapsed":555941,"internal_node_id":"0.0-8.0-2.59","subject":"10615vm8rtupbaq","sona":"7573"},{"rt":1458.6800001561642,"stimulus":"<p>Welche Sequenz haben Sie als natürlicher empfunden?</p>","key_press":74,"test_part":"response","test_stimulus":{"position":1,"left":"bvh/vr_prediction_models/model(vcgpdm)-dataset(return-bottle-hold)-mode(ELBO)-parts(3)-dyn(20)-lvm(20)-hold(1)/final-lines.txt","right":"bvh/return-bottle-hold-training1-lines.txt","att_check":false},"trial_type":"html-keyboard-response","trial_index":246,"time_elapsed":557438,"internal_node_id":"0.0-8.0-3.59","subject":"10615vm8rtupbaq","sona":"7573"},{"rt":354.77499989792705,"stimulus":"<p>Bereit?</p>","key_press":32,"trial_type":"html-keyboard-response","trial_index":247,"time_elapsed":557820,"internal_node_id":"0.0-8.0-0.60","subject":"10615vm8rtupbaq","sona":"7573"},{"rt":null,"stimulus":"<div style=\"font-size:60px;\">+</div>","key_press":null,"trial_type":"html-keyboard-response","trial_index":248,"time_elapsed":559844,"internal_node_id":"0.0-8.0-1.60","subject":"10615vm8rtupbaq","sona":"7573"},{"trial_type":"turing-test","trial_index":249,"time_elapsed":565918,"internal_node_id":"0.0-8.0-2.60","subject":"10615vm8rtupbaq","sona":"7573"},{"rt":1.1350000277161598,"stimulus":"<p>Welche Sequenz haben Sie als natürlicher empfunden?</p>","key_press":74,"test_part":"response","test_stimulus":{"position":1,"left":"bvh/vr_prediction_models/model(dmp)-dataset(pass-bottle)-npsi(50)-hold(3)/final-lines.txt","right":"bvh/pass-bottle-training3-lines.txt","att_check":false},"trial_type":"html-keyboard-response","trial_index":250,"time_elapsed":565967,"internal_node_id":"0.0-8.0-3.60","subject":"10615vm8rtupbaq","sona":"7573"},{"rt":423.94999996759,"stimulus":"<p>Bereit?</p>","key_press":32,"trial_type":"html-keyboard-response","trial_index":251,"time_elapsed":566405,"internal_node_id":"0.0-8.0-0.61","subject":"10615vm8rtupbaq","sona":"7573"},{"rt":null,"stimulus":"<div style=\"font-size:60px;\">+</div>","key_press":null,"trial_type":"html-keyboard-response","trial_index":252,"time_elapsed":568432,"internal_node_id":"0.0-8.0-1.61","subject":"10615vm8rtupbaq","sona":"7573"},{"trial_type":"turing-test","trial_index":253,"time_elapsed":574592,"internal_node_id":"0.0-8.0-2.61","subject":"10615vm8rtupbaq","sona":"7573"},{"rt":608.049999922514,"stimulus":"<p>Welche Sequenz haben Sie als natürlicher empfunden?</p>","key_press":70,"test_part":"response","test_stimulus":{"position":0,"left":"bvh/return-bottle-training3-lines.txt","right":"bvh/vr_prediction_models/model(vcgpdm)-dataset(return-bottle)-mode(ELBO)-parts(3)-dyn(25)-lvm(30)-hold(3)/final-lines.txt","att_check":false},"trial_type":"html-keyboard-response","trial_index":254,"time_elapsed":575235,"internal_node_id":"0.0-8.0-3.61","subject":"10615vm8rtupbaq","sona":"7573"},{"rt":348.18500000983477,"stimulus":"<p>Bereit?</p>","key_press":32,"trial_type":"html-keyboard-response","trial_index":255,"time_elapsed":575612,"internal_node_id":"0.0-8.0-0.62","subject":"10615vm8rtupbaq","sona":"7573"},{"rt":null,"stimulus":"<div style=\"font-size:60px;\">+</div>","key_press":null,"trial_type":"html-keyboard-response","trial_index":256,"time_elapsed":577639,"internal_node_id":"0.0-8.0-1.62","subject":"10615vm8rtupbaq","sona":"7573"},{"trial_type":"turing-test","trial_index":257,"time_elapsed":584579,"internal_node_id":"0.0-8.0-2.62","subject":"10615vm8rtupbaq","sona":"7573"},{"rt":1759.2849999200553,"stimulus":"<p>Welche Sequenz haben Sie als natürlicher empfunden?</p>","key_press":74,"test_part":"response","test_stimulus":{"position":1,"left":"bvh/vr_prediction_models/model(tmp)-dataset(pass-bottle)-numprim(8)-hold(0)/final-lines.txt","right":"bvh/pass-bottle-training0-lines.txt","att_check":false},"trial_type":"html-keyboard-response","trial_index":258,"time_elapsed":586387,"internal_node_id":"0.0-8.0-3.62","subject":"10615vm8rtupbaq","sona":"7573"},{"rt":322.53500004298985,"stimulus":"<p>Bereit?</p>","key_press":32,"trial_type":"html-keyboard-response","trial_index":259,"time_elapsed":586741,"internal_node_id":"0.0-8.0-0.63","subject":"10615vm8rtupbaq","sona":"7573"},{"rt":null,"stimulus":"<div style=\"font-size:60px;\">+</div>","key_press":null,"trial_type":"html-keyboard-response","trial_index":260,"time_elapsed":588752,"internal_node_id":"0.0-8.0-1.63","subject":"10615vm8rtupbaq","sona":"7573"},{"trial_type":"turing-test","trial_index":261,"time_elapsed":592229,"internal_node_id":"0.0-8.0-2.63","subject":"10615vm8rtupbaq","sona":"7573"},{"rt":168.0900000501424,"stimulus":"<p>Welche Sequenz haben Sie als natürlicher empfunden?</p>","key_press":74,"test_part":"response","test_stimulus":{"position":1,"left":"bvh/vr_prediction_models/model(vcgpdm)-dataset(pass-bottle-hold)-mode(ELBO)-parts(3)-dyn(35)-lvm(20)-hold(2)/final-lines.txt","right":"bvh/pass-bottle-hold-training2-lines.txt","att_check":false},"trial_type":"html-keyboard-response","trial_index":262,"time_elapsed":592439,"internal_node_id":"0.0-8.0-3.63","subject":"10615vm8rtupbaq","sona":"7573"},{"rt":661.0850000288337,"stimulus":"<p>Bereit?</p>","key_press":32,"trial_type":"html-keyboard-response","trial_index":263,"time_elapsed":593119,"internal_node_id":"0.0-8.0-0.64","subject":"10615vm8rtupbaq","sona":"7573"},{"rt":null,"stimulus":"<div style=\"font-size:60px;\">+</div>","key_press":null,"trial_type":"html-keyboard-response","trial_index":264,"time_elapsed":595189,"internal_node_id":"0.0-8.0-1.64","subject":"10615vm8rtupbaq","sona":"7573"},{"trial_type":"turing-test","trial_index":265,"time_elapsed":599244,"internal_node_id":"0.0-8.0-2.64","subject":"10615vm8rtupbaq","sona":"7573"},{"rt":617.8049999289215,"stimulus":"<p>Welche Sequenz haben Sie als natürlicher empfunden?</p>","key_press":74,"test_part":"response","test_stimulus":{"position":0,"left":"bvh/return-bottle-hold-training3-lines.txt","right":"bvh/vr_prediction_models/model(vcgpdm)-dataset(return-bottle-hold)-mode(ELBO)-parts(3)-dyn(10)-lvm(30)-hold(3)/final-lines.txt","att_check":false},"trial_type":"html-keyboard-response","trial_index":266,"time_elapsed":599898,"internal_node_id":"0.0-8.0-3.64","subject":"10615vm8rtupbaq","sona":"7573"},{"rt":421.51499981991947,"stimulus":"<p>Bereit?</p>","key_press":32,"trial_type":"html-keyboard-response","trial_index":267,"time_elapsed":600346,"internal_node_id":"0.0-8.0-0.65","subject":"10615vm8rtupbaq","sona":"7573"},{"rt":null,"stimulus":"<div style=\"font-size:60px;\">+</div>","key_press":null,"trial_type":"html-keyboard-response","trial_index":268,"time_elapsed":602372,"internal_node_id":"0.0-8.0-1.65","subject":"10615vm8rtupbaq","sona":"7573"},{"trial_type":"turing-test","trial_index":269,"time_elapsed":605910,"internal_node_id":"0.0-8.0-2.65","subject":"10615vm8rtupbaq","sona":"7573"},{"rt":2.3049998562783003,"stimulus":"<p>Welche Sequenz haben Sie als natürlicher empfunden?</p>","key_press":74,"test_part":"response","test_stimulus":{"position":1,"left":"bvh/vr_prediction_models/model(tmp)-dataset(return-bottle-hold)-numprim(7)-hold(1)/final-lines.txt","right":"bvh/return-bottle-hold-training1-lines.txt","att_check":false},"trial_type":"html-keyboard-response","trial_index":270,"time_elapsed":605951,"internal_node_id":"0.0-8.0-3.65","subject":"10615vm8rtupbaq","sona":"7573"},{"rt":477.7349999640137,"stimulus":"<p>Bereit?</p>","key_press":32,"trial_type":"html-keyboard-response","trial_index":271,"time_elapsed":606444,"internal_node_id":"0.0-8.0-0.66","subject":"10615vm8rtupbaq","sona":"7573"},{"rt":null,"stimulus":"<div style=\"font-size:60px;\">+</div>","key_press":null,"trial_type":"html-keyboard-response","trial_index":272,"time_elapsed":608482,"internal_node_id":"0.0-8.0-1.66","subject":"10615vm8rtupbaq","sona":"7573"},{"trial_type":"turing-test","trial_index":273,"time_elapsed":615420,"internal_node_id":"0.0-8.0-2.66","subject":"10615vm8rtupbaq","sona":"7573"},{"rt":625.6099999882281,"stimulus":"<p>Welche Sequenz haben Sie als natürlicher empfunden?</p>","key_press":70,"test_part":"response","test_stimulus":{"position":1,"left":"bvh/vr_prediction_models/model(vcgpdm)-dataset(return-bottle)-mode(ELBO)-parts(3)-dyn(35)-lvm(20)-hold(2)/final-lines.txt","right":"bvh/return-bottle-training2-lines.txt","att_check":false},"trial_type":"html-keyboard-response","trial_index":274,"time_elapsed":616083,"internal_node_id":"0.0-8.0-3.66","subject":"10615vm8rtupbaq","sona":"7573"},{"rt":560.3650000412017,"stimulus":"<p>Bereit?</p>","key_press":32,"trial_type":"html-keyboard-response","trial_index":275,"time_elapsed":616678,"internal_node_id":"0.0-8.0-0.67","subject":"10615vm8rtupbaq","sona":"7573"},{"rt":null,"stimulus":"<div style=\"font-size:60px;\">+</div>","key_press":null,"trial_type":"html-keyboard-response","trial_index":276,"time_elapsed":618692,"internal_node_id":"0.0-8.0-1.67","subject":"10615vm8rtupbaq","sona":"7573"},{"trial_type":"turing-test","trial_index":277,"time_elapsed":622403,"internal_node_id":"0.0-8.0-2.67","subject":"10615vm8rtupbaq","sona":"7573"},{"rt":465.96999978646636,"stimulus":"<p>Welche Sequenz haben Sie als natürlicher empfunden?</p>","key_press":70,"test_part":"response","test_stimulus":{"position":0,"left":"bvh/pass-bottle-hold-training2-lines.txt","right":"bvh/vr_prediction_models/model(vcgpdm)-dataset(pass-bottle-hold)-mode(ELBO)-parts(1)-dyn(5)-lvm(5)-hold(2)/final-lines.txt","att_check":false},"trial_type":"html-keyboard-response","trial_index":278,"time_elapsed":622907,"internal_node_id":"0.0-8.0-3.67","subject":"10615vm8rtupbaq","sona":"7573"},{"rt":401.8899998627603,"stimulus":"<p>Bereit?</p>","key_press":32,"trial_type":"html-keyboard-response","trial_index":279,"time_elapsed":623338,"internal_node_id":"0.0-8.0-0.68","subject":"10615vm8rtupbaq","sona":"7573"},{"rt":null,"stimulus":"<div style=\"font-size:60px;\">+</div>","key_press":null,"trial_type":"html-keyboard-response","trial_index":280,"time_elapsed":625360,"internal_node_id":"0.0-8.0-1.68","subject":"10615vm8rtupbaq","sona":"7573"},{"trial_type":"turing-test","trial_index":281,"time_elapsed":629197,"internal_node_id":"0.0-8.0-2.68","subject":"10615vm8rtupbaq","sona":"7573"},{"rt":207.010000012815,"stimulus":"<p>Welche Sequenz haben Sie als natürlicher empfunden?</p>","key_press":74,"test_part":"response","test_stimulus":{"position":1,"left":"bvh/vr_prediction_models/model(vcgpdm)-dataset(return-bottle-hold)-mode(ELBO)-parts(1)-dyn(20)-lvm(30)-hold(2)/final-lines.txt","right":"bvh/return-bottle-hold-training2-lines.txt","att_check":false},"trial_type":"html-keyboard-response","trial_index":282,"time_elapsed":629446,"internal_node_id":"0.0-8.0-3.68","subject":"10615vm8rtupbaq","sona":"7573"},{"rt":386.8899999652058,"stimulus":"<p>Bereit?</p>","key_press":32,"trial_type":"html-keyboard-response","trial_index":283,"time_elapsed":629857,"internal_node_id":"0.0-8.0-0.69","subject":"10615vm8rtupbaq","sona":"7573"},{"rt":null,"stimulus":"<div style=\"font-size:60px;\">+</div>","key_press":null,"trial_type":"html-keyboard-response","trial_index":284,"time_elapsed":631882,"internal_node_id":"0.0-8.0-1.69","subject":"10615vm8rtupbaq","sona":"7573"},{"trial_type":"turing-test","trial_index":285,"time_elapsed":635684,"internal_node_id":"0.0-8.0-2.69","subject":"10615vm8rtupbaq","sona":"7573"},{"rt":552.0099999848753,"stimulus":"<p>Welche Sequenz haben Sie als natürlicher empfunden?</p>","key_press":74,"test_part":"response","test_stimulus":{"position":1,"left":"bvh/vr_prediction_models/model(dmp)-dataset(pass-bottle-hold)-npsi(30)-hold(4)/final-lines.txt","right":"bvh/pass-bottle-hold-training4-lines.txt","att_check":true},"trial_type":"html-keyboard-response","trial_index":286,"time_elapsed":636276,"internal_node_id":"0.0-8.0-3.69","subject":"10615vm8rtupbaq","sona":"7573"},{"rt":245.37000013515353,"stimulus":"<p>Bereit?</p>","key_press":32,"trial_type":"html-keyboard-response","trial_index":287,"time_elapsed":636554,"internal_node_id":"0.0-8.0-0.70","subject":"10615vm8rtupbaq","sona":"7573"},{"rt":null,"stimulus":"<div style=\"font-size:60px;\">+</div>","key_press":null,"trial_type":"html-keyboard-response","trial_index":288,"time_elapsed":638572,"internal_node_id":"0.0-8.0-1.70","subject":"10615vm8rtupbaq","sona":"7573"},{"trial_type":"turing-test","trial_index":289,"time_elapsed":645035,"internal_node_id":"0.0-8.0-2.70","subject":"10615vm8rtupbaq","sona":"7573"},{"rt":3.3100000582635403,"stimulus":"<p>Welche Sequenz haben Sie als natürlicher empfunden?</p>","key_press":70,"test_part":"response","test_stimulus":{"position":0,"left":"bvh/pass-bottle-training2-lines.txt","right":"bvh/vr_prediction_models/model(vcgpdm)-dataset(pass-bottle)-mode(ELBO)-parts(3)-dyn(15)-lvm(30)-hold(2)/final-lines.txt","att_check":false},"trial_type":"html-keyboard-response","trial_index":290,"time_elapsed":645075,"internal_node_id":"0.0-8.0-3.70","subject":"10615vm8rtupbaq","sona":"7573"},{"rt":884.9799998570234,"stimulus":"<p>Bereit?</p>","key_press":32,"trial_type":"html-keyboard-response","trial_index":291,"time_elapsed":645983,"internal_node_id":"0.0-8.0-0.71","subject":"10615vm8rtupbaq","sona":"7573"},{"rt":null,"stimulus":"<div style=\"font-size:60px;\">+</div>","key_press":null,"trial_type":"html-keyboard-response","trial_index":292,"time_elapsed":648002,"internal_node_id":"0.0-8.0-1.71","subject":"10615vm8rtupbaq","sona":"7573"},{"trial_type":"turing-test","trial_index":293,"time_elapsed":654215,"internal_node_id":"0.0-8.0-2.71","subject":"10615vm8rtupbaq","sona":"7573"},{"rt":456.7800001241267,"stimulus":"<p>Welche Sequenz haben Sie als natürlicher empfunden?</p>","key_press":74,"test_part":"response","test_stimulus":{"position":1,"left":"bvh/vr_prediction_models/model(vcgpdm)-dataset(pass-bottle)-mode(ELBO)-parts(1)-dyn(25)-lvm(35)-hold(3)/final-lines.txt","right":"bvh/pass-bottle-training3-lines.txt","att_check":false},"trial_type":"html-keyboard-response","trial_index":294,"time_elapsed":654687,"internal_node_id":"0.0-8.0-3.71","subject":"10615vm8rtupbaq","sona":"7573"},{"rt":421.1200000718236,"stimulus":"<p>Bereit?</p>","key_press":32,"trial_type":"html-keyboard-response","trial_index":295,"time_elapsed":655145,"internal_node_id":"0.0-8.0-0.72","subject":"10615vm8rtupbaq","sona":"7573"},{"rt":null,"stimulus":"<div style=\"font-size:60px;\">+</div>","key_press":null,"trial_type":"html-keyboard-response","trial_index":296,"time_elapsed":657171,"internal_node_id":"0.0-8.0-1.72","subject":"10615vm8rtupbaq","sona":"7573"},{"trial_type":"turing-test","trial_index":297,"time_elapsed":660935,"internal_node_id":"0.0-8.0-2.72","subject":"10615vm8rtupbaq","sona":"7573"},{"rt":266.7999998666346,"stimulus":"<p>Welche Sequenz haben Sie als natürlicher empfunden?</p>","key_press":70,"test_part":"response","test_stimulus":{"position":0,"left":"bvh/pass-bottle-hold-training4-lines.txt","right":"bvh/vr_prediction_models/model(dmp)-dataset(pass-bottle-hold)-npsi(80)-hold(4)/final-lines.txt","att_check":false},"trial_type":"html-keyboard-response","trial_index":298,"time_elapsed":661238,"internal_node_id":"0.0-8.0-3.72","subject":"10615vm8rtupbaq","sona":"7573"},{"rt":372.90000007487833,"stimulus":"<p>Bereit?</p>","key_press":32,"trial_type":"html-keyboard-response","trial_index":299,"time_elapsed":661647,"internal_node_id":"0.0-8.0-0.73","subject":"10615vm8rtupbaq","sona":"7573"},{"rt":null,"stimulus":"<div style=\"font-size:60px;\">+</div>","key_press":null,"trial_type":"html-keyboard-response","trial_index":300,"time_elapsed":663656,"internal_node_id":"0.0-8.0-1.73","subject":"10615vm8rtupbaq","sona":"7573"},{"trial_type":"turing-test","trial_index":301,"time_elapsed":667481,"internal_node_id":"0.0-8.0-2.73","subject":"10615vm8rtupbaq","sona":"7573"},{"rt":960.6449999846518,"stimulus":"<p>Welche Sequenz haben Sie als natürlicher empfunden?</p>","key_press":74,"test_part":"response","test_stimulus":{"position":1,"left":"bvh/vr_prediction_models/model(tmp)-dataset(pass-bottle-hold)-numprim(14)-hold(4)/final-lines.txt","right":"bvh/pass-bottle-hold-training4-lines.txt","att_check":false},"trial_type":"html-keyboard-response","trial_index":302,"time_elapsed":668487,"internal_node_id":"0.0-8.0-3.73","subject":"10615vm8rtupbaq","sona":"7573"},{"rt":244.97499992139637,"stimulus":"<p>Bereit?</p>","key_press":32,"trial_type":"html-keyboard-response","trial_index":303,"time_elapsed":668771,"internal_node_id":"0.0-8.0-0.74","subject":"10615vm8rtupbaq","sona":"7573"},{"rt":null,"stimulus":"<div style=\"font-size:60px;\">+</div>","key_press":null,"trial_type":"html-keyboard-response","trial_index":304,"time_elapsed":670791,"internal_node_id":"0.0-8.0-1.74","subject":"10615vm8rtupbaq","sona":"7573"},{"trial_type":"turing-test","trial_index":305,"time_elapsed":674525,"internal_node_id":"0.0-8.0-2.74","subject":"10615vm8rtupbaq","sona":"7573"},{"rt":438.02499980665743,"stimulus":"<p>Welche Sequenz haben Sie als natürlicher empfunden?</p>","key_press":70,"test_part":"response","test_stimulus":{"position":0,"left":"bvh/pass-bottle-hold-training0-lines.txt","right":"bvh/vr_prediction_models/model(vcgpdm)-dataset(pass-bottle-hold)-mode(ELBO)-parts(1)-dyn(30)-lvm(30)-hold(0)/final-lines.txt","att_check":false},"trial_type":"html-keyboard-response","trial_index":306,"time_elapsed":674991,"internal_node_id":"0.0-8.0-3.74","subject":"10615vm8rtupbaq","sona":"7573"},{"rt":374.0350001025945,"stimulus":"<p>Bereit?</p>","key_press":32,"trial_type":"html-keyboard-response","trial_index":307,"time_elapsed":675400,"internal_node_id":"0.0-8.0-0.75","subject":"10615vm8rtupbaq","sona":"7573"},{"rt":null,"stimulus":"<div style=\"font-size:60px;\">+</div>","key_press":null,"trial_type":"html-keyboard-response","trial_index":308,"time_elapsed":677423,"internal_node_id":"0.0-8.0-1.75","subject":"10615vm8rtupbaq","sona":"7573"},{"trial_type":"turing-test","trial_index":309,"time_elapsed":680931,"internal_node_id":"0.0-8.0-2.75","subject":"10615vm8rtupbaq","sona":"7573"},{"rt":676.1149999219924,"stimulus":"<p>Welche Sequenz haben Sie als natürlicher empfunden?</p>","key_press":74,"test_part":"response","test_stimulus":{"position":1,"left":"bvh/vr_prediction_models/model(dmp)-dataset(pass-bottle-hold)-npsi(20)-hold(2)/final-lines.txt","right":"bvh/pass-bottle-hold-training2-lines.txt","att_check":false},"trial_type":"html-keyboard-response","trial_index":310,"time_elapsed":681623,"internal_node_id":"0.0-8.0-3.75","subject":"10615vm8rtupbaq","sona":"7573"},{"rt":267.45499996468425,"stimulus":"<p>Bereit?</p>","key_press":32,"trial_type":"html-keyboard-response","trial_index":311,"time_elapsed":681930,"internal_node_id":"0.0-8.0-0.76","subject":"10615vm8rtupbaq","sona":"7573"},{"rt":null,"stimulus":"<div style=\"font-size:60px;\">+</div>","key_press":null,"trial_type":"html-keyboard-response","trial_index":312,"time_elapsed":683962,"internal_node_id":"0.0-8.0-1.76","subject":"10615vm8rtupbaq","sona":"7573"},{"trial_type":"turing-test","trial_index":313,"time_elapsed":687709,"internal_node_id":"0.0-8.0-2.76","subject":"10615vm8rtupbaq","sona":"7573"},{"rt":1504.010000033304,"stimulus":"<p>Welche Sequenz haben Sie als natürlicher empfunden?</p>","key_press":74,"test_part":"response","test_stimulus":{"position":1,"left":"bvh/vr_prediction_models/model(vcgpdm)-dataset(pass-bottle-hold)-mode(ELBO)-parts(3)-dyn(15)-lvm(30)-hold(2)/final-lines.txt","right":"bvh/pass-bottle-hold-training2-lines.txt","att_check":false},"trial_type":"html-keyboard-response","trial_index":314,"time_elapsed":689238,"internal_node_id":"0.0-8.0-3.76","subject":"10615vm8rtupbaq","sona":"7573"},{"rt":210.78000008128583,"stimulus":"<p>Bereit?</p>","key_press":32,"trial_type":"html-keyboard-response","trial_index":315,"time_elapsed":689485,"internal_node_id":"0.0-8.0-0.77","subject":"10615vm8rtupbaq","sona":"7573"},{"rt":null,"stimulus":"<div style=\"font-size:60px;\">+</div>","key_press":null,"trial_type":"html-keyboard-response","trial_index":316,"time_elapsed":691509,"internal_node_id":"0.0-8.0-1.77","subject":"10615vm8rtupbaq","sona":"7573"},{"trial_type":"turing-test","trial_index":317,"time_elapsed":694940,"internal_node_id":"0.0-8.0-2.77","subject":"10615vm8rtupbaq","sona":"7573"},{"rt":112.07499983720481,"stimulus":"<p>Welche Sequenz haben Sie als natürlicher empfunden?</p>","key_press":74,"test_part":"response","test_stimulus":{"position":1,"left":"bvh/vr_prediction_models/model(vcgpdm)-dataset(pass-bottle-hold)-mode(ELBO)-parts(3)-dyn(20)-lvm(15)-hold(2)/final-lines.txt","right":"bvh/pass-bottle-hold-training2-lines.txt","att_check":false},"trial_type":"html-keyboard-response","trial_index":318,"time_elapsed":695095,"internal_node_id":"0.0-8.0-3.77","subject":"10615vm8rtupbaq","sona":"7573"},{"rt":376.9150001462549,"stimulus":"<p>Bereit?</p>","key_press":32,"trial_type":"html-keyboard-response","trial_index":319,"time_elapsed":695507,"internal_node_id":"0.0-8.0-0.78","subject":"10615vm8rtupbaq","sona":"7573"},{"rt":null,"stimulus":"<div style=\"font-size:60px;\">+</div>","key_press":null,"trial_type":"html-keyboard-response","trial_index":320,"time_elapsed":697526,"internal_node_id":"0.0-8.0-1.78","subject":"10615vm8rtupbaq","sona":"7573"},{"trial_type":"turing-test","trial_index":321,"time_elapsed":703769,"internal_node_id":"0.0-8.0-2.78","subject":"10615vm8rtupbaq","sona":"7573"},{"rt":807.2299999184906,"stimulus":"<p>Welche Sequenz haben Sie als natürlicher empfunden?</p>","key_press":74,"test_part":"response","test_stimulus":{"position":1,"left":"bvh/vr_prediction_models/model(tmp)-dataset(return-bottle)-numprim(13)-hold(1)/final-lines.txt","right":"bvh/return-bottle-training1-lines.txt","att_check":false},"trial_type":"html-keyboard-response","trial_index":322,"time_elapsed":704613,"internal_node_id":"0.0-8.0-3.78","subject":"10615vm8rtupbaq","sona":"7573"},{"rt":446.94500020705163,"stimulus":"<p>Bereit?</p>","key_press":32,"trial_type":"html-keyboard-response","trial_index":323,"time_elapsed":705093,"internal_node_id":"0.0-8.0-0.79","subject":"10615vm8rtupbaq","sona":"7573"},{"rt":null,"stimulus":"<div style=\"font-size:60px;\">+</div>","key_press":null,"trial_type":"html-keyboard-response","trial_index":324,"time_elapsed":707123,"internal_node_id":"0.0-8.0-1.79","subject":"10615vm8rtupbaq","sona":"7573"},{"trial_type":"turing-test","trial_index":325,"time_elapsed":713334,"internal_node_id":"0.0-8.0-2.79","subject":"10615vm8rtupbaq","sona":"7573"},{"rt":524.5049998629838,"stimulus":"<p>Welche Sequenz haben Sie als natürlicher empfunden?</p>","key_press":70,"test_part":"response","test_stimulus":{"position":0,"left":"bvh/return-bottle-training3-lines.txt","right":"bvh/vr_prediction_models/model(vcgpdm)-dataset(return-bottle)-mode(ELBO)-parts(3)-dyn(10)-lvm(10)-hold(3)/final-lines.txt","att_check":false},"trial_type":"html-keyboard-response","trial_index":326,"time_elapsed":713902,"internal_node_id":"0.0-8.0-3.79","subject":"10615vm8rtupbaq","sona":"7573"},{"rt":11310.25500013493,"responses":"{\"age\":\" 21\",\"gender\":\"weiblich\"}","trial_type":"survey-text","trial_index":327,"time_elapsed":725267,"internal_node_id":"0.0-10.0-0.0","subject":"10615vm8rtupbaq","sona":"7573"},{"rt":87763.58000002801,"responses":"{\"area\":\"Torso und Arme\",\"Q1\":\"Abgehakte bzw. zu steife Bewegung\",\"Q2\":\"Das durch den Raum gleiten des Strichmännchens\"}","trial_type":"survey-text","trial_index":328,"time_elapsed":813099,"internal_node_id":"0.0-10.0-1.0","subject":"10615vm8rtupbaq","sona":"7573"}]