[{"rt":2477.115000001504,"stimulus":"<p>Welcome!<br> Please choose your language to start the experiment in the chosen language.</p><p>Willkommen!<br> Bitte wählen Sie eine Sprache, um das Experiment in der ausgewählten Sprache zu starten</p>","button_pressed":"1","trial_type":"html-button-response","trial_index":0,"time_elapsed":2519,"internal_node_id":"0.0-0.0","subject":"6d12fr3mckb84po","sona":"9220"},{"view_history":"[{\"page_index\":0,\"viewing_time\":8708.910000001197},{\"page_index\":1,\"viewing_time\":3199.8049999965588},{\"page_index\":2,\"viewing_time\":7229.550000003655},{\"page_index\":3,\"viewing_time\":8013.695000001462},{\"page_index\":4,\"viewing_time\":4543.3349999948405}]","rt":31696.179999999003,"trial_type":"instructions","trial_index":1,"time_elapsed":34216,"internal_node_id":"0.0-1.0-0.0","subject":"6d12fr3mckb84po","sona":"9220"},{"rt":4041.270000001532,"stimulus":"<p>Bereit?</p>","key_press":32,"trial_type":"html-keyboard-response","trial_index":2,"time_elapsed":38259,"internal_node_id":"0.0-3.0","subject":"6d12fr3mckb84po","sona":"9220"},{"rt":null,"stimulus":"<div style=\"font-size:60px;\">+</div>","key_press":null,"trial_type":"html-keyboard-response","trial_index":3,"time_elapsed":40285,"internal_node_id":"0.0-4.0","subject":"6d12fr3mckb84po","sona":"9220"},{"trial_type":"training","trial_index":4,"time_elapsed":43705,"internal_node_id":"0.0-5.0","subject":"6d12fr3mckb84po","sona":"9220"},{"rt":407.7800000086427,"stimulus":"<p>Welche Sequenz haben Sie als natürlicher empfunden?</p>","key_press":70,"trial_type":"html-keyboard-response","trial_index":5,"time_elapsed":44116,"internal_node_id":"0.0-6.0","subject":"6d12fr3mckb84po","sona":"9220"},{"rt":5621.984999990673,"stimulus":"<p>Das Experiment startet nun.</p><p><small>Bitte drücken Sie den Knopf, wenn Sie bereit sind.</small></p>","button_pressed":"0","trial_type":"html-button-response","trial_index":6,"time_elapsed":49740,"internal_node_id":"0.0-7.0","subject":"6d12fr3mckb84po","sona":"9220"},{"rt":2552.9200000019046,"stimulus":"<p>Bereit?</p>","key_press":32,"trial_type":"html-keyboard-response","trial_index":7,"time_elapsed":52294,"internal_node_id":"0.0-8.0-0.0","subject":"6d12fr3mckb84po","sona":"9220"},{"rt":null,"stimulus":"<div style=\"font-size:60px;\">+</div>","key_press":null,"trial_type":"html-keyboard-response","trial_index":8,"time_elapsed":54306,"internal_node_id":"0.0-8.0-1.0","subject":"6d12fr3mckb84po","sona":"9220"},{"trial_type":"turing-test","trial_index":9,"time_elapsed":57561,"internal_node_id":"0.0-8.0-2.0","subject":"6d12fr3mckb84po","sona":"9220"},{"rt":2772.7450000093086,"stimulus":"<p>Welche Sequenz haben Sie als natürlicher empfunden?</p>","key_press":70,"test_part":"response","test_stimulus":{"position":0,"left":"bvh/pass-bottle-hold-training1-lines.txt","right":"bvh/vr_prediction_models/model(tmp)-dataset(pass-bottle-hold)-numprim(12)-hold(1)/final-lines.txt","att_check":false},"trial_type":"html-keyboard-response","trial_index":10,"time_elapsed":60338,"internal_node_id":"0.0-8.0-3.0","subject":"6d12fr3mckb84po","sona":"9220"},{"rt":4536.865000001853,"stimulus":"<p>Bereit?</p>","key_press":32,"trial_type":"html-keyboard-response","trial_index":11,"time_elapsed":64879,"internal_node_id":"0.0-8.0-0.1","subject":"6d12fr3mckb84po","sona":"9220"},{"rt":null,"stimulus":"<div style=\"font-size:60px;\">+</div>","key_press":null,"trial_type":"html-keyboard-response","trial_index":12,"time_elapsed":66899,"internal_node_id":"0.0-8.0-1.1","subject":"6d12fr3mckb84po","sona":"9220"},{"trial_type":"turing-test","trial_index":13,"time_elapsed":70628,"internal_node_id":"0.0-8.0-2.1","subject":"6d12fr3mckb84po","sona":"9220"},{"rt":507.0599999889964,"stimulus":"<p>Welche Sequenz haben Sie als natürlicher empfunden?</p>","key_press":70,"test_part":"response","test_stimulus":{"position":1,"left":"bvh/vr_prediction_models/model(dmp)-dataset(pass-bottle-hold)-npsi(90)-hold(4)/final-lines.txt","right":"bvh/pass-bottle-hold-training4-lines.txt","att_check":true},"trial_type":"html-keyboard-response","trial_index":14,"time_elapsed":71142,"internal_node_id":"0.0-8.0-3.1","subject":"6d12fr3mckb84po","sona":"9220"},{"rt":1654.739999998128,"stimulus":"<p>Bereit?</p>","key_press":32,"trial_type":"html-keyboard-response","trial_index":15,"time_elapsed":72801,"internal_node_id":"0.0-8.0-0.2","subject":"6d12fr3mckb84po","sona":"9220"},{"rt":null,"stimulus":"<div style=\"font-size:60px;\">+</div>","key_press":null,"trial_type":"html-keyboard-response","trial_index":16,"time_elapsed":74827,"internal_node_id":"0.0-8.0-1.2","subject":"6d12fr3mckb84po","sona":"9220"},{"trial_type":"turing-test","trial_index":17,"time_elapsed":80358,"internal_node_id":"0.0-8.0-2.2","subject":"6d12fr3mckb84po","sona":"9220"},{"rt":650.4300000087824,"stimulus":"<p>Welche Sequenz haben Sie als natürlicher empfunden?</p>","key_press":74,"test_part":"response","test_stimulus":{"position":1,"left":"bvh/vr_prediction_models/model(dmp)-dataset(pass-bottle)-npsi(60)-hold(1)/final-lines.txt","right":"bvh/pass-bottle-training1-lines.txt","att_check":false},"trial_type":"html-keyboard-response","trial_index":18,"time_elapsed":81017,"internal_node_id":"0.0-8.0-3.2","subject":"6d12fr3mckb84po","sona":"9220"},{"rt":6369.905000014114,"stimulus":"<p>Bereit?</p>","key_press":32,"trial_type":"html-keyboard-response","trial_index":19,"time_elapsed":87390,"internal_node_id":"0.0-8.0-0.3","subject":"6d12fr3mckb84po","sona":"9220"},{"rt":null,"stimulus":"<div style=\"font-size:60px;\">+</div>","key_press":null,"trial_type":"html-keyboard-response","trial_index":20,"time_elapsed":89410,"internal_node_id":"0.0-8.0-1.3","subject":"6d12fr3mckb84po","sona":"9220"},{"trial_type":"turing-test","trial_index":21,"time_elapsed":95172,"internal_node_id":"0.0-8.0-2.3","subject":"6d12fr3mckb84po","sona":"9220"},{"rt":1255.89499999478,"stimulus":"<p>Welche Sequenz haben Sie als natürlicher empfunden?</p>","key_press":74,"test_part":"response","test_stimulus":{"position":1,"left":"bvh/vr_prediction_models/model(vcgpdm)-dataset(return-bottle)-mode(ELBO)-parts(3)-dyn(25)-lvm(30)-hold(0)/final-lines.txt","right":"bvh/return-bottle-training0-lines.txt","att_check":false},"trial_type":"html-keyboard-response","trial_index":22,"time_elapsed":96434,"internal_node_id":"0.0-8.0-3.3","subject":"6d12fr3mckb84po","sona":"9220"},{"rt":891.0449999966659,"stimulus":"<p>Bereit?</p>","key_press":32,"trial_type":"html-keyboard-response","trial_index":23,"time_elapsed":97330,"internal_node_id":"0.0-8.0-0.4","subject":"6d12fr3mckb84po","sona":"9220"},{"rt":null,"stimulus":"<div style=\"font-size:60px;\">+</div>","key_press":null,"trial_type":"html-keyboard-response","trial_index":24,"time_elapsed":99349,"internal_node_id":"0.0-8.0-1.4","subject":"6d12fr3mckb84po","sona":"9220"},{"trial_type":"turing-test","trial_index":25,"time_elapsed":105819,"internal_node_id":"0.0-8.0-2.4","subject":"6d12fr3mckb84po","sona":"9220"},{"rt":630.9150000015507,"stimulus":"<p>Welche Sequenz haben Sie als natürlicher empfunden?</p>","key_press":70,"test_part":"response","test_stimulus":{"position":0,"left":"bvh/return-bottle-training1-lines.txt","right":"bvh/vr_prediction_models/model(vcgpdm)-dataset(return-bottle)-mode(MAP)-parts(3)-hold(1)/final-lines.txt","att_check":false},"trial_type":"html-keyboard-response","trial_index":26,"time_elapsed":106457,"internal_node_id":"0.0-8.0-3.4","subject":"6d12fr3mckb84po","sona":"9220"},{"rt":981.099999989965,"stimulus":"<p>Bereit?</p>","key_press":32,"trial_type":"html-keyboard-response","trial_index":27,"time_elapsed":107443,"internal_node_id":"0.0-8.0-0.5","subject":"6d12fr3mckb84po","sona":"9220"},{"rt":null,"stimulus":"<div style=\"font-size:60px;\">+</div>","key_press":null,"trial_type":"html-keyboard-response","trial_index":28,"time_elapsed":109460,"internal_node_id":"0.0-8.0-1.5","subject":"6d12fr3mckb84po","sona":"9220"},{"trial_type":"turing-test","trial_index":29,"time_elapsed":113130,"internal_node_id":"0.0-8.0-2.5","subject":"6d12fr3mckb84po","sona":"9220"},{"rt":447.5899999961257,"stimulus":"<p>Welche Sequenz haben Sie als natürlicher empfunden?</p>","key_press":70,"test_part":"response","test_stimulus":{"position":0,"left":"bvh/pass-bottle-hold-training0-lines.txt","right":"bvh/vr_prediction_models/model(vcgpdm)-dataset(pass-bottle-hold)-mode(ELBO)-parts(1)-dyn(20)-lvm(30)-hold(0)/final-lines.txt","att_check":false},"trial_type":"html-keyboard-response","trial_index":30,"time_elapsed":113584,"internal_node_id":"0.0-8.0-3.5","subject":"6d12fr3mckb84po","sona":"9220"},{"rt":728.7750000105007,"stimulus":"<p>Bereit?</p>","key_press":32,"trial_type":"html-keyboard-response","trial_index":31,"time_elapsed":114316,"internal_node_id":"0.0-8.0-0.6","subject":"6d12fr3mckb84po","sona":"9220"},{"rt":null,"stimulus":"<div style=\"font-size:60px;\">+</div>","key_press":null,"trial_type":"html-keyboard-response","trial_index":32,"time_elapsed":116332,"internal_node_id":"0.0-8.0-1.6","subject":"6d12fr3mckb84po","sona":"9220"},{"trial_type":"turing-test","trial_index":33,"time_elapsed":122008,"internal_node_id":"0.0-8.0-2.6","subject":"6d12fr3mckb84po","sona":"9220"},{"rt":404.9550000054296,"stimulus":"<p>Welche Sequenz haben Sie als natürlicher empfunden?</p>","key_press":74,"test_part":"response","test_stimulus":{"position":1,"left":"bvh/vr_prediction_models/model(vcgpdm)-dataset(pass-bottle)-mode(ELBO)-parts(1)-dyn(10)-lvm(5)-hold(1)/final-lines.txt","right":"bvh/pass-bottle-training1-lines.txt","att_check":false},"trial_type":"html-keyboard-response","trial_index":34,"time_elapsed":122420,"internal_node_id":"0.0-8.0-3.6","subject":"6d12fr3mckb84po","sona":"9220"},{"rt":845.1650000060908,"stimulus":"<p>Bereit?</p>","key_press":32,"trial_type":"html-keyboard-response","trial_index":35,"time_elapsed":123269,"internal_node_id":"0.0-8.0-0.7","subject":"6d12fr3mckb84po","sona":"9220"},{"rt":null,"stimulus":"<div style=\"font-size:60px;\">+</div>","key_press":null,"trial_type":"html-keyboard-response","trial_index":36,"time_elapsed":125293,"internal_node_id":"0.0-8.0-1.7","subject":"6d12fr3mckb84po","sona":"9220"},{"trial_type":"turing-test","trial_index":37,"time_elapsed":130787,"internal_node_id":"0.0-8.0-2.7","subject":"6d12fr3mckb84po","sona":"9220"},{"rt":408.0600000015693,"stimulus":"<p>Welche Sequenz haben Sie als natürlicher empfunden?</p>","key_press":74,"test_part":"response","test_stimulus":{"position":0,"left":"bvh/return-bottle-hold-training0-lines.txt","right":"bvh/vr_prediction_models/model(vcgpdm)-dataset(return-bottle-hold)-mode(MAP)-parts(3)-hold(0)/final-lines.txt","att_check":false},"trial_type":"html-keyboard-response","trial_index":38,"time_elapsed":131202,"internal_node_id":"0.0-8.0-3.7","subject":"6d12fr3mckb84po","sona":"9220"},{"rt":828.6800000059884,"stimulus":"<p>Bereit?</p>","key_press":32,"trial_type":"html-keyboard-response","trial_index":39,"time_elapsed":132035,"internal_node_id":"0.0-8.0-0.8","subject":"6d12fr3mckb84po","sona":"9220"},{"rt":null,"stimulus":"<div style=\"font-size:60px;\">+</div>","key_press":null,"trial_type":"html-keyboard-response","trial_index":40,"time_elapsed":134045,"internal_node_id":"0.0-8.0-1.8","subject":"6d12fr3mckb84po","sona":"9220"},{"trial_type":"turing-test","trial_index":41,"time_elapsed":139522,"internal_node_id":"0.0-8.0-2.8","subject":"6d12fr3mckb84po","sona":"9220"},{"rt":332.15499999641906,"stimulus":"<p>Welche Sequenz haben Sie als natürlicher empfunden?</p>","key_press":74,"test_part":"response","test_stimulus":{"position":1,"left":"bvh/vr_prediction_models/model(tmp)-dataset(return-bottle)-numprim(14)-hold(0)/final-lines.txt","right":"bvh/return-bottle-training0-lines.txt","att_check":false},"trial_type":"html-keyboard-response","trial_index":42,"time_elapsed":139861,"internal_node_id":"0.0-8.0-3.8","subject":"6d12fr3mckb84po","sona":"9220"},{"rt":837.0399999985239,"stimulus":"<p>Bereit?</p>","key_press":32,"trial_type":"html-keyboard-response","trial_index":43,"time_elapsed":140702,"internal_node_id":"0.0-8.0-0.9","subject":"6d12fr3mckb84po","sona":"9220"},{"rt":null,"stimulus":"<div style=\"font-size:60px;\">+</div>","key_press":null,"trial_type":"html-keyboard-response","trial_index":44,"time_elapsed":142720,"internal_node_id":"0.0-8.0-1.9","subject":"6d12fr3mckb84po","sona":"9220"},{"trial_type":"turing-test","trial_index":45,"time_elapsed":148623,"internal_node_id":"0.0-8.0-2.9","subject":"6d12fr3mckb84po","sona":"9220"},{"rt":702.595000009751,"stimulus":"<p>Welche Sequenz haben Sie als natürlicher empfunden?</p>","key_press":74,"test_part":"response","test_stimulus":{"position":0,"left":"bvh/return-bottle-training4-lines.txt","right":"bvh/vr_prediction_models/model(tmp)-dataset(return-bottle)-numprim(8)-hold(4)/final-lines.txt","att_check":false},"trial_type":"html-keyboard-response","trial_index":46,"time_elapsed":149334,"internal_node_id":"0.0-8.0-3.9","subject":"6d12fr3mckb84po","sona":"9220"},{"rt":649.2900000012014,"stimulus":"<p>Bereit?</p>","key_press":32,"trial_type":"html-keyboard-response","trial_index":47,"time_elapsed":149989,"internal_node_id":"0.0-8.0-0.10","subject":"6d12fr3mckb84po","sona":"9220"},{"rt":null,"stimulus":"<div style=\"font-size:60px;\">+</div>","key_press":null,"trial_type":"html-keyboard-response","trial_index":48,"time_elapsed":152014,"internal_node_id":"0.0-8.0-1.10","subject":"6d12fr3mckb84po","sona":"9220"},{"trial_type":"turing-test","trial_index":49,"time_elapsed":156072,"internal_node_id":"0.0-8.0-2.10","subject":"6d12fr3mckb84po","sona":"9220"},{"rt":493.0700000113575,"stimulus":"<p>Welche Sequenz haben Sie als natürlicher empfunden?</p>","key_press":70,"test_part":"response","test_stimulus":{"position":0,"left":"bvh/return-bottle-hold-training4-lines.txt","right":"bvh/vr_prediction_models/model(vcgpdm)-dataset(return-bottle-hold)-mode(ELBO)-parts(3)-dyn(20)-lvm(20)-hold(4)/final-lines.txt","att_check":false},"trial_type":"html-keyboard-response","trial_index":50,"time_elapsed":156572,"internal_node_id":"0.0-8.0-3.10","subject":"6d12fr3mckb84po","sona":"9220"},{"rt":819.7149999905378,"stimulus":"<p>Bereit?</p>","key_press":32,"trial_type":"html-keyboard-response","trial_index":51,"time_elapsed":157396,"internal_node_id":"0.0-8.0-0.11","subject":"6d12fr3mckb84po","sona":"9220"},{"rt":null,"stimulus":"<div style=\"font-size:60px;\">+</div>","key_press":null,"trial_type":"html-keyboard-response","trial_index":52,"time_elapsed":159412,"internal_node_id":"0.0-8.0-1.11","subject":"6d12fr3mckb84po","sona":"9220"}]