[{"rt":2850,"stimulus":"<p>Welcome!<br> Please choose your language to start the experiment in the chosen language.</p><p>Willkommen!<br> Bitte wählen Sie eine Sprache, um das Experiment in der ausgewählten Sprache zu starten</p>","button_pressed":"1","trial_type":"html-button-response","trial_index":0,"time_elapsed":2865,"internal_node_id":"0.0-0.0","subject":"sxtqrmhd0s892pt","sona":"5560"},{"view_history":"[{\"page_index\":0,\"viewing_time\":1092},{\"page_index\":1,\"viewing_time\":2502},{\"page_index\":2,\"viewing_time\":8419},{\"page_index\":3,\"viewing_time\":6630},{\"page_index\":4,\"viewing_time\":3050}]","rt":21694,"trial_type":"instructions","trial_index":1,"time_elapsed":24563,"internal_node_id":"0.0-1.0-0.0","subject":"sxtqrmhd0s892pt","sona":"5560"},{"rt":2475,"stimulus":"<p>Bereit?</p>","key_press":32,"trial_type":"html-keyboard-response","trial_index":2,"time_elapsed":27044,"internal_node_id":"0.0-3.0","subject":"sxtqrmhd0s892pt","sona":"5560"},{"rt":null,"stimulus":"<div style=\"font-size:60px;\">+</div>","key_press":null,"trial_type":"html-keyboard-response","trial_index":3,"time_elapsed":29053,"internal_node_id":"0.0-4.0","subject":"sxtqrmhd0s892pt","sona":"5560"},{"trial_type":"training","trial_index":4,"time_elapsed":32802,"internal_node_id":"0.0-5.0","subject":"sxtqrmhd0s892pt","sona":"5560"},{"rt":5303,"stimulus":"<p>Welche Sequenz haben Sie als natürlicher empfunden?</p>","key_press":74,"trial_type":"html-keyboard-response","trial_index":5,"time_elapsed":38109,"internal_node_id":"0.0-6.0","subject":"sxtqrmhd0s892pt","sona":"5560"},{"rt":7939,"stimulus":"<p>Das Experiment startet nun.</p><p><small>Bitte drücken Sie den Knopf, wenn Sie bereit sind.</small></p>","button_pressed":"0","trial_type":"html-button-response","trial_index":6,"time_elapsed":46050,"internal_node_id":"0.0-7.0","subject":"sxtqrmhd0s892pt","sona":"5560"},{"rt":1283,"stimulus":"<p>Bereit?</p>","key_press":32,"trial_type":"html-keyboard-response","trial_index":7,"time_elapsed":47339,"internal_node_id":"0.0-8.0-0.0","subject":"sxtqrmhd0s892pt","sona":"5560"},{"rt":null,"stimulus":"<div style=\"font-size:60px;\">+</div>","key_press":null,"trial_type":"html-keyboard-response","trial_index":8,"time_elapsed":49372,"internal_node_id":"0.0-8.0-1.0","subject":"sxtqrmhd0s892pt","sona":"5560"},{"trial_type":"turing-test","trial_index":9,"time_elapsed":52660,"internal_node_id":"0.0-8.0-2.0","subject":"sxtqrmhd0s892pt","sona":"5560"},{"rt":2683,"stimulus":"<p>Welche Sequenz haben Sie als natürlicher empfunden?</p>","key_press":74,"test_part":"response","test_stimulus":{"position":0,"left":"bvh/pass-bottle-hold-training1-lines.txt","right":"bvh/vr_prediction_models/model(dmp)-dataset(pass-bottle-hold)-npsi(50)-hold(1)/final-lines.txt","att_check":false},"trial_type":"html-keyboard-response","trial_index":10,"time_elapsed":55348,"internal_node_id":"0.0-8.0-3.0","subject":"sxtqrmhd0s892pt","sona":"5560"},{"rt":1011,"stimulus":"<p>Bereit?</p>","key_press":32,"trial_type":"html-keyboard-response","trial_index":11,"time_elapsed":56363,"internal_node_id":"0.0-8.0-0.1","subject":"sxtqrmhd0s892pt","sona":"5560"},{"rt":null,"stimulus":"<div style=\"font-size:60px;\">+</div>","key_press":null,"trial_type":"html-keyboard-response","trial_index":12,"time_elapsed":58380,"internal_node_id":"0.0-8.0-1.1","subject":"sxtqrmhd0s892pt","sona":"5560"},{"trial_type":"turing-test","trial_index":13,"time_elapsed":63996,"internal_node_id":"0.0-8.0-2.1","subject":"sxtqrmhd0s892pt","sona":"5560"},{"rt":1505,"stimulus":"<p>Welche Sequenz haben Sie als natürlicher empfunden?</p>","key_press":74,"test_part":"response","test_stimulus":{"position":1,"left":"bvh/vr_prediction_models/model(vcgpdm)-dataset(pass-bottle)-mode(ELBO)-parts(3)-dyn(15)-lvm(30)-hold(1)/final-lines.txt","right":"bvh/pass-bottle-training1-lines.txt","att_check":false},"trial_type":"html-keyboard-response","trial_index":14,"time_elapsed":65505,"internal_node_id":"0.0-8.0-3.1","subject":"sxtqrmhd0s892pt","sona":"5560"},{"rt":1223,"stimulus":"<p>Bereit?</p>","key_press":32,"trial_type":"html-keyboard-response","trial_index":15,"time_elapsed":66732,"internal_node_id":"0.0-8.0-0.2","subject":"sxtqrmhd0s892pt","sona":"5560"},{"rt":null,"stimulus":"<div style=\"font-size:60px;\">+</div>","key_press":null,"trial_type":"html-keyboard-response","trial_index":16,"time_elapsed":68745,"internal_node_id":"0.0-8.0-1.2","subject":"sxtqrmhd0s892pt","sona":"5560"},{"trial_type":"turing-test","trial_index":17,"time_elapsed":72105,"internal_node_id":"0.0-8.0-2.2","subject":"sxtqrmhd0s892pt","sona":"5560"},{"rt":1287,"stimulus":"<p>Welche Sequenz haben Sie als natürlicher empfunden?</p>","key_press":74,"test_part":"response","test_stimulus":{"position":0,"left":"bvh/return-bottle-hold-training1-lines.txt","right":"bvh/vr_prediction_models/model(tmp)-dataset(return-bottle-hold)-numprim(13)-hold(1)/final-lines.txt","att_check":false},"trial_type":"html-keyboard-response","trial_index":18,"time_elapsed":73397,"internal_node_id":"0.0-8.0-3.2","subject":"sxtqrmhd0s892pt","sona":"5560"},{"rt":267,"stimulus":"<p>Bereit?</p>","key_press":32,"trial_type":"html-keyboard-response","trial_index":19,"time_elapsed":73666,"internal_node_id":"0.0-8.0-0.3","subject":"sxtqrmhd0s892pt","sona":"5560"},{"rt":null,"stimulus":"<div style=\"font-size:60px;\">+</div>","key_press":null,"trial_type":"html-keyboard-response","trial_index":20,"time_elapsed":75672,"internal_node_id":"0.0-8.0-1.3","subject":"sxtqrmhd0s892pt","sona":"5560"},{"trial_type":"turing-test","trial_index":21,"time_elapsed":82337,"internal_node_id":"0.0-8.0-2.3","subject":"sxtqrmhd0s892pt","sona":"5560"},{"rt":695,"stimulus":"<p>Welche Sequenz haben Sie als natürlicher empfunden?</p>","key_press":74,"test_part":"response","test_stimulus":{"position":1,"left":"bvh/vr_prediction_models/model(vcgpdm)-dataset(return-bottle)-mode(ELBO)-parts(1)-dyn(10)-lvm(25)-hold(2)/final-lines.txt","right":"bvh/return-bottle-training2-lines.txt","att_check":false},"trial_type":"html-keyboard-response","trial_index":22,"time_elapsed":83036,"internal_node_id":"0.0-8.0-3.3","subject":"sxtqrmhd0s892pt","sona":"5560"},{"rt":524,"stimulus":"<p>Bereit?</p>","key_press":32,"trial_type":"html-keyboard-response","trial_index":23,"time_elapsed":83564,"internal_node_id":"0.0-8.0-0.4","subject":"sxtqrmhd0s892pt","sona":"5560"},{"rt":null,"stimulus":"<div style=\"font-size:60px;\">+</div>","key_press":null,"trial_type":"html-keyboard-response","trial_index":24,"time_elapsed":85587,"internal_node_id":"0.0-8.0-1.4","subject":"sxtqrmhd0s892pt","sona":"5560"},{"trial_type":"turing-test","trial_index":25,"time_elapsed":91106,"internal_node_id":"0.0-8.0-2.4","subject":"sxtqrmhd0s892pt","sona":"5560"},{"rt":542,"stimulus":"<p>Welche Sequenz haben Sie als natürlicher empfunden?</p>","key_press":70,"test_part":"response","test_stimulus":{"position":0,"left":"bvh/pass-bottle-training1-lines.txt","right":"bvh/vr_prediction_models/model(vcgpdm)-dataset(pass-bottle)-mode(ELBO)-parts(3)-dyn(10)-lvm(10)-hold(1)/final-lines.txt","att_check":false},"trial_type":"html-keyboard-response","trial_index":26,"time_elapsed":91651,"internal_node_id":"0.0-8.0-3.4","subject":"sxtqrmhd0s892pt","sona":"5560"},{"rt":311,"stimulus":"<p>Bereit?</p>","key_press":32,"trial_type":"html-keyboard-response","trial_index":27,"time_elapsed":91965,"internal_node_id":"0.0-8.0-0.5","subject":"sxtqrmhd0s892pt","sona":"5560"},{"rt":null,"stimulus":"<div style=\"font-size:60px;\">+</div>","key_press":null,"trial_type":"html-keyboard-response","trial_index":28,"time_elapsed":93977,"internal_node_id":"0.0-8.0-1.5","subject":"sxtqrmhd0s892pt","sona":"5560"},{"trial_type":"turing-test","trial_index":29,"time_elapsed":99422,"internal_node_id":"0.0-8.0-2.5","subject":"sxtqrmhd0s892pt","sona":"5560"},{"rt":422,"stimulus":"<p>Welche Sequenz haben Sie als natürlicher empfunden?</p>","key_press":70,"test_part":"response","test_stimulus":{"position":1,"left":"bvh/vr_prediction_models/model(tmp)-dataset(pass-bottle)-numprim(7)-hold(1)/final-lines.txt","right":"bvh/pass-bottle-training1-lines.txt","att_check":false},"trial_type":"html-keyboard-response","trial_index":30,"time_elapsed":99846,"internal_node_id":"0.0-8.0-3.5","subject":"sxtqrmhd0s892pt","sona":"5560"},{"rt":483,"stimulus":"<p>Bereit?</p>","key_press":32,"trial_type":"html-keyboard-response","trial_index":31,"time_elapsed":100331,"internal_node_id":"0.0-8.0-0.6","subject":"sxtqrmhd0s892pt","sona":"5560"},{"rt":null,"stimulus":"<div style=\"font-size:60px;\">+</div>","key_press":null,"trial_type":"html-keyboard-response","trial_index":32,"time_elapsed":102362,"internal_node_id":"0.0-8.0-1.6","subject":"sxtqrmhd0s892pt","sona":"5560"},{"trial_type":"turing-test","trial_index":33,"time_elapsed":106085,"internal_node_id":"0.0-8.0-2.6","subject":"sxtqrmhd0s892pt","sona":"5560"},{"rt":667,"stimulus":"<p>Welche Sequenz haben Sie als natürlicher empfunden?</p>","key_press":70,"test_part":"response","test_stimulus":{"position":1,"left":"bvh/vr_prediction_models/model(vcgpdm)-dataset(pass-bottle-hold)-mode(MAP)-parts(1)-hold(4)/final-lines.txt","right":"bvh/pass-bottle-hold-training4-lines.txt","att_check":false},"trial_type":"html-keyboard-response","trial_index":34,"time_elapsed":106755,"internal_node_id":"0.0-8.0-3.6","subject":"sxtqrmhd0s892pt","sona":"5560"},{"rt":346,"stimulus":"<p>Bereit?</p>","key_press":32,"trial_type":"html-keyboard-response","trial_index":35,"time_elapsed":107105,"internal_node_id":"0.0-8.0-0.7","subject":"sxtqrmhd0s892pt","sona":"5560"},{"rt":null,"stimulus":"<div style=\"font-size:60px;\">+</div>","key_press":null,"trial_type":"html-keyboard-response","trial_index":36,"time_elapsed":109126,"internal_node_id":"0.0-8.0-1.7","subject":"sxtqrmhd0s892pt","sona":"5560"},{"trial_type":"turing-test","trial_index":37,"time_elapsed":114570,"internal_node_id":"0.0-8.0-2.7","subject":"sxtqrmhd0s892pt","sona":"5560"},{"rt":3270,"stimulus":"<p>Welche Sequenz haben Sie als natürlicher empfunden?</p>","key_press":74,"test_part":"response","test_stimulus":{"position":1,"left":"bvh/vr_prediction_models/model(tmp)-dataset(pass-bottle)-numprim(4)-hold(1)/final-lines.txt","right":"bvh/pass-bottle-training1-lines.txt","att_check":false},"trial_type":"html-keyboard-response","trial_index":38,"time_elapsed":117843,"internal_node_id":"0.0-8.0-3.7","subject":"sxtqrmhd0s892pt","sona":"5560"},{"rt":292,"stimulus":"<p>Bereit?</p>","key_press":32,"trial_type":"html-keyboard-response","trial_index":39,"time_elapsed":118138,"internal_node_id":"0.0-8.0-0.8","subject":"sxtqrmhd0s892pt","sona":"5560"},{"rt":null,"stimulus":"<div style=\"font-size:60px;\">+</div>","key_press":null,"trial_type":"html-keyboard-response","trial_index":40,"time_elapsed":120139,"internal_node_id":"0.0-8.0-1.8","subject":"sxtqrmhd0s892pt","sona":"5560"},{"trial_type":"turing-test","trial_index":41,"time_elapsed":125973,"internal_node_id":"0.0-8.0-2.8","subject":"sxtqrmhd0s892pt","sona":"5560"},{"rt":794,"stimulus":"<p>Welche Sequenz haben Sie als natürlicher empfunden?</p>","key_press":74,"test_part":"response","test_stimulus":{"position":0,"left":"bvh/return-bottle-training4-lines.txt","right":"bvh/vr_prediction_models/model(dmp)-dataset(return-bottle)-npsi(90)-hold(4)/final-lines.txt","att_check":true},"trial_type":"html-keyboard-response","trial_index":42,"time_elapsed":126771,"internal_node_id":"0.0-8.0-3.8","subject":"sxtqrmhd0s892pt","sona":"5560"},{"rt":295,"stimulus":"<p>Bereit?</p>","key_press":32,"trial_type":"html-keyboard-response","trial_index":43,"time_elapsed":127069,"internal_node_id":"0.0-8.0-0.9","subject":"sxtqrmhd0s892pt","sona":"5560"},{"rt":null,"stimulus":"<div style=\"font-size:60px;\">+</div>","key_press":null,"trial_type":"html-keyboard-response","trial_index":44,"time_elapsed":129093,"internal_node_id":"0.0-8.0-1.9","subject":"sxtqrmhd0s892pt","sona":"5560"},{"trial_type":"turing-test","trial_index":45,"time_elapsed":134860,"internal_node_id":"0.0-8.0-2.9","subject":"sxtqrmhd0s892pt","sona":"5560"},{"rt":1818,"stimulus":"<p>Welche Sequenz haben Sie als natürlicher empfunden?</p>","key_press":70,"test_part":"response","test_stimulus":{"position":0,"left":"bvh/return-bottle-training3-lines.txt","right":"bvh/vr_prediction_models/model(tmp)-dataset(return-bottle)-numprim(12)-hold(3)/final-lines.txt","att_check":false},"trial_type":"html-keyboard-response","trial_index":46,"time_elapsed":136683,"internal_node_id":"0.0-8.0-3.9","subject":"sxtqrmhd0s892pt","sona":"5560"},{"rt":525,"stimulus":"<p>Bereit?</p>","key_press":32,"trial_type":"html-keyboard-response","trial_index":47,"time_elapsed":137212,"internal_node_id":"0.0-8.0-0.10","subject":"sxtqrmhd0s892pt","sona":"5560"},{"rt":null,"stimulus":"<div style=\"font-size:60px;\">+</div>","key_press":null,"trial_type":"html-keyboard-response","trial_index":48,"time_elapsed":139221,"internal_node_id":"0.0-8.0-1.10","subject":"sxtqrmhd0s892pt","sona":"5560"},{"trial_type":"turing-test","trial_index":49,"time_elapsed":145883,"internal_node_id":"0.0-8.0-2.10","subject":"sxtqrmhd0s892pt","sona":"5560"},{"rt":486,"stimulus":"<p>Welche Sequenz haben Sie als natürlicher empfunden?</p>","key_press":70,"test_part":"response","test_stimulus":{"position":0,"left":"bvh/return-bottle-training2-lines.txt","right":"bvh/vr_prediction_models/model(vcgpdm)-dataset(return-bottle)-mode(ELBO)-parts(3)-dyn(10)-lvm(25)-hold(2)/final-lines.txt","att_check":false},"trial_type":"html-keyboard-response","trial_index":50,"time_elapsed":146373,"internal_node_id":"0.0-8.0-3.10","subject":"sxtqrmhd0s892pt","sona":"5560"},{"rt":1671,"stimulus":"<p>Bereit?</p>","key_press":32,"trial_type":"html-keyboard-response","trial_index":51,"time_elapsed":148047,"internal_node_id":"0.0-8.0-0.11","subject":"sxtqrmhd0s892pt","sona":"5560"},{"rt":null,"stimulus":"<div style=\"font-size:60px;\">+</div>","key_press":null,"trial_type":"html-keyboard-response","trial_index":52,"time_elapsed":150073,"internal_node_id":"0.0-8.0-1.11","subject":"sxtqrmhd0s892pt","sona":"5560"},{"trial_type":"turing-test","trial_index":53,"time_elapsed":153795,"internal_node_id":"0.0-8.0-2.11","subject":"sxtqrmhd0s892pt","sona":"5560"}]