[{"rt":1987,"stimulus":"<p>Welcome!<br> Please choose your language to start the experiment in the chosen language.</p><p>Willkommen!<br> Bitte wählen Sie eine Sprache um das Experiment in der ausgewählten Sprache zu starten</p>","button_pressed":"1","trial_type":"html-button-response","trial_index":0,"time_elapsed":2009,"internal_node_id":"0.0-0.0","subject":"3vex48aanmwore8","sona":"THNS"},{"view_history":"[{\"page_index\":0,\"viewing_time\":2798},{\"page_index\":1,\"viewing_time\":1316},{\"page_index\":2,\"viewing_time\":4282},{\"page_index\":1,\"viewing_time\":4879},{\"page_index\":2,\"viewing_time\":4157},{\"page_index\":1,\"viewing_time\":44823},{\"page_index\":2,\"viewing_time\":52766},{\"page_index\":3,\"viewing_time\":8015},{\"page_index\":4,\"viewing_time\":1763}]","rt":124800,"trial_type":"instructions","trial_index":1,"time_elapsed":126811,"internal_node_id":"0.0-1.0-0.0","subject":"3vex48aanmwore8","sona":"THNS"},{"rt":3983,"stimulus":"<p>Bereit?</p>","key_press":32,"trial_type":"html-keyboard-response","trial_index":2,"time_elapsed":130798,"internal_node_id":"0.0-3.0","subject":"3vex48aanmwore8","sona":"THNS"},{"rt":null,"stimulus":"<div style=\"font-size:60px;\">+</div>","key_press":null,"trial_type":"html-keyboard-response","trial_index":3,"time_elapsed":132802,"internal_node_id":"0.0-4.0","subject":"3vex48aanmwore8","sona":"THNS"},{"trial_type":"training","trial_index":4,"time_elapsed":136193,"internal_node_id":"0.0-5.0","subject":"3vex48aanmwore8","sona":"THNS"},{"rt":1384,"stimulus":"<p>Welche Sequenz haben Sie als natürlicher empfunden?</p>","key_press":70,"trial_type":"html-keyboard-response","trial_index":5,"time_elapsed":137580,"internal_node_id":"0.0-6.0","subject":"3vex48aanmwore8","sona":"THNS"},{"rt":5505,"stimulus":"<p>Das Experiment startet nun.</p><p><small>Bitte drücken Sie den Knopf, wenn Sie bereit sind.</small></p>","button_pressed":"0","trial_type":"html-button-response","trial_index":6,"time_elapsed":143086,"internal_node_id":"0.0-7.0","subject":"3vex48aanmwore8","sona":"THNS"},{"rt":1851,"stimulus":"<p>Bereit?</p>","key_press":32,"trial_type":"html-keyboard-response","trial_index":7,"time_elapsed":144939,"internal_node_id":"0.0-8.0-0.0","subject":"3vex48aanmwore8","sona":"THNS"},{"rt":null,"stimulus":"<div style=\"font-size:60px;\">+</div>","key_press":null,"trial_type":"html-keyboard-response","trial_index":8,"time_elapsed":146943,"internal_node_id":"0.0-8.0-1.0","subject":"3vex48aanmwore8","sona":"THNS"},{"trial_type":"turing-test","trial_index":9,"time_elapsed":150114,"internal_node_id":"0.0-8.0-2.0","subject":"3vex48aanmwore8","sona":"THNS"},{"rt":1269,"stimulus":"<p>Welche Sequenz haben Sie als natürlicher empfunden?</p>","key_press":70,"test_part":"response","test_stimulus":{"position":0,"left":"bvh/pass-bottle-hold-training1-lines.txt","right":"bvh/vr_prediction_models/model(tmp)-dataset(pass-bottle-hold)-numprim(14)-hold(1)/final-lines.txt","att_check":false},"trial_type":"html-keyboard-response","trial_index":10,"time_elapsed":151386,"internal_node_id":"0.0-8.0-3.0","subject":"3vex48aanmwore8","sona":"THNS"},{"rt":849,"stimulus":"<p>Bereit?</p>","key_press":32,"trial_type":"html-keyboard-response","trial_index":11,"time_elapsed":152238,"internal_node_id":"0.0-8.0-0.1","subject":"3vex48aanmwore8","sona":"THNS"},{"rt":null,"stimulus":"<div style=\"font-size:60px;\">+</div>","key_press":null,"trial_type":"html-keyboard-response","trial_index":12,"time_elapsed":154239,"internal_node_id":"0.0-8.0-1.1","subject":"3vex48aanmwore8","sona":"THNS"},{"trial_type":"turing-test","trial_index":13,"time_elapsed":160429,"internal_node_id":"0.0-8.0-2.1","subject":"3vex48aanmwore8","sona":"THNS"},{"rt":676,"stimulus":"<p>Welche Sequenz haben Sie als natürlicher empfunden?</p>","key_press":74,"test_part":"response","test_stimulus":{"position":1,"left":"bvh/vr_prediction_models/model(vcgpdm)-dataset(pass-bottle)-mode(ELBO)-parts(1)-dyn(15)-lvm(35)-hold(2)/final-lines.txt","right":"bvh/pass-bottle-training2-lines.txt","att_check":false},"trial_type":"html-keyboard-response","trial_index":14,"time_elapsed":161108,"internal_node_id":"0.0-8.0-3.1","subject":"3vex48aanmwore8","sona":"THNS"},{"rt":887,"stimulus":"<p>Bereit?</p>","key_press":32,"trial_type":"html-keyboard-response","trial_index":15,"time_elapsed":161997,"internal_node_id":"0.0-8.0-0.2","subject":"3vex48aanmwore8","sona":"THNS"},{"rt":null,"stimulus":"<div style=\"font-size:60px;\">+</div>","key_press":null,"trial_type":"html-keyboard-response","trial_index":16,"time_elapsed":163999,"internal_node_id":"0.0-8.0-1.2","subject":"3vex48aanmwore8","sona":"THNS"},{"trial_type":"turing-test","trial_index":17,"time_elapsed":167476,"internal_node_id":"0.0-8.0-2.2","subject":"3vex48aanmwore8","sona":"THNS"},{"rt":881,"stimulus":"<p>Welche Sequenz haben Sie als natürlicher empfunden?</p>","key_press":74,"test_part":"response","test_stimulus":{"position":1,"left":"bvh/vr_prediction_models/model(vcgpdm)-dataset(return-bottle-hold)-mode(ELBO)-parts(1)-dyn(30)-lvm(20)-hold(1)/final-lines.txt","right":"bvh/return-bottle-hold-training1-lines.txt","att_check":false},"trial_type":"html-keyboard-response","trial_index":18,"time_elapsed":168360,"internal_node_id":"0.0-8.0-3.2","subject":"3vex48aanmwore8","sona":"THNS"},{"rt":598,"stimulus":"<p>Bereit?</p>","key_press":32,"trial_type":"html-keyboard-response","trial_index":19,"time_elapsed":168960,"internal_node_id":"0.0-8.0-0.3","subject":"3vex48aanmwore8","sona":"THNS"},{"rt":null,"stimulus":"<div style=\"font-size:60px;\">+</div>","key_press":null,"trial_type":"html-keyboard-response","trial_index":20,"time_elapsed":170960,"internal_node_id":"0.0-8.0-1.3","subject":"3vex48aanmwore8","sona":"THNS"},{"trial_type":"turing-test","trial_index":21,"time_elapsed":176755,"internal_node_id":"0.0-8.0-2.3","subject":"3vex48aanmwore8","sona":"THNS"},{"rt":1471,"stimulus":"<p>Welche Sequenz haben Sie als natürlicher empfunden?</p>","key_press":70,"test_part":"response","test_stimulus":{"position":0,"left":"bvh/pass-bottle-training3-lines.txt","right":"bvh/vr_prediction_models/model(dmp)-dataset(pass-bottle)-npsi(60)-hold(3)/final-lines.txt","att_check":false},"trial_type":"html-keyboard-response","trial_index":22,"time_elapsed":178230,"internal_node_id":"0.0-8.0-3.3","subject":"3vex48aanmwore8","sona":"THNS"},{"rt":780,"stimulus":"<p>Bereit?</p>","key_press":32,"trial_type":"html-keyboard-response","trial_index":23,"time_elapsed":179011,"internal_node_id":"0.0-8.0-0.4","subject":"3vex48aanmwore8","sona":"THNS"},{"rt":null,"stimulus":"<div style=\"font-size:60px;\">+</div>","key_press":null,"trial_type":"html-keyboard-response","trial_index":24,"time_elapsed":181013,"internal_node_id":"0.0-8.0-1.4","subject":"3vex48aanmwore8","sona":"THNS"},{"trial_type":"turing-test","trial_index":25,"time_elapsed":186716,"internal_node_id":"0.0-8.0-2.4","subject":"3vex48aanmwore8","sona":"THNS"},{"rt":1024,"stimulus":"<p>Welche Sequenz haben Sie als natürlicher empfunden?</p>","key_press":74,"test_part":"response","test_stimulus":{"position":1,"left":"bvh/vr_prediction_models/model(dmp)-dataset(return-bottle)-npsi(70)-hold(3)/final-lines.txt","right":"bvh/return-bottle-training3-lines.txt","att_check":false},"trial_type":"html-keyboard-response","trial_index":26,"time_elapsed":187743,"internal_node_id":"0.0-8.0-3.4","subject":"3vex48aanmwore8","sona":"THNS"},{"rt":578,"stimulus":"<p>Bereit?</p>","key_press":32,"trial_type":"html-keyboard-response","trial_index":27,"time_elapsed":188322,"internal_node_id":"0.0-8.0-0.5","subject":"3vex48aanmwore8","sona":"THNS"},{"rt":null,"stimulus":"<div style=\"font-size:60px;\">+</div>","key_press":null,"trial_type":"html-keyboard-response","trial_index":28,"time_elapsed":190324,"internal_node_id":"0.0-8.0-1.5","subject":"3vex48aanmwore8","sona":"THNS"},{"trial_type":"turing-test","trial_index":29,"time_elapsed":194091,"internal_node_id":"0.0-8.0-2.5","subject":"3vex48aanmwore8","sona":"THNS"},{"rt":423,"stimulus":"<p>Welche Sequenz haben Sie als natürlicher empfunden?</p>","key_press":74,"test_part":"response","test_stimulus":{"position":1,"left":"bvh/vr_prediction_models/model(vcgpdm)-dataset(return-bottle-hold)-mode(ELBO)-parts(3)-dyn(10)-lvm(30)-hold(3)/final-lines.txt","right":"bvh/return-bottle-hold-training3-lines.txt","att_check":false},"trial_type":"html-keyboard-response","trial_index":30,"time_elapsed":194517,"internal_node_id":"0.0-8.0-3.5","subject":"3vex48aanmwore8","sona":"THNS"},{"rt":716,"stimulus":"<p>Bereit?</p>","key_press":32,"trial_type":"html-keyboard-response","trial_index":31,"time_elapsed":195236,"internal_node_id":"0.0-8.0-0.6","subject":"3vex48aanmwore8","sona":"THNS"},{"rt":null,"stimulus":"<div style=\"font-size:60px;\">+</div>","key_press":null,"trial_type":"html-keyboard-response","trial_index":32,"time_elapsed":197237,"internal_node_id":"0.0-8.0-1.6","subject":"3vex48aanmwore8","sona":"THNS"},{"trial_type":"turing-test","trial_index":33,"time_elapsed":200798,"internal_node_id":"0.0-8.0-2.6","subject":"3vex48aanmwore8","sona":"THNS"},{"rt":2871,"stimulus":"<p>Welche Sequenz haben Sie als natürlicher empfunden?</p>","key_press":70,"test_part":"response","test_stimulus":{"position":0,"left":"bvh/return-bottle-hold-training2-lines.txt","right":"bvh/vr_prediction_models/model(vcgpdm)-dataset(return-bottle-hold)-mode(MAP)-parts(3)-hold(2)/final-lines.txt","att_check":false},"trial_type":"html-keyboard-response","trial_index":34,"time_elapsed":203672,"internal_node_id":"0.0-8.0-3.6","subject":"3vex48aanmwore8","sona":"THNS"},{"rt":419,"stimulus":"<p>Bereit?</p>","key_press":32,"trial_type":"html-keyboard-response","trial_index":35,"time_elapsed":204093,"internal_node_id":"0.0-8.0-0.7","subject":"3vex48aanmwore8","sona":"THNS"},{"rt":null,"stimulus":"<div style=\"font-size:60px;\">+</div>","key_press":null,"trial_type":"html-keyboard-response","trial_index":36,"time_elapsed":206094,"internal_node_id":"0.0-8.0-1.7","subject":"3vex48aanmwore8","sona":"THNS"},{"trial_type":"turing-test","trial_index":37,"time_elapsed":211920,"internal_node_id":"0.0-8.0-2.7","subject":"3vex48aanmwore8","sona":"THNS"},{"rt":1286,"stimulus":"<p>Welche Sequenz haben Sie als natürlicher empfunden?</p>","key_press":70,"test_part":"response","test_stimulus":{"position":0,"left":"bvh/return-bottle-training4-lines.txt","right":"bvh/vr_prediction_models/model(dmp)-dataset(return-bottle)-npsi(100)-hold(4)/final-lines.txt","att_check":false},"trial_type":"html-keyboard-response","trial_index":38,"time_elapsed":213209,"internal_node_id":"0.0-8.0-3.7","subject":"3vex48aanmwore8","sona":"THNS"},{"rt":598,"stimulus":"<p>Bereit?</p>","key_press":32,"trial_type":"html-keyboard-response","trial_index":39,"time_elapsed":213810,"internal_node_id":"0.0-8.0-0.8","subject":"3vex48aanmwore8","sona":"THNS"},{"rt":null,"stimulus":"<div style=\"font-size:60px;\">+</div>","key_press":null,"trial_type":"html-keyboard-response","trial_index":40,"time_elapsed":215812,"internal_node_id":"0.0-8.0-1.8","subject":"3vex48aanmwore8","sona":"THNS"},{"trial_type":"turing-test","trial_index":41,"time_elapsed":219547,"internal_node_id":"0.0-8.0-2.8","subject":"3vex48aanmwore8","sona":"THNS"},{"rt":970,"stimulus":"<p>Welche Sequenz haben Sie als natürlicher empfunden?</p>","key_press":70,"test_part":"response","test_stimulus":{"position":0,"left":"bvh/return-bottle-hold-training4-lines.txt","right":"bvh/vr_prediction_models/model(dmp)-dataset(return-bottle-hold)-npsi(50)-hold(4)/final-lines.txt","att_check":false},"trial_type":"html-keyboard-response","trial_index":42,"time_elapsed":220518,"internal_node_id":"0.0-8.0-3.8","subject":"3vex48aanmwore8","sona":"THNS"},{"rt":532,"stimulus":"<p>Bereit?</p>","key_press":32,"trial_type":"html-keyboard-response","trial_index":43,"time_elapsed":221054,"internal_node_id":"0.0-8.0-0.9","subject":"3vex48aanmwore8","sona":"THNS"},{"rt":null,"stimulus":"<div style=\"font-size:60px;\">+</div>","key_press":null,"trial_type":"html-keyboard-response","trial_index":44,"time_elapsed":223056,"internal_node_id":"0.0-8.0-1.9","subject":"3vex48aanmwore8","sona":"THNS"},{"trial_type":"turing-test","trial_index":45,"time_elapsed":228421,"internal_node_id":"0.0-8.0-2.9","subject":"3vex48aanmwore8","sona":"THNS"},{"rt":1552,"stimulus":"<p>Welche Sequenz haben Sie als natürlicher empfunden?</p>","key_press":74,"test_part":"response","test_stimulus":{"position":1,"left":"bvh/vr_prediction_models/model(tmp)-dataset(return-bottle)-numprim(10)-hold(0)/final-lines.txt","right":"bvh/return-bottle-training0-lines.txt","att_check":false},"trial_type":"html-keyboard-response","trial_index":46,"time_elapsed":229975,"internal_node_id":"0.0-8.0-3.9","subject":"3vex48aanmwore8","sona":"THNS"},{"rt":478,"stimulus":"<p>Bereit?</p>","key_press":32,"trial_type":"html-keyboard-response","trial_index":47,"time_elapsed":230454,"internal_node_id":"0.0-8.0-0.10","subject":"3vex48aanmwore8","sona":"THNS"},{"rt":null,"stimulus":"<div style=\"font-size:60px;\">+</div>","key_press":null,"trial_type":"html-keyboard-response","trial_index":48,"time_elapsed":232457,"internal_node_id":"0.0-8.0-1.10","subject":"3vex48aanmwore8","sona":"THNS"},{"trial_type":"turing-test","trial_index":49,"time_elapsed":236045,"internal_node_id":"0.0-8.0-2.10","subject":"3vex48aanmwore8","sona":"THNS"},{"rt":1764,"stimulus":"<p>Welche Sequenz haben Sie als natürlicher empfunden?</p>","key_press":70,"test_part":"response","test_stimulus":{"position":0,"left":"bvh/pass-bottle-hold-training3-lines.txt","right":"bvh/vr_prediction_models/model(vcgpdm)-dataset(pass-bottle-hold)-mode(ELBO)-parts(3)-dyn(10)-lvm(25)-hold(3)/final-lines.txt","att_check":false},"trial_type":"html-keyboard-response","trial_index":50,"time_elapsed":237809,"internal_node_id":"0.0-8.0-3.10","subject":"3vex48aanmwore8","sona":"THNS"},{"rt":430,"stimulus":"<p>Bereit?</p>","key_press":32,"trial_type":"html-keyboard-response","trial_index":51,"time_elapsed":238242,"internal_node_id":"0.0-8.0-0.11","subject":"3vex48aanmwore8","sona":"THNS"},{"rt":null,"stimulus":"<div style=\"font-size:60px;\">+</div>","key_press":null,"trial_type":"html-keyboard-response","trial_index":52,"time_elapsed":240243,"internal_node_id":"0.0-8.0-1.11","subject":"3vex48aanmwore8","sona":"THNS"},{"trial_type":"turing-test","trial_index":53,"time_elapsed":243505,"internal_node_id":"0.0-8.0-2.11","subject":"3vex48aanmwore8","sona":"THNS"},{"rt":895,"stimulus":"<p>Welche Sequenz haben Sie als natürlicher empfunden?</p>","key_press":70,"test_part":"response","test_stimulus":{"position":1,"left":"bvh/vr_prediction_models/model(dmp)-dataset(pass-bottle-hold)-npsi(100)-hold(0)/final-lines.txt","right":"bvh/pass-bottle-hold-training0-lines.txt","att_check":false},"trial_type":"html-keyboard-response","trial_index":54,"time_elapsed":244401,"internal_node_id":"0.0-8.0-3.11","subject":"3vex48aanmwore8","sona":"THNS"},{"rt":2357,"stimulus":"<p>Bereit?</p>","key_press":32,"trial_type":"html-keyboard-response","trial_index":55,"time_elapsed":246760,"internal_node_id":"0.0-8.0-0.12","subject":"3vex48aanmwore8","sona":"THNS"},{"rt":null,"stimulus":"<div style=\"font-size:60px;\">+</div>","key_press":null,"trial_type":"html-keyboard-response","trial_index":56,"time_elapsed":248762,"internal_node_id":"0.0-8.0-1.12","subject":"3vex48aanmwore8","sona":"THNS"},{"trial_type":"turing-test","trial_index":57,"time_elapsed":254507,"internal_node_id":"0.0-8.0-2.12","subject":"3vex48aanmwore8","sona":"THNS"},{"rt":1449,"stimulus":"<p>Welche Sequenz haben Sie als natürlicher empfunden?</p>","key_press":70,"test_part":"response","test_stimulus":{"position":0,"left":"bvh/pass-bottle-training3-lines.txt","right":"bvh/vr_prediction_models/model(dmp)-dataset(pass-bottle)-npsi(20)-hold(3)/final-lines.txt","att_check":true},"trial_type":"html-keyboard-response","trial_index":58,"time_elapsed":255956,"internal_node_id":"0.0-8.0-3.12","subject":"3vex48aanmwore8","sona":"THNS"},{"rt":421,"stimulus":"<p>Bereit?</p>","key_press":32,"trial_type":"html-keyboard-response","trial_index":59,"time_elapsed":256381,"internal_node_id":"0.0-8.0-0.13","subject":"3vex48aanmwore8","sona":"THNS"},{"rt":null,"stimulus":"<div style=\"font-size:60px;\">+</div>","key_press":null,"trial_type":"html-keyboard-response","trial_index":60,"time_elapsed":258381,"internal_node_id":"0.0-8.0-1.13","subject":"3vex48aanmwore8","sona":"THNS"},{"trial_type":"turing-test","trial_index":61,"time_elapsed":261862,"internal_node_id":"0.0-8.0-2.13","subject":"3vex48aanmwore8","sona":"THNS"},{"rt":918,"stimulus":"<p>Welche Sequenz haben Sie als natürlicher empfunden?</p>","key_press":74,"test_part":"response","test_stimulus":{"position":1,"left":"bvh/vr_prediction_models/model(dmp)-dataset(pass-bottle-hold)-npsi(50)-hold(3)/final-lines.txt","right":"bvh/pass-bottle-hold-training3-lines.txt","att_check":false},"trial_type":"html-keyboard-response","trial_index":62,"time_elapsed":262783,"internal_node_id":"0.0-8.0-3.13","subject":"3vex48aanmwore8","sona":"THNS"},{"rt":419,"stimulus":"<p>Bereit?</p>","key_press":32,"trial_type":"html-keyboard-response","trial_index":63,"time_elapsed":263204,"internal_node_id":"0.0-8.0-0.14","subject":"3vex48aanmwore8","sona":"THNS"},{"rt":null,"stimulus":"<div style=\"font-size:60px;\">+</div>","key_press":null,"trial_type":"html-keyboard-response","trial_index":64,"time_elapsed":265205,"internal_node_id":"0.0-8.0-1.14","subject":"3vex48aanmwore8","sona":"THNS"},{"trial_type":"turing-test","trial_index":65,"time_elapsed":271278,"internal_node_id":"0.0-8.0-2.14","subject":"3vex48aanmwore8","sona":"THNS"},{"rt":31731,"stimulus":"<p>Welche Sequenz haben Sie als natürlicher empfunden?</p>","key_press":70,"test_part":"response","test_stimulus":{"position":0,"left":"bvh/pass-bottle-training2-lines.txt","right":"bvh/vr_prediction_models/model(tmp)-dataset(pass-bottle)-numprim(9)-hold(2)/final-lines.txt","att_check":false},"trial_type":"html-keyboard-response","trial_index":66,"time_elapsed":303011,"internal_node_id":"0.0-8.0-3.14","subject":"3vex48aanmwore8","sona":"THNS"},{"rt":664,"stimulus":"<p>Bereit?</p>","key_press":32,"trial_type":"html-keyboard-response","trial_index":67,"time_elapsed":303676,"internal_node_id":"0.0-8.0-0.15","subject":"3vex48aanmwore8","sona":"THNS"},{"rt":null,"stimulus":"<div style=\"font-size:60px;\">+</div>","key_press":null,"trial_type":"html-keyboard-response","trial_index":68,"time_elapsed":305678,"internal_node_id":"0.0-8.0-1.15","subject":"3vex48aanmwore8","sona":"THNS"},{"trial_type":"turing-test","trial_index":69,"time_elapsed":311714,"internal_node_id":"0.0-8.0-2.15","subject":"3vex48aanmwore8","sona":"THNS"},{"rt":643,"stimulus":"<p>Welche Sequenz haben Sie als natürlicher empfunden?</p>","key_press":70,"test_part":"response","test_stimulus":{"position":0,"left":"bvh/pass-bottle-training2-lines.txt","right":"bvh/vr_prediction_models/model(dmp)-dataset(pass-bottle)-npsi(20)-hold(2)/final-lines.txt","att_check":false},"trial_type":"html-keyboard-response","trial_index":70,"time_elapsed":312358,"internal_node_id":"0.0-8.0-3.15","subject":"3vex48aanmwore8","sona":"THNS"},{"rt":428,"stimulus":"<p>Bereit?</p>","key_press":32,"trial_type":"html-keyboard-response","trial_index":71,"time_elapsed":312790,"internal_node_id":"0.0-8.0-0.16","subject":"3vex48aanmwore8","sona":"THNS"},{"rt":null,"stimulus":"<div style=\"font-size:60px;\">+</div>","key_press":null,"trial_type":"html-keyboard-response","trial_index":72,"time_elapsed":314791,"internal_node_id":"0.0-8.0-1.16","subject":"3vex48aanmwore8","sona":"THNS"},{"trial_type":"turing-test","trial_index":73,"time_elapsed":320914,"internal_node_id":"0.0-8.0-2.16","subject":"3vex48aanmwore8","sona":"THNS"},{"rt":1007,"stimulus":"<p>Welche Sequenz haben Sie als natürlicher empfunden?</p>","key_press":70,"test_part":"response","test_stimulus":{"position":1,"left":"bvh/vr_prediction_models/model(vcgpdm)-dataset(pass-bottle)-mode(ELBO)-parts(3)-dyn(20)-lvm(15)-hold(2)/final-lines.txt","right":"bvh/pass-bottle-training2-lines.txt","att_check":false},"trial_type":"html-keyboard-response","trial_index":74,"time_elapsed":321924,"internal_node_id":"0.0-8.0-3.16","subject":"3vex48aanmwore8","sona":"THNS"},{"rt":3516,"stimulus":"<p>Bereit?</p>","key_press":32,"trial_type":"html-keyboard-response","trial_index":75,"time_elapsed":325442,"internal_node_id":"0.0-8.0-0.17","subject":"3vex48aanmwore8","sona":"THNS"},{"rt":null,"stimulus":"<div style=\"font-size:60px;\">+</div>","key_press":null,"trial_type":"html-keyboard-response","trial_index":76,"time_elapsed":327443,"internal_node_id":"0.0-8.0-1.17","subject":"3vex48aanmwore8","sona":"THNS"},{"trial_type":"turing-test","trial_index":77,"time_elapsed":330743,"internal_node_id":"0.0-8.0-2.17","subject":"3vex48aanmwore8","sona":"THNS"},{"rt":1453,"stimulus":"<p>Welche Sequenz haben Sie als natürlicher empfunden?</p>","key_press":74,"test_part":"response","test_stimulus":{"position":1,"left":"bvh/vr_prediction_models/model(vcgpdm)-dataset(pass-bottle-hold)-mode(ELBO)-parts(1)-dyn(20)-lvm(5)-hold(1)/final-lines.txt","right":"bvh/pass-bottle-hold-training1-lines.txt","att_check":false},"trial_type":"html-keyboard-response","trial_index":78,"time_elapsed":332198,"internal_node_id":"0.0-8.0-3.17","subject":"3vex48aanmwore8","sona":"THNS"},{"rt":483,"stimulus":"<p>Bereit?</p>","key_press":32,"trial_type":"html-keyboard-response","trial_index":79,"time_elapsed":332684,"internal_node_id":"0.0-8.0-0.18","subject":"3vex48aanmwore8","sona":"THNS"},{"rt":null,"stimulus":"<div style=\"font-size:60px;\">+</div>","key_press":null,"trial_type":"html-keyboard-response","trial_index":80,"time_elapsed":334684,"internal_node_id":"0.0-8.0-1.18","subject":"3vex48aanmwore8","sona":"THNS"},{"trial_type":"turing-test","trial_index":81,"time_elapsed":339778,"internal_node_id":"0.0-8.0-2.18","subject":"3vex48aanmwore8","sona":"THNS"},{"rt":90461,"stimulus":"<p>Welche Sequenz haben Sie als natürlicher empfunden?</p>","key_press":70,"test_part":"response","test_stimulus":{"position":1,"left":"bvh/vr_prediction_models/model(dmp)-dataset(return-bottle-hold)-npsi(40)-hold(0)/final-lines.txt","right":"bvh/return-bottle-hold-training0-lines.txt","att_check":true},"trial_type":"html-keyboard-response","trial_index":82,"time_elapsed":430242,"internal_node_id":"0.0-8.0-3.18","subject":"3vex48aanmwore8","sona":"THNS"},{"rt":707,"stimulus":"<p>Bereit?</p>","key_press":32,"trial_type":"html-keyboard-response","trial_index":83,"time_elapsed":430950,"internal_node_id":"0.0-8.0-0.19","subject":"3vex48aanmwore8","sona":"THNS"},{"rt":null,"stimulus":"<div style=\"font-size:60px;\">+</div>","key_press":null,"trial_type":"html-keyboard-response","trial_index":84,"time_elapsed":432952,"internal_node_id":"0.0-8.0-1.19","subject":"3vex48aanmwore8","sona":"THNS"},{"trial_type":"turing-test","trial_index":85,"time_elapsed":439495,"internal_node_id":"0.0-8.0-2.19","subject":"3vex48aanmwore8","sona":"THNS"},{"rt":591,"stimulus":"<p>Welche Sequenz haben Sie als natürlicher empfunden?</p>","key_press":74,"test_part":"response","test_stimulus":{"position":1,"left":"bvh/vr_prediction_models/model(dmp)-dataset(return-bottle)-npsi(50)-hold(2)/final-lines.txt","right":"bvh/return-bottle-training2-lines.txt","att_check":false},"trial_type":"html-keyboard-response","trial_index":86,"time_elapsed":440089,"internal_node_id":"0.0-8.0-3.19","subject":"3vex48aanmwore8","sona":"THNS"},{"rt":407,"stimulus":"<p>Bereit?</p>","key_press":32,"trial_type":"html-keyboard-response","trial_index":87,"time_elapsed":440498,"internal_node_id":"0.0-8.0-0.20","subject":"3vex48aanmwore8","sona":"THNS"},{"rt":null,"stimulus":"<div style=\"font-size:60px;\">+</div>","key_press":null,"trial_type":"html-keyboard-response","trial_index":88,"time_elapsed":442500,"internal_node_id":"0.0-8.0-1.20","subject":"3vex48aanmwore8","sona":"THNS"},{"trial_type":"turing-test","trial_index":89,"time_elapsed":445857,"internal_node_id":"0.0-8.0-2.20","subject":"3vex48aanmwore8","sona":"THNS"},{"rt":746,"stimulus":"<p>Welche Sequenz haben Sie als natürlicher empfunden?</p>","key_press":70,"test_part":"response","test_stimulus":{"position":1,"left":"bvh/vr_prediction_models/model(vcgpdm)-dataset(pass-bottle-hold)-mode(ELBO)-parts(3)-dyn(35)-lvm(20)-hold(0)/final-lines.txt","right":"bvh/pass-bottle-hold-training0-lines.txt","att_check":false},"trial_type":"html-keyboard-response","trial_index":90,"time_elapsed":446606,"internal_node_id":"0.0-8.0-3.20","subject":"3vex48aanmwore8","sona":"THNS"},{"rt":463,"stimulus":"<p>Bereit?</p>","key_press":32,"trial_type":"html-keyboard-response","trial_index":91,"time_elapsed":447071,"internal_node_id":"0.0-8.0-0.21","subject":"3vex48aanmwore8","sona":"THNS"},{"rt":null,"stimulus":"<div style=\"font-size:60px;\">+</div>","key_press":null,"trial_type":"html-keyboard-response","trial_index":92,"time_elapsed":449072,"internal_node_id":"0.0-8.0-1.21","subject":"3vex48aanmwore8","sona":"THNS"},{"trial_type":"turing-test","trial_index":93,"time_elapsed":452414,"internal_node_id":"0.0-8.0-2.21","subject":"3vex48aanmwore8","sona":"THNS"},{"rt":1340,"stimulus":"<p>Welche Sequenz haben Sie als natürlicher empfunden?</p>","key_press":74,"test_part":"response","test_stimulus":{"position":1,"left":"bvh/vr_prediction_models/model(vcgpdm)-dataset(pass-bottle-hold)-mode(ELBO)-parts(1)-dyn(35)-lvm(30)-hold(1)/final-lines.txt","right":"bvh/pass-bottle-hold-training1-lines.txt","att_check":false},"trial_type":"html-keyboard-response","trial_index":94,"time_elapsed":453757,"internal_node_id":"0.0-8.0-3.21","subject":"3vex48aanmwore8","sona":"THNS"},{"rt":309,"stimulus":"<p>Bereit?</p>","key_press":32,"trial_type":"html-keyboard-response","trial_index":95,"time_elapsed":454068,"internal_node_id":"0.0-8.0-0.22","subject":"3vex48aanmwore8","sona":"THNS"},{"rt":null,"stimulus":"<div style=\"font-size:60px;\">+</div>","key_press":null,"trial_type":"html-keyboard-response","trial_index":96,"time_elapsed":456069,"internal_node_id":"0.0-8.0-1.22","subject":"3vex48aanmwore8","sona":"THNS"},{"trial_type":"turing-test","trial_index":97,"time_elapsed":461729,"internal_node_id":"0.0-8.0-2.22","subject":"3vex48aanmwore8","sona":"THNS"},{"rt":973,"stimulus":"<p>Welche Sequenz haben Sie als natürlicher empfunden?</p>","key_press":74,"test_part":"response","test_stimulus":{"position":0,"left":"bvh/return-bottle-training3-lines.txt","right":"bvh/vr_prediction_models/model(tmp)-dataset(return-bottle)-numprim(8)-hold(3)/final-lines.txt","att_check":false},"trial_type":"html-keyboard-response","trial_index":98,"time_elapsed":462704,"internal_node_id":"0.0-8.0-3.22","subject":"3vex48aanmwore8","sona":"THNS"},{"rt":288,"stimulus":"<p>Bereit?</p>","key_press":32,"trial_type":"html-keyboard-response","trial_index":99,"time_elapsed":462996,"internal_node_id":"0.0-8.0-0.23","subject":"3vex48aanmwore8","sona":"THNS"},{"rt":null,"stimulus":"<div style=\"font-size:60px;\">+</div>","key_press":null,"trial_type":"html-keyboard-response","trial_index":100,"time_elapsed":464998,"internal_node_id":"0.0-8.0-1.23","subject":"3vex48aanmwore8","sona":"THNS"},{"trial_type":"turing-test","trial_index":101,"time_elapsed":470725,"internal_node_id":"0.0-8.0-2.23","subject":"3vex48aanmwore8","sona":"THNS"},{"rt":519,"stimulus":"<p>Welche Sequenz haben Sie als natürlicher empfunden?</p>","key_press":74,"test_part":"response","test_stimulus":{"position":0,"left":"bvh/return-bottle-training3-lines.txt","right":"bvh/vr_prediction_models/model(vcgpdm)-dataset(return-bottle)-mode(ELBO)-parts(3)-dyn(25)-lvm(15)-hold(3)/final-lines.txt","att_check":false},"trial_type":"html-keyboard-response","trial_index":102,"time_elapsed":471247,"internal_node_id":"0.0-8.0-3.23","subject":"3vex48aanmwore8","sona":"THNS"},{"rt":958,"stimulus":"<p>Bereit?</p>","key_press":32,"trial_type":"html-keyboard-response","trial_index":103,"time_elapsed":472207,"internal_node_id":"0.0-8.0-0.24","subject":"3vex48aanmwore8","sona":"THNS"},{"rt":null,"stimulus":"<div style=\"font-size:60px;\">+</div>","key_press":null,"trial_type":"html-keyboard-response","trial_index":104,"time_elapsed":474208,"internal_node_id":"0.0-8.0-1.24","subject":"3vex48aanmwore8","sona":"THNS"}]