[{"rt":3515,"stimulus":"<p>Welcome!<br> Please choose your language to start the experiment in the chosen language.</p><p>Willkommen!<br> Bitte wählen Sie eine Sprache, um das Experiment in der ausgewählten Sprache zu starten</p>","button_pressed":"1","trial_type":"html-button-response","trial_index":0,"time_elapsed":3529,"internal_node_id":"0.0-0.0","subject":"ggt4zl8tgu86j2s","sona":"9670"},{"view_history":"[{\"page_index\":0,\"viewing_time\":4996},{\"page_index\":1,\"viewing_time\":2646.000000000002},{\"page_index\":2,\"viewing_time\":4558.999999999998},{\"page_index\":3,\"viewing_time\":5937},{\"page_index\":4,\"viewing_time\":2161}]","rt":20300,"trial_type":"instructions","trial_index":1,"time_elapsed":23831,"internal_node_id":"0.0-1.0-0.0","subject":"ggt4zl8tgu86j2s","sona":"9670"},{"rt":2062,"stimulus":"<p>Bereit?</p>","key_press":32,"trial_type":"html-keyboard-response","trial_index":2,"time_elapsed":25895,"internal_node_id":"0.0-3.0","subject":"ggt4zl8tgu86j2s","sona":"9670"},{"rt":null,"stimulus":"<div style=\"font-size:60px;\">+</div>","key_press":null,"trial_type":"html-keyboard-response","trial_index":3,"time_elapsed":27900,"internal_node_id":"0.0-4.0","subject":"ggt4zl8tgu86j2s","sona":"9670"},{"trial_type":"training","trial_index":4,"time_elapsed":31307,"internal_node_id":"0.0-5.0","subject":"ggt4zl8tgu86j2s","sona":"9670"},{"rt":1904,"stimulus":"<p>Welche Sequenz haben Sie als natürlicher empfunden?</p>","key_press":70,"trial_type":"html-keyboard-response","trial_index":5,"time_elapsed":33213,"internal_node_id":"0.0-6.0","subject":"ggt4zl8tgu86j2s","sona":"9670"},{"rt":5705,"stimulus":"<p>Das Experiment startet nun.</p><p><small>Bitte drücken Sie den Knopf, wenn Sie bereit sind.</small></p>","button_pressed":"0","trial_type":"html-button-response","trial_index":6,"time_elapsed":38919,"internal_node_id":"0.0-7.0","subject":"ggt4zl8tgu86j2s","sona":"9670"},{"rt":1597,"stimulus":"<p>Bereit?</p>","key_press":32,"trial_type":"html-keyboard-response","trial_index":7,"time_elapsed":40516,"internal_node_id":"0.0-8.0-0.0","subject":"ggt4zl8tgu86j2s","sona":"9670"},{"rt":null,"stimulus":"<div style=\"font-size:60px;\">+</div>","key_press":null,"trial_type":"html-keyboard-response","trial_index":8,"time_elapsed":42521,"internal_node_id":"0.0-8.0-1.0","subject":"ggt4zl8tgu86j2s","sona":"9670"},{"trial_type":"turing-test","trial_index":9,"time_elapsed":48378,"internal_node_id":"0.0-8.0-2.0","subject":"ggt4zl8tgu86j2s","sona":"9670"},{"rt":1125.9999999999927,"stimulus":"<p>Welche Sequenz haben Sie als natürlicher empfunden?</p>","key_press":70,"test_part":"response","test_stimulus":{"position":0,"left":"bvh/pass-bottle-training3-lines.txt","right":"bvh/vr_prediction_models/model(vcgpdm)-dataset(pass-bottle)-mode(ELBO)-parts(1)-dyn(10)-lvm(25)-hold(3)/final-lines.txt","att_check":false},"trial_type":"html-keyboard-response","trial_index":10,"time_elapsed":49505,"internal_node_id":"0.0-8.0-3.0","subject":"ggt4zl8tgu86j2s","sona":"9670"},{"rt":1438,"stimulus":"<p>Bereit?</p>","key_press":32,"trial_type":"html-keyboard-response","trial_index":11,"time_elapsed":50945,"internal_node_id":"0.0-8.0-0.1","subject":"ggt4zl8tgu86j2s","sona":"9670"},{"rt":null,"stimulus":"<div style=\"font-size:60px;\">+</div>","key_press":null,"trial_type":"html-keyboard-response","trial_index":12,"time_elapsed":52948,"internal_node_id":"0.0-8.0-1.1","subject":"ggt4zl8tgu86j2s","sona":"9670"},{"trial_type":"turing-test","trial_index":13,"time_elapsed":56812,"internal_node_id":"0.0-8.0-2.1","subject":"ggt4zl8tgu86j2s","sona":"9670"},{"rt":1272,"stimulus":"<p>Welche Sequenz haben Sie als natürlicher empfunden?</p>","key_press":74,"test_part":"response","test_stimulus":{"position":0,"left":"bvh/pass-bottle-hold-training4-lines.txt","right":"bvh/vr_prediction_models/model(vcgpdm)-dataset(pass-bottle-hold)-mode(ELBO)-parts(3)-dyn(10)-lvm(30)-hold(4)/final-lines.txt","att_check":false},"trial_type":"html-keyboard-response","trial_index":14,"time_elapsed":58086,"internal_node_id":"0.0-8.0-3.1","subject":"ggt4zl8tgu86j2s","sona":"9670"},{"rt":2949,"stimulus":"<p>Bereit?</p>","key_press":32,"trial_type":"html-keyboard-response","trial_index":15,"time_elapsed":61036,"internal_node_id":"0.0-8.0-0.2","subject":"ggt4zl8tgu86j2s","sona":"9670"},{"rt":null,"stimulus":"<div style=\"font-size:60px;\">+</div>","key_press":null,"trial_type":"html-keyboard-response","trial_index":16,"time_elapsed":63040,"internal_node_id":"0.0-8.0-1.2","subject":"ggt4zl8tgu86j2s","sona":"9670"},{"trial_type":"turing-test","trial_index":17,"time_elapsed":66676,"internal_node_id":"0.0-8.0-2.2","subject":"ggt4zl8tgu86j2s","sona":"9670"},{"rt":1265,"stimulus":"<p>Welche Sequenz haben Sie als natürlicher empfunden?</p>","key_press":74,"test_part":"response","test_stimulus":{"position":0,"left":"bvh/return-bottle-hold-training4-lines.txt","right":"bvh/vr_prediction_models/model(tmp)-dataset(return-bottle-hold)-numprim(3)-hold(4)/final-lines.txt","att_check":false},"trial_type":"html-keyboard-response","trial_index":18,"time_elapsed":67943,"internal_node_id":"0.0-8.0-3.2","subject":"ggt4zl8tgu86j2s","sona":"9670"},{"rt":1251,"stimulus":"<p>Bereit?</p>","key_press":32,"trial_type":"html-keyboard-response","trial_index":19,"time_elapsed":69196,"internal_node_id":"0.0-8.0-0.3","subject":"ggt4zl8tgu86j2s","sona":"9670"},{"rt":null,"stimulus":"<div style=\"font-size:60px;\">+</div>","key_press":null,"trial_type":"html-keyboard-response","trial_index":20,"time_elapsed":71199,"internal_node_id":"0.0-8.0-1.3","subject":"ggt4zl8tgu86j2s","sona":"9670"},{"trial_type":"turing-test","trial_index":21,"time_elapsed":76898,"internal_node_id":"0.0-8.0-2.3","subject":"ggt4zl8tgu86j2s","sona":"9670"},{"rt":2034,"stimulus":"<p>Welche Sequenz haben Sie als natürlicher empfunden?</p>","key_press":74,"test_part":"response","test_stimulus":{"position":0,"left":"bvh/pass-bottle-training4-lines.txt","right":"bvh/vr_prediction_models/model(tmp)-dataset(pass-bottle)-numprim(14)-hold(4)/final-lines.txt","att_check":false},"trial_type":"html-keyboard-response","trial_index":22,"time_elapsed":78934,"internal_node_id":"0.0-8.0-3.3","subject":"ggt4zl8tgu86j2s","sona":"9670"},{"rt":2069,"stimulus":"<p>Bereit?</p>","key_press":32,"trial_type":"html-keyboard-response","trial_index":23,"time_elapsed":81004,"internal_node_id":"0.0-8.0-0.4","subject":"ggt4zl8tgu86j2s","sona":"9670"},{"rt":null,"stimulus":"<div style=\"font-size:60px;\">+</div>","key_press":null,"trial_type":"html-keyboard-response","trial_index":24,"time_elapsed":83008,"internal_node_id":"0.0-8.0-1.4","subject":"ggt4zl8tgu86j2s","sona":"9670"},{"trial_type":"turing-test","trial_index":25,"time_elapsed":88827,"internal_node_id":"0.0-8.0-2.4","subject":"ggt4zl8tgu86j2s","sona":"9670"},{"rt":1189,"stimulus":"<p>Welche Sequenz haben Sie als natürlicher empfunden?</p>","key_press":74,"test_part":"response","test_stimulus":{"position":1,"left":"bvh/vr_prediction_models/model(vcgpdm)-dataset(pass-bottle)-mode(ELBO)-parts(1)-dyn(30)-lvm(30)-hold(3)/final-lines.txt","right":"bvh/pass-bottle-training3-lines.txt","att_check":false},"trial_type":"html-keyboard-response","trial_index":26,"time_elapsed":90018,"internal_node_id":"0.0-8.0-3.4","subject":"ggt4zl8tgu86j2s","sona":"9670"},{"rt":628,"stimulus":"<p>Bereit?</p>","key_press":32,"trial_type":"html-keyboard-response","trial_index":27,"time_elapsed":90647,"internal_node_id":"0.0-8.0-0.5","subject":"ggt4zl8tgu86j2s","sona":"9670"},{"rt":null,"stimulus":"<div style=\"font-size:60px;\">+</div>","key_press":null,"trial_type":"html-keyboard-response","trial_index":28,"time_elapsed":92650,"internal_node_id":"0.0-8.0-1.5","subject":"ggt4zl8tgu86j2s","sona":"9670"},{"trial_type":"turing-test","trial_index":29,"time_elapsed":99167,"internal_node_id":"0.0-8.0-2.5","subject":"ggt4zl8tgu86j2s","sona":"9670"},{"rt":1162,"stimulus":"<p>Welche Sequenz haben Sie als natürlicher empfunden?</p>","key_press":70,"test_part":"response","test_stimulus":{"position":0,"left":"bvh/return-bottle-training2-lines.txt","right":"bvh/vr_prediction_models/model(tmp)-dataset(return-bottle)-numprim(14)-hold(2)/final-lines.txt","att_check":false},"trial_type":"html-keyboard-response","trial_index":30,"time_elapsed":100330,"internal_node_id":"0.0-8.0-3.5","subject":"ggt4zl8tgu86j2s","sona":"9670"},{"rt":954,"stimulus":"<p>Bereit?</p>","key_press":32,"trial_type":"html-keyboard-response","trial_index":31,"time_elapsed":101285,"internal_node_id":"0.0-8.0-0.6","subject":"ggt4zl8tgu86j2s","sona":"9670"},{"rt":null,"stimulus":"<div style=\"font-size:60px;\">+</div>","key_press":null,"trial_type":"html-keyboard-response","trial_index":32,"time_elapsed":103289,"internal_node_id":"0.0-8.0-1.6","subject":"ggt4zl8tgu86j2s","sona":"9670"},{"trial_type":"turing-test","trial_index":33,"time_elapsed":108412,"internal_node_id":"0.0-8.0-2.6","subject":"ggt4zl8tgu86j2s","sona":"9670"},{"rt":1101,"stimulus":"<p>Welche Sequenz haben Sie als natürlicher empfunden?</p>","key_press":70,"test_part":"response","test_stimulus":{"position":1,"left":"bvh/vr_prediction_models/model(vcgpdm)-dataset(return-bottle-hold)-mode(ELBO)-parts(3)-dyn(20)-lvm(20)-hold(0)/final-lines.txt","right":"bvh/return-bottle-hold-training0-lines.txt","att_check":false},"trial_type":"html-keyboard-response","trial_index":34,"time_elapsed":109515,"internal_node_id":"0.0-8.0-3.6","subject":"ggt4zl8tgu86j2s","sona":"9670"},{"rt":872.9999999999854,"stimulus":"<p>Bereit?</p>","key_press":32,"trial_type":"html-keyboard-response","trial_index":35,"time_elapsed":110388,"internal_node_id":"0.0-8.0-0.7","subject":"ggt4zl8tgu86j2s","sona":"9670"},{"rt":null,"stimulus":"<div style=\"font-size:60px;\">+</div>","key_press":null,"trial_type":"html-keyboard-response","trial_index":36,"time_elapsed":112392,"internal_node_id":"0.0-8.0-1.7","subject":"ggt4zl8tgu86j2s","sona":"9670"},{"trial_type":"turing-test","trial_index":37,"time_elapsed":115777,"internal_node_id":"0.0-8.0-2.7","subject":"ggt4zl8tgu86j2s","sona":"9670"},{"rt":1751,"stimulus":"<p>Welche Sequenz haben Sie als natürlicher empfunden?</p>","key_press":74,"test_part":"response","test_stimulus":{"position":1,"left":"bvh/vr_prediction_models/model(dmp)-dataset(return-bottle-hold)-npsi(20)-hold(2)/final-lines.txt","right":"bvh/return-bottle-hold-training2-lines.txt","att_check":true},"trial_type":"html-keyboard-response","trial_index":38,"time_elapsed":117529,"internal_node_id":"0.0-8.0-3.7","subject":"ggt4zl8tgu86j2s","sona":"9670"},{"rt":893,"stimulus":"<p>Bereit?</p>","key_press":32,"trial_type":"html-keyboard-response","trial_index":39,"time_elapsed":118423,"internal_node_id":"0.0-8.0-0.8","subject":"ggt4zl8tgu86j2s","sona":"9670"},{"rt":null,"stimulus":"<div style=\"font-size:60px;\">+</div>","key_press":null,"trial_type":"html-keyboard-response","trial_index":40,"time_elapsed":120426,"internal_node_id":"0.0-8.0-1.8","subject":"ggt4zl8tgu86j2s","sona":"9670"},{"trial_type":"turing-test","trial_index":41,"time_elapsed":124042,"internal_node_id":"0.0-8.0-2.8","subject":"ggt4zl8tgu86j2s","sona":"9670"},{"rt":723,"stimulus":"<p>Welche Sequenz haben Sie als natürlicher empfunden?</p>","key_press":70,"test_part":"response","test_stimulus":{"position":1,"left":"bvh/vr_prediction_models/model(tmp)-dataset(return-bottle-hold)-numprim(4)-hold(4)/final-lines.txt","right":"bvh/return-bottle-hold-training4-lines.txt","att_check":false},"trial_type":"html-keyboard-response","trial_index":42,"time_elapsed":124767,"internal_node_id":"0.0-8.0-3.8","subject":"ggt4zl8tgu86j2s","sona":"9670"},{"rt":626.9999999999854,"stimulus":"<p>Bereit?</p>","key_press":32,"trial_type":"html-keyboard-response","trial_index":43,"time_elapsed":125396,"internal_node_id":"0.0-8.0-0.9","subject":"ggt4zl8tgu86j2s","sona":"9670"},{"rt":null,"stimulus":"<div style=\"font-size:60px;\">+</div>","key_press":null,"trial_type":"html-keyboard-response","trial_index":44,"time_elapsed":127400,"internal_node_id":"0.0-8.0-1.9","subject":"ggt4zl8tgu86j2s","sona":"9670"},{"trial_type":"turing-test","trial_index":45,"time_elapsed":133185,"internal_node_id":"0.0-8.0-2.9","subject":"ggt4zl8tgu86j2s","sona":"9670"},{"rt":516,"stimulus":"<p>Welche Sequenz haben Sie als natürlicher empfunden?</p>","key_press":70,"test_part":"response","test_stimulus":{"position":1,"left":"bvh/vr_prediction_models/model(vcgpdm)-dataset(pass-bottle)-mode(ELBO)-parts(1)-dyn(30)-lvm(20)-hold(3)/final-lines.txt","right":"bvh/pass-bottle-training3-lines.txt","att_check":false},"trial_type":"html-keyboard-response","trial_index":46,"time_elapsed":133704,"internal_node_id":"0.0-8.0-3.9","subject":"ggt4zl8tgu86j2s","sona":"9670"},{"rt":673,"stimulus":"<p>Bereit?</p>","key_press":32,"trial_type":"html-keyboard-response","trial_index":47,"time_elapsed":134378,"internal_node_id":"0.0-8.0-0.10","subject":"ggt4zl8tgu86j2s","sona":"9670"},{"rt":null,"stimulus":"<div style=\"font-size:60px;\">+</div>","key_press":null,"trial_type":"html-keyboard-response","trial_index":48,"time_elapsed":136381,"internal_node_id":"0.0-8.0-1.10","subject":"ggt4zl8tgu86j2s","sona":"9670"},{"trial_type":"turing-test","trial_index":49,"time_elapsed":139593,"internal_node_id":"0.0-8.0-2.10","subject":"ggt4zl8tgu86j2s","sona":"9670"},{"rt":875,"stimulus":"<p>Welche Sequenz haben Sie als natürlicher empfunden?</p>","key_press":70,"test_part":"response","test_stimulus":{"position":0,"left":"bvh/pass-bottle-hold-training1-lines.txt","right":"bvh/vr_prediction_models/model(vcgpdm)-dataset(pass-bottle-hold)-mode(MAP)-parts(3)-hold(1)/final-lines.txt","att_check":false},"trial_type":"html-keyboard-response","trial_index":50,"time_elapsed":140471,"internal_node_id":"0.0-8.0-3.10","subject":"ggt4zl8tgu86j2s","sona":"9670"},{"rt":580,"stimulus":"<p>Bereit?</p>","key_press":32,"trial_type":"html-keyboard-response","trial_index":51,"time_elapsed":141053,"internal_node_id":"0.0-8.0-0.11","subject":"ggt4zl8tgu86j2s","sona":"9670"},{"rt":null,"stimulus":"<div style=\"font-size:60px;\">+</div>","key_press":null,"trial_type":"html-keyboard-response","trial_index":52,"time_elapsed":143056,"internal_node_id":"0.0-8.0-1.11","subject":"ggt4zl8tgu86j2s","sona":"9670"},{"trial_type":"turing-test","trial_index":53,"time_elapsed":146477,"internal_node_id":"0.0-8.0-2.11","subject":"ggt4zl8tgu86j2s","sona":"9670"}]