[{"rt":1206,"stimulus":"<p>Welcome!<br> Please choose your language to start the experiment in the chosen language.</p><p>Willkommen!<br> Bitte wählen Sie eine Sprache um das Experiment in der ausgewählten Sprache zu starten</p>","button_pressed":"1","trial_type":"html-button-response","trial_index":0,"time_elapsed":1211,"internal_node_id":"0.0-0.0","subject":"bz18s5macfxk74y","sona":"3973"},{"view_history":"[{\"page_index\":0,\"viewing_time\":567},{\"page_index\":1,\"viewing_time\":601},{\"page_index\":2,\"viewing_time\":642},{\"page_index\":3,\"viewing_time\":539}]","rt":2350,"trial_type":"instructions","trial_index":1,"time_elapsed":3563,"internal_node_id":"0.0-1.0-0.0","subject":"bz18s5macfxk74y","sona":"3973"},{"rt":750,"stimulus":"<p>Bereit?</p>","button_pressed":"0","trial_type":"html-button-response","trial_index":2,"time_elapsed":4313,"internal_node_id":"0.0-3.0","subject":"bz18s5macfxk74y","sona":"3973"},{"rt":null,"stimulus":"<div style=\"font-size:60px;\">+</div>","key_press":null,"trial_type":"html-keyboard-response","trial_index":3,"time_elapsed":6316,"internal_node_id":"0.0-4.0","subject":"bz18s5macfxk74y","sona":"3973"},{"trial_type":"training","trial_index":4,"time_elapsed":9554,"internal_node_id":"0.0-5.0","subject":"bz18s5macfxk74y","sona":"3973"},{"rt":706,"stimulus":"<p>Welche Sequenz haben Sie als natürlicher empfunden?</p>","button_pressed":"0","trial_type":"html-button-response","trial_index":5,"time_elapsed":10262,"internal_node_id":"0.0-6.0","subject":"bz18s5macfxk74y","sona":"3973"},{"rt":696,"stimulus":"<p>Das Experiment startet nun.</p><p> Bitte drücken Sie den Knopf, wenn Sie bereit sind.</p>","button_pressed":"0","trial_type":"html-button-response","trial_index":6,"time_elapsed":10961,"internal_node_id":"0.0-7.0","subject":"bz18s5macfxk74y","sona":"3973"},{"rt":680,"stimulus":"<p>Bereit?</p>","button_pressed":"0","trial_type":"html-button-response","trial_index":7,"time_elapsed":11641,"internal_node_id":"0.0-8.0-0.0","subject":"bz18s5macfxk74y","sona":"3973"},{"rt":null,"stimulus":"<div style=\"font-size:60px;\">+</div>","key_press":null,"trial_type":"html-keyboard-response","trial_index":8,"time_elapsed":13644,"internal_node_id":"0.0-8.0-1.0","subject":"bz18s5macfxk74y","sona":"3973"},{"trial_type":"turing-test","trial_index":9,"time_elapsed":17248,"internal_node_id":"0.0-8.0-2.0","subject":"bz18s5macfxk74y","sona":"3973"},{"rt":786,"stimulus":"<p>Welche Sequenz haben Sie als natürlicher empfunden?</p>","button_pressed":"1","test_part":"response","test_stimulus":{"position":1,"left":"bvh/vr_prediction_models/model(dmp)-dataset(pass-bottle-hold)-npsi(50)-hold(4)/final-lines.txt","right":"bvh/pass-bottle-hold-training4-lines.txt","att_check":false},"trial_type":"html-button-response","trial_index":10,"time_elapsed":18038,"internal_node_id":"0.0-8.0-3.0","subject":"bz18s5macfxk74y","sona":"3973"},{"rt":4618,"stimulus":"<p>Bereit?</p>","button_pressed":"0","trial_type":"html-button-response","trial_index":11,"time_elapsed":22660,"internal_node_id":"0.0-8.0-0.1","subject":"bz18s5macfxk74y","sona":"3973"},{"rt":null,"stimulus":"<div style=\"font-size:60px;\">+</div>","key_press":null,"trial_type":"html-keyboard-response","trial_index":12,"time_elapsed":24662,"internal_node_id":"0.0-8.0-1.1","subject":"bz18s5macfxk74y","sona":"3973"},{"trial_type":"turing-test","trial_index":13,"time_elapsed":27974,"internal_node_id":"0.0-8.0-2.1","subject":"bz18s5macfxk74y","sona":"3973"},{"rt":1347,"stimulus":"<p>Welche Sequenz haben Sie als natürlicher empfunden?</p>","button_pressed":"0","test_part":"response","test_stimulus":{"position":0,"left":"bvh/return-bottle-hold-training1-lines.txt","right":"bvh/vr_prediction_models/model(dmp)-dataset(return-bottle-hold)-npsi(90)-hold(1)/final-lines.txt","att_check":true},"trial_type":"html-button-response","trial_index":14,"time_elapsed":29322,"internal_node_id":"0.0-8.0-3.1","subject":"bz18s5macfxk74y","sona":"3973"}]