[{"rt":3082,"stimulus":"<p>Welcome!<br> Please choose your language to start the experiment in the chosen language.</p><p>Willkommen!<br> Bitte wählen Sie eine Sprache, um das Experiment in der ausgewählten Sprache zu starten</p>","button_pressed":"1","trial_type":"html-button-response","trial_index":0,"time_elapsed":3132,"internal_node_id":"0.0-0.0","subject":"j6und1ammcraye6","sona":"7597"},{"view_history":"[{\"page_index\":0,\"viewing_time\":5137},{\"page_index\":1,\"viewing_time\":4150},{\"page_index\":2,\"viewing_time\":5461},{\"page_index\":3,\"viewing_time\":4289},{\"page_index\":4,\"viewing_time\":3416}]","rt":22454,"trial_type":"instructions","trial_index":1,"time_elapsed":25596,"internal_node_id":"0.0-1.0-0.0","subject":"j6und1ammcraye6","sona":"7597"},{"rt":1776,"stimulus":"<p>Bereit?</p>","key_press":32,"trial_type":"html-keyboard-response","trial_index":2,"time_elapsed":27379,"internal_node_id":"0.0-3.0","subject":"j6und1ammcraye6","sona":"7597"},{"rt":null,"stimulus":"<div style=\"font-size:60px;\">+</div>","key_press":null,"trial_type":"html-keyboard-response","trial_index":3,"time_elapsed":29410,"internal_node_id":"0.0-4.0","subject":"j6und1ammcraye6","sona":"7597"},{"trial_type":"training","trial_index":4,"time_elapsed":33178,"internal_node_id":"0.0-5.0","subject":"j6und1ammcraye6","sona":"7597"},{"rt":24,"stimulus":"<p>Welche Sequenz haben Sie als natürlicher empfunden?</p>","key_press":70,"trial_type":"html-keyboard-response","trial_index":5,"time_elapsed":33205,"internal_node_id":"0.0-6.0","subject":"j6und1ammcraye6","sona":"7597"},{"rt":4595,"stimulus":"<p>Das Experiment startet nun.</p><p><small>Bitte drücken Sie den Knopf, wenn Sie bereit sind.</small></p>","button_pressed":"0","trial_type":"html-button-response","trial_index":6,"time_elapsed":37802,"internal_node_id":"0.0-7.0","subject":"j6und1ammcraye6","sona":"7597"},{"rt":1917,"stimulus":"<p>Bereit?</p>","key_press":32,"trial_type":"html-keyboard-response","trial_index":7,"time_elapsed":39726,"internal_node_id":"0.0-8.0-0.0","subject":"j6und1ammcraye6","sona":"7597"},{"rt":null,"stimulus":"<div style=\"font-size:60px;\">+</div>","key_press":null,"trial_type":"html-keyboard-response","trial_index":8,"time_elapsed":41749,"internal_node_id":"0.0-8.0-1.0","subject":"j6und1ammcraye6","sona":"7597"},{"trial_type":"turing-test","trial_index":9,"time_elapsed":48716,"internal_node_id":"0.0-8.0-2.0","subject":"j6und1ammcraye6","sona":"7597"},{"rt":2635,"stimulus":"<p>Welche Sequenz haben Sie als natürlicher empfunden?</p>","key_press":70,"test_part":"response","test_stimulus":{"position":0,"left":"bvh/pass-bottle-training0-lines.txt","right":"bvh/vr_prediction_models/model(dmp)-dataset(pass-bottle)-npsi(70)-hold(0)/final-lines.txt","att_check":false},"trial_type":"html-keyboard-response","trial_index":10,"time_elapsed":51356,"internal_node_id":"0.0-8.0-3.0","subject":"j6und1ammcraye6","sona":"7597"},{"rt":1697,"stimulus":"<p>Bereit?</p>","key_press":32,"trial_type":"html-keyboard-response","trial_index":11,"time_elapsed":53056,"internal_node_id":"0.0-8.0-0.1","subject":"j6und1ammcraye6","sona":"7597"},{"rt":null,"stimulus":"<div style=\"font-size:60px;\">+</div>","key_press":null,"trial_type":"html-keyboard-response","trial_index":12,"time_elapsed":55080,"internal_node_id":"0.0-8.0-1.1","subject":"j6und1ammcraye6","sona":"7597"},{"trial_type":"turing-test","trial_index":13,"time_elapsed":61118,"internal_node_id":"0.0-8.0-2.1","subject":"j6und1ammcraye6","sona":"7597"},{"rt":1403,"stimulus":"<p>Welche Sequenz haben Sie als natürlicher empfunden?</p>","key_press":74,"test_part":"response","test_stimulus":{"position":1,"left":"bvh/vr_prediction_models/model(tmp)-dataset(return-bottle)-numprim(9)-hold(4)/final-lines.txt","right":"bvh/return-bottle-training4-lines.txt","att_check":false},"trial_type":"html-keyboard-response","trial_index":14,"time_elapsed":62525,"internal_node_id":"0.0-8.0-3.1","subject":"j6und1ammcraye6","sona":"7597"},{"rt":4305,"stimulus":"<p>Bereit?</p>","key_press":32,"trial_type":"html-keyboard-response","trial_index":15,"time_elapsed":66834,"internal_node_id":"0.0-8.0-0.2","subject":"j6und1ammcraye6","sona":"7597"},{"rt":null,"stimulus":"<div style=\"font-size:60px;\">+</div>","key_press":null,"trial_type":"html-keyboard-response","trial_index":16,"time_elapsed":68850,"internal_node_id":"0.0-8.0-1.2","subject":"j6und1ammcraye6","sona":"7597"},{"trial_type":"turing-test","trial_index":17,"time_elapsed":72679,"internal_node_id":"0.0-8.0-2.2","subject":"j6und1ammcraye6","sona":"7597"},{"rt":963,"stimulus":"<p>Welche Sequenz haben Sie als natürlicher empfunden?</p>","key_press":74,"test_part":"response","test_stimulus":{"position":1,"left":"bvh/vr_prediction_models/model(tmp)-dataset(pass-bottle-hold)-numprim(7)-hold(3)/final-lines.txt","right":"bvh/pass-bottle-hold-training3-lines.txt","att_check":false},"trial_type":"html-keyboard-response","trial_index":18,"time_elapsed":73647,"internal_node_id":"0.0-8.0-3.2","subject":"j6und1ammcraye6","sona":"7597"},{"rt":863,"stimulus":"<p>Bereit?</p>","key_press":32,"trial_type":"html-keyboard-response","trial_index":19,"time_elapsed":74514,"internal_node_id":"0.0-8.0-0.3","subject":"j6und1ammcraye6","sona":"7597"},{"rt":null,"stimulus":"<div style=\"font-size:60px;\">+</div>","key_press":null,"trial_type":"html-keyboard-response","trial_index":20,"time_elapsed":76539,"internal_node_id":"0.0-8.0-1.3","subject":"j6und1ammcraye6","sona":"7597"},{"trial_type":"turing-test","trial_index":21,"time_elapsed":83465,"internal_node_id":"0.0-8.0-2.3","subject":"j6und1ammcraye6","sona":"7597"},{"rt":650,"stimulus":"<p>Welche Sequenz haben Sie als natürlicher empfunden?</p>","key_press":70,"test_part":"response","test_stimulus":{"position":1,"left":"bvh/vr_prediction_models/model(vcgpdm)-dataset(pass-bottle)-mode(MAP)-parts(1)-hold(0)/final-lines.txt","right":"bvh/pass-bottle-training0-lines.txt","att_check":false},"trial_type":"html-keyboard-response","trial_index":22,"time_elapsed":84120,"internal_node_id":"0.0-8.0-3.3","subject":"j6und1ammcraye6","sona":"7597"},{"rt":2466,"stimulus":"<p>Bereit?</p>","key_press":32,"trial_type":"html-keyboard-response","trial_index":23,"time_elapsed":86587,"internal_node_id":"0.0-8.0-0.4","subject":"j6und1ammcraye6","sona":"7597"},{"rt":null,"stimulus":"<div style=\"font-size:60px;\">+</div>","key_press":null,"trial_type":"html-keyboard-response","trial_index":24,"time_elapsed":88615,"internal_node_id":"0.0-8.0-1.4","subject":"j6und1ammcraye6","sona":"7597"},{"trial_type":"turing-test","trial_index":25,"time_elapsed":94900,"internal_node_id":"0.0-8.0-2.4","subject":"j6und1ammcraye6","sona":"7597"},{"rt":427,"stimulus":"<p>Welche Sequenz haben Sie als natürlicher empfunden?</p>","key_press":70,"test_part":"response","test_stimulus":{"position":0,"left":"bvh/return-bottle-training1-lines.txt","right":"bvh/vr_prediction_models/model(tmp)-dataset(return-bottle)-numprim(14)-hold(1)/final-lines.txt","att_check":false},"trial_type":"html-keyboard-response","trial_index":26,"time_elapsed":95331,"internal_node_id":"0.0-8.0-3.4","subject":"j6und1ammcraye6","sona":"7597"},{"rt":566,"stimulus":"<p>Bereit?</p>","key_press":32,"trial_type":"html-keyboard-response","trial_index":27,"time_elapsed":95902,"internal_node_id":"0.0-8.0-0.5","subject":"j6und1ammcraye6","sona":"7597"},{"rt":null,"stimulus":"<div style=\"font-size:60px;\">+</div>","key_press":null,"trial_type":"html-keyboard-response","trial_index":28,"time_elapsed":97930,"internal_node_id":"0.0-8.0-1.5","subject":"j6und1ammcraye6","sona":"7597"},{"trial_type":"turing-test","trial_index":29,"time_elapsed":104804,"internal_node_id":"0.0-8.0-2.5","subject":"j6und1ammcraye6","sona":"7597"},{"rt":575,"stimulus":"<p>Welche Sequenz haben Sie als natürlicher empfunden?</p>","key_press":70,"test_part":"response","test_stimulus":{"position":1,"left":"bvh/vr_prediction_models/model(vcgpdm)-dataset(return-bottle)-mode(ELBO)-parts(3)-dyn(10)-lvm(30)-hold(2)/final-lines.txt","right":"bvh/return-bottle-training2-lines.txt","att_check":false},"trial_type":"html-keyboard-response","trial_index":30,"time_elapsed":105382,"internal_node_id":"0.0-8.0-3.5","subject":"j6und1ammcraye6","sona":"7597"},{"rt":437,"stimulus":"<p>Bereit?</p>","key_press":32,"trial_type":"html-keyboard-response","trial_index":31,"time_elapsed":105823,"internal_node_id":"0.0-8.0-0.6","subject":"j6und1ammcraye6","sona":"7597"},{"rt":null,"stimulus":"<div style=\"font-size:60px;\">+</div>","key_press":null,"trial_type":"html-keyboard-response","trial_index":32,"time_elapsed":107846,"internal_node_id":"0.0-8.0-1.6","subject":"j6und1ammcraye6","sona":"7597"},{"trial_type":"turing-test","trial_index":33,"time_elapsed":113116,"internal_node_id":"0.0-8.0-2.6","subject":"j6und1ammcraye6","sona":"7597"},{"rt":861,"stimulus":"<p>Welche Sequenz haben Sie als natürlicher empfunden?</p>","key_press":70,"test_part":"response","test_stimulus":{"position":1,"left":"bvh/vr_prediction_models/model(tmp)-dataset(return-bottle-hold)-numprim(4)-hold(0)/final-lines.txt","right":"bvh/return-bottle-hold-training0-lines.txt","att_check":false},"trial_type":"html-keyboard-response","trial_index":34,"time_elapsed":113983,"internal_node_id":"0.0-8.0-3.6","subject":"j6und1ammcraye6","sona":"7597"},{"rt":1146,"stimulus":"<p>Bereit?</p>","key_press":32,"trial_type":"html-keyboard-response","trial_index":35,"time_elapsed":115133,"internal_node_id":"0.0-8.0-0.7","subject":"j6und1ammcraye6","sona":"7597"},{"rt":null,"stimulus":"<div style=\"font-size:60px;\">+</div>","key_press":null,"trial_type":"html-keyboard-response","trial_index":36,"time_elapsed":117156,"internal_node_id":"0.0-8.0-1.7","subject":"j6und1ammcraye6","sona":"7597"},{"trial_type":"turing-test","trial_index":37,"time_elapsed":123918,"internal_node_id":"0.0-8.0-2.7","subject":"j6und1ammcraye6","sona":"7597"},{"rt":529,"stimulus":"<p>Welche Sequenz haben Sie als natürlicher empfunden?</p>","key_press":70,"test_part":"response","test_stimulus":{"position":0,"left":"bvh/return-bottle-training2-lines.txt","right":"bvh/vr_prediction_models/model(vcgpdm)-dataset(return-bottle)-mode(ELBO)-parts(1)-dyn(20)-lvm(30)-hold(2)/final-lines.txt","att_check":false},"trial_type":"html-keyboard-response","trial_index":38,"time_elapsed":124454,"internal_node_id":"0.0-8.0-3.7","subject":"j6und1ammcraye6","sona":"7597"},{"rt":2837,"stimulus":"<p>Bereit?</p>","key_press":32,"trial_type":"html-keyboard-response","trial_index":39,"time_elapsed":127300,"internal_node_id":"0.0-8.0-0.8","subject":"j6und1ammcraye6","sona":"7597"},{"rt":null,"stimulus":"<div style=\"font-size:60px;\">+</div>","key_press":null,"trial_type":"html-keyboard-response","trial_index":40,"time_elapsed":129339,"internal_node_id":"0.0-8.0-1.8","subject":"j6und1ammcraye6","sona":"7597"},{"trial_type":"turing-test","trial_index":41,"time_elapsed":136167,"internal_node_id":"0.0-8.0-2.8","subject":"j6und1ammcraye6","sona":"7597"},{"rt":694,"stimulus":"<p>Welche Sequenz haben Sie als natürlicher empfunden?</p>","key_press":70,"test_part":"response","test_stimulus":{"position":0,"left":"bvh/pass-bottle-training0-lines.txt","right":"bvh/vr_prediction_models/model(dmp)-dataset(pass-bottle)-npsi(60)-hold(0)/final-lines.txt","att_check":false},"trial_type":"html-keyboard-response","trial_index":42,"time_elapsed":136866,"internal_node_id":"0.0-8.0-3.8","subject":"j6und1ammcraye6","sona":"7597"},{"rt":853,"stimulus":"<p>Bereit?</p>","key_press":32,"trial_type":"html-keyboard-response","trial_index":43,"time_elapsed":137728,"internal_node_id":"0.0-8.0-0.9","subject":"j6und1ammcraye6","sona":"7597"},{"rt":null,"stimulus":"<div style=\"font-size:60px;\">+</div>","key_press":null,"trial_type":"html-keyboard-response","trial_index":44,"time_elapsed":139753,"internal_node_id":"0.0-8.0-1.9","subject":"j6und1ammcraye6","sona":"7597"},{"trial_type":"turing-test","trial_index":45,"time_elapsed":146160,"internal_node_id":"0.0-8.0-2.9","subject":"j6und1ammcraye6","sona":"7597"},{"rt":700,"stimulus":"<p>Welche Sequenz haben Sie als natürlicher empfunden?</p>","key_press":70,"test_part":"response","test_stimulus":{"position":0,"left":"bvh/pass-bottle-training2-lines.txt","right":"bvh/vr_prediction_models/model(tmp)-dataset(pass-bottle)-numprim(15)-hold(2)/final-lines.txt","att_check":false},"trial_type":"html-keyboard-response","trial_index":46,"time_elapsed":146867,"internal_node_id":"0.0-8.0-3.9","subject":"j6und1ammcraye6","sona":"7597"},{"rt":544,"stimulus":"<p>Bereit?</p>","key_press":32,"trial_type":"html-keyboard-response","trial_index":47,"time_elapsed":147418,"internal_node_id":"0.0-8.0-0.10","subject":"j6und1ammcraye6","sona":"7597"},{"rt":null,"stimulus":"<div style=\"font-size:60px;\">+</div>","key_press":null,"trial_type":"html-keyboard-response","trial_index":48,"time_elapsed":149441,"internal_node_id":"0.0-8.0-1.10","subject":"j6und1ammcraye6","sona":"7597"},{"trial_type":"turing-test","trial_index":49,"time_elapsed":155319,"internal_node_id":"0.0-8.0-2.10","subject":"j6und1ammcraye6","sona":"7597"},{"rt":431,"stimulus":"<p>Welche Sequenz haben Sie als natürlicher empfunden?</p>","key_press":70,"test_part":"response","test_stimulus":{"position":0,"left":"bvh/return-bottle-training0-lines.txt","right":"bvh/vr_prediction_models/model(vcgpdm)-dataset(return-bottle)-mode(ELBO)-parts(1)-dyn(25)-lvm(35)-hold(0)/final-lines.txt","att_check":false},"trial_type":"html-keyboard-response","trial_index":50,"time_elapsed":155758,"internal_node_id":"0.0-8.0-3.10","subject":"j6und1ammcraye6","sona":"7597"},{"rt":396,"stimulus":"<p>Bereit?</p>","key_press":32,"trial_type":"html-keyboard-response","trial_index":51,"time_elapsed":156159,"internal_node_id":"0.0-8.0-0.11","subject":"j6und1ammcraye6","sona":"7597"},{"rt":null,"stimulus":"<div style=\"font-size:60px;\">+</div>","key_press":null,"trial_type":"html-keyboard-response","trial_index":52,"time_elapsed":158183,"internal_node_id":"0.0-8.0-1.11","subject":"j6und1ammcraye6","sona":"7597"},{"trial_type":"turing-test","trial_index":53,"time_elapsed":161521,"internal_node_id":"0.0-8.0-2.11","subject":"j6und1ammcraye6","sona":"7597"},{"rt":621,"stimulus":"<p>Welche Sequenz haben Sie als natürlicher empfunden?</p>","key_press":70,"test_part":"response","test_stimulus":{"position":1,"left":"bvh/vr_prediction_models/model(tmp)-dataset(pass-bottle-hold)-numprim(9)-hold(1)/final-lines.txt","right":"bvh/pass-bottle-hold-training1-lines.txt","att_check":false},"trial_type":"html-keyboard-response","trial_index":54,"time_elapsed":162148,"internal_node_id":"0.0-8.0-3.11","subject":"j6und1ammcraye6","sona":"7597"},{"rt":485,"stimulus":"<p>Bereit?</p>","key_press":32,"trial_type":"html-keyboard-response","trial_index":55,"time_elapsed":162636,"internal_node_id":"0.0-8.0-0.12","subject":"j6und1ammcraye6","sona":"7597"},{"rt":null,"stimulus":"<div style=\"font-size:60px;\">+</div>","key_press":null,"trial_type":"html-keyboard-response","trial_index":56,"time_elapsed":164671,"internal_node_id":"0.0-8.0-1.12","subject":"j6und1ammcraye6","sona":"7597"},{"trial_type":"turing-test","trial_index":57,"time_elapsed":171642,"internal_node_id":"0.0-8.0-2.12","subject":"j6und1ammcraye6","sona":"7597"},{"rt":1244,"stimulus":"<p>Welche Sequenz haben Sie als natürlicher empfunden?</p>","key_press":70,"test_part":"response","test_stimulus":{"position":1,"left":"bvh/vr_prediction_models/model(vcgpdm)-dataset(pass-bottle)-mode(ELBO)-parts(3)-dyn(10)-lvm(30)-hold(0)/final-lines.txt","right":"bvh/pass-bottle-training0-lines.txt","att_check":false},"trial_type":"html-keyboard-response","trial_index":58,"time_elapsed":172891,"internal_node_id":"0.0-8.0-3.12","subject":"j6und1ammcraye6","sona":"7597"},{"rt":772,"stimulus":"<p>Bereit?</p>","key_press":32,"trial_type":"html-keyboard-response","trial_index":59,"time_elapsed":173670,"internal_node_id":"0.0-8.0-0.13","subject":"j6und1ammcraye6","sona":"7597"},{"rt":null,"stimulus":"<div style=\"font-size:60px;\">+</div>","key_press":null,"trial_type":"html-keyboard-response","trial_index":60,"time_elapsed":175683,"internal_node_id":"0.0-8.0-1.13","subject":"j6und1ammcraye6","sona":"7597"},{"trial_type":"turing-test","trial_index":61,"time_elapsed":181970,"internal_node_id":"0.0-8.0-2.13","subject":"j6und1ammcraye6","sona":"7597"},{"rt":369,"stimulus":"<p>Welche Sequenz haben Sie als natürlicher empfunden?</p>","key_press":70,"test_part":"response","test_stimulus":{"position":0,"left":"bvh/return-bottle-training1-lines.txt","right":"bvh/vr_prediction_models/model(vcgpdm)-dataset(return-bottle)-mode(ELBO)-parts(3)-dyn(30)-lvm(15)-hold(1)/final-lines.txt","att_check":false},"trial_type":"html-keyboard-response","trial_index":62,"time_elapsed":182343,"internal_node_id":"0.0-8.0-3.13","subject":"j6und1ammcraye6","sona":"7597"},{"rt":355,"stimulus":"<p>Bereit?</p>","key_press":32,"trial_type":"html-keyboard-response","trial_index":63,"time_elapsed":182701,"internal_node_id":"0.0-8.0-0.14","subject":"j6und1ammcraye6","sona":"7597"},{"rt":null,"stimulus":"<div style=\"font-size:60px;\">+</div>","key_press":null,"trial_type":"html-keyboard-response","trial_index":64,"time_elapsed":184730,"internal_node_id":"0.0-8.0-1.14","subject":"j6und1ammcraye6","sona":"7597"},{"trial_type":"turing-test","trial_index":65,"time_elapsed":188984,"internal_node_id":"0.0-8.0-2.14","subject":"j6und1ammcraye6","sona":"7597"},{"rt":530,"stimulus":"<p>Welche Sequenz haben Sie als natürlicher empfunden?</p>","key_press":70,"test_part":"response","test_stimulus":{"position":1,"left":"bvh/vr_prediction_models/model(vcgpdm)-dataset(return-bottle-hold)-mode(ELBO)-parts(3)-dyn(15)-lvm(30)-hold(4)/final-lines.txt","right":"bvh/return-bottle-hold-training4-lines.txt","att_check":false},"trial_type":"html-keyboard-response","trial_index":66,"time_elapsed":189529,"internal_node_id":"0.0-8.0-3.14","subject":"j6und1ammcraye6","sona":"7597"},{"rt":315,"stimulus":"<p>Bereit?</p>","key_press":32,"trial_type":"html-keyboard-response","trial_index":67,"time_elapsed":189849,"internal_node_id":"0.0-8.0-0.15","subject":"j6und1ammcraye6","sona":"7597"},{"rt":null,"stimulus":"<div style=\"font-size:60px;\">+</div>","key_press":null,"trial_type":"html-keyboard-response","trial_index":68,"time_elapsed":191865,"internal_node_id":"0.0-8.0-1.15","subject":"j6und1ammcraye6","sona":"7597"},{"trial_type":"turing-test","trial_index":69,"time_elapsed":198198,"internal_node_id":"0.0-8.0-2.15","subject":"j6und1ammcraye6","sona":"7597"},{"rt":947,"stimulus":"<p>Welche Sequenz haben Sie als natürlicher empfunden?</p>","key_press":70,"test_part":"response","test_stimulus":{"position":0,"left":"bvh/return-bottle-training1-lines.txt","right":"bvh/vr_prediction_models/model(vcgpdm)-dataset(return-bottle)-mode(ELBO)-parts(3)-dyn(20)-lvm(15)-hold(1)/final-lines.txt","att_check":false},"trial_type":"html-keyboard-response","trial_index":70,"time_elapsed":199149,"internal_node_id":"0.0-8.0-3.15","subject":"j6und1ammcraye6","sona":"7597"},{"rt":323,"stimulus":"<p>Bereit?</p>","key_press":32,"trial_type":"html-keyboard-response","trial_index":71,"time_elapsed":199477,"internal_node_id":"0.0-8.0-0.16","subject":"j6und1ammcraye6","sona":"7597"},{"rt":null,"stimulus":"<div style=\"font-size:60px;\">+</div>","key_press":null,"trial_type":"html-keyboard-response","trial_index":72,"time_elapsed":201503,"internal_node_id":"0.0-8.0-1.16","subject":"j6und1ammcraye6","sona":"7597"},{"trial_type":"turing-test","trial_index":73,"time_elapsed":205341,"internal_node_id":"0.0-8.0-2.16","subject":"j6und1ammcraye6","sona":"7597"},{"rt":364,"stimulus":"<p>Welche Sequenz haben Sie als natürlicher empfunden?</p>","key_press":70,"test_part":"response","test_stimulus":{"position":0,"left":"bvh/pass-bottle-hold-training3-lines.txt","right":"bvh/vr_prediction_models/model(vcgpdm)-dataset(pass-bottle-hold)-mode(ELBO)-parts(3)-dyn(10)-lvm(25)-hold(3)/final-lines.txt","att_check":false},"trial_type":"html-keyboard-response","trial_index":74,"time_elapsed":205713,"internal_node_id":"0.0-8.0-3.16","subject":"j6und1ammcraye6","sona":"7597"},{"rt":332,"stimulus":"<p>Bereit?</p>","key_press":32,"trial_type":"html-keyboard-response","trial_index":75,"time_elapsed":206051,"internal_node_id":"0.0-8.0-0.17","subject":"j6und1ammcraye6","sona":"7597"},{"rt":null,"stimulus":"<div style=\"font-size:60px;\">+</div>","key_press":null,"trial_type":"html-keyboard-response","trial_index":76,"time_elapsed":208063,"internal_node_id":"0.0-8.0-1.17","subject":"j6und1ammcraye6","sona":"7597"},{"trial_type":"turing-test","trial_index":77,"time_elapsed":212175,"internal_node_id":"0.0-8.0-2.17","subject":"j6und1ammcraye6","sona":"7597"},{"rt":1275,"stimulus":"<p>Welche Sequenz haben Sie als natürlicher empfunden?</p>","key_press":74,"test_part":"response","test_stimulus":{"position":1,"left":"bvh/vr_prediction_models/model(tmp)-dataset(pass-bottle-hold)-numprim(4)-hold(3)/final-lines.txt","right":"bvh/pass-bottle-hold-training3-lines.txt","att_check":false},"trial_type":"html-keyboard-response","trial_index":78,"time_elapsed":213455,"internal_node_id":"0.0-8.0-3.17","subject":"j6und1ammcraye6","sona":"7597"},{"rt":401,"stimulus":"<p>Bereit?</p>","key_press":32,"trial_type":"html-keyboard-response","trial_index":79,"time_elapsed":213860,"internal_node_id":"0.0-8.0-0.18","subject":"j6und1ammcraye6","sona":"7597"},{"rt":null,"stimulus":"<div style=\"font-size:60px;\">+</div>","key_press":null,"trial_type":"html-keyboard-response","trial_index":80,"time_elapsed":215890,"internal_node_id":"0.0-8.0-1.18","subject":"j6und1ammcraye6","sona":"7597"},{"trial_type":"turing-test","trial_index":81,"time_elapsed":221932,"internal_node_id":"0.0-8.0-2.18","subject":"j6und1ammcraye6","sona":"7597"},{"rt":383,"stimulus":"<p>Welche Sequenz haben Sie als natürlicher empfunden?</p>","key_press":70,"test_part":"response","test_stimulus":{"position":0,"left":"bvh/pass-bottle-training4-lines.txt","right":"bvh/vr_prediction_models/model(tmp)-dataset(pass-bottle)-numprim(6)-hold(4)/final-lines.txt","att_check":false},"trial_type":"html-keyboard-response","trial_index":82,"time_elapsed":222340,"internal_node_id":"0.0-8.0-3.18","subject":"j6und1ammcraye6","sona":"7597"},{"rt":321,"stimulus":"<p>Bereit?</p>","key_press":32,"trial_type":"html-keyboard-response","trial_index":83,"time_elapsed":222666,"internal_node_id":"0.0-8.0-0.19","subject":"j6und1ammcraye6","sona":"7597"},{"rt":null,"stimulus":"<div style=\"font-size:60px;\">+</div>","key_press":null,"trial_type":"html-keyboard-response","trial_index":84,"time_elapsed":224692,"internal_node_id":"0.0-8.0-1.19","subject":"j6und1ammcraye6","sona":"7597"},{"trial_type":"turing-test","trial_index":85,"time_elapsed":228602,"internal_node_id":"0.0-8.0-2.19","subject":"j6und1ammcraye6","sona":"7597"},{"rt":283,"stimulus":"<p>Welche Sequenz haben Sie als natürlicher empfunden?</p>","key_press":70,"test_part":"response","test_stimulus":{"position":0,"left":"bvh/return-bottle-hold-training4-lines.txt","right":"bvh/vr_prediction_models/model(dmp)-dataset(return-bottle-hold)-npsi(80)-hold(4)/final-lines.txt","att_check":false},"trial_type":"html-keyboard-response","trial_index":86,"time_elapsed":228890,"internal_node_id":"0.0-8.0-3.19","subject":"j6und1ammcraye6","sona":"7597"},{"rt":341,"stimulus":"<p>Bereit?</p>","key_press":32,"trial_type":"html-keyboard-response","trial_index":87,"time_elapsed":229238,"internal_node_id":"0.0-8.0-0.20","subject":"j6und1ammcraye6","sona":"7597"},{"rt":null,"stimulus":"<div style=\"font-size:60px;\">+</div>","key_press":null,"trial_type":"html-keyboard-response","trial_index":88,"time_elapsed":231261,"internal_node_id":"0.0-8.0-1.20","subject":"j6und1ammcraye6","sona":"7597"},{"trial_type":"turing-test","trial_index":89,"time_elapsed":235737,"internal_node_id":"0.0-8.0-2.20","subject":"j6und1ammcraye6","sona":"7597"},{"rt":571,"stimulus":"<p>Welche Sequenz haben Sie als natürlicher empfunden?</p>","key_press":74,"test_part":"response","test_stimulus":{"position":1,"left":"bvh/vr_prediction_models/model(vcgpdm)-dataset(return-bottle-hold)-mode(ELBO)-parts(3)-dyn(20)-lvm(20)-hold(3)/final-lines.txt","right":"bvh/return-bottle-hold-training3-lines.txt","att_check":false},"trial_type":"html-keyboard-response","trial_index":90,"time_elapsed":236322,"internal_node_id":"0.0-8.0-3.20","subject":"j6und1ammcraye6","sona":"7597"},{"rt":304,"stimulus":"<p>Bereit?</p>","key_press":32,"trial_type":"html-keyboard-response","trial_index":91,"time_elapsed":236632,"internal_node_id":"0.0-8.0-0.21","subject":"j6und1ammcraye6","sona":"7597"},{"rt":null,"stimulus":"<div style=\"font-size:60px;\">+</div>","key_press":null,"trial_type":"html-keyboard-response","trial_index":92,"time_elapsed":238654,"internal_node_id":"0.0-8.0-1.21","subject":"j6und1ammcraye6","sona":"7597"},{"trial_type":"turing-test","trial_index":93,"time_elapsed":242590,"internal_node_id":"0.0-8.0-2.21","subject":"j6und1ammcraye6","sona":"7597"},{"rt":341,"stimulus":"<p>Welche Sequenz haben Sie als natürlicher empfunden?</p>","key_press":70,"test_part":"response","test_stimulus":{"position":0,"left":"bvh/return-bottle-hold-training2-lines.txt","right":"bvh/vr_prediction_models/model(dmp)-dataset(return-bottle-hold)-npsi(90)-hold(2)/final-lines.txt","att_check":false},"trial_type":"html-keyboard-response","trial_index":94,"time_elapsed":242938,"internal_node_id":"0.0-8.0-3.21","subject":"j6und1ammcraye6","sona":"7597"},{"rt":348,"stimulus":"<p>Bereit?</p>","key_press":32,"trial_type":"html-keyboard-response","trial_index":95,"time_elapsed":243291,"internal_node_id":"0.0-8.0-0.22","subject":"j6und1ammcraye6","sona":"7597"},{"rt":null,"stimulus":"<div style=\"font-size:60px;\">+</div>","key_press":null,"trial_type":"html-keyboard-response","trial_index":96,"time_elapsed":245319,"internal_node_id":"0.0-8.0-1.22","subject":"j6und1ammcraye6","sona":"7597"},{"trial_type":"turing-test","trial_index":97,"time_elapsed":252116,"internal_node_id":"0.0-8.0-2.22","subject":"j6und1ammcraye6","sona":"7597"},{"rt":434,"stimulus":"<p>Welche Sequenz haben Sie als natürlicher empfunden?</p>","key_press":70,"test_part":"response","test_stimulus":{"position":0,"left":"bvh/return-bottle-training2-lines.txt","right":"bvh/vr_prediction_models/model(dmp)-dataset(return-bottle)-npsi(50)-hold(2)/final-lines.txt","att_check":true},"trial_type":"html-keyboard-response","trial_index":98,"time_elapsed":252561,"internal_node_id":"0.0-8.0-3.22","subject":"j6und1ammcraye6","sona":"7597"},{"rt":355,"stimulus":"<p>Bereit?</p>","key_press":32,"trial_type":"html-keyboard-response","trial_index":99,"time_elapsed":252925,"internal_node_id":"0.0-8.0-0.23","subject":"j6und1ammcraye6","sona":"7597"},{"rt":null,"stimulus":"<div style=\"font-size:60px;\">+</div>","key_press":null,"trial_type":"html-keyboard-response","trial_index":100,"time_elapsed":254945,"internal_node_id":"0.0-8.0-1.23","subject":"j6und1ammcraye6","sona":"7597"},{"trial_type":"turing-test","trial_index":101,"time_elapsed":259324,"internal_node_id":"0.0-8.0-2.23","subject":"j6und1ammcraye6","sona":"7597"},{"rt":853,"stimulus":"<p>Welche Sequenz haben Sie als natürlicher empfunden?</p>","key_press":70,"test_part":"response","test_stimulus":{"position":0,"left":"bvh/return-bottle-hold-training3-lines.txt","right":"bvh/vr_prediction_models/model(vcgpdm)-dataset(return-bottle-hold)-mode(ELBO)-parts(1)-dyn(30)-lvm(35)-hold(3)/final-lines.txt","att_check":false},"trial_type":"html-keyboard-response","trial_index":102,"time_elapsed":260199,"internal_node_id":"0.0-8.0-3.23","subject":"j6und1ammcraye6","sona":"7597"},{"rt":274,"stimulus":"<p>Bereit?</p>","key_press":32,"trial_type":"html-keyboard-response","trial_index":103,"time_elapsed":260479,"internal_node_id":"0.0-8.0-0.24","subject":"j6und1ammcraye6","sona":"7597"},{"rt":null,"stimulus":"<div style=\"font-size:60px;\">+</div>","key_press":null,"trial_type":"html-keyboard-response","trial_index":104,"time_elapsed":262514,"internal_node_id":"0.0-8.0-1.24","subject":"j6und1ammcraye6","sona":"7597"},{"trial_type":"turing-test","trial_index":105,"time_elapsed":266117,"internal_node_id":"0.0-8.0-2.24","subject":"j6und1ammcraye6","sona":"7597"},{"rt":431,"stimulus":"<p>Welche Sequenz haben Sie als natürlicher empfunden?</p>","key_press":70,"test_part":"response","test_stimulus":{"position":0,"left":"bvh/pass-bottle-hold-training0-lines.txt","right":"bvh/vr_prediction_models/model(tmp)-dataset(pass-bottle-hold)-numprim(9)-hold(0)/final-lines.txt","att_check":false},"trial_type":"html-keyboard-response","trial_index":106,"time_elapsed":266574,"internal_node_id":"0.0-8.0-3.24","subject":"j6und1ammcraye6","sona":"7597"},{"rt":404,"stimulus":"<p>Bereit?</p>","key_press":32,"trial_type":"html-keyboard-response","trial_index":107,"time_elapsed":266991,"internal_node_id":"0.0-8.0-0.25","subject":"j6und1ammcraye6","sona":"7597"},{"rt":null,"stimulus":"<div style=\"font-size:60px;\">+</div>","key_press":null,"trial_type":"html-keyboard-response","trial_index":108,"time_elapsed":269022,"internal_node_id":"0.0-8.0-1.25","subject":"j6und1ammcraye6","sona":"7597"},{"trial_type":"turing-test","trial_index":109,"time_elapsed":275247,"internal_node_id":"0.0-8.0-2.25","subject":"j6und1ammcraye6","sona":"7597"},{"rt":1740,"stimulus":"<p>Welche Sequenz haben Sie als natürlicher empfunden?</p>","key_press":74,"test_part":"response","test_stimulus":{"position":1,"left":"bvh/vr_prediction_models/model(vcgpdm)-dataset(pass-bottle)-mode(MAP)-parts(3)-hold(1)/final-lines.txt","right":"bvh/pass-bottle-training1-lines.txt","att_check":false},"trial_type":"html-keyboard-response","trial_index":110,"time_elapsed":277022,"internal_node_id":"0.0-8.0-3.25","subject":"j6und1ammcraye6","sona":"7597"},{"rt":375,"stimulus":"<p>Bereit?</p>","key_press":32,"trial_type":"html-keyboard-response","trial_index":111,"time_elapsed":277405,"internal_node_id":"0.0-8.0-0.26","subject":"j6und1ammcraye6","sona":"7597"},{"rt":null,"stimulus":"<div style=\"font-size:60px;\">+</div>","key_press":null,"trial_type":"html-keyboard-response","trial_index":112,"time_elapsed":279430,"internal_node_id":"0.0-8.0-1.26","subject":"j6und1ammcraye6","sona":"7597"},{"trial_type":"turing-test","trial_index":113,"time_elapsed":285819,"internal_node_id":"0.0-8.0-2.26","subject":"j6und1ammcraye6","sona":"7597"},{"rt":2695,"stimulus":"<p>Welche Sequenz haben Sie als natürlicher empfunden?</p>","key_press":74,"test_part":"response","test_stimulus":{"position":1,"left":"bvh/vr_prediction_models/model(tmp)-dataset(return-bottle)-numprim(8)-hold(3)/final-lines.txt","right":"bvh/return-bottle-training3-lines.txt","att_check":false},"trial_type":"html-keyboard-response","trial_index":114,"time_elapsed":288532,"internal_node_id":"0.0-8.0-3.26","subject":"j6und1ammcraye6","sona":"7597"},{"rt":621,"stimulus":"<p>Bereit?</p>","key_press":32,"trial_type":"html-keyboard-response","trial_index":115,"time_elapsed":289163,"internal_node_id":"0.0-8.0-0.27","subject":"j6und1ammcraye6","sona":"7597"},{"rt":null,"stimulus":"<div style=\"font-size:60px;\">+</div>","key_press":null,"trial_type":"html-keyboard-response","trial_index":116,"time_elapsed":291170,"internal_node_id":"0.0-8.0-1.27","subject":"j6und1ammcraye6","sona":"7597"},{"trial_type":"turing-test","trial_index":117,"time_elapsed":294992,"internal_node_id":"0.0-8.0-2.27","subject":"j6und1ammcraye6","sona":"7597"},{"rt":1532,"stimulus":"<p>Welche Sequenz haben Sie als natürlicher empfunden?</p>","key_press":70,"test_part":"response","test_stimulus":{"position":0,"left":"bvh/return-bottle-hold-training3-lines.txt","right":"bvh/vr_prediction_models/model(dmp)-dataset(return-bottle-hold)-npsi(40)-hold(3)/final-lines.txt","att_check":false},"trial_type":"html-keyboard-response","trial_index":118,"time_elapsed":296546,"internal_node_id":"0.0-8.0-3.27","subject":"j6und1ammcraye6","sona":"7597"},{"rt":428,"stimulus":"<p>Bereit?</p>","key_press":32,"trial_type":"html-keyboard-response","trial_index":119,"time_elapsed":296979,"internal_node_id":"0.0-8.0-0.28","subject":"j6und1ammcraye6","sona":"7597"},{"rt":null,"stimulus":"<div style=\"font-size:60px;\">+</div>","key_press":null,"trial_type":"html-keyboard-response","trial_index":120,"time_elapsed":299011,"internal_node_id":"0.0-8.0-1.28","subject":"j6und1ammcraye6","sona":"7597"},{"trial_type":"turing-test","trial_index":121,"time_elapsed":302662,"internal_node_id":"0.0-8.0-2.28","subject":"j6und1ammcraye6","sona":"7597"},{"rt":2067,"stimulus":"<p>Welche Sequenz haben Sie als natürlicher empfunden?</p>","key_press":70,"test_part":"response","test_stimulus":{"position":0,"left":"bvh/return-bottle-hold-training2-lines.txt","right":"bvh/vr_prediction_models/model(tmp)-dataset(return-bottle-hold)-numprim(14)-hold(2)/final-lines.txt","att_check":false},"trial_type":"html-keyboard-response","trial_index":122,"time_elapsed":304745,"internal_node_id":"0.0-8.0-3.28","subject":"j6und1ammcraye6","sona":"7597"},{"rt":1703,"stimulus":"<p>Bereit?</p>","key_press":32,"trial_type":"html-keyboard-response","trial_index":123,"time_elapsed":306456,"internal_node_id":"0.0-8.0-0.29","subject":"j6und1ammcraye6","sona":"7597"},{"rt":null,"stimulus":"<div style=\"font-size:60px;\">+</div>","key_press":null,"trial_type":"html-keyboard-response","trial_index":124,"time_elapsed":308492,"internal_node_id":"0.0-8.0-1.29","subject":"j6und1ammcraye6","sona":"7597"},{"trial_type":"turing-test","trial_index":125,"time_elapsed":314937,"internal_node_id":"0.0-8.0-2.29","subject":"j6und1ammcraye6","sona":"7597"},{"rt":721,"stimulus":"<p>Welche Sequenz haben Sie als natürlicher empfunden?</p>","key_press":74,"test_part":"response","test_stimulus":{"position":1,"left":"bvh/vr_prediction_models/model(vcgpdm)-dataset(pass-bottle)-mode(ELBO)-parts(1)-dyn(10)-lvm(25)-hold(2)/final-lines.txt","right":"bvh/pass-bottle-training2-lines.txt","att_check":false},"trial_type":"html-keyboard-response","trial_index":126,"time_elapsed":315688,"internal_node_id":"0.0-8.0-3.29","subject":"j6und1ammcraye6","sona":"7597"},{"rt":448,"stimulus":"<p>Bereit?</p>","key_press":32,"trial_type":"html-keyboard-response","trial_index":127,"time_elapsed":316143,"internal_node_id":"0.0-8.0-0.30","subject":"j6und1ammcraye6","sona":"7597"},{"rt":null,"stimulus":"<div style=\"font-size:60px;\">+</div>","key_press":null,"trial_type":"html-keyboard-response","trial_index":128,"time_elapsed":318173,"internal_node_id":"0.0-8.0-1.30","subject":"j6und1ammcraye6","sona":"7597"},{"trial_type":"turing-test","trial_index":129,"time_elapsed":325412,"internal_node_id":"0.0-8.0-2.30","subject":"j6und1ammcraye6","sona":"7597"},{"rt":452,"stimulus":"<p>Welche Sequenz haben Sie als natürlicher empfunden?</p>","key_press":70,"test_part":"response","test_stimulus":{"position":0,"left":"bvh/pass-bottle-training0-lines.txt","right":"bvh/vr_prediction_models/model(vcgpdm)-dataset(pass-bottle)-mode(ELBO)-parts(3)-dyn(20)-lvm(15)-hold(0)/final-lines.txt","att_check":false},"trial_type":"html-keyboard-response","trial_index":130,"time_elapsed":325882,"internal_node_id":"0.0-8.0-3.30","subject":"j6und1ammcraye6","sona":"7597"},{"rt":594,"stimulus":"<p>Bereit?</p>","key_press":32,"trial_type":"html-keyboard-response","trial_index":131,"time_elapsed":326482,"internal_node_id":"0.0-8.0-0.31","subject":"j6und1ammcraye6","sona":"7597"},{"rt":null,"stimulus":"<div style=\"font-size:60px;\">+</div>","key_press":null,"trial_type":"html-keyboard-response","trial_index":132,"time_elapsed":328503,"internal_node_id":"0.0-8.0-1.31","subject":"j6und1ammcraye6","sona":"7597"},{"trial_type":"turing-test","trial_index":133,"time_elapsed":332438,"internal_node_id":"0.0-8.0-2.31","subject":"j6und1ammcraye6","sona":"7597"},{"rt":909,"stimulus":"<p>Welche Sequenz haben Sie als natürlicher empfunden?</p>","key_press":70,"test_part":"response","test_stimulus":{"position":0,"left":"bvh/return-bottle-hold-training4-lines.txt","right":"bvh/vr_prediction_models/model(tmp)-dataset(return-bottle-hold)-numprim(6)-hold(4)/final-lines.txt","att_check":false},"trial_type":"html-keyboard-response","trial_index":134,"time_elapsed":333380,"internal_node_id":"0.0-8.0-3.31","subject":"j6und1ammcraye6","sona":"7597"},{"rt":301,"stimulus":"<p>Bereit?</p>","key_press":32,"trial_type":"html-keyboard-response","trial_index":135,"time_elapsed":333753,"internal_node_id":"0.0-8.0-0.32","subject":"j6und1ammcraye6","sona":"7597"},{"rt":null,"stimulus":"<div style=\"font-size:60px;\">+</div>","key_press":null,"trial_type":"html-keyboard-response","trial_index":136,"time_elapsed":335775,"internal_node_id":"0.0-8.0-1.32","subject":"j6und1ammcraye6","sona":"7597"},{"trial_type":"turing-test","trial_index":137,"time_elapsed":342470,"internal_node_id":"0.0-8.0-2.32","subject":"j6und1ammcraye6","sona":"7597"},{"rt":1006,"stimulus":"<p>Welche Sequenz haben Sie als natürlicher empfunden?</p>","key_press":70,"test_part":"response","test_stimulus":{"position":0,"left":"bvh/pass-bottle-training4-lines.txt","right":"bvh/vr_prediction_models/model(vcgpdm)-dataset(pass-bottle)-mode(ELBO)-parts(1)-dyn(25)-lvm(35)-hold(4)/final-lines.txt","att_check":false},"trial_type":"html-keyboard-response","trial_index":138,"time_elapsed":343490,"internal_node_id":"0.0-8.0-3.32","subject":"j6und1ammcraye6","sona":"7597"},{"rt":574,"stimulus":"<p>Bereit?</p>","key_press":32,"trial_type":"html-keyboard-response","trial_index":139,"time_elapsed":344070,"internal_node_id":"0.0-8.0-0.33","subject":"j6und1ammcraye6","sona":"7597"},{"rt":null,"stimulus":"<div style=\"font-size:60px;\">+</div>","key_press":null,"trial_type":"html-keyboard-response","trial_index":140,"time_elapsed":346100,"internal_node_id":"0.0-8.0-1.33","subject":"j6und1ammcraye6","sona":"7597"},{"trial_type":"turing-test","trial_index":141,"time_elapsed":352413,"internal_node_id":"0.0-8.0-2.33","subject":"j6und1ammcraye6","sona":"7597"},{"rt":1032,"stimulus":"<p>Welche Sequenz haben Sie als natürlicher empfunden?</p>","key_press":70,"test_part":"response","test_stimulus":{"position":0,"left":"bvh/return-bottle-training1-lines.txt","right":"bvh/vr_prediction_models/model(dmp)-dataset(return-bottle)-npsi(100)-hold(1)/final-lines.txt","att_check":false},"trial_type":"html-keyboard-response","trial_index":142,"time_elapsed":353466,"internal_node_id":"0.0-8.0-3.33","subject":"j6und1ammcraye6","sona":"7597"},{"rt":1314,"stimulus":"<p>Bereit?</p>","key_press":32,"trial_type":"html-keyboard-response","trial_index":143,"time_elapsed":354786,"internal_node_id":"0.0-8.0-0.34","subject":"j6und1ammcraye6","sona":"7597"},{"rt":null,"stimulus":"<div style=\"font-size:60px;\">+</div>","key_press":null,"trial_type":"html-keyboard-response","trial_index":144,"time_elapsed":356812,"internal_node_id":"0.0-8.0-1.34","subject":"j6und1ammcraye6","sona":"7597"},{"trial_type":"turing-test","trial_index":145,"time_elapsed":363329,"internal_node_id":"0.0-8.0-2.34","subject":"j6und1ammcraye6","sona":"7597"},{"rt":1505,"stimulus":"<p>Welche Sequenz haben Sie als natürlicher empfunden?</p>","key_press":70,"test_part":"response","test_stimulus":{"position":0,"left":"bvh/return-bottle-training1-lines.txt","right":"bvh/vr_prediction_models/model(vcgpdm)-dataset(return-bottle)-mode(ELBO)-parts(1)-dyn(25)-lvm(35)-hold(1)/final-lines.txt","att_check":false},"trial_type":"html-keyboard-response","trial_index":146,"time_elapsed":364860,"internal_node_id":"0.0-8.0-3.34","subject":"j6und1ammcraye6","sona":"7597"},{"rt":357,"stimulus":"<p>Bereit?</p>","key_press":32,"trial_type":"html-keyboard-response","trial_index":147,"time_elapsed":365223,"internal_node_id":"0.0-8.0-0.35","subject":"j6und1ammcraye6","sona":"7597"},{"rt":null,"stimulus":"<div style=\"font-size:60px;\">+</div>","key_press":null,"trial_type":"html-keyboard-response","trial_index":148,"time_elapsed":367243,"internal_node_id":"0.0-8.0-1.35","subject":"j6und1ammcraye6","sona":"7597"},{"trial_type":"turing-test","trial_index":149,"time_elapsed":376000,"internal_node_id":"0.0-8.0-2.35","subject":"j6und1ammcraye6","sona":"7597"},{"rt":1275,"stimulus":"<p>Welche Sequenz haben Sie als natürlicher empfunden?</p>","key_press":70,"test_part":"response","test_stimulus":{"position":1,"left":"bvh/vr_prediction_models/model(tmp)-dataset(pass-bottle)-numprim(9)-hold(0)/final-lines.txt","right":"bvh/pass-bottle-training0-lines.txt","att_check":false},"trial_type":"html-keyboard-response","trial_index":150,"time_elapsed":378351,"internal_node_id":"0.0-8.0-3.35","subject":"j6und1ammcraye6","sona":"7597"},{"rt":614,"stimulus":"<p>Bereit?</p>","key_press":32,"trial_type":"html-keyboard-response","trial_index":151,"time_elapsed":378976,"internal_node_id":"0.0-8.0-0.36","subject":"j6und1ammcraye6","sona":"7597"},{"rt":null,"stimulus":"<div style=\"font-size:60px;\">+</div>","key_press":null,"trial_type":"html-keyboard-response","trial_index":152,"time_elapsed":381008,"internal_node_id":"0.0-8.0-1.36","subject":"j6und1ammcraye6","sona":"7597"},{"trial_type":"turing-test","trial_index":153,"time_elapsed":388235,"internal_node_id":"0.0-8.0-2.36","subject":"j6und1ammcraye6","sona":"7597"},{"rt":945,"stimulus":"<p>Welche Sequenz haben Sie als natürlicher empfunden?</p>","key_press":74,"test_part":"response","test_stimulus":{"position":1,"left":"bvh/vr_prediction_models/model(dmp)-dataset(return-bottle)-npsi(40)-hold(1)/final-lines.txt","right":"bvh/return-bottle-training1-lines.txt","att_check":false},"trial_type":"html-keyboard-response","trial_index":154,"time_elapsed":389201,"internal_node_id":"0.0-8.0-3.36","subject":"j6und1ammcraye6","sona":"7597"},{"rt":402,"stimulus":"<p>Bereit?</p>","key_press":32,"trial_type":"html-keyboard-response","trial_index":155,"time_elapsed":389610,"internal_node_id":"0.0-8.0-0.37","subject":"j6und1ammcraye6","sona":"7597"},{"rt":null,"stimulus":"<div style=\"font-size:60px;\">+</div>","key_press":null,"trial_type":"html-keyboard-response","trial_index":156,"time_elapsed":391642,"internal_node_id":"0.0-8.0-1.37","subject":"j6und1ammcraye6","sona":"7597"},{"trial_type":"turing-test","trial_index":157,"time_elapsed":399152,"internal_node_id":"0.0-8.0-2.37","subject":"j6und1ammcraye6","sona":"7597"},{"rt":955,"stimulus":"<p>Welche Sequenz haben Sie als natürlicher empfunden?</p>","key_press":74,"test_part":"response","test_stimulus":{"position":1,"left":"bvh/vr_prediction_models/model(vcgpdm)-dataset(pass-bottle)-mode(ELBO)-parts(1)-dyn(10)-lvm(25)-hold(2)/final-lines.txt","right":"bvh/pass-bottle-training2-lines.txt","att_check":false},"trial_type":"html-keyboard-response","trial_index":158,"time_elapsed":400128,"internal_node_id":"0.0-8.0-3.37","subject":"j6und1ammcraye6","sona":"7597"},{"rt":425,"stimulus":"<p>Bereit?</p>","key_press":32,"trial_type":"html-keyboard-response","trial_index":159,"time_elapsed":400562,"internal_node_id":"0.0-8.0-0.38","subject":"j6und1ammcraye6","sona":"7597"},{"rt":null,"stimulus":"<div style=\"font-size:60px;\">+</div>","key_press":null,"trial_type":"html-keyboard-response","trial_index":160,"time_elapsed":402596,"internal_node_id":"0.0-8.0-1.38","subject":"j6und1ammcraye6","sona":"7597"},{"trial_type":"turing-test","trial_index":161,"time_elapsed":406512,"internal_node_id":"0.0-8.0-2.38","subject":"j6und1ammcraye6","sona":"7597"},{"rt":1883,"stimulus":"<p>Welche Sequenz haben Sie als natürlicher empfunden?</p>","key_press":74,"test_part":"response","test_stimulus":{"position":1,"left":"bvh/vr_prediction_models/model(dmp)-dataset(return-bottle-hold)-npsi(10)-hold(2)/final-lines.txt","right":"bvh/return-bottle-hold-training2-lines.txt","att_check":true},"trial_type":"html-keyboard-response","trial_index":162,"time_elapsed":408419,"internal_node_id":"0.0-8.0-3.38","subject":"j6und1ammcraye6","sona":"7597"},{"rt":1487,"stimulus":"<p>Bereit?</p>","key_press":32,"trial_type":"html-keyboard-response","trial_index":163,"time_elapsed":409926,"internal_node_id":"0.0-8.0-0.39","subject":"j6und1ammcraye6","sona":"7597"},{"rt":null,"stimulus":"<div style=\"font-size:60px;\">+</div>","key_press":null,"trial_type":"html-keyboard-response","trial_index":164,"time_elapsed":412087,"internal_node_id":"0.0-8.0-1.39","subject":"j6und1ammcraye6","sona":"7597"},{"trial_type":"turing-test","trial_index":165,"time_elapsed":418148,"internal_node_id":"0.0-8.0-2.39","subject":"j6und1ammcraye6","sona":"7597"},{"rt":782,"stimulus":"<p>Welche Sequenz haben Sie als natürlicher empfunden?</p>","key_press":74,"test_part":"response","test_stimulus":{"position":1,"left":"bvh/vr_prediction_models/model(dmp)-dataset(return-bottle)-npsi(90)-hold(0)/final-lines.txt","right":"bvh/return-bottle-training0-lines.txt","att_check":false},"trial_type":"html-keyboard-response","trial_index":166,"time_elapsed":418939,"internal_node_id":"0.0-8.0-3.39","subject":"j6und1ammcraye6","sona":"7597"},{"rt":431,"stimulus":"<p>Bereit?</p>","key_press":32,"trial_type":"html-keyboard-response","trial_index":167,"time_elapsed":419379,"internal_node_id":"0.0-8.0-0.40","subject":"j6und1ammcraye6","sona":"7597"},{"rt":null,"stimulus":"<div style=\"font-size:60px;\">+</div>","key_press":null,"trial_type":"html-keyboard-response","trial_index":168,"time_elapsed":421419,"internal_node_id":"0.0-8.0-1.40","subject":"j6und1ammcraye6","sona":"7597"},{"trial_type":"turing-test","trial_index":169,"time_elapsed":425124,"internal_node_id":"0.0-8.0-2.40","subject":"j6und1ammcraye6","sona":"7597"},{"rt":583,"stimulus":"<p>Welche Sequenz haben Sie als natürlicher empfunden?</p>","key_press":74,"test_part":"response","test_stimulus":{"position":1,"left":"bvh/vr_prediction_models/model(dmp)-dataset(return-bottle-hold)-npsi(40)-hold(1)/final-lines.txt","right":"bvh/return-bottle-hold-training1-lines.txt","att_check":true},"trial_type":"html-keyboard-response","trial_index":170,"time_elapsed":425725,"internal_node_id":"0.0-8.0-3.40","subject":"j6und1ammcraye6","sona":"7597"},{"rt":348,"stimulus":"<p>Bereit?</p>","key_press":32,"trial_type":"html-keyboard-response","trial_index":171,"time_elapsed":426085,"internal_node_id":"0.0-8.0-0.41","subject":"j6und1ammcraye6","sona":"7597"},{"rt":null,"stimulus":"<div style=\"font-size:60px;\">+</div>","key_press":null,"trial_type":"html-keyboard-response","trial_index":172,"time_elapsed":428104,"internal_node_id":"0.0-8.0-1.41","subject":"j6und1ammcraye6","sona":"7597"},{"trial_type":"turing-test","trial_index":173,"time_elapsed":432247,"internal_node_id":"0.0-8.0-2.41","subject":"j6und1ammcraye6","sona":"7597"},{"rt":555,"stimulus":"<p>Welche Sequenz haben Sie als natürlicher empfunden?</p>","key_press":70,"test_part":"response","test_stimulus":{"position":1,"left":"bvh/vr_prediction_models/model(vcgpdm)-dataset(return-bottle-hold)-mode(MAP)-parts(1)-hold(2)/final-lines.txt","right":"bvh/return-bottle-hold-training2-lines.txt","att_check":false},"trial_type":"html-keyboard-response","trial_index":174,"time_elapsed":432816,"internal_node_id":"0.0-8.0-3.41","subject":"j6und1ammcraye6","sona":"7597"},{"rt":2463,"stimulus":"<p>Bereit?</p>","key_press":32,"trial_type":"html-keyboard-response","trial_index":175,"time_elapsed":435285,"internal_node_id":"0.0-8.0-0.42","subject":"j6und1ammcraye6","sona":"7597"},{"rt":null,"stimulus":"<div style=\"font-size:60px;\">+</div>","key_press":null,"trial_type":"html-keyboard-response","trial_index":176,"time_elapsed":437317,"internal_node_id":"0.0-8.0-1.42","subject":"j6und1ammcraye6","sona":"7597"},{"trial_type":"turing-test","trial_index":177,"time_elapsed":443056,"internal_node_id":"0.0-8.0-2.42","subject":"j6und1ammcraye6","sona":"7597"},{"rt":744,"stimulus":"<p>Welche Sequenz haben Sie als natürlicher empfunden?</p>","key_press":70,"test_part":"response","test_stimulus":{"position":0,"left":"bvh/return-bottle-training0-lines.txt","right":"bvh/vr_prediction_models/model(dmp)-dataset(return-bottle)-npsi(20)-hold(0)/final-lines.txt","att_check":false},"trial_type":"html-keyboard-response","trial_index":178,"time_elapsed":443818,"internal_node_id":"0.0-8.0-3.42","subject":"j6und1ammcraye6","sona":"7597"},{"rt":396,"stimulus":"<p>Bereit?</p>","key_press":32,"trial_type":"html-keyboard-response","trial_index":179,"time_elapsed":444221,"internal_node_id":"0.0-8.0-0.43","subject":"j6und1ammcraye6","sona":"7597"},{"rt":null,"stimulus":"<div style=\"font-size:60px;\">+</div>","key_press":null,"trial_type":"html-keyboard-response","trial_index":180,"time_elapsed":446255,"internal_node_id":"0.0-8.0-1.43","subject":"j6und1ammcraye6","sona":"7597"},{"trial_type":"turing-test","trial_index":181,"time_elapsed":452650,"internal_node_id":"0.0-8.0-2.43","subject":"j6und1ammcraye6","sona":"7597"},{"rt":626,"stimulus":"<p>Welche Sequenz haben Sie als natürlicher empfunden?</p>","key_press":70,"test_part":"response","test_stimulus":{"position":0,"left":"bvh/pass-bottle-training2-lines.txt","right":"bvh/vr_prediction_models/model(tmp)-dataset(pass-bottle)-numprim(11)-hold(2)/final-lines.txt","att_check":false},"trial_type":"html-keyboard-response","trial_index":182,"time_elapsed":453293,"internal_node_id":"0.0-8.0-3.43","subject":"j6und1ammcraye6","sona":"7597"},{"rt":324,"stimulus":"<p>Bereit?</p>","key_press":32,"trial_type":"html-keyboard-response","trial_index":183,"time_elapsed":453633,"internal_node_id":"0.0-8.0-0.44","subject":"j6und1ammcraye6","sona":"7597"},{"rt":null,"stimulus":"<div style=\"font-size:60px;\">+</div>","key_press":null,"trial_type":"html-keyboard-response","trial_index":184,"time_elapsed":455660,"internal_node_id":"0.0-8.0-1.44","subject":"j6und1ammcraye6","sona":"7597"},{"trial_type":"turing-test","trial_index":185,"time_elapsed":461512,"internal_node_id":"0.0-8.0-2.44","subject":"j6und1ammcraye6","sona":"7597"},{"rt":507,"stimulus":"<p>Welche Sequenz haben Sie als natürlicher empfunden?</p>","key_press":70,"test_part":"response","test_stimulus":{"position":1,"left":"bvh/vr_prediction_models/model(vcgpdm)-dataset(return-bottle-hold)-mode(ELBO)-parts(3)-dyn(10)-lvm(10)-hold(0)/final-lines.txt","right":"bvh/return-bottle-hold-training0-lines.txt","att_check":false},"trial_type":"html-keyboard-response","trial_index":186,"time_elapsed":462031,"internal_node_id":"0.0-8.0-3.44","subject":"j6und1ammcraye6","sona":"7597"},{"rt":416,"stimulus":"<p>Bereit?</p>","key_press":32,"trial_type":"html-keyboard-response","trial_index":187,"time_elapsed":462454,"internal_node_id":"0.0-8.0-0.45","subject":"j6und1ammcraye6","sona":"7597"},{"rt":null,"stimulus":"<div style=\"font-size:60px;\">+</div>","key_press":null,"trial_type":"html-keyboard-response","trial_index":188,"time_elapsed":464462,"internal_node_id":"0.0-8.0-1.45","subject":"j6und1ammcraye6","sona":"7597"},{"trial_type":"turing-test","trial_index":189,"time_elapsed":468468,"internal_node_id":"0.0-8.0-2.45","subject":"j6und1ammcraye6","sona":"7597"},{"rt":688,"stimulus":"<p>Welche Sequenz haben Sie als natürlicher empfunden?</p>","key_press":70,"test_part":"response","test_stimulus":{"position":1,"left":"bvh/vr_prediction_models/model(vcgpdm)-dataset(return-bottle-hold)-mode(ELBO)-parts(3)-dyn(10)-lvm(25)-hold(1)/final-lines.txt","right":"bvh/return-bottle-hold-training1-lines.txt","att_check":false},"trial_type":"html-keyboard-response","trial_index":190,"time_elapsed":469174,"internal_node_id":"0.0-8.0-3.45","subject":"j6und1ammcraye6","sona":"7597"},{"rt":324,"stimulus":"<p>Bereit?</p>","key_press":32,"trial_type":"html-keyboard-response","trial_index":191,"time_elapsed":469503,"internal_node_id":"0.0-8.0-0.46","subject":"j6und1ammcraye6","sona":"7597"},{"rt":null,"stimulus":"<div style=\"font-size:60px;\">+</div>","key_press":null,"trial_type":"html-keyboard-response","trial_index":192,"time_elapsed":471514,"internal_node_id":"0.0-8.0-1.46","subject":"j6und1ammcraye6","sona":"7597"},{"trial_type":"turing-test","trial_index":193,"time_elapsed":477674,"internal_node_id":"0.0-8.0-2.46","subject":"j6und1ammcraye6","sona":"7597"},{"rt":552,"stimulus":"<p>Welche Sequenz haben Sie als natürlicher empfunden?</p>","key_press":70,"test_part":"response","test_stimulus":{"position":0,"left":"bvh/pass-bottle-training2-lines.txt","right":"bvh/vr_prediction_models/model(vcgpdm)-dataset(pass-bottle)-mode(ELBO)-parts(1)-dyn(10)-lvm(25)-hold(2)/final-lines.txt","att_check":false},"trial_type":"html-keyboard-response","trial_index":194,"time_elapsed":478231,"internal_node_id":"0.0-8.0-3.46","subject":"j6und1ammcraye6","sona":"7597"},{"rt":324,"stimulus":"<p>Bereit?</p>","key_press":32,"trial_type":"html-keyboard-response","trial_index":195,"time_elapsed":478562,"internal_node_id":"0.0-8.0-0.47","subject":"j6und1ammcraye6","sona":"7597"},{"rt":null,"stimulus":"<div style=\"font-size:60px;\">+</div>","key_press":null,"trial_type":"html-keyboard-response","trial_index":196,"time_elapsed":480579,"internal_node_id":"0.0-8.0-1.47","subject":"j6und1ammcraye6","sona":"7597"},{"trial_type":"turing-test","trial_index":197,"time_elapsed":487221,"internal_node_id":"0.0-8.0-2.47","subject":"j6und1ammcraye6","sona":"7597"},{"rt":790,"stimulus":"<p>Welche Sequenz haben Sie als natürlicher empfunden?</p>","key_press":70,"test_part":"response","test_stimulus":{"position":1,"left":"bvh/vr_prediction_models/model(tmp)-dataset(return-bottle)-numprim(14)-hold(1)/final-lines.txt","right":"bvh/return-bottle-training1-lines.txt","att_check":false},"trial_type":"html-keyboard-response","trial_index":198,"time_elapsed":488045,"internal_node_id":"0.0-8.0-3.47","subject":"j6und1ammcraye6","sona":"7597"},{"rt":508,"stimulus":"<p>Bereit?</p>","key_press":32,"trial_type":"html-keyboard-response","trial_index":199,"time_elapsed":488564,"internal_node_id":"0.0-8.0-0.48","subject":"j6und1ammcraye6","sona":"7597"},{"rt":null,"stimulus":"<div style=\"font-size:60px;\">+</div>","key_press":null,"trial_type":"html-keyboard-response","trial_index":200,"time_elapsed":490597,"internal_node_id":"0.0-8.0-1.48","subject":"j6und1ammcraye6","sona":"7597"},{"trial_type":"turing-test","trial_index":201,"time_elapsed":497137,"internal_node_id":"0.0-8.0-2.48","subject":"j6und1ammcraye6","sona":"7597"},{"rt":904,"stimulus":"<p>Welche Sequenz haben Sie als natürlicher empfunden?</p>","key_press":70,"test_part":"response","test_stimulus":{"position":0,"left":"bvh/return-bottle-training1-lines.txt","right":"bvh/vr_prediction_models/model(vcgpdm)-dataset(return-bottle)-mode(ELBO)-parts(1)-dyn(20)-lvm(20)-hold(1)/final-lines.txt","att_check":false},"trial_type":"html-keyboard-response","trial_index":202,"time_elapsed":498055,"internal_node_id":"0.0-8.0-3.48","subject":"j6und1ammcraye6","sona":"7597"},{"rt":670,"stimulus":"<p>Bereit?</p>","key_press":32,"trial_type":"html-keyboard-response","trial_index":203,"time_elapsed":498733,"internal_node_id":"0.0-8.0-0.49","subject":"j6und1ammcraye6","sona":"7597"},{"rt":null,"stimulus":"<div style=\"font-size:60px;\">+</div>","key_press":null,"trial_type":"html-keyboard-response","trial_index":204,"time_elapsed":500771,"internal_node_id":"0.0-8.0-1.49","subject":"j6und1ammcraye6","sona":"7597"},{"trial_type":"turing-test","trial_index":205,"time_elapsed":504587,"internal_node_id":"0.0-8.0-2.49","subject":"j6und1ammcraye6","sona":"7597"},{"rt":704,"stimulus":"<p>Welche Sequenz haben Sie als natürlicher empfunden?</p>","key_press":70,"test_part":"response","test_stimulus":{"position":1,"left":"bvh/vr_prediction_models/model(dmp)-dataset(pass-bottle-hold)-npsi(100)-hold(3)/final-lines.txt","right":"bvh/pass-bottle-hold-training3-lines.txt","att_check":false},"trial_type":"html-keyboard-response","trial_index":206,"time_elapsed":505297,"internal_node_id":"0.0-8.0-3.49","subject":"j6und1ammcraye6","sona":"7597"},{"rt":361,"stimulus":"<p>Bereit?</p>","key_press":32,"trial_type":"html-keyboard-response","trial_index":207,"time_elapsed":505664,"internal_node_id":"0.0-8.0-0.50","subject":"j6und1ammcraye6","sona":"7597"},{"rt":null,"stimulus":"<div style=\"font-size:60px;\">+</div>","key_press":null,"trial_type":"html-keyboard-response","trial_index":208,"time_elapsed":507677,"internal_node_id":"0.0-8.0-1.50","subject":"j6und1ammcraye6","sona":"7597"},{"trial_type":"turing-test","trial_index":209,"time_elapsed":513827,"internal_node_id":"0.0-8.0-2.50","subject":"j6und1ammcraye6","sona":"7597"},{"rt":574,"stimulus":"<p>Welche Sequenz haben Sie als natürlicher empfunden?</p>","key_press":70,"test_part":"response","test_stimulus":{"position":0,"left":"bvh/return-bottle-training4-lines.txt","right":"bvh/vr_prediction_models/model(vcgpdm)-dataset(return-bottle)-mode(ELBO)-parts(3)-dyn(10)-lvm(30)-hold(4)/final-lines.txt","att_check":false},"trial_type":"html-keyboard-response","trial_index":210,"time_elapsed":514408,"internal_node_id":"0.0-8.0-3.50","subject":"j6und1ammcraye6","sona":"7597"},{"rt":467,"stimulus":"<p>Bereit?</p>","key_press":32,"trial_type":"html-keyboard-response","trial_index":211,"time_elapsed":514879,"internal_node_id":"0.0-8.0-0.51","subject":"j6und1ammcraye6","sona":"7597"},{"rt":null,"stimulus":"<div style=\"font-size:60px;\">+</div>","key_press":null,"trial_type":"html-keyboard-response","trial_index":212,"time_elapsed":516898,"internal_node_id":"0.0-8.0-1.51","subject":"j6und1ammcraye6","sona":"7597"},{"trial_type":"turing-test","trial_index":213,"time_elapsed":523313,"internal_node_id":"0.0-8.0-2.51","subject":"j6und1ammcraye6","sona":"7597"},{"rt":532,"stimulus":"<p>Welche Sequenz haben Sie als natürlicher empfunden?</p>","key_press":74,"test_part":"response","test_stimulus":{"position":1,"left":"bvh/vr_prediction_models/model(vcgpdm)-dataset(return-bottle)-mode(ELBO)-parts(3)-dyn(25)-lvm(25)-hold(1)/final-lines.txt","right":"bvh/return-bottle-training1-lines.txt","att_check":false},"trial_type":"html-keyboard-response","trial_index":214,"time_elapsed":523858,"internal_node_id":"0.0-8.0-3.51","subject":"j6und1ammcraye6","sona":"7597"},{"rt":543,"stimulus":"<p>Bereit?</p>","key_press":32,"trial_type":"html-keyboard-response","trial_index":215,"time_elapsed":524408,"internal_node_id":"0.0-8.0-0.52","subject":"j6und1ammcraye6","sona":"7597"},{"rt":null,"stimulus":"<div style=\"font-size:60px;\">+</div>","key_press":null,"trial_type":"html-keyboard-response","trial_index":216,"time_elapsed":526431,"internal_node_id":"0.0-8.0-1.52","subject":"j6und1ammcraye6","sona":"7597"},{"trial_type":"turing-test","trial_index":217,"time_elapsed":530131,"internal_node_id":"0.0-8.0-2.52","subject":"j6und1ammcraye6","sona":"7597"},{"rt":761,"stimulus":"<p>Welche Sequenz haben Sie als natürlicher empfunden?</p>","key_press":74,"test_part":"response","test_stimulus":{"position":0,"left":"bvh/return-bottle-hold-training1-lines.txt","right":"bvh/vr_prediction_models/model(vcgpdm)-dataset(return-bottle-hold)-mode(ELBO)-parts(1)-dyn(10)-lvm(25)-hold(1)/final-lines.txt","att_check":false},"trial_type":"html-keyboard-response","trial_index":218,"time_elapsed":530897,"internal_node_id":"0.0-8.0-3.52","subject":"j6und1ammcraye6","sona":"7597"},{"rt":393,"stimulus":"<p>Bereit?</p>","key_press":32,"trial_type":"html-keyboard-response","trial_index":219,"time_elapsed":531297,"internal_node_id":"0.0-8.0-0.53","subject":"j6und1ammcraye6","sona":"7597"},{"rt":null,"stimulus":"<div style=\"font-size:60px;\">+</div>","key_press":null,"trial_type":"html-keyboard-response","trial_index":220,"time_elapsed":533311,"internal_node_id":"0.0-8.0-1.53","subject":"j6und1ammcraye6","sona":"7597"},{"trial_type":"turing-test","trial_index":221,"time_elapsed":539668,"internal_node_id":"0.0-8.0-2.53","subject":"j6und1ammcraye6","sona":"7597"},{"rt":1362,"stimulus":"<p>Welche Sequenz haben Sie als natürlicher empfunden?</p>","key_press":74,"test_part":"response","test_stimulus":{"position":1,"left":"bvh/vr_prediction_models/model(tmp)-dataset(return-bottle)-numprim(12)-hold(4)/final-lines.txt","right":"bvh/return-bottle-training4-lines.txt","att_check":false},"trial_type":"html-keyboard-response","trial_index":222,"time_elapsed":541038,"internal_node_id":"0.0-8.0-3.53","subject":"j6und1ammcraye6","sona":"7597"},{"rt":486,"stimulus":"<p>Bereit?</p>","key_press":32,"trial_type":"html-keyboard-response","trial_index":223,"time_elapsed":541530,"internal_node_id":"0.0-8.0-0.54","subject":"j6und1ammcraye6","sona":"7597"},{"rt":null,"stimulus":"<div style=\"font-size:60px;\">+</div>","key_press":null,"trial_type":"html-keyboard-response","trial_index":224,"time_elapsed":543568,"internal_node_id":"0.0-8.0-1.54","subject":"j6und1ammcraye6","sona":"7597"},{"trial_type":"turing-test","trial_index":225,"time_elapsed":549202,"internal_node_id":"0.0-8.0-2.54","subject":"j6und1ammcraye6","sona":"7597"},{"rt":622,"stimulus":"<p>Welche Sequenz haben Sie als natürlicher empfunden?</p>","key_press":70,"test_part":"response","test_stimulus":{"position":1,"left":"bvh/vr_prediction_models/model(tmp)-dataset(return-bottle)-numprim(3)-hold(0)/final-lines.txt","right":"bvh/return-bottle-training0-lines.txt","att_check":false},"trial_type":"html-keyboard-response","trial_index":226,"time_elapsed":549834,"internal_node_id":"0.0-8.0-3.54","subject":"j6und1ammcraye6","sona":"7597"},{"rt":497,"stimulus":"<p>Bereit?</p>","key_press":32,"trial_type":"html-keyboard-response","trial_index":227,"time_elapsed":550336,"internal_node_id":"0.0-8.0-0.55","subject":"j6und1ammcraye6","sona":"7597"},{"rt":null,"stimulus":"<div style=\"font-size:60px;\">+</div>","key_press":null,"trial_type":"html-keyboard-response","trial_index":228,"time_elapsed":552362,"internal_node_id":"0.0-8.0-1.55","subject":"j6und1ammcraye6","sona":"7597"},{"trial_type":"turing-test","trial_index":229,"time_elapsed":559256,"internal_node_id":"0.0-8.0-2.55","subject":"j6und1ammcraye6","sona":"7597"},{"rt":586,"stimulus":"<p>Welche Sequenz haben Sie als natürlicher empfunden?</p>","key_press":74,"test_part":"response","test_stimulus":{"position":1,"left":"bvh/vr_prediction_models/model(tmp)-dataset(return-bottle)-numprim(4)-hold(2)/final-lines.txt","right":"bvh/return-bottle-training2-lines.txt","att_check":false},"trial_type":"html-keyboard-response","trial_index":230,"time_elapsed":559851,"internal_node_id":"0.0-8.0-3.55","subject":"j6und1ammcraye6","sona":"7597"},{"rt":438,"stimulus":"<p>Bereit?</p>","key_press":32,"trial_type":"html-keyboard-response","trial_index":231,"time_elapsed":560297,"internal_node_id":"0.0-8.0-0.56","subject":"j6und1ammcraye6","sona":"7597"},{"rt":null,"stimulus":"<div style=\"font-size:60px;\">+</div>","key_press":null,"trial_type":"html-keyboard-response","trial_index":232,"time_elapsed":562316,"internal_node_id":"0.0-8.0-1.56","subject":"j6und1ammcraye6","sona":"7597"},{"trial_type":"turing-test","trial_index":233,"time_elapsed":568888,"internal_node_id":"0.0-8.0-2.56","subject":"j6und1ammcraye6","sona":"7597"},{"rt":754,"stimulus":"<p>Welche Sequenz haben Sie als natürlicher empfunden?</p>","key_press":74,"test_part":"response","test_stimulus":{"position":0,"left":"bvh/return-bottle-training4-lines.txt","right":"bvh/vr_prediction_models/model(vcgpdm)-dataset(return-bottle)-mode(ELBO)-parts(1)-dyn(35)-lvm(30)-hold(4)/final-lines.txt","att_check":false},"trial_type":"html-keyboard-response","trial_index":234,"time_elapsed":569649,"internal_node_id":"0.0-8.0-3.56","subject":"j6und1ammcraye6","sona":"7597"},{"rt":383,"stimulus":"<p>Bereit?</p>","key_press":32,"trial_type":"html-keyboard-response","trial_index":235,"time_elapsed":570038,"internal_node_id":"0.0-8.0-0.57","subject":"j6und1ammcraye6","sona":"7597"},{"rt":null,"stimulus":"<div style=\"font-size:60px;\">+</div>","key_press":null,"trial_type":"html-keyboard-response","trial_index":236,"time_elapsed":572078,"internal_node_id":"0.0-8.0-1.57","subject":"j6und1ammcraye6","sona":"7597"},{"trial_type":"turing-test","trial_index":237,"time_elapsed":578478,"internal_node_id":"0.0-8.0-2.57","subject":"j6und1ammcraye6","sona":"7597"},{"rt":402,"stimulus":"<p>Welche Sequenz haben Sie als natürlicher empfunden?</p>","key_press":70,"test_part":"response","test_stimulus":{"position":0,"left":"bvh/pass-bottle-training2-lines.txt","right":"bvh/vr_prediction_models/model(tmp)-dataset(pass-bottle)-numprim(5)-hold(2)/final-lines.txt","att_check":false},"trial_type":"html-keyboard-response","trial_index":238,"time_elapsed":578888,"internal_node_id":"0.0-8.0-3.57","subject":"j6und1ammcraye6","sona":"7597"},{"rt":390,"stimulus":"<p>Bereit?</p>","key_press":32,"trial_type":"html-keyboard-response","trial_index":239,"time_elapsed":579287,"internal_node_id":"0.0-8.0-0.58","subject":"j6und1ammcraye6","sona":"7597"},{"rt":null,"stimulus":"<div style=\"font-size:60px;\">+</div>","key_press":null,"trial_type":"html-keyboard-response","trial_index":240,"time_elapsed":581308,"internal_node_id":"0.0-8.0-1.58","subject":"j6und1ammcraye6","sona":"7597"},{"trial_type":"turing-test","trial_index":241,"time_elapsed":585502,"internal_node_id":"0.0-8.0-2.58","subject":"j6und1ammcraye6","sona":"7597"},{"rt":2608,"stimulus":"<p>Welche Sequenz haben Sie als natürlicher empfunden?</p>","key_press":74,"test_part":"response","test_stimulus":{"position":1,"left":"bvh/vr_prediction_models/model(vcgpdm)-dataset(return-bottle-hold)-mode(ELBO)-parts(3)-dyn(25)-lvm(30)-hold(2)/final-lines.txt","right":"bvh/return-bottle-hold-training2-lines.txt","att_check":false},"trial_type":"html-keyboard-response","trial_index":242,"time_elapsed":588119,"internal_node_id":"0.0-8.0-3.58","subject":"j6und1ammcraye6","sona":"7597"},{"rt":450,"stimulus":"<p>Bereit?</p>","key_press":32,"trial_type":"html-keyboard-response","trial_index":243,"time_elapsed":588575,"internal_node_id":"0.0-8.0-0.59","subject":"j6und1ammcraye6","sona":"7597"},{"rt":null,"stimulus":"<div style=\"font-size:60px;\">+</div>","key_press":null,"trial_type":"html-keyboard-response","trial_index":244,"time_elapsed":590602,"internal_node_id":"0.0-8.0-1.59","subject":"j6und1ammcraye6","sona":"7597"},{"trial_type":"turing-test","trial_index":245,"time_elapsed":597121,"internal_node_id":"0.0-8.0-2.59","subject":"j6und1ammcraye6","sona":"7597"},{"rt":1012,"stimulus":"<p>Welche Sequenz haben Sie als natürlicher empfunden?</p>","key_press":70,"test_part":"response","test_stimulus":{"position":1,"left":"bvh/vr_prediction_models/model(vcgpdm)-dataset(pass-bottle)-mode(ELBO)-parts(1)-dyn(20)-lvm(20)-hold(4)/final-lines.txt","right":"bvh/pass-bottle-training4-lines.txt","att_check":false},"trial_type":"html-keyboard-response","trial_index":246,"time_elapsed":598141,"internal_node_id":"0.0-8.0-3.59","subject":"j6und1ammcraye6","sona":"7597"},{"rt":517,"stimulus":"<p>Bereit?</p>","key_press":32,"trial_type":"html-keyboard-response","trial_index":247,"time_elapsed":598665,"internal_node_id":"0.0-8.0-0.60","subject":"j6und1ammcraye6","sona":"7597"},{"rt":null,"stimulus":"<div style=\"font-size:60px;\">+</div>","key_press":null,"trial_type":"html-keyboard-response","trial_index":248,"time_elapsed":600691,"internal_node_id":"0.0-8.0-1.60","subject":"j6und1ammcraye6","sona":"7597"},{"trial_type":"turing-test","trial_index":249,"time_elapsed":604881,"internal_node_id":"0.0-8.0-2.60","subject":"j6und1ammcraye6","sona":"7597"},{"rt":1196,"stimulus":"<p>Welche Sequenz haben Sie als natürlicher empfunden?</p>","key_press":74,"test_part":"response","test_stimulus":{"position":0,"left":"bvh/pass-bottle-hold-training3-lines.txt","right":"bvh/vr_prediction_models/model(vcgpdm)-dataset(pass-bottle-hold)-mode(ELBO)-parts(3)-dyn(20)-lvm(15)-hold(3)/final-lines.txt","att_check":false},"trial_type":"html-keyboard-response","trial_index":250,"time_elapsed":606088,"internal_node_id":"0.0-8.0-3.60","subject":"j6und1ammcraye6","sona":"7597"},{"rt":407,"stimulus":"<p>Bereit?</p>","key_press":32,"trial_type":"html-keyboard-response","trial_index":251,"time_elapsed":606502,"internal_node_id":"0.0-8.0-0.61","subject":"j6und1ammcraye6","sona":"7597"},{"rt":null,"stimulus":"<div style=\"font-size:60px;\">+</div>","key_press":null,"trial_type":"html-keyboard-response","trial_index":252,"time_elapsed":608522,"internal_node_id":"0.0-8.0-1.61","subject":"j6und1ammcraye6","sona":"7597"},{"trial_type":"turing-test","trial_index":253,"time_elapsed":614626,"internal_node_id":"0.0-8.0-2.61","subject":"j6und1ammcraye6","sona":"7597"},{"rt":761,"stimulus":"<p>Welche Sequenz haben Sie als natürlicher empfunden?</p>","key_press":74,"test_part":"response","test_stimulus":{"position":1,"left":"bvh/vr_prediction_models/model(vcgpdm)-dataset(return-bottle)-mode(ELBO)-parts(1)-dyn(15)-lvm(35)-hold(0)/final-lines.txt","right":"bvh/return-bottle-training0-lines.txt","att_check":false},"trial_type":"html-keyboard-response","trial_index":254,"time_elapsed":615398,"internal_node_id":"0.0-8.0-3.61","subject":"j6und1ammcraye6","sona":"7597"},{"rt":352,"stimulus":"<p>Bereit?</p>","key_press":32,"trial_type":"html-keyboard-response","trial_index":255,"time_elapsed":615755,"internal_node_id":"0.0-8.0-0.62","subject":"j6und1ammcraye6","sona":"7597"},{"rt":null,"stimulus":"<div style=\"font-size:60px;\">+</div>","key_press":null,"trial_type":"html-keyboard-response","trial_index":256,"time_elapsed":617785,"internal_node_id":"0.0-8.0-1.62","subject":"j6und1ammcraye6","sona":"7597"},{"trial_type":"turing-test","trial_index":257,"time_elapsed":621725,"internal_node_id":"0.0-8.0-2.62","subject":"j6und1ammcraye6","sona":"7597"},{"rt":1518,"stimulus":"<p>Welche Sequenz haben Sie als natürlicher empfunden?</p>","key_press":74,"test_part":"response","test_stimulus":{"position":0,"left":"bvh/pass-bottle-hold-training4-lines.txt","right":"bvh/vr_prediction_models/model(dmp)-dataset(pass-bottle-hold)-npsi(80)-hold(4)/final-lines.txt","att_check":false},"trial_type":"html-keyboard-response","trial_index":258,"time_elapsed":623255,"internal_node_id":"0.0-8.0-3.62","subject":"j6und1ammcraye6","sona":"7597"},{"rt":331,"stimulus":"<p>Bereit?</p>","key_press":32,"trial_type":"html-keyboard-response","trial_index":259,"time_elapsed":623597,"internal_node_id":"0.0-8.0-0.63","subject":"j6und1ammcraye6","sona":"7597"},{"rt":null,"stimulus":"<div style=\"font-size:60px;\">+</div>","key_press":null,"trial_type":"html-keyboard-response","trial_index":260,"time_elapsed":625615,"internal_node_id":"0.0-8.0-1.63","subject":"j6und1ammcraye6","sona":"7597"},{"trial_type":"turing-test","trial_index":261,"time_elapsed":629279,"internal_node_id":"0.0-8.0-2.63","subject":"j6und1ammcraye6","sona":"7597"},{"rt":2890,"stimulus":"<p>Welche Sequenz haben Sie als natürlicher empfunden?</p>","key_press":70,"test_part":"response","test_stimulus":{"position":1,"left":"bvh/vr_prediction_models/model(vcgpdm)-dataset(pass-bottle-hold)-mode(ELBO)-parts(3)-dyn(25)-lvm(25)-hold(0)/final-lines.txt","right":"bvh/pass-bottle-hold-training0-lines.txt","att_check":false},"trial_type":"html-keyboard-response","trial_index":262,"time_elapsed":632176,"internal_node_id":"0.0-8.0-3.63","subject":"j6und1ammcraye6","sona":"7597"},{"rt":522,"stimulus":"<p>Bereit?</p>","key_press":32,"trial_type":"html-keyboard-response","trial_index":263,"time_elapsed":632704,"internal_node_id":"0.0-8.0-0.64","subject":"j6und1ammcraye6","sona":"7597"},{"rt":null,"stimulus":"<div style=\"font-size:60px;\">+</div>","key_press":null,"trial_type":"html-keyboard-response","trial_index":264,"time_elapsed":634729,"internal_node_id":"0.0-8.0-1.64","subject":"j6und1ammcraye6","sona":"7597"},{"trial_type":"turing-test","trial_index":265,"time_elapsed":640957,"internal_node_id":"0.0-8.0-2.64","subject":"j6und1ammcraye6","sona":"7597"},{"rt":2358,"stimulus":"<p>Welche Sequenz haben Sie als natürlicher empfunden?</p>","key_press":74,"test_part":"response","test_stimulus":{"position":0,"left":"bvh/pass-bottle-training1-lines.txt","right":"bvh/vr_prediction_models/model(vcgpdm)-dataset(pass-bottle)-mode(ELBO)-parts(1)-dyn(30)-lvm(20)-hold(1)/final-lines.txt","att_check":false},"trial_type":"html-keyboard-response","trial_index":266,"time_elapsed":643323,"internal_node_id":"0.0-8.0-3.64","subject":"j6und1ammcraye6","sona":"7597"},{"rt":452,"stimulus":"<p>Bereit?</p>","key_press":32,"trial_type":"html-keyboard-response","trial_index":267,"time_elapsed":643786,"internal_node_id":"0.0-8.0-0.65","subject":"j6und1ammcraye6","sona":"7597"},{"rt":null,"stimulus":"<div style=\"font-size:60px;\">+</div>","key_press":null,"trial_type":"html-keyboard-response","trial_index":268,"time_elapsed":645807,"internal_node_id":"0.0-8.0-1.65","subject":"j6und1ammcraye6","sona":"7597"},{"trial_type":"turing-test","trial_index":269,"time_elapsed":649669,"internal_node_id":"0.0-8.0-2.65","subject":"j6und1ammcraye6","sona":"7597"},{"rt":971,"stimulus":"<p>Welche Sequenz haben Sie als natürlicher empfunden?</p>","key_press":74,"test_part":"response","test_stimulus":{"position":1,"left":"bvh/vr_prediction_models/model(vcgpdm)-dataset(return-bottle-hold)-mode(ELBO)-parts(1)-dyn(25)-lvm(35)-hold(1)/final-lines.txt","right":"bvh/return-bottle-hold-training1-lines.txt","att_check":false},"trial_type":"html-keyboard-response","trial_index":270,"time_elapsed":650646,"internal_node_id":"0.0-8.0-3.65","subject":"j6und1ammcraye6","sona":"7597"},{"rt":308,"stimulus":"<p>Bereit?</p>","key_press":32,"trial_type":"html-keyboard-response","trial_index":271,"time_elapsed":650961,"internal_node_id":"0.0-8.0-0.66","subject":"j6und1ammcraye6","sona":"7597"},{"rt":null,"stimulus":"<div style=\"font-size:60px;\">+</div>","key_press":null,"trial_type":"html-keyboard-response","trial_index":272,"time_elapsed":652980,"internal_node_id":"0.0-8.0-1.66","subject":"j6und1ammcraye6","sona":"7597"},{"trial_type":"turing-test","trial_index":273,"time_elapsed":659524,"internal_node_id":"0.0-8.0-2.66","subject":"j6und1ammcraye6","sona":"7597"},{"rt":942,"stimulus":"<p>Welche Sequenz haben Sie als natürlicher empfunden?</p>","key_press":70,"test_part":"response","test_stimulus":{"position":1,"left":"bvh/vr_prediction_models/model(vcgpdm)-dataset(pass-bottle)-mode(ELBO)-parts(3)-dyn(25)-lvm(15)-hold(2)/final-lines.txt","right":"bvh/pass-bottle-training2-lines.txt","att_check":false},"trial_type":"html-keyboard-response","trial_index":274,"time_elapsed":660474,"internal_node_id":"0.0-8.0-3.66","subject":"j6und1ammcraye6","sona":"7597"},{"rt":472,"stimulus":"<p>Bereit?</p>","key_press":32,"trial_type":"html-keyboard-response","trial_index":275,"time_elapsed":660953,"internal_node_id":"0.0-8.0-0.67","subject":"j6und1ammcraye6","sona":"7597"},{"rt":null,"stimulus":"<div style=\"font-size:60px;\">+</div>","key_press":null,"trial_type":"html-keyboard-response","trial_index":276,"time_elapsed":662975,"internal_node_id":"0.0-8.0-1.67","subject":"j6und1ammcraye6","sona":"7597"},{"trial_type":"turing-test","trial_index":277,"time_elapsed":667127,"internal_node_id":"0.0-8.0-2.67","subject":"j6und1ammcraye6","sona":"7597"},{"rt":494,"stimulus":"<p>Welche Sequenz haben Sie als natürlicher empfunden?</p>","key_press":74,"test_part":"response","test_stimulus":{"position":0,"left":"bvh/return-bottle-hold-training4-lines.txt","right":"bvh/vr_prediction_models/model(vcgpdm)-dataset(return-bottle-hold)-mode(ELBO)-parts(1)-dyn(10)-lvm(30)-hold(4)/final-lines.txt","att_check":false},"trial_type":"html-keyboard-response","trial_index":278,"time_elapsed":667630,"internal_node_id":"0.0-8.0-3.67","subject":"j6und1ammcraye6","sona":"7597"},{"rt":292,"stimulus":"<p>Bereit?</p>","key_press":32,"trial_type":"html-keyboard-response","trial_index":279,"time_elapsed":667929,"internal_node_id":"0.0-8.0-0.68","subject":"j6und1ammcraye6","sona":"7597"},{"rt":null,"stimulus":"<div style=\"font-size:60px;\">+</div>","key_press":null,"trial_type":"html-keyboard-response","trial_index":280,"time_elapsed":669967,"internal_node_id":"0.0-8.0-1.68","subject":"j6und1ammcraye6","sona":"7597"},{"trial_type":"turing-test","trial_index":281,"time_elapsed":676210,"internal_node_id":"0.0-8.0-2.68","subject":"j6und1ammcraye6","sona":"7597"},{"rt":361,"stimulus":"<p>Welche Sequenz haben Sie als natürlicher empfunden?</p>","key_press":70,"test_part":"response","test_stimulus":{"position":0,"left":"bvh/pass-bottle-training3-lines.txt","right":"bvh/vr_prediction_models/model(vcgpdm)-dataset(pass-bottle)-mode(ELBO)-parts(1)-dyn(10)-lvm(30)-hold(3)/final-lines.txt","att_check":false},"trial_type":"html-keyboard-response","trial_index":282,"time_elapsed":676577,"internal_node_id":"0.0-8.0-3.68","subject":"j6und1ammcraye6","sona":"7597"},{"rt":334,"stimulus":"<p>Bereit?</p>","key_press":32,"trial_type":"html-keyboard-response","trial_index":283,"time_elapsed":676919,"internal_node_id":"0.0-8.0-0.69","subject":"j6und1ammcraye6","sona":"7597"},{"rt":null,"stimulus":"<div style=\"font-size:60px;\">+</div>","key_press":null,"trial_type":"html-keyboard-response","trial_index":284,"time_elapsed":678939,"internal_node_id":"0.0-8.0-1.69","subject":"j6und1ammcraye6","sona":"7597"},{"trial_type":"turing-test","trial_index":285,"time_elapsed":682947,"internal_node_id":"0.0-8.0-2.69","subject":"j6und1ammcraye6","sona":"7597"},{"rt":2695,"stimulus":"<p>Welche Sequenz haben Sie als natürlicher empfunden?</p>","key_press":74,"test_part":"response","test_stimulus":{"position":1,"left":"bvh/vr_prediction_models/model(vcgpdm)-dataset(pass-bottle-hold)-mode(ELBO)-parts(1)-dyn(30)-lvm(35)-hold(3)/final-lines.txt","right":"bvh/pass-bottle-hold-training3-lines.txt","att_check":false},"trial_type":"html-keyboard-response","trial_index":286,"time_elapsed":685655,"internal_node_id":"0.0-8.0-3.69","subject":"j6und1ammcraye6","sona":"7597"},{"rt":372,"stimulus":"<p>Bereit?</p>","key_press":32,"trial_type":"html-keyboard-response","trial_index":287,"time_elapsed":686033,"internal_node_id":"0.0-8.0-0.70","subject":"j6und1ammcraye6","sona":"7597"},{"rt":null,"stimulus":"<div style=\"font-size:60px;\">+</div>","key_press":null,"trial_type":"html-keyboard-response","trial_index":288,"time_elapsed":688058,"internal_node_id":"0.0-8.0-1.70","subject":"j6und1ammcraye6","sona":"7597"},{"trial_type":"turing-test","trial_index":289,"time_elapsed":692221,"internal_node_id":"0.0-8.0-2.70","subject":"j6und1ammcraye6","sona":"7597"},{"rt":844,"stimulus":"<p>Welche Sequenz haben Sie als natürlicher empfunden?</p>","key_press":74,"test_part":"response","test_stimulus":{"position":0,"left":"bvh/return-bottle-hold-training4-lines.txt","right":"bvh/vr_prediction_models/model(vcgpdm)-dataset(return-bottle-hold)-mode(ELBO)-parts(1)-dyn(35)-lvm(10)-hold(4)/final-lines.txt","att_check":false},"trial_type":"html-keyboard-response","trial_index":290,"time_elapsed":693076,"internal_node_id":"0.0-8.0-3.70","subject":"j6und1ammcraye6","sona":"7597"},{"rt":295,"stimulus":"<p>Bereit?</p>","key_press":32,"trial_type":"html-keyboard-response","trial_index":291,"time_elapsed":693381,"internal_node_id":"0.0-8.0-0.71","subject":"j6und1ammcraye6","sona":"7597"},{"rt":null,"stimulus":"<div style=\"font-size:60px;\">+</div>","key_press":null,"trial_type":"html-keyboard-response","trial_index":292,"time_elapsed":695411,"internal_node_id":"0.0-8.0-1.71","subject":"j6und1ammcraye6","sona":"7597"},{"trial_type":"turing-test","trial_index":293,"time_elapsed":701142,"internal_node_id":"0.0-8.0-2.71","subject":"j6und1ammcraye6","sona":"7597"},{"rt":352,"stimulus":"<p>Welche Sequenz haben Sie als natürlicher empfunden?</p>","key_press":70,"test_part":"response","test_stimulus":{"position":0,"left":"bvh/pass-bottle-training1-lines.txt","right":"bvh/vr_prediction_models/model(dmp)-dataset(pass-bottle)-npsi(90)-hold(1)/final-lines.txt","att_check":false},"trial_type":"html-keyboard-response","trial_index":294,"time_elapsed":701501,"internal_node_id":"0.0-8.0-3.71","subject":"j6und1ammcraye6","sona":"7597"},{"rt":410,"stimulus":"<p>Bereit?</p>","key_press":32,"trial_type":"html-keyboard-response","trial_index":295,"time_elapsed":701923,"internal_node_id":"0.0-8.0-0.72","subject":"j6und1ammcraye6","sona":"7597"},{"rt":null,"stimulus":"<div style=\"font-size:60px;\">+</div>","key_press":null,"trial_type":"html-keyboard-response","trial_index":296,"time_elapsed":703942,"internal_node_id":"0.0-8.0-1.72","subject":"j6und1ammcraye6","sona":"7597"},{"trial_type":"turing-test","trial_index":297,"time_elapsed":709376,"internal_node_id":"0.0-8.0-2.72","subject":"j6und1ammcraye6","sona":"7597"},{"rt":701,"stimulus":"<p>Welche Sequenz haben Sie als natürlicher empfunden?</p>","key_press":74,"test_part":"response","test_stimulus":{"position":1,"left":"bvh/vr_prediction_models/model(dmp)-dataset(pass-bottle)-npsi(90)-hold(1)/final-lines.txt","right":"bvh/pass-bottle-training1-lines.txt","att_check":false},"trial_type":"html-keyboard-response","trial_index":298,"time_elapsed":710089,"internal_node_id":"0.0-8.0-3.72","subject":"j6und1ammcraye6","sona":"7597"},{"rt":312,"stimulus":"<p>Bereit?</p>","key_press":32,"trial_type":"html-keyboard-response","trial_index":299,"time_elapsed":710408,"internal_node_id":"0.0-8.0-0.73","subject":"j6und1ammcraye6","sona":"7597"},{"rt":null,"stimulus":"<div style=\"font-size:60px;\">+</div>","key_press":null,"trial_type":"html-keyboard-response","trial_index":300,"time_elapsed":712431,"internal_node_id":"0.0-8.0-1.73","subject":"j6und1ammcraye6","sona":"7597"},{"trial_type":"turing-test","trial_index":301,"time_elapsed":719821,"internal_node_id":"0.0-8.0-2.73","subject":"j6und1ammcraye6","sona":"7597"},{"rt":385,"stimulus":"<p>Welche Sequenz haben Sie als natürlicher empfunden?</p>","key_press":70,"test_part":"response","test_stimulus":{"position":0,"left":"bvh/pass-bottle-training0-lines.txt","right":"bvh/vr_prediction_models/model(vcgpdm)-dataset(pass-bottle)-mode(ELBO)-parts(1)-dyn(20)-lvm(20)-hold(0)/final-lines.txt","att_check":false},"trial_type":"html-keyboard-response","trial_index":302,"time_elapsed":720220,"internal_node_id":"0.0-8.0-3.73","subject":"j6und1ammcraye6","sona":"7597"},{"rt":292,"stimulus":"<p>Bereit?</p>","key_press":32,"trial_type":"html-keyboard-response","trial_index":303,"time_elapsed":720519,"internal_node_id":"0.0-8.0-0.74","subject":"j6und1ammcraye6","sona":"7597"},{"rt":null,"stimulus":"<div style=\"font-size:60px;\">+</div>","key_press":null,"trial_type":"html-keyboard-response","trial_index":304,"time_elapsed":722540,"internal_node_id":"0.0-8.0-1.74","subject":"j6und1ammcraye6","sona":"7597"},{"trial_type":"turing-test","trial_index":305,"time_elapsed":726619,"internal_node_id":"0.0-8.0-2.74","subject":"j6und1ammcraye6","sona":"7597"},{"rt":403,"stimulus":"<p>Welche Sequenz haben Sie als natürlicher empfunden?</p>","key_press":74,"test_part":"response","test_stimulus":{"position":1,"left":"bvh/vr_prediction_models/model(dmp)-dataset(return-bottle-hold)-npsi(20)-hold(4)/final-lines.txt","right":"bvh/return-bottle-hold-training4-lines.txt","att_check":false},"trial_type":"html-keyboard-response","trial_index":306,"time_elapsed":727031,"internal_node_id":"0.0-8.0-3.74","subject":"j6und1ammcraye6","sona":"7597"},{"rt":302,"stimulus":"<p>Bereit?</p>","key_press":32,"trial_type":"html-keyboard-response","trial_index":307,"time_elapsed":727340,"internal_node_id":"0.0-8.0-0.75","subject":"j6und1ammcraye6","sona":"7597"},{"rt":null,"stimulus":"<div style=\"font-size:60px;\">+</div>","key_press":null,"trial_type":"html-keyboard-response","trial_index":308,"time_elapsed":729359,"internal_node_id":"0.0-8.0-1.75","subject":"j6und1ammcraye6","sona":"7597"},{"trial_type":"turing-test","trial_index":309,"time_elapsed":734989,"internal_node_id":"0.0-8.0-2.75","subject":"j6und1ammcraye6","sona":"7597"},{"rt":552,"stimulus":"<p>Welche Sequenz haben Sie als natürlicher empfunden?</p>","key_press":74,"test_part":"response","test_stimulus":{"position":1,"left":"bvh/vr_prediction_models/model(vcgpdm)-dataset(return-bottle-hold)-mode(ELBO)-parts(1)-dyn(20)-lvm(30)-hold(0)/final-lines.txt","right":"bvh/return-bottle-hold-training0-lines.txt","att_check":false},"trial_type":"html-keyboard-response","trial_index":310,"time_elapsed":735551,"internal_node_id":"0.0-8.0-3.75","subject":"j6und1ammcraye6","sona":"7597"},{"rt":316,"stimulus":"<p>Bereit?</p>","key_press":32,"trial_type":"html-keyboard-response","trial_index":311,"time_elapsed":735873,"internal_node_id":"0.0-8.0-0.76","subject":"j6und1ammcraye6","sona":"7597"},{"rt":null,"stimulus":"<div style=\"font-size:60px;\">+</div>","key_press":null,"trial_type":"html-keyboard-response","trial_index":312,"time_elapsed":737891,"internal_node_id":"0.0-8.0-1.76","subject":"j6und1ammcraye6","sona":"7597"},{"trial_type":"turing-test","trial_index":313,"time_elapsed":741561,"internal_node_id":"0.0-8.0-2.76","subject":"j6und1ammcraye6","sona":"7597"},{"rt":922,"stimulus":"<p>Welche Sequenz haben Sie als natürlicher empfunden?</p>","key_press":74,"test_part":"response","test_stimulus":{"position":1,"left":"bvh/vr_prediction_models/model(tmp)-dataset(pass-bottle-hold)-numprim(15)-hold(0)/final-lines.txt","right":"bvh/pass-bottle-hold-training0-lines.txt","att_check":false},"trial_type":"html-keyboard-response","trial_index":314,"time_elapsed":742493,"internal_node_id":"0.0-8.0-3.76","subject":"j6und1ammcraye6","sona":"7597"},{"rt":215,"stimulus":"<p>Bereit?</p>","key_press":32,"trial_type":"html-keyboard-response","trial_index":315,"time_elapsed":742715,"internal_node_id":"0.0-8.0-0.77","subject":"j6und1ammcraye6","sona":"7597"},{"rt":null,"stimulus":"<div style=\"font-size:60px;\">+</div>","key_press":null,"trial_type":"html-keyboard-response","trial_index":316,"time_elapsed":744722,"internal_node_id":"0.0-8.0-1.77","subject":"j6und1ammcraye6","sona":"7597"},{"trial_type":"turing-test","trial_index":317,"time_elapsed":748716,"internal_node_id":"0.0-8.0-2.77","subject":"j6und1ammcraye6","sona":"7597"},{"rt":488,"stimulus":"<p>Welche Sequenz haben Sie als natürlicher empfunden?</p>","key_press":70,"test_part":"response","test_stimulus":{"position":0,"left":"bvh/pass-bottle-hold-training3-lines.txt","right":"bvh/vr_prediction_models/model(vcgpdm)-dataset(pass-bottle-hold)-mode(ELBO)-parts(1)-dyn(30)-lvm(20)-hold(3)/final-lines.txt","att_check":false},"trial_type":"html-keyboard-response","trial_index":318,"time_elapsed":749214,"internal_node_id":"0.0-8.0-3.77","subject":"j6und1ammcraye6","sona":"7597"},{"rt":217,"stimulus":"<p>Bereit?</p>","key_press":32,"trial_type":"html-keyboard-response","trial_index":319,"time_elapsed":749438,"internal_node_id":"0.0-8.0-0.78","subject":"j6und1ammcraye6","sona":"7597"},{"rt":null,"stimulus":"<div style=\"font-size:60px;\">+</div>","key_press":null,"trial_type":"html-keyboard-response","trial_index":320,"time_elapsed":751467,"internal_node_id":"0.0-8.0-1.78","subject":"j6und1ammcraye6","sona":"7597"},{"trial_type":"turing-test","trial_index":321,"time_elapsed":755310,"internal_node_id":"0.0-8.0-2.78","subject":"j6und1ammcraye6","sona":"7597"},{"rt":619,"stimulus":"<p>Welche Sequenz haben Sie als natürlicher empfunden?</p>","key_press":74,"test_part":"response","test_stimulus":{"position":0,"left":"bvh/pass-bottle-hold-training3-lines.txt","right":"bvh/vr_prediction_models/model(tmp)-dataset(pass-bottle-hold)-numprim(8)-hold(3)/final-lines.txt","att_check":false},"trial_type":"html-keyboard-response","trial_index":322,"time_elapsed":755937,"internal_node_id":"0.0-8.0-3.78","subject":"j6und1ammcraye6","sona":"7597"},{"rt":337,"stimulus":"<p>Bereit?</p>","key_press":32,"trial_type":"html-keyboard-response","trial_index":323,"time_elapsed":756282,"internal_node_id":"0.0-8.0-0.79","subject":"j6und1ammcraye6","sona":"7597"},{"rt":null,"stimulus":"<div style=\"font-size:60px;\">+</div>","key_press":null,"trial_type":"html-keyboard-response","trial_index":324,"time_elapsed":758311,"internal_node_id":"0.0-8.0-1.79","subject":"j6und1ammcraye6","sona":"7597"},{"trial_type":"turing-test","trial_index":325,"time_elapsed":764425,"internal_node_id":"0.0-8.0-2.79","subject":"j6und1ammcraye6","sona":"7597"},{"rt":443,"stimulus":"<p>Welche Sequenz haben Sie als natürlicher empfunden?</p>","key_press":74,"test_part":"response","test_stimulus":{"position":0,"left":"bvh/return-bottle-training3-lines.txt","right":"bvh/vr_prediction_models/model(tmp)-dataset(return-bottle)-numprim(4)-hold(3)/final-lines.txt","att_check":false},"trial_type":"html-keyboard-response","trial_index":326,"time_elapsed":764877,"internal_node_id":"0.0-8.0-3.79","subject":"j6und1ammcraye6","sona":"7597"}]