[{"rt":2234.2899999930523,"stimulus":"<p>Welcome!<br> Please choose your language to start the experiment in the chosen language.</p><p>Willkommen!<br> Bitte wählen Sie eine Sprache, um das Experiment in der ausgewählten Sprache zu starten</p>","button_pressed":"1","trial_type":"html-button-response","trial_index":0,"time_elapsed":2263,"internal_node_id":"0.0-0.0","subject":"tleq585qfz8qaaa","sona":"7450"},{"view_history":"[{\"page_index\":0,\"viewing_time\":4845.930000010412},{\"page_index\":1,\"viewing_time\":2048.334999999497},{\"page_index\":2,\"viewing_time\":5854.4049999909475},{\"page_index\":3,\"viewing_time\":5774.999999965075},{\"page_index\":4,\"viewing_time\":2929.980000015348}]","rt":21454.44000000134,"trial_type":"instructions","trial_index":1,"time_elapsed":23718,"internal_node_id":"0.0-1.0-0.0","subject":"tleq585qfz8qaaa","sona":"7450"},{"rt":1296.535000030417,"stimulus":"<p>Bereit?</p>","key_press":32,"trial_type":"html-keyboard-response","trial_index":2,"time_elapsed":25017,"internal_node_id":"0.0-3.0","subject":"tleq585qfz8qaaa","sona":"7450"},{"rt":null,"stimulus":"<div style=\"font-size:60px;\">+</div>","key_press":null,"trial_type":"html-keyboard-response","trial_index":3,"time_elapsed":27018,"internal_node_id":"0.0-4.0","subject":"tleq585qfz8qaaa","sona":"7450"},{"trial_type":"training","trial_index":4,"time_elapsed":30411,"internal_node_id":"0.0-5.0","subject":"tleq585qfz8qaaa","sona":"7450"},{"rt":903.954999987036,"stimulus":"<p>Welche Sequenz haben Sie als natürlicher empfunden?</p>","key_press":70,"trial_type":"html-keyboard-response","trial_index":5,"time_elapsed":31317,"internal_node_id":"0.0-6.0","subject":"tleq585qfz8qaaa","sona":"7450"},{"rt":3354.745000018738,"stimulus":"<p>Das Experiment startet nun.</p><p><small>Bitte drücken Sie den Knopf, wenn Sie bereit sind.</small></p>","button_pressed":"0","trial_type":"html-button-response","trial_index":6,"time_elapsed":34673,"internal_node_id":"0.0-7.0","subject":"tleq585qfz8qaaa","sona":"7450"},{"rt":720.2399999951012,"stimulus":"<p>Bereit?</p>","key_press":32,"trial_type":"html-keyboard-response","trial_index":7,"time_elapsed":35395,"internal_node_id":"0.0-8.0-0.0","subject":"tleq585qfz8qaaa","sona":"7450"},{"rt":null,"stimulus":"<div style=\"font-size:60px;\">+</div>","key_press":null,"trial_type":"html-keyboard-response","trial_index":8,"time_elapsed":37398,"internal_node_id":"0.0-8.0-1.0","subject":"tleq585qfz8qaaa","sona":"7450"},{"trial_type":"turing-test","trial_index":9,"time_elapsed":43330,"internal_node_id":"0.0-8.0-2.0","subject":"tleq585qfz8qaaa","sona":"7450"},{"rt":434.9299999885261,"stimulus":"<p>Welche Sequenz haben Sie als natürlicher empfunden?</p>","key_press":70,"test_part":"response","test_stimulus":{"position":1,"left":"bvh/vr_prediction_models/model(vcgpdm)-dataset(pass-bottle)-mode(ELBO)-parts(3)-dyn(25)-lvm(15)-hold(4)/final-lines.txt","right":"bvh/pass-bottle-training4-lines.txt","att_check":false},"trial_type":"html-keyboard-response","trial_index":10,"time_elapsed":43768,"internal_node_id":"0.0-8.0-3.0","subject":"tleq585qfz8qaaa","sona":"7450"},{"rt":796.9150000135414,"stimulus":"<p>Bereit?</p>","key_press":32,"trial_type":"html-keyboard-response","trial_index":11,"time_elapsed":44567,"internal_node_id":"0.0-8.0-0.1","subject":"tleq585qfz8qaaa","sona":"7450"},{"rt":null,"stimulus":"<div style=\"font-size:60px;\">+</div>","key_press":null,"trial_type":"html-keyboard-response","trial_index":12,"time_elapsed":46568,"internal_node_id":"0.0-8.0-1.1","subject":"tleq585qfz8qaaa","sona":"7450"},{"trial_type":"turing-test","trial_index":13,"time_elapsed":50341,"internal_node_id":"0.0-8.0-2.1","subject":"tleq585qfz8qaaa","sona":"7450"},{"rt":586.0699999611825,"stimulus":"<p>Welche Sequenz haben Sie als natürlicher empfunden?</p>","key_press":74,"test_part":"response","test_stimulus":{"position":1,"left":"bvh/vr_prediction_models/model(dmp)-dataset(return-bottle-hold)-npsi(30)-hold(4)/final-lines.txt","right":"bvh/return-bottle-hold-training4-lines.txt","att_check":false},"trial_type":"html-keyboard-response","trial_index":14,"time_elapsed":50930,"internal_node_id":"0.0-8.0-3.1","subject":"tleq585qfz8qaaa","sona":"7450"},{"rt":335.1600000169128,"stimulus":"<p>Bereit?</p>","key_press":32,"trial_type":"html-keyboard-response","trial_index":15,"time_elapsed":51267,"internal_node_id":"0.0-8.0-0.2","subject":"tleq585qfz8qaaa","sona":"7450"},{"rt":null,"stimulus":"<div style=\"font-size:60px;\">+</div>","key_press":null,"trial_type":"html-keyboard-response","trial_index":16,"time_elapsed":53270,"internal_node_id":"0.0-8.0-1.2","subject":"tleq585qfz8qaaa","sona":"7450"},{"trial_type":"turing-test","trial_index":17,"time_elapsed":58797,"internal_node_id":"0.0-8.0-2.2","subject":"tleq585qfz8qaaa","sona":"7450"},{"rt":657.1199999889359,"stimulus":"<p>Welche Sequenz haben Sie als natürlicher empfunden?</p>","key_press":74,"test_part":"response","test_stimulus":{"position":1,"left":"bvh/vr_prediction_models/model(tmp)-dataset(pass-bottle)-numprim(14)-hold(1)/final-lines.txt","right":"bvh/pass-bottle-training1-lines.txt","att_check":false},"trial_type":"html-keyboard-response","trial_index":18,"time_elapsed":59457,"internal_node_id":"0.0-8.0-3.2","subject":"tleq585qfz8qaaa","sona":"7450"},{"rt":96.28499997779727,"stimulus":"<p>Bereit?</p>","key_press":32,"trial_type":"html-keyboard-response","trial_index":19,"time_elapsed":59556,"internal_node_id":"0.0-8.0-0.3","subject":"tleq585qfz8qaaa","sona":"7450"},{"rt":null,"stimulus":"<div style=\"font-size:60px;\">+</div>","key_press":null,"trial_type":"html-keyboard-response","trial_index":20,"time_elapsed":61558,"internal_node_id":"0.0-8.0-1.3","subject":"tleq585qfz8qaaa","sona":"7450"},{"trial_type":"turing-test","trial_index":21,"time_elapsed":66719,"internal_node_id":"0.0-8.0-2.3","subject":"tleq585qfz8qaaa","sona":"7450"},{"rt":505.91000000713393,"stimulus":"<p>Welche Sequenz haben Sie als natürlicher empfunden?</p>","key_press":70,"test_part":"response","test_stimulus":{"position":0,"left":"bvh/return-bottle-hold-training0-lines.txt","right":"bvh/vr_prediction_models/model(tmp)-dataset(return-bottle-hold)-numprim(10)-hold(0)/final-lines.txt","att_check":false},"trial_type":"html-keyboard-response","trial_index":22,"time_elapsed":67228,"internal_node_id":"0.0-8.0-3.3","subject":"tleq585qfz8qaaa","sona":"7450"},{"rt":286.469999991823,"stimulus":"<p>Bereit?</p>","key_press":32,"trial_type":"html-keyboard-response","trial_index":23,"time_elapsed":67516,"internal_node_id":"0.0-8.0-0.4","subject":"tleq585qfz8qaaa","sona":"7450"},{"rt":null,"stimulus":"<div style=\"font-size:60px;\">+</div>","key_press":null,"trial_type":"html-keyboard-response","trial_index":24,"time_elapsed":69519,"internal_node_id":"0.0-8.0-1.4","subject":"tleq585qfz8qaaa","sona":"7450"},{"trial_type":"turing-test","trial_index":25,"time_elapsed":72993,"internal_node_id":"0.0-8.0-2.4","subject":"tleq585qfz8qaaa","sona":"7450"},{"rt":944.6549999993294,"stimulus":"<p>Welche Sequenz haben Sie als natürlicher empfunden?</p>","key_press":70,"test_part":"response","test_stimulus":{"position":1,"left":"bvh/vr_prediction_models/model(vcgpdm)-dataset(pass-bottle-hold)-mode(ELBO)-parts(1)-dyn(30)-lvm(20)-hold(1)/final-lines.txt","right":"bvh/pass-bottle-hold-training1-lines.txt","att_check":false},"trial_type":"html-keyboard-response","trial_index":26,"time_elapsed":73940,"internal_node_id":"0.0-8.0-3.4","subject":"tleq585qfz8qaaa","sona":"7450"},{"rt":0.24999998277053237,"stimulus":"<p>Bereit?</p>","key_press":32,"trial_type":"html-keyboard-response","trial_index":27,"time_elapsed":73943,"internal_node_id":"0.0-8.0-0.5","subject":"tleq585qfz8qaaa","sona":"7450"},{"rt":null,"stimulus":"<div style=\"font-size:60px;\">+</div>","key_press":null,"trial_type":"html-keyboard-response","trial_index":28,"time_elapsed":75946,"internal_node_id":"0.0-8.0-1.5","subject":"tleq585qfz8qaaa","sona":"7450"},{"trial_type":"turing-test","trial_index":29,"time_elapsed":79332,"internal_node_id":"0.0-8.0-2.5","subject":"tleq585qfz8qaaa","sona":"7450"},{"rt":482.17500001192093,"stimulus":"<p>Welche Sequenz haben Sie als natürlicher empfunden?</p>","key_press":74,"test_part":"response","test_stimulus":{"position":0,"left":"bvh/pass-bottle-hold-training2-lines.txt","right":"bvh/vr_prediction_models/model(tmp)-dataset(pass-bottle-hold)-numprim(15)-hold(2)/final-lines.txt","att_check":false},"trial_type":"html-keyboard-response","trial_index":30,"time_elapsed":79818,"internal_node_id":"0.0-8.0-3.5","subject":"tleq585qfz8qaaa","sona":"7450"},{"rt":97.17999998247251,"stimulus":"<p>Bereit?</p>","key_press":32,"trial_type":"html-keyboard-response","trial_index":31,"time_elapsed":79917,"internal_node_id":"0.0-8.0-0.6","subject":"tleq585qfz8qaaa","sona":"7450"},{"rt":null,"stimulus":"<div style=\"font-size:60px;\">+</div>","key_press":null,"trial_type":"html-keyboard-response","trial_index":32,"time_elapsed":81919,"internal_node_id":"0.0-8.0-1.6","subject":"tleq585qfz8qaaa","sona":"7450"},{"trial_type":"turing-test","trial_index":33,"time_elapsed":85501,"internal_node_id":"0.0-8.0-2.6","subject":"tleq585qfz8qaaa","sona":"7450"},{"rt":321.5650000493042,"stimulus":"<p>Welche Sequenz haben Sie als natürlicher empfunden?</p>","key_press":74,"test_part":"response","test_stimulus":{"position":0,"left":"bvh/pass-bottle-hold-training3-lines.txt","right":"bvh/vr_prediction_models/model(dmp)-dataset(pass-bottle-hold)-npsi(90)-hold(3)/final-lines.txt","att_check":true},"trial_type":"html-keyboard-response","trial_index":34,"time_elapsed":85825,"internal_node_id":"0.0-8.0-3.6","subject":"tleq585qfz8qaaa","sona":"7450"},{"rt":325.6050000200048,"stimulus":"<p>Bereit?</p>","key_press":32,"trial_type":"html-keyboard-response","trial_index":35,"time_elapsed":86153,"internal_node_id":"0.0-8.0-0.7","subject":"tleq585qfz8qaaa","sona":"7450"},{"rt":null,"stimulus":"<div style=\"font-size:60px;\">+</div>","key_press":null,"trial_type":"html-keyboard-response","trial_index":36,"time_elapsed":88155,"internal_node_id":"0.0-8.0-1.7","subject":"tleq585qfz8qaaa","sona":"7450"},{"trial_type":"turing-test","trial_index":37,"time_elapsed":94048,"internal_node_id":"0.0-8.0-2.7","subject":"tleq585qfz8qaaa","sona":"7450"},{"rt":375.37500000325963,"stimulus":"<p>Welche Sequenz haben Sie als natürlicher empfunden?</p>","key_press":74,"test_part":"response","test_stimulus":{"position":0,"left":"bvh/pass-bottle-training3-lines.txt","right":"bvh/vr_prediction_models/model(tmp)-dataset(pass-bottle)-numprim(9)-hold(3)/final-lines.txt","att_check":false},"trial_type":"html-keyboard-response","trial_index":38,"time_elapsed":94427,"internal_node_id":"0.0-8.0-3.7","subject":"tleq585qfz8qaaa","sona":"7450"},{"rt":217.3000000184402,"stimulus":"<p>Bereit?</p>","key_press":32,"trial_type":"html-keyboard-response","trial_index":39,"time_elapsed":94646,"internal_node_id":"0.0-8.0-0.8","subject":"tleq585qfz8qaaa","sona":"7450"},{"rt":null,"stimulus":"<div style=\"font-size:60px;\">+</div>","key_press":null,"trial_type":"html-keyboard-response","trial_index":40,"time_elapsed":96648,"internal_node_id":"0.0-8.0-1.8","subject":"tleq585qfz8qaaa","sona":"7450"},{"trial_type":"turing-test","trial_index":41,"time_elapsed":102521,"internal_node_id":"0.0-8.0-2.8","subject":"tleq585qfz8qaaa","sona":"7450"},{"rt":434.56000002333894,"stimulus":"<p>Welche Sequenz haben Sie als natürlicher empfunden?</p>","key_press":74,"test_part":"response","test_stimulus":{"position":1,"left":"bvh/vr_prediction_models/model(vcgpdm)-dataset(return-bottle)-mode(ELBO)-parts(3)-dyn(15)-lvm(30)-hold(4)/final-lines.txt","right":"bvh/return-bottle-training4-lines.txt","att_check":false},"trial_type":"html-keyboard-response","trial_index":42,"time_elapsed":102959,"internal_node_id":"0.0-8.0-3.8","subject":"tleq585qfz8qaaa","sona":"7450"},{"rt":155.69500002311543,"stimulus":"<p>Bereit?</p>","key_press":32,"trial_type":"html-keyboard-response","trial_index":43,"time_elapsed":103117,"internal_node_id":"0.0-8.0-0.9","subject":"tleq585qfz8qaaa","sona":"7450"},{"rt":null,"stimulus":"<div style=\"font-size:60px;\">+</div>","key_press":null,"trial_type":"html-keyboard-response","trial_index":44,"time_elapsed":105120,"internal_node_id":"0.0-8.0-1.9","subject":"tleq585qfz8qaaa","sona":"7450"},{"trial_type":"turing-test","trial_index":45,"time_elapsed":110957,"internal_node_id":"0.0-8.0-2.9","subject":"tleq585qfz8qaaa","sona":"7450"},{"rt":436.4300000015646,"stimulus":"<p>Welche Sequenz haben Sie als natürlicher empfunden?</p>","key_press":74,"test_part":"response","test_stimulus":{"position":1,"left":"bvh/vr_prediction_models/model(dmp)-dataset(pass-bottle)-npsi(50)-hold(3)/final-lines.txt","right":"bvh/pass-bottle-training3-lines.txt","att_check":false},"trial_type":"html-keyboard-response","trial_index":46,"time_elapsed":111397,"internal_node_id":"0.0-8.0-3.9","subject":"tleq585qfz8qaaa","sona":"7450"},{"rt":116.28499999642372,"stimulus":"<p>Bereit?</p>","key_press":32,"trial_type":"html-keyboard-response","trial_index":47,"time_elapsed":111515,"internal_node_id":"0.0-8.0-0.10","subject":"tleq585qfz8qaaa","sona":"7450"},{"rt":null,"stimulus":"<div style=\"font-size:60px;\">+</div>","key_press":null,"trial_type":"html-keyboard-response","trial_index":48,"time_elapsed":113517,"internal_node_id":"0.0-8.0-1.10","subject":"tleq585qfz8qaaa","sona":"7450"},{"trial_type":"turing-test","trial_index":49,"time_elapsed":117205,"internal_node_id":"0.0-8.0-2.10","subject":"tleq585qfz8qaaa","sona":"7450"},{"rt":366.6750000556931,"stimulus":"<p>Welche Sequenz haben Sie als natürlicher empfunden?</p>","key_press":70,"test_part":"response","test_stimulus":{"position":0,"left":"bvh/return-bottle-hold-training3-lines.txt","right":"bvh/vr_prediction_models/model(tmp)-dataset(return-bottle-hold)-numprim(15)-hold(3)/final-lines.txt","att_check":false},"trial_type":"html-keyboard-response","trial_index":50,"time_elapsed":117574,"internal_node_id":"0.0-8.0-3.10","subject":"tleq585qfz8qaaa","sona":"7450"},{"rt":120.37499999860302,"stimulus":"<p>Bereit?</p>","key_press":32,"trial_type":"html-keyboard-response","trial_index":51,"time_elapsed":117697,"internal_node_id":"0.0-8.0-0.11","subject":"tleq585qfz8qaaa","sona":"7450"},{"rt":null,"stimulus":"<div style=\"font-size:60px;\">+</div>","key_press":null,"trial_type":"html-keyboard-response","trial_index":52,"time_elapsed":119700,"internal_node_id":"0.0-8.0-1.11","subject":"tleq585qfz8qaaa","sona":"7450"},{"trial_type":"turing-test","trial_index":53,"time_elapsed":123515,"internal_node_id":"0.0-8.0-2.11","subject":"tleq585qfz8qaaa","sona":"7450"},{"rt":306.7700000246987,"stimulus":"<p>Welche Sequenz haben Sie als natürlicher empfunden?</p>","key_press":70,"test_part":"response","test_stimulus":{"position":1,"left":"bvh/vr_prediction_models/model(vcgpdm)-dataset(pass-bottle-hold)-mode(ELBO)-parts(3)-dyn(15)-lvm(30)-hold(4)/final-lines.txt","right":"bvh/pass-bottle-hold-training4-lines.txt","att_check":false},"trial_type":"html-keyboard-response","trial_index":54,"time_elapsed":123825,"internal_node_id":"0.0-8.0-3.11","subject":"tleq585qfz8qaaa","sona":"7450"},{"rt":106.3649999559857,"stimulus":"<p>Bereit?</p>","key_press":32,"trial_type":"html-keyboard-response","trial_index":55,"time_elapsed":123934,"internal_node_id":"0.0-8.0-0.12","subject":"tleq585qfz8qaaa","sona":"7450"},{"rt":null,"stimulus":"<div style=\"font-size:60px;\">+</div>","key_press":null,"trial_type":"html-keyboard-response","trial_index":56,"time_elapsed":125935,"internal_node_id":"0.0-8.0-1.12","subject":"tleq585qfz8qaaa","sona":"7450"},{"trial_type":"turing-test","trial_index":57,"time_elapsed":129519,"internal_node_id":"0.0-8.0-2.12","subject":"tleq585qfz8qaaa","sona":"7450"},{"rt":404.5449999975972,"stimulus":"<p>Welche Sequenz haben Sie als natürlicher empfunden?</p>","key_press":74,"test_part":"response","test_stimulus":{"position":0,"left":"bvh/pass-bottle-hold-training4-lines.txt","right":"bvh/vr_prediction_models/model(tmp)-dataset(pass-bottle-hold)-numprim(13)-hold(4)/final-lines.txt","att_check":false},"trial_type":"html-keyboard-response","trial_index":58,"time_elapsed":129926,"internal_node_id":"0.0-8.0-3.12","subject":"tleq585qfz8qaaa","sona":"7450"},{"rt":56.51999998372048,"stimulus":"<p>Bereit?</p>","key_press":32,"trial_type":"html-keyboard-response","trial_index":59,"time_elapsed":129985,"internal_node_id":"0.0-8.0-0.13","subject":"tleq585qfz8qaaa","sona":"7450"},{"rt":null,"stimulus":"<div style=\"font-size:60px;\">+</div>","key_press":null,"trial_type":"html-keyboard-response","trial_index":60,"time_elapsed":131987,"internal_node_id":"0.0-8.0-1.13","subject":"tleq585qfz8qaaa","sona":"7450"},{"trial_type":"turing-test","trial_index":61,"time_elapsed":138015,"internal_node_id":"0.0-8.0-2.13","subject":"tleq585qfz8qaaa","sona":"7450"},{"rt":445.5150000285357,"stimulus":"<p>Welche Sequenz haben Sie als natürlicher empfunden?</p>","key_press":74,"test_part":"response","test_stimulus":{"position":1,"left":"bvh/vr_prediction_models/model(vcgpdm)-dataset(return-bottle)-mode(MAP)-parts(1)-hold(3)/final-lines.txt","right":"bvh/return-bottle-training3-lines.txt","att_check":false},"trial_type":"html-keyboard-response","trial_index":62,"time_elapsed":138465,"internal_node_id":"0.0-8.0-3.13","subject":"tleq585qfz8qaaa","sona":"7450"},{"rt":85.01999999862164,"stimulus":"<p>Bereit?</p>","key_press":32,"trial_type":"html-keyboard-response","trial_index":63,"time_elapsed":138553,"internal_node_id":"0.0-8.0-0.14","subject":"tleq585qfz8qaaa","sona":"7450"},{"rt":null,"stimulus":"<div style=\"font-size:60px;\">+</div>","key_press":null,"trial_type":"html-keyboard-response","trial_index":64,"time_elapsed":140554,"internal_node_id":"0.0-8.0-1.14","subject":"tleq585qfz8qaaa","sona":"7450"},{"trial_type":"turing-test","trial_index":65,"time_elapsed":144141,"internal_node_id":"0.0-8.0-2.14","subject":"tleq585qfz8qaaa","sona":"7450"},{"rt":524.2599999764934,"stimulus":"<p>Welche Sequenz haben Sie als natürlicher empfunden?</p>","key_press":70,"test_part":"response","test_stimulus":{"position":1,"left":"bvh/vr_prediction_models/model(tmp)-dataset(pass-bottle-hold)-numprim(4)-hold(4)/final-lines.txt","right":"bvh/pass-bottle-hold-training4-lines.txt","att_check":false},"trial_type":"html-keyboard-response","trial_index":66,"time_elapsed":144667,"internal_node_id":"0.0-8.0-3.14","subject":"tleq585qfz8qaaa","sona":"7450"},{"rt":244.40500000491738,"stimulus":"<p>Bereit?</p>","key_press":32,"trial_type":"html-keyboard-response","trial_index":67,"time_elapsed":144915,"internal_node_id":"0.0-8.0-0.15","subject":"tleq585qfz8qaaa","sona":"7450"},{"rt":null,"stimulus":"<div style=\"font-size:60px;\">+</div>","key_press":null,"trial_type":"html-keyboard-response","trial_index":68,"time_elapsed":146917,"internal_node_id":"0.0-8.0-1.15","subject":"tleq585qfz8qaaa","sona":"7450"},{"trial_type":"turing-test","trial_index":69,"time_elapsed":150795,"internal_node_id":"0.0-8.0-2.15","subject":"tleq585qfz8qaaa","sona":"7450"},{"rt":1297.3549999878742,"stimulus":"<p>Welche Sequenz haben Sie als natürlicher empfunden?</p>","key_press":70,"test_part":"response","test_stimulus":{"position":0,"left":"bvh/return-bottle-hold-training4-lines.txt","right":"bvh/vr_prediction_models/model(vcgpdm)-dataset(return-bottle-hold)-mode(ELBO)-parts(3)-dyn(25)-lvm(15)-hold(4)/final-lines.txt","att_check":false},"trial_type":"html-keyboard-response","trial_index":70,"time_elapsed":152095,"internal_node_id":"0.0-8.0-3.15","subject":"tleq585qfz8qaaa","sona":"7450"},{"rt":337.230000004638,"stimulus":"<p>Bereit?</p>","key_press":32,"trial_type":"html-keyboard-response","trial_index":71,"time_elapsed":152435,"internal_node_id":"0.0-8.0-0.16","subject":"tleq585qfz8qaaa","sona":"7450"},{"rt":null,"stimulus":"<div style=\"font-size:60px;\">+</div>","key_press":null,"trial_type":"html-keyboard-response","trial_index":72,"time_elapsed":154437,"internal_node_id":"0.0-8.0-1.16","subject":"tleq585qfz8qaaa","sona":"7450"},{"trial_type":"turing-test","trial_index":73,"time_elapsed":159865,"internal_node_id":"0.0-8.0-2.16","subject":"tleq585qfz8qaaa","sona":"7450"},{"rt":410.2299999794923,"stimulus":"<p>Welche Sequenz haben Sie als natürlicher empfunden?</p>","key_press":70,"test_part":"response","test_stimulus":{"position":0,"left":"bvh/pass-bottle-training1-lines.txt","right":"bvh/vr_prediction_models/model(dmp)-dataset(pass-bottle)-npsi(100)-hold(1)/final-lines.txt","att_check":false},"trial_type":"html-keyboard-response","trial_index":74,"time_elapsed":160278,"internal_node_id":"0.0-8.0-3.16","subject":"tleq585qfz8qaaa","sona":"7450"},{"rt":135.8149999869056,"stimulus":"<p>Bereit?</p>","key_press":32,"trial_type":"html-keyboard-response","trial_index":75,"time_elapsed":160417,"internal_node_id":"0.0-8.0-0.17","subject":"tleq585qfz8qaaa","sona":"7450"},{"rt":null,"stimulus":"<div style=\"font-size:60px;\">+</div>","key_press":null,"trial_type":"html-keyboard-response","trial_index":76,"time_elapsed":164036,"internal_node_id":"0.0-8.0-1.17","subject":"tleq585qfz8qaaa","sona":"7450"},{"trial_type":"turing-test","trial_index":77,"time_elapsed":169844,"internal_node_id":"0.0-8.0-2.17","subject":"tleq585qfz8qaaa","sona":"7450"},{"rt":507.28999997954816,"stimulus":"<p>Welche Sequenz haben Sie als natürlicher empfunden?</p>","key_press":74,"test_part":"response","test_stimulus":{"position":0,"left":"bvh/return-bottle-training4-lines.txt","right":"bvh/vr_prediction_models/model(tmp)-dataset(return-bottle)-numprim(9)-hold(4)/final-lines.txt","att_check":false},"trial_type":"html-keyboard-response","trial_index":78,"time_elapsed":170354,"internal_node_id":"0.0-8.0-3.17","subject":"tleq585qfz8qaaa","sona":"7450"},{"rt":295.40499998256564,"stimulus":"<p>Bereit?</p>","key_press":32,"trial_type":"html-keyboard-response","trial_index":79,"time_elapsed":170653,"internal_node_id":"0.0-8.0-0.18","subject":"tleq585qfz8qaaa","sona":"7450"},{"rt":null,"stimulus":"<div style=\"font-size:60px;\">+</div>","key_press":null,"trial_type":"html-keyboard-response","trial_index":80,"time_elapsed":172655,"internal_node_id":"0.0-8.0-1.18","subject":"tleq585qfz8qaaa","sona":"7450"},{"trial_type":"turing-test","trial_index":81,"time_elapsed":178430,"internal_node_id":"0.0-8.0-2.18","subject":"tleq585qfz8qaaa","sona":"7450"},{"rt":531.4450000296347,"stimulus":"<p>Welche Sequenz haben Sie als natürlicher empfunden?</p>","key_press":70,"test_part":"response","test_stimulus":{"position":0,"left":"bvh/pass-bottle-training4-lines.txt","right":"bvh/vr_prediction_models/model(tmp)-dataset(pass-bottle)-numprim(6)-hold(4)/final-lines.txt","att_check":false},"trial_type":"html-keyboard-response","trial_index":82,"time_elapsed":178965,"internal_node_id":"0.0-8.0-3.18","subject":"tleq585qfz8qaaa","sona":"7450"},{"rt":307.0700000389479,"stimulus":"<p>Bereit?</p>","key_press":32,"trial_type":"html-keyboard-response","trial_index":83,"time_elapsed":179275,"internal_node_id":"0.0-8.0-0.19","subject":"tleq585qfz8qaaa","sona":"7450"},{"rt":null,"stimulus":"<div style=\"font-size:60px;\">+</div>","key_press":null,"trial_type":"html-keyboard-response","trial_index":84,"time_elapsed":181277,"internal_node_id":"0.0-8.0-1.19","subject":"tleq585qfz8qaaa","sona":"7450"},{"trial_type":"turing-test","trial_index":85,"time_elapsed":187156,"internal_node_id":"0.0-8.0-2.19","subject":"tleq585qfz8qaaa","sona":"7450"},{"rt":427.69500002032146,"stimulus":"<p>Welche Sequenz haben Sie als natürlicher empfunden?</p>","key_press":70,"test_part":"response","test_stimulus":{"position":0,"left":"bvh/return-bottle-training3-lines.txt","right":"bvh/vr_prediction_models/model(vcgpdm)-dataset(return-bottle)-mode(ELBO)-parts(1)-dyn(10)-lvm(30)-hold(3)/final-lines.txt","att_check":false},"trial_type":"html-keyboard-response","trial_index":86,"time_elapsed":187587,"internal_node_id":"0.0-8.0-3.19","subject":"tleq585qfz8qaaa","sona":"7450"},{"rt":284.51999998651445,"stimulus":"<p>Bereit?</p>","key_press":32,"trial_type":"html-keyboard-response","trial_index":87,"time_elapsed":187874,"internal_node_id":"0.0-8.0-0.20","subject":"tleq585qfz8qaaa","sona":"7450"},{"rt":null,"stimulus":"<div style=\"font-size:60px;\">+</div>","key_press":null,"trial_type":"html-keyboard-response","trial_index":88,"time_elapsed":189877,"internal_node_id":"0.0-8.0-1.20","subject":"tleq585qfz8qaaa","sona":"7450"},{"trial_type":"turing-test","trial_index":89,"time_elapsed":193219,"internal_node_id":"0.0-8.0-2.20","subject":"tleq585qfz8qaaa","sona":"7450"},{"rt":571.1650000303052,"stimulus":"<p>Welche Sequenz haben Sie als natürlicher empfunden?</p>","key_press":70,"test_part":"response","test_stimulus":{"position":0,"left":"bvh/pass-bottle-hold-training0-lines.txt","right":"bvh/vr_prediction_models/model(tmp)-dataset(pass-bottle-hold)-numprim(8)-hold(0)/final-lines.txt","att_check":false},"trial_type":"html-keyboard-response","trial_index":90,"time_elapsed":193794,"internal_node_id":"0.0-8.0-3.20","subject":"tleq585qfz8qaaa","sona":"7450"},{"rt":276.3750000158325,"stimulus":"<p>Bereit?</p>","key_press":32,"trial_type":"html-keyboard-response","trial_index":91,"time_elapsed":194073,"internal_node_id":"0.0-8.0-0.21","subject":"tleq585qfz8qaaa","sona":"7450"},{"rt":null,"stimulus":"<div style=\"font-size:60px;\">+</div>","key_press":null,"trial_type":"html-keyboard-response","trial_index":92,"time_elapsed":196075,"internal_node_id":"0.0-8.0-1.21","subject":"tleq585qfz8qaaa","sona":"7450"},{"trial_type":"turing-test","trial_index":93,"time_elapsed":199857,"internal_node_id":"0.0-8.0-2.21","subject":"tleq585qfz8qaaa","sona":"7450"},{"rt":747.4300000467338,"stimulus":"<p>Welche Sequenz haben Sie als natürlicher empfunden?</p>","key_press":70,"test_part":"response","test_stimulus":{"position":0,"left":"bvh/return-bottle-hold-training4-lines.txt","right":"bvh/vr_prediction_models/model(tmp)-dataset(return-bottle-hold)-numprim(9)-hold(4)/final-lines.txt","att_check":false},"trial_type":"html-keyboard-response","trial_index":94,"time_elapsed":200607,"internal_node_id":"0.0-8.0-3.21","subject":"tleq585qfz8qaaa","sona":"7450"},{"rt":256.75000000046566,"stimulus":"<p>Bereit?</p>","key_press":32,"trial_type":"html-keyboard-response","trial_index":95,"time_elapsed":200866,"internal_node_id":"0.0-8.0-0.22","subject":"tleq585qfz8qaaa","sona":"7450"},{"rt":null,"stimulus":"<div style=\"font-size:60px;\">+</div>","key_press":null,"trial_type":"html-keyboard-response","trial_index":96,"time_elapsed":202868,"internal_node_id":"0.0-8.0-1.22","subject":"tleq585qfz8qaaa","sona":"7450"},{"trial_type":"turing-test","trial_index":97,"time_elapsed":209665,"internal_node_id":"0.0-8.0-2.22","subject":"tleq585qfz8qaaa","sona":"7450"},{"rt":415.7950000371784,"stimulus":"<p>Welche Sequenz haben Sie als natürlicher empfunden?</p>","key_press":70,"test_part":"response","test_stimulus":{"position":0,"left":"bvh/pass-bottle-training0-lines.txt","right":"bvh/vr_prediction_models/model(tmp)-dataset(pass-bottle)-numprim(12)-hold(0)/final-lines.txt","att_check":false},"trial_type":"html-keyboard-response","trial_index":98,"time_elapsed":210084,"internal_node_id":"0.0-8.0-3.22","subject":"tleq585qfz8qaaa","sona":"7450"},{"rt":246.0549999959767,"stimulus":"<p>Bereit?</p>","key_press":32,"trial_type":"html-keyboard-response","trial_index":99,"time_elapsed":210332,"internal_node_id":"0.0-8.0-0.23","subject":"tleq585qfz8qaaa","sona":"7450"},{"rt":null,"stimulus":"<div style=\"font-size:60px;\">+</div>","key_press":null,"trial_type":"html-keyboard-response","trial_index":100,"time_elapsed":212335,"internal_node_id":"0.0-8.0-1.23","subject":"tleq585qfz8qaaa","sona":"7450"},{"trial_type":"turing-test","trial_index":101,"time_elapsed":218565,"internal_node_id":"0.0-8.0-2.23","subject":"tleq585qfz8qaaa","sona":"7450"},{"rt":465.74999997392297,"stimulus":"<p>Welche Sequenz haben Sie als natürlicher empfunden?</p>","key_press":70,"test_part":"response","test_stimulus":{"position":0,"left":"bvh/pass-bottle-training2-lines.txt","right":"bvh/vr_prediction_models/model(dmp)-dataset(pass-bottle)-npsi(60)-hold(2)/final-lines.txt","att_check":false},"trial_type":"html-keyboard-response","trial_index":102,"time_elapsed":219034,"internal_node_id":"0.0-8.0-3.23","subject":"tleq585qfz8qaaa","sona":"7450"},{"rt":295.574999996461,"stimulus":"<p>Bereit?</p>","key_press":32,"trial_type":"html-keyboard-response","trial_index":103,"time_elapsed":219332,"internal_node_id":"0.0-8.0-0.24","subject":"tleq585qfz8qaaa","sona":"7450"},{"rt":null,"stimulus":"<div style=\"font-size:60px;\">+</div>","key_press":null,"trial_type":"html-keyboard-response","trial_index":104,"time_elapsed":221336,"internal_node_id":"0.0-8.0-1.24","subject":"tleq585qfz8qaaa","sona":"7450"},{"trial_type":"turing-test","trial_index":105,"time_elapsed":224738,"internal_node_id":"0.0-8.0-2.24","subject":"tleq585qfz8qaaa","sona":"7450"},{"rt":623.3749999664724,"stimulus":"<p>Welche Sequenz haben Sie als natürlicher empfunden?</p>","key_press":70,"test_part":"response","test_stimulus":{"position":1,"left":"bvh/vr_prediction_models/model(tmp)-dataset(pass-bottle-hold)-numprim(11)-hold(0)/final-lines.txt","right":"bvh/pass-bottle-hold-training0-lines.txt","att_check":false},"trial_type":"html-keyboard-response","trial_index":106,"time_elapsed":225365,"internal_node_id":"0.0-8.0-3.24","subject":"tleq585qfz8qaaa","sona":"7450"},{"rt":324.3600000278093,"stimulus":"<p>Bereit?</p>","key_press":32,"trial_type":"html-keyboard-response","trial_index":107,"time_elapsed":225693,"internal_node_id":"0.0-8.0-0.25","subject":"tleq585qfz8qaaa","sona":"7450"},{"rt":null,"stimulus":"<div style=\"font-size:60px;\">+</div>","key_press":null,"trial_type":"html-keyboard-response","trial_index":108,"time_elapsed":227696,"internal_node_id":"0.0-8.0-1.25","subject":"tleq585qfz8qaaa","sona":"7450"},{"trial_type":"turing-test","trial_index":109,"time_elapsed":233856,"internal_node_id":"0.0-8.0-2.25","subject":"tleq585qfz8qaaa","sona":"7450"},{"rt":586.295000044629,"stimulus":"<p>Welche Sequenz haben Sie als natürlicher empfunden?</p>","key_press":74,"test_part":"response","test_stimulus":{"position":1,"left":"bvh/vr_prediction_models/model(dmp)-dataset(return-bottle)-npsi(10)-hold(1)/final-lines.txt","right":"bvh/return-bottle-training1-lines.txt","att_check":true},"trial_type":"html-keyboard-response","trial_index":110,"time_elapsed":234445,"internal_node_id":"0.0-8.0-3.25","subject":"tleq585qfz8qaaa","sona":"7450"},{"rt":335.5450000381097,"stimulus":"<p>Bereit?</p>","key_press":32,"trial_type":"html-keyboard-response","trial_index":111,"time_elapsed":234783,"internal_node_id":"0.0-8.0-0.26","subject":"tleq585qfz8qaaa","sona":"7450"},{"rt":null,"stimulus":"<div style=\"font-size:60px;\">+</div>","key_press":null,"trial_type":"html-keyboard-response","trial_index":112,"time_elapsed":236785,"internal_node_id":"0.0-8.0-1.26","subject":"tleq585qfz8qaaa","sona":"7450"},{"trial_type":"turing-test","trial_index":113,"time_elapsed":240558,"internal_node_id":"0.0-8.0-2.26","subject":"tleq585qfz8qaaa","sona":"7450"},{"rt":635.6000000378117,"stimulus":"<p>Welche Sequenz haben Sie als natürlicher empfunden?</p>","key_press":74,"test_part":"response","test_stimulus":{"position":1,"left":"bvh/vr_prediction_models/model(vcgpdm)-dataset(pass-bottle-hold)-mode(ELBO)-parts(3)-dyn(10)-lvm(25)-hold(4)/final-lines.txt","right":"bvh/pass-bottle-hold-training4-lines.txt","att_check":false},"trial_type":"html-keyboard-response","trial_index":114,"time_elapsed":241197,"internal_node_id":"0.0-8.0-3.26","subject":"tleq585qfz8qaaa","sona":"7450"},{"rt":226.41499998280779,"stimulus":"<p>Bereit?</p>","key_press":32,"trial_type":"html-keyboard-response","trial_index":115,"time_elapsed":241426,"internal_node_id":"0.0-8.0-0.27","subject":"tleq585qfz8qaaa","sona":"7450"},{"rt":null,"stimulus":"<div style=\"font-size:60px;\">+</div>","key_press":null,"trial_type":"html-keyboard-response","trial_index":116,"time_elapsed":243427,"internal_node_id":"0.0-8.0-1.27","subject":"tleq585qfz8qaaa","sona":"7450"},{"trial_type":"turing-test","trial_index":117,"time_elapsed":248912,"internal_node_id":"0.0-8.0-2.27","subject":"tleq585qfz8qaaa","sona":"7450"},{"rt":417.69999999087304,"stimulus":"<p>Welche Sequenz haben Sie als natürlicher empfunden?</p>","key_press":74,"test_part":"response","test_stimulus":{"position":1,"left":"bvh/vr_prediction_models/model(vcgpdm)-dataset(return-bottle)-mode(ELBO)-parts(3)-dyn(20)-lvm(35)-hold(0)/final-lines.txt","right":"bvh/return-bottle-training0-lines.txt","att_check":false},"trial_type":"html-keyboard-response","trial_index":118,"time_elapsed":249333,"internal_node_id":"0.0-8.0-3.27","subject":"tleq585qfz8qaaa","sona":"7450"},{"rt":225.66499997628853,"stimulus":"<p>Bereit?</p>","key_press":32,"trial_type":"html-keyboard-response","trial_index":119,"time_elapsed":249562,"internal_node_id":"0.0-8.0-0.28","subject":"tleq585qfz8qaaa","sona":"7450"},{"rt":null,"stimulus":"<div style=\"font-size:60px;\">+</div>","key_press":null,"trial_type":"html-keyboard-response","trial_index":120,"time_elapsed":251563,"internal_node_id":"0.0-8.0-1.28","subject":"tleq585qfz8qaaa","sona":"7450"},{"trial_type":"turing-test","trial_index":121,"time_elapsed":257393,"internal_node_id":"0.0-8.0-2.28","subject":"tleq585qfz8qaaa","sona":"7450"},{"rt":466.0300000105053,"stimulus":"<p>Welche Sequenz haben Sie als natürlicher empfunden?</p>","key_press":74,"test_part":"response","test_stimulus":{"position":1,"left":"bvh/vr_prediction_models/model(dmp)-dataset(return-bottle)-npsi(80)-hold(4)/final-lines.txt","right":"bvh/return-bottle-training4-lines.txt","att_check":false},"trial_type":"html-keyboard-response","trial_index":122,"time_elapsed":257863,"internal_node_id":"0.0-8.0-3.28","subject":"tleq585qfz8qaaa","sona":"7450"},{"rt":286.1949999933131,"stimulus":"<p>Bereit?</p>","key_press":32,"trial_type":"html-keyboard-response","trial_index":123,"time_elapsed":258152,"internal_node_id":"0.0-8.0-0.29","subject":"tleq585qfz8qaaa","sona":"7450"},{"rt":null,"stimulus":"<div style=\"font-size:60px;\">+</div>","key_press":null,"trial_type":"html-keyboard-response","trial_index":124,"time_elapsed":260155,"internal_node_id":"0.0-8.0-1.29","subject":"tleq585qfz8qaaa","sona":"7450"},{"trial_type":"turing-test","trial_index":125,"time_elapsed":263706,"internal_node_id":"0.0-8.0-2.29","subject":"tleq585qfz8qaaa","sona":"7450"},{"rt":485.7649999903515,"stimulus":"<p>Welche Sequenz haben Sie als natürlicher empfunden?</p>","key_press":74,"test_part":"response","test_stimulus":{"position":1,"left":"bvh/vr_prediction_models/model(dmp)-dataset(return-bottle-hold)-npsi(80)-hold(2)/final-lines.txt","right":"bvh/return-bottle-hold-training2-lines.txt","att_check":false},"trial_type":"html-keyboard-response","trial_index":126,"time_elapsed":264196,"internal_node_id":"0.0-8.0-3.29","subject":"tleq585qfz8qaaa","sona":"7450"},{"rt":244.45999995805323,"stimulus":"<p>Bereit?</p>","key_press":32,"trial_type":"html-keyboard-response","trial_index":127,"time_elapsed":264443,"internal_node_id":"0.0-8.0-0.30","subject":"tleq585qfz8qaaa","sona":"7450"},{"rt":null,"stimulus":"<div style=\"font-size:60px;\">+</div>","key_press":null,"trial_type":"html-keyboard-response","trial_index":128,"time_elapsed":266446,"internal_node_id":"0.0-8.0-1.30","subject":"tleq585qfz8qaaa","sona":"7450"},{"trial_type":"turing-test","trial_index":129,"time_elapsed":273244,"internal_node_id":"0.0-8.0-2.30","subject":"tleq585qfz8qaaa","sona":"7450"},{"rt":425.6950000417419,"stimulus":"<p>Welche Sequenz haben Sie als natürlicher empfunden?</p>","key_press":70,"test_part":"response","test_stimulus":{"position":0,"left":"bvh/return-bottle-training2-lines.txt","right":"bvh/vr_prediction_models/model(vcgpdm)-dataset(return-bottle)-mode(ELBO)-parts(3)-dyn(20)-lvm(20)-hold(2)/final-lines.txt","att_check":false},"trial_type":"html-keyboard-response","trial_index":130,"time_elapsed":273673,"internal_node_id":"0.0-8.0-3.30","subject":"tleq585qfz8qaaa","sona":"7450"},{"rt":215.30999999959022,"stimulus":"<p>Bereit?</p>","key_press":32,"trial_type":"html-keyboard-response","trial_index":131,"time_elapsed":273891,"internal_node_id":"0.0-8.0-0.31","subject":"tleq585qfz8qaaa","sona":"7450"},{"rt":null,"stimulus":"<div style=\"font-size:60px;\">+</div>","key_press":null,"trial_type":"html-keyboard-response","trial_index":132,"time_elapsed":275892,"internal_node_id":"0.0-8.0-1.31","subject":"tleq585qfz8qaaa","sona":"7450"},{"trial_type":"turing-test","trial_index":133,"time_elapsed":281174,"internal_node_id":"0.0-8.0-2.31","subject":"tleq585qfz8qaaa","sona":"7450"},{"rt":425.51000003004447,"stimulus":"<p>Welche Sequenz haben Sie als natürlicher empfunden?</p>","key_press":74,"test_part":"response","test_stimulus":{"position":1,"left":"bvh/vr_prediction_models/model(vcgpdm)-dataset(return-bottle-hold)-mode(ELBO)-parts(1)-dyn(10)-lvm(30)-hold(0)/final-lines.txt","right":"bvh/return-bottle-hold-training0-lines.txt","att_check":false},"trial_type":"html-keyboard-response","trial_index":134,"time_elapsed":281603,"internal_node_id":"0.0-8.0-3.31","subject":"tleq585qfz8qaaa","sona":"7450"},{"rt":165.7250000280328,"stimulus":"<p>Bereit?</p>","key_press":32,"trial_type":"html-keyboard-response","trial_index":135,"time_elapsed":281772,"internal_node_id":"0.0-8.0-0.32","subject":"tleq585qfz8qaaa","sona":"7450"},{"rt":null,"stimulus":"<div style=\"font-size:60px;\">+</div>","key_press":null,"trial_type":"html-keyboard-response","trial_index":136,"time_elapsed":283773,"internal_node_id":"0.0-8.0-1.32","subject":"tleq585qfz8qaaa","sona":"7450"},{"trial_type":"turing-test","trial_index":137,"time_elapsed":289857,"internal_node_id":"0.0-8.0-2.32","subject":"tleq585qfz8qaaa","sona":"7450"},{"rt":421.75500001758337,"stimulus":"<p>Welche Sequenz haben Sie als natürlicher empfunden?</p>","key_press":70,"test_part":"response","test_stimulus":{"position":0,"left":"bvh/pass-bottle-training2-lines.txt","right":"bvh/vr_prediction_models/model(tmp)-dataset(pass-bottle)-numprim(6)-hold(2)/final-lines.txt","att_check":false},"trial_type":"html-keyboard-response","trial_index":138,"time_elapsed":290283,"internal_node_id":"0.0-8.0-3.32","subject":"tleq585qfz8qaaa","sona":"7450"},{"rt":255.2249999716878,"stimulus":"<p>Bereit?</p>","key_press":32,"trial_type":"html-keyboard-response","trial_index":139,"time_elapsed":290541,"internal_node_id":"0.0-8.0-0.33","subject":"tleq585qfz8qaaa","sona":"7450"},{"rt":null,"stimulus":"<div style=\"font-size:60px;\">+</div>","key_press":null,"trial_type":"html-keyboard-response","trial_index":140,"time_elapsed":292544,"internal_node_id":"0.0-8.0-1.33","subject":"tleq585qfz8qaaa","sona":"7450"},{"trial_type":"turing-test","trial_index":141,"time_elapsed":296089,"internal_node_id":"0.0-8.0-2.33","subject":"tleq585qfz8qaaa","sona":"7450"},{"rt":468.83500000694767,"stimulus":"<p>Welche Sequenz haben Sie als natürlicher empfunden?</p>","key_press":74,"test_part":"response","test_stimulus":{"position":1,"left":"bvh/vr_prediction_models/model(vcgpdm)-dataset(pass-bottle-hold)-mode(ELBO)-parts(1)-dyn(30)-lvm(20)-hold(0)/final-lines.txt","right":"bvh/pass-bottle-hold-training0-lines.txt","att_check":false},"trial_type":"html-keyboard-response","trial_index":142,"time_elapsed":296561,"internal_node_id":"0.0-8.0-3.33","subject":"tleq585qfz8qaaa","sona":"7450"},{"rt":225.67500005243346,"stimulus":"<p>Bereit?</p>","key_press":32,"trial_type":"html-keyboard-response","trial_index":143,"time_elapsed":296790,"internal_node_id":"0.0-8.0-0.34","subject":"tleq585qfz8qaaa","sona":"7450"},{"rt":null,"stimulus":"<div style=\"font-size:60px;\">+</div>","key_press":null,"trial_type":"html-keyboard-response","trial_index":144,"time_elapsed":298792,"internal_node_id":"0.0-8.0-1.34","subject":"tleq585qfz8qaaa","sona":"7450"},{"trial_type":"turing-test","trial_index":145,"time_elapsed":302073,"internal_node_id":"0.0-8.0-2.34","subject":"tleq585qfz8qaaa","sona":"7450"},{"rt":432.7950000297278,"stimulus":"<p>Welche Sequenz haben Sie als natürlicher empfunden?</p>","key_press":74,"test_part":"response","test_stimulus":{"position":1,"left":"bvh/vr_prediction_models/model(tmp)-dataset(pass-bottle-hold)-numprim(12)-hold(1)/final-lines.txt","right":"bvh/pass-bottle-hold-training1-lines.txt","att_check":false},"trial_type":"html-keyboard-response","trial_index":146,"time_elapsed":302509,"internal_node_id":"0.0-8.0-3.34","subject":"tleq585qfz8qaaa","sona":"7450"},{"rt":316.15999998757616,"stimulus":"<p>Bereit?</p>","key_press":32,"trial_type":"html-keyboard-response","trial_index":147,"time_elapsed":302829,"internal_node_id":"0.0-8.0-0.35","subject":"tleq585qfz8qaaa","sona":"7450"},{"rt":null,"stimulus":"<div style=\"font-size:60px;\">+</div>","key_press":null,"trial_type":"html-keyboard-response","trial_index":148,"time_elapsed":304833,"internal_node_id":"0.0-8.0-1.35","subject":"tleq585qfz8qaaa","sona":"7450"},{"trial_type":"turing-test","trial_index":149,"time_elapsed":310381,"internal_node_id":"0.0-8.0-2.35","subject":"tleq585qfz8qaaa","sona":"7450"},{"rt":676.5700000105426,"stimulus":"<p>Welche Sequenz haben Sie als natürlicher empfunden?</p>","key_press":70,"test_part":"response","test_stimulus":{"position":0,"left":"bvh/pass-bottle-training1-lines.txt","right":"bvh/vr_prediction_models/model(dmp)-dataset(pass-bottle)-npsi(90)-hold(1)/final-lines.txt","att_check":false},"trial_type":"html-keyboard-response","trial_index":150,"time_elapsed":311061,"internal_node_id":"0.0-8.0-3.35","subject":"tleq585qfz8qaaa","sona":"7450"},{"rt":295.8349999971688,"stimulus":"<p>Bereit?</p>","key_press":32,"trial_type":"html-keyboard-response","trial_index":151,"time_elapsed":311359,"internal_node_id":"0.0-8.0-0.36","subject":"tleq585qfz8qaaa","sona":"7450"},{"rt":null,"stimulus":"<div style=\"font-size:60px;\">+</div>","key_press":null,"trial_type":"html-keyboard-response","trial_index":152,"time_elapsed":313361,"internal_node_id":"0.0-8.0-1.36","subject":"tleq585qfz8qaaa","sona":"7450"},{"trial_type":"turing-test","trial_index":153,"time_elapsed":320058,"internal_node_id":"0.0-8.0-2.36","subject":"tleq585qfz8qaaa","sona":"7450"},{"rt":442.8150000167079,"stimulus":"<p>Welche Sequenz haben Sie als natürlicher empfunden?</p>","key_press":74,"test_part":"response","test_stimulus":{"position":1,"left":"bvh/vr_prediction_models/model(vcgpdm)-dataset(return-bottle)-mode(ELBO)-parts(1)-dyn(30)-lvm(35)-hold(2)/final-lines.txt","right":"bvh/return-bottle-training2-lines.txt","att_check":false},"trial_type":"html-keyboard-response","trial_index":154,"time_elapsed":320504,"internal_node_id":"0.0-8.0-3.36","subject":"tleq585qfz8qaaa","sona":"7450"},{"rt":285.135000012815,"stimulus":"<p>Bereit?</p>","key_press":32,"trial_type":"html-keyboard-response","trial_index":155,"time_elapsed":320793,"internal_node_id":"0.0-8.0-0.37","subject":"tleq585qfz8qaaa","sona":"7450"},{"rt":null,"stimulus":"<div style=\"font-size:60px;\">+</div>","key_press":null,"trial_type":"html-keyboard-response","trial_index":156,"time_elapsed":322795,"internal_node_id":"0.0-8.0-1.37","subject":"tleq585qfz8qaaa","sona":"7450"},{"trial_type":"turing-test","trial_index":157,"time_elapsed":326615,"internal_node_id":"0.0-8.0-2.37","subject":"tleq585qfz8qaaa","sona":"7450"},{"rt":655.9300000080839,"stimulus":"<p>Welche Sequenz haben Sie als natürlicher empfunden?</p>","key_press":70,"test_part":"response","test_stimulus":{"position":0,"left":"bvh/pass-bottle-hold-training3-lines.txt","right":"bvh/vr_prediction_models/model(vcgpdm)-dataset(pass-bottle-hold)-mode(ELBO)-parts(1)-dyn(30)-lvm(35)-hold(3)/final-lines.txt","att_check":false},"trial_type":"html-keyboard-response","trial_index":158,"time_elapsed":327274,"internal_node_id":"0.0-8.0-3.37","subject":"tleq585qfz8qaaa","sona":"7450"},{"rt":235.79000000609085,"stimulus":"<p>Bereit?</p>","key_press":32,"trial_type":"html-keyboard-response","trial_index":159,"time_elapsed":327513,"internal_node_id":"0.0-8.0-0.38","subject":"tleq585qfz8qaaa","sona":"7450"},{"rt":null,"stimulus":"<div style=\"font-size:60px;\">+</div>","key_press":null,"trial_type":"html-keyboard-response","trial_index":160,"time_elapsed":329514,"internal_node_id":"0.0-8.0-1.38","subject":"tleq585qfz8qaaa","sona":"7450"},{"trial_type":"turing-test","trial_index":161,"time_elapsed":333071,"internal_node_id":"0.0-8.0-2.38","subject":"tleq585qfz8qaaa","sona":"7450"},{"rt":1688.6549999471754,"stimulus":"<p>Welche Sequenz haben Sie als natürlicher empfunden?</p>","key_press":74,"test_part":"response","test_stimulus":{"position":0,"left":"bvh/return-bottle-hold-training1-lines.txt","right":"bvh/vr_prediction_models/model(vcgpdm)-dataset(return-bottle-hold)-mode(ELBO)-parts(3)-dyn(10)-lvm(30)-hold(1)/final-lines.txt","att_check":false},"trial_type":"html-keyboard-response","trial_index":162,"time_elapsed":334763,"internal_node_id":"0.0-8.0-3.38","subject":"tleq585qfz8qaaa","sona":"7450"},{"rt":156.53000003658235,"stimulus":"<p>Bereit?</p>","key_press":32,"trial_type":"html-keyboard-response","trial_index":163,"time_elapsed":334924,"internal_node_id":"0.0-8.0-0.39","subject":"tleq585qfz8qaaa","sona":"7450"},{"rt":null,"stimulus":"<div style=\"font-size:60px;\">+</div>","key_press":null,"trial_type":"html-keyboard-response","trial_index":164,"time_elapsed":336935,"internal_node_id":"0.0-8.0-1.39","subject":"tleq585qfz8qaaa","sona":"7450"},{"trial_type":"turing-test","trial_index":165,"time_elapsed":342596,"internal_node_id":"0.0-8.0-2.39","subject":"tleq585qfz8qaaa","sona":"7450"},{"rt":2125.5849999724887,"stimulus":"<p>Welche Sequenz haben Sie als natürlicher empfunden?</p>","key_press":70,"test_part":"response","test_stimulus":{"position":1,"left":"bvh/vr_prediction_models/model(vcgpdm)-dataset(pass-bottle)-mode(ELBO)-parts(1)-dyn(20)-lvm(5)-hold(1)/final-lines.txt","right":"bvh/pass-bottle-training1-lines.txt","att_check":false},"trial_type":"html-keyboard-response","trial_index":166,"time_elapsed":344726,"internal_node_id":"0.0-8.0-3.39","subject":"tleq585qfz8qaaa","sona":"7450"},{"rt":312.99000000581145,"stimulus":"<p>Bereit?</p>","key_press":32,"trial_type":"html-keyboard-response","trial_index":167,"time_elapsed":345043,"internal_node_id":"0.0-8.0-0.40","subject":"tleq585qfz8qaaa","sona":"7450"},{"rt":null,"stimulus":"<div style=\"font-size:60px;\">+</div>","key_press":null,"trial_type":"html-keyboard-response","trial_index":168,"time_elapsed":347046,"internal_node_id":"0.0-8.0-1.40","subject":"tleq585qfz8qaaa","sona":"7450"},{"trial_type":"turing-test","trial_index":169,"time_elapsed":350447,"internal_node_id":"0.0-8.0-2.40","subject":"tleq585qfz8qaaa","sona":"7450"},{"rt":3170.094999950379,"stimulus":"<p>Welche Sequenz haben Sie als natürlicher empfunden?</p>","key_press":74,"test_part":"response","test_stimulus":{"position":0,"left":"bvh/return-bottle-hold-training1-lines.txt","right":"bvh/vr_prediction_models/model(dmp)-dataset(return-bottle-hold)-npsi(10)-hold(1)/final-lines.txt","att_check":false},"trial_type":"html-keyboard-response","trial_index":170,"time_elapsed":353622,"internal_node_id":"0.0-8.0-3.40","subject":"tleq585qfz8qaaa","sona":"7450"},{"rt":286.4650000119582,"stimulus":"<p>Bereit?</p>","key_press":32,"trial_type":"html-keyboard-response","trial_index":171,"time_elapsed":353911,"internal_node_id":"0.0-8.0-0.41","subject":"tleq585qfz8qaaa","sona":"7450"},{"rt":null,"stimulus":"<div style=\"font-size:60px;\">+</div>","key_press":null,"trial_type":"html-keyboard-response","trial_index":172,"time_elapsed":355913,"internal_node_id":"0.0-8.0-1.41","subject":"tleq585qfz8qaaa","sona":"7450"},{"trial_type":"turing-test","trial_index":173,"time_elapsed":362734,"internal_node_id":"0.0-8.0-2.41","subject":"tleq585qfz8qaaa","sona":"7450"},{"rt":1010.039999964647,"stimulus":"<p>Welche Sequenz haben Sie als natürlicher empfunden?</p>","key_press":70,"test_part":"response","test_stimulus":{"position":1,"left":"bvh/vr_prediction_models/model(tmp)-dataset(pass-bottle)-numprim(10)-hold(0)/final-lines.txt","right":"bvh/pass-bottle-training0-lines.txt","att_check":false},"trial_type":"html-keyboard-response","trial_index":174,"time_elapsed":363750,"internal_node_id":"0.0-8.0-3.41","subject":"tleq585qfz8qaaa","sona":"7450"},{"rt":334.74500000011176,"stimulus":"<p>Bereit?</p>","key_press":32,"trial_type":"html-keyboard-response","trial_index":175,"time_elapsed":364089,"internal_node_id":"0.0-8.0-0.42","subject":"tleq585qfz8qaaa","sona":"7450"},{"rt":null,"stimulus":"<div style=\"font-size:60px;\">+</div>","key_press":null,"trial_type":"html-keyboard-response","trial_index":176,"time_elapsed":366090,"internal_node_id":"0.0-8.0-1.42","subject":"tleq585qfz8qaaa","sona":"7450"},{"trial_type":"turing-test","trial_index":177,"time_elapsed":369553,"internal_node_id":"0.0-8.0-2.42","subject":"tleq585qfz8qaaa","sona":"7450"},{"rt":770.8950000233017,"stimulus":"<p>Welche Sequenz haben Sie als natürlicher empfunden?</p>","key_press":70,"test_part":"response","test_stimulus":{"position":0,"left":"bvh/pass-bottle-hold-training0-lines.txt","right":"bvh/vr_prediction_models/model(dmp)-dataset(pass-bottle-hold)-npsi(20)-hold(0)/final-lines.txt","att_check":false},"trial_type":"html-keyboard-response","trial_index":178,"time_elapsed":370330,"internal_node_id":"0.0-8.0-3.42","subject":"tleq585qfz8qaaa","sona":"7450"},{"rt":335.61000000918284,"stimulus":"<p>Bereit?</p>","key_press":32,"trial_type":"html-keyboard-response","trial_index":179,"time_elapsed":370669,"internal_node_id":"0.0-8.0-0.43","subject":"tleq585qfz8qaaa","sona":"7450"},{"rt":null,"stimulus":"<div style=\"font-size:60px;\">+</div>","key_press":null,"trial_type":"html-keyboard-response","trial_index":180,"time_elapsed":372671,"internal_node_id":"0.0-8.0-1.43","subject":"tleq585qfz8qaaa","sona":"7450"},{"trial_type":"turing-test","trial_index":181,"time_elapsed":376091,"internal_node_id":"0.0-8.0-2.43","subject":"tleq585qfz8qaaa","sona":"7450"},{"rt":547.1050000051036,"stimulus":"<p>Welche Sequenz haben Sie als natürlicher empfunden?</p>","key_press":74,"test_part":"response","test_stimulus":{"position":1,"left":"bvh/vr_prediction_models/model(dmp)-dataset(pass-bottle-hold)-npsi(90)-hold(2)/final-lines.txt","right":"bvh/pass-bottle-hold-training2-lines.txt","att_check":false},"trial_type":"html-keyboard-response","trial_index":182,"time_elapsed":376642,"internal_node_id":"0.0-8.0-3.43","subject":"tleq585qfz8qaaa","sona":"7450"},{"rt":293.950000021141,"stimulus":"<p>Bereit?</p>","key_press":32,"trial_type":"html-keyboard-response","trial_index":183,"time_elapsed":376940,"internal_node_id":"0.0-8.0-0.44","subject":"tleq585qfz8qaaa","sona":"7450"},{"rt":null,"stimulus":"<div style=\"font-size:60px;\">+</div>","key_press":null,"trial_type":"html-keyboard-response","trial_index":184,"time_elapsed":378943,"internal_node_id":"0.0-8.0-1.44","subject":"tleq585qfz8qaaa","sona":"7450"},{"trial_type":"turing-test","trial_index":185,"time_elapsed":382523,"internal_node_id":"0.0-8.0-2.44","subject":"tleq585qfz8qaaa","sona":"7450"},{"rt":415.77999998116866,"stimulus":"<p>Welche Sequenz haben Sie als natürlicher empfunden?</p>","key_press":74,"test_part":"response","test_stimulus":{"position":1,"left":"bvh/vr_prediction_models/model(vcgpdm)-dataset(pass-bottle-hold)-mode(ELBO)-parts(1)-dyn(20)-lvm(5)-hold(0)/final-lines.txt","right":"bvh/pass-bottle-hold-training0-lines.txt","att_check":false},"trial_type":"html-keyboard-response","trial_index":186,"time_elapsed":382942,"internal_node_id":"0.0-8.0-3.44","subject":"tleq585qfz8qaaa","sona":"7450"},{"rt":295.64999998547137,"stimulus":"<p>Bereit?</p>","key_press":32,"trial_type":"html-keyboard-response","trial_index":187,"time_elapsed":383241,"internal_node_id":"0.0-8.0-0.45","subject":"tleq585qfz8qaaa","sona":"7450"},{"rt":null,"stimulus":"<div style=\"font-size:60px;\">+</div>","key_press":null,"trial_type":"html-keyboard-response","trial_index":188,"time_elapsed":385244,"internal_node_id":"0.0-8.0-1.45","subject":"tleq585qfz8qaaa","sona":"7450"},{"trial_type":"turing-test","trial_index":189,"time_elapsed":389036,"internal_node_id":"0.0-8.0-2.45","subject":"tleq585qfz8qaaa","sona":"7450"},{"rt":554.0199999813922,"stimulus":"<p>Welche Sequenz haben Sie als natürlicher empfunden?</p>","key_press":74,"test_part":"response","test_stimulus":{"position":0,"left":"bvh/pass-bottle-hold-training3-lines.txt","right":"bvh/vr_prediction_models/model(vcgpdm)-dataset(pass-bottle-hold)-mode(ELBO)-parts(1)-dyn(20)-lvm(20)-hold(3)/final-lines.txt","att_check":false},"trial_type":"html-keyboard-response","trial_index":190,"time_elapsed":389594,"internal_node_id":"0.0-8.0-3.45","subject":"tleq585qfz8qaaa","sona":"7450"},{"rt":315.1300000026822,"stimulus":"<p>Bereit?</p>","key_press":32,"trial_type":"html-keyboard-response","trial_index":191,"time_elapsed":389912,"internal_node_id":"0.0-8.0-0.46","subject":"tleq585qfz8qaaa","sona":"7450"},{"rt":null,"stimulus":"<div style=\"font-size:60px;\">+</div>","key_press":null,"trial_type":"html-keyboard-response","trial_index":192,"time_elapsed":391914,"internal_node_id":"0.0-8.0-1.46","subject":"tleq585qfz8qaaa","sona":"7450"},{"trial_type":"turing-test","trial_index":193,"time_elapsed":395589,"internal_node_id":"0.0-8.0-2.46","subject":"tleq585qfz8qaaa","sona":"7450"},{"rt":459.4700000016019,"stimulus":"<p>Welche Sequenz haben Sie als natürlicher empfunden?</p>","key_press":70,"test_part":"response","test_stimulus":{"position":1,"left":"bvh/vr_prediction_models/model(dmp)-dataset(pass-bottle-hold)-npsi(60)-hold(3)/final-lines.txt","right":"bvh/pass-bottle-hold-training3-lines.txt","att_check":true},"trial_type":"html-keyboard-response","trial_index":194,"time_elapsed":396051,"internal_node_id":"0.0-8.0-3.46","subject":"tleq585qfz8qaaa","sona":"7450"},{"rt":345.4700000002049,"stimulus":"<p>Bereit?</p>","key_press":32,"trial_type":"html-keyboard-response","trial_index":195,"time_elapsed":396400,"internal_node_id":"0.0-8.0-0.47","subject":"tleq585qfz8qaaa","sona":"7450"},{"rt":null,"stimulus":"<div style=\"font-size:60px;\">+</div>","key_press":null,"trial_type":"html-keyboard-response","trial_index":196,"time_elapsed":398402,"internal_node_id":"0.0-8.0-1.47","subject":"tleq585qfz8qaaa","sona":"7450"},{"trial_type":"turing-test","trial_index":197,"time_elapsed":404362,"internal_node_id":"0.0-8.0-2.47","subject":"tleq585qfz8qaaa","sona":"7450"},{"rt":485.6900000013411,"stimulus":"<p>Welche Sequenz haben Sie als natürlicher empfunden?</p>","key_press":70,"test_part":"response","test_stimulus":{"position":0,"left":"bvh/pass-bottle-training4-lines.txt","right":"bvh/vr_prediction_models/model(vcgpdm)-dataset(pass-bottle)-mode(ELBO)-parts(1)-dyn(10)-lvm(25)-hold(4)/final-lines.txt","att_check":false},"trial_type":"html-keyboard-response","trial_index":198,"time_elapsed":404852,"internal_node_id":"0.0-8.0-3.47","subject":"tleq585qfz8qaaa","sona":"7450"},{"rt":293.3349999948405,"stimulus":"<p>Bereit?</p>","key_press":32,"trial_type":"html-keyboard-response","trial_index":199,"time_elapsed":405148,"internal_node_id":"0.0-8.0-0.48","subject":"tleq585qfz8qaaa","sona":"7450"},{"rt":null,"stimulus":"<div style=\"font-size:60px;\">+</div>","key_press":null,"trial_type":"html-keyboard-response","trial_index":200,"time_elapsed":407151,"internal_node_id":"0.0-8.0-1.48","subject":"tleq585qfz8qaaa","sona":"7450"},{"trial_type":"turing-test","trial_index":201,"time_elapsed":413104,"internal_node_id":"0.0-8.0-2.48","subject":"tleq585qfz8qaaa","sona":"7450"},{"rt":614.3850000225939,"stimulus":"<p>Welche Sequenz haben Sie als natürlicher empfunden?</p>","key_press":74,"test_part":"response","test_stimulus":{"position":1,"left":"bvh/vr_prediction_models/model(tmp)-dataset(pass-bottle)-numprim(10)-hold(3)/final-lines.txt","right":"bvh/pass-bottle-training3-lines.txt","att_check":false},"trial_type":"html-keyboard-response","trial_index":202,"time_elapsed":413724,"internal_node_id":"0.0-8.0-3.48","subject":"tleq585qfz8qaaa","sona":"7450"},{"rt":313.5550000006333,"stimulus":"<p>Bereit?</p>","key_press":32,"trial_type":"html-keyboard-response","trial_index":203,"time_elapsed":414041,"internal_node_id":"0.0-8.0-0.49","subject":"tleq585qfz8qaaa","sona":"7450"},{"rt":null,"stimulus":"<div style=\"font-size:60px;\">+</div>","key_press":null,"trial_type":"html-keyboard-response","trial_index":204,"time_elapsed":416045,"internal_node_id":"0.0-8.0-1.49","subject":"tleq585qfz8qaaa","sona":"7450"},{"trial_type":"turing-test","trial_index":205,"time_elapsed":419462,"internal_node_id":"0.0-8.0-2.49","subject":"tleq585qfz8qaaa","sona":"7450"},{"rt":731.1149999732152,"stimulus":"<p>Welche Sequenz haben Sie als natürlicher empfunden?</p>","key_press":70,"test_part":"response","test_stimulus":{"position":0,"left":"bvh/pass-bottle-hold-training2-lines.txt","right":"bvh/vr_prediction_models/model(dmp)-dataset(pass-bottle-hold)-npsi(100)-hold(2)/final-lines.txt","att_check":false},"trial_type":"html-keyboard-response","trial_index":206,"time_elapsed":420200,"internal_node_id":"0.0-8.0-3.49","subject":"tleq585qfz8qaaa","sona":"7450"},{"rt":365.4649999807589,"stimulus":"<p>Bereit?</p>","key_press":32,"trial_type":"html-keyboard-response","trial_index":207,"time_elapsed":420568,"internal_node_id":"0.0-8.0-0.50","subject":"tleq585qfz8qaaa","sona":"7450"},{"rt":null,"stimulus":"<div style=\"font-size:60px;\">+</div>","key_press":null,"trial_type":"html-keyboard-response","trial_index":208,"time_elapsed":422570,"internal_node_id":"0.0-8.0-1.50","subject":"tleq585qfz8qaaa","sona":"7450"},{"trial_type":"turing-test","trial_index":209,"time_elapsed":428765,"internal_node_id":"0.0-8.0-2.50","subject":"tleq585qfz8qaaa","sona":"7450"},{"rt":497.34499998157844,"stimulus":"<p>Welche Sequenz haben Sie als natürlicher empfunden?</p>","key_press":70,"test_part":"response","test_stimulus":{"position":0,"left":"bvh/pass-bottle-training2-lines.txt","right":"bvh/vr_prediction_models/model(dmp)-dataset(pass-bottle)-npsi(90)-hold(2)/final-lines.txt","att_check":false},"trial_type":"html-keyboard-response","trial_index":210,"time_elapsed":429269,"internal_node_id":"0.0-8.0-3.50","subject":"tleq585qfz8qaaa","sona":"7450"},{"rt":274.7199999867007,"stimulus":"<p>Bereit?</p>","key_press":32,"trial_type":"html-keyboard-response","trial_index":211,"time_elapsed":429547,"internal_node_id":"0.0-8.0-0.51","subject":"tleq585qfz8qaaa","sona":"7450"},{"rt":null,"stimulus":"<div style=\"font-size:60px;\">+</div>","key_press":null,"trial_type":"html-keyboard-response","trial_index":212,"time_elapsed":431550,"internal_node_id":"0.0-8.0-1.51","subject":"tleq585qfz8qaaa","sona":"7450"},{"trial_type":"turing-test","trial_index":213,"time_elapsed":434654,"internal_node_id":"0.0-8.0-2.51","subject":"tleq585qfz8qaaa","sona":"7450"},{"rt":438.6850000009872,"stimulus":"<p>Welche Sequenz haben Sie als natürlicher empfunden?</p>","key_press":70,"test_part":"response","test_stimulus":{"position":0,"left":"bvh/pass-bottle-hold-training1-lines.txt","right":"bvh/vr_prediction_models/model(tmp)-dataset(pass-bottle-hold)-numprim(12)-hold(1)/final-lines.txt","att_check":false},"trial_type":"html-keyboard-response","trial_index":214,"time_elapsed":435098,"internal_node_id":"0.0-8.0-3.51","subject":"tleq585qfz8qaaa","sona":"7450"},{"rt":235.7649999903515,"stimulus":"<p>Bereit?</p>","key_press":32,"trial_type":"html-keyboard-response","trial_index":215,"time_elapsed":435337,"internal_node_id":"0.0-8.0-0.52","subject":"tleq585qfz8qaaa","sona":"7450"},{"rt":null,"stimulus":"<div style=\"font-size:60px;\">+</div>","key_press":null,"trial_type":"html-keyboard-response","trial_index":216,"time_elapsed":437339,"internal_node_id":"0.0-8.0-1.52","subject":"tleq585qfz8qaaa","sona":"7450"},{"trial_type":"turing-test","trial_index":217,"time_elapsed":440946,"internal_node_id":"0.0-8.0-2.52","subject":"tleq585qfz8qaaa","sona":"7450"},{"rt":719.7400000295602,"stimulus":"<p>Welche Sequenz haben Sie als natürlicher empfunden?</p>","key_press":74,"test_part":"response","test_stimulus":{"position":1,"left":"bvh/vr_prediction_models/model(tmp)-dataset(return-bottle-hold)-numprim(9)-hold(2)/final-lines.txt","right":"bvh/return-bottle-hold-training2-lines.txt","att_check":false},"trial_type":"html-keyboard-response","trial_index":218,"time_elapsed":441669,"internal_node_id":"0.0-8.0-3.52","subject":"tleq585qfz8qaaa","sona":"7450"},{"rt":375.7750000222586,"stimulus":"<p>Bereit?</p>","key_press":32,"trial_type":"html-keyboard-response","trial_index":219,"time_elapsed":442048,"internal_node_id":"0.0-8.0-0.53","subject":"tleq585qfz8qaaa","sona":"7450"},{"rt":null,"stimulus":"<div style=\"font-size:60px;\">+</div>","key_press":null,"trial_type":"html-keyboard-response","trial_index":220,"time_elapsed":444050,"internal_node_id":"0.0-8.0-1.53","subject":"tleq585qfz8qaaa","sona":"7450"},{"trial_type":"turing-test","trial_index":221,"time_elapsed":450369,"internal_node_id":"0.0-8.0-2.53","subject":"tleq585qfz8qaaa","sona":"7450"},{"rt":638.2549999980256,"stimulus":"<p>Welche Sequenz haben Sie als natürlicher empfunden?</p>","key_press":74,"test_part":"response","test_stimulus":{"position":1,"left":"bvh/vr_prediction_models/model(vcgpdm)-dataset(return-bottle)-mode(MAP)-parts(1)-hold(1)/final-lines.txt","right":"bvh/return-bottle-training1-lines.txt","att_check":false},"trial_type":"html-keyboard-response","trial_index":222,"time_elapsed":451011,"internal_node_id":"0.0-8.0-3.53","subject":"tleq585qfz8qaaa","sona":"7450"},{"rt":435.9249999979511,"stimulus":"<p>Bereit?</p>","key_press":32,"trial_type":"html-keyboard-response","trial_index":223,"time_elapsed":451450,"internal_node_id":"0.0-8.0-0.54","subject":"tleq585qfz8qaaa","sona":"7450"},{"rt":null,"stimulus":"<div style=\"font-size:60px;\">+</div>","key_press":null,"trial_type":"html-keyboard-response","trial_index":224,"time_elapsed":453452,"internal_node_id":"0.0-8.0-1.54","subject":"tleq585qfz8qaaa","sona":"7450"},{"trial_type":"turing-test","trial_index":225,"time_elapsed":459084,"internal_node_id":"0.0-8.0-2.54","subject":"tleq585qfz8qaaa","sona":"7450"},{"rt":400.6350000272505,"stimulus":"<p>Welche Sequenz haben Sie als natürlicher empfunden?</p>","key_press":70,"test_part":"response","test_stimulus":{"position":0,"left":"bvh/return-bottle-training0-lines.txt","right":"bvh/vr_prediction_models/model(vcgpdm)-dataset(return-bottle)-mode(ELBO)-parts(3)-dyn(25)-lvm(25)-hold(0)/final-lines.txt","att_check":false},"trial_type":"html-keyboard-response","trial_index":226,"time_elapsed":459489,"internal_node_id":"0.0-8.0-3.54","subject":"tleq585qfz8qaaa","sona":"7450"},{"rt":313.93999996362254,"stimulus":"<p>Bereit?</p>","key_press":32,"trial_type":"html-keyboard-response","trial_index":227,"time_elapsed":459809,"internal_node_id":"0.0-8.0-0.55","subject":"tleq585qfz8qaaa","sona":"7450"},{"rt":null,"stimulus":"<div style=\"font-size:60px;\">+</div>","key_press":null,"trial_type":"html-keyboard-response","trial_index":228,"time_elapsed":461814,"internal_node_id":"0.0-8.0-1.55","subject":"tleq585qfz8qaaa","sona":"7450"},{"trial_type":"turing-test","trial_index":229,"time_elapsed":467287,"internal_node_id":"0.0-8.0-2.55","subject":"tleq585qfz8qaaa","sona":"7450"},{"rt":638.9299999573268,"stimulus":"<p>Welche Sequenz haben Sie als natürlicher empfunden?</p>","key_press":70,"test_part":"response","test_stimulus":{"position":1,"left":"bvh/vr_prediction_models/model(vcgpdm)-dataset(return-bottle-hold)-mode(ELBO)-parts(3)-dyn(20)-lvm(15)-hold(0)/final-lines.txt","right":"bvh/return-bottle-hold-training0-lines.txt","att_check":false},"trial_type":"html-keyboard-response","trial_index":230,"time_elapsed":467931,"internal_node_id":"0.0-8.0-3.55","subject":"tleq585qfz8qaaa","sona":"7450"},{"rt":344.05999997397885,"stimulus":"<p>Bereit?</p>","key_press":32,"trial_type":"html-keyboard-response","trial_index":231,"time_elapsed":468280,"internal_node_id":"0.0-8.0-0.56","subject":"tleq585qfz8qaaa","sona":"7450"},{"rt":null,"stimulus":"<div style=\"font-size:60px;\">+</div>","key_press":null,"trial_type":"html-keyboard-response","trial_index":232,"time_elapsed":470284,"internal_node_id":"0.0-8.0-1.56","subject":"tleq585qfz8qaaa","sona":"7450"},{"trial_type":"turing-test","trial_index":233,"time_elapsed":474099,"internal_node_id":"0.0-8.0-2.56","subject":"tleq585qfz8qaaa","sona":"7450"},{"rt":556.8600000115111,"stimulus":"<p>Welche Sequenz haben Sie als natürlicher empfunden?</p>","key_press":70,"test_part":"response","test_stimulus":{"position":1,"left":"bvh/vr_prediction_models/model(tmp)-dataset(return-bottle-hold)-numprim(11)-hold(4)/final-lines.txt","right":"bvh/return-bottle-hold-training4-lines.txt","att_check":false},"trial_type":"html-keyboard-response","trial_index":234,"time_elapsed":474661,"internal_node_id":"0.0-8.0-3.56","subject":"tleq585qfz8qaaa","sona":"7450"},{"rt":325.5149999749847,"stimulus":"<p>Bereit?</p>","key_press":32,"trial_type":"html-keyboard-response","trial_index":235,"time_elapsed":474989,"internal_node_id":"0.0-8.0-0.57","subject":"tleq585qfz8qaaa","sona":"7450"},{"rt":null,"stimulus":"<div style=\"font-size:60px;\">+</div>","key_press":null,"trial_type":"html-keyboard-response","trial_index":236,"time_elapsed":476992,"internal_node_id":"0.0-8.0-1.57","subject":"tleq585qfz8qaaa","sona":"7450"},{"trial_type":"turing-test","trial_index":237,"time_elapsed":482966,"internal_node_id":"0.0-8.0-2.57","subject":"tleq585qfz8qaaa","sona":"7450"},{"rt":546.0149999707937,"stimulus":"<p>Welche Sequenz haben Sie als natürlicher empfunden?</p>","key_press":74,"test_part":"response","test_stimulus":{"position":0,"left":"bvh/pass-bottle-training4-lines.txt","right":"bvh/vr_prediction_models/model(vcgpdm)-dataset(pass-bottle)-mode(ELBO)-parts(3)-dyn(20)-lvm(20)-hold(4)/final-lines.txt","att_check":false},"trial_type":"html-keyboard-response","trial_index":238,"time_elapsed":483518,"internal_node_id":"0.0-8.0-3.57","subject":"tleq585qfz8qaaa","sona":"7450"},{"rt":295.1100000063889,"stimulus":"<p>Bereit?</p>","key_press":32,"trial_type":"html-keyboard-response","trial_index":239,"time_elapsed":483816,"internal_node_id":"0.0-8.0-0.58","subject":"tleq585qfz8qaaa","sona":"7450"},{"rt":null,"stimulus":"<div style=\"font-size:60px;\">+</div>","key_press":null,"trial_type":"html-keyboard-response","trial_index":240,"time_elapsed":485820,"internal_node_id":"0.0-8.0-1.58","subject":"tleq585qfz8qaaa","sona":"7450"},{"trial_type":"turing-test","trial_index":241,"time_elapsed":489485,"internal_node_id":"0.0-8.0-2.58","subject":"tleq585qfz8qaaa","sona":"7450"},{"rt":491.5199999813922,"stimulus":"<p>Welche Sequenz haben Sie als natürlicher empfunden?</p>","key_press":70,"test_part":"response","test_stimulus":{"position":0,"left":"bvh/pass-bottle-hold-training3-lines.txt","right":"bvh/vr_prediction_models/model(dmp)-dataset(pass-bottle-hold)-npsi(40)-hold(3)/final-lines.txt","att_check":false},"trial_type":"html-keyboard-response","trial_index":242,"time_elapsed":489981,"internal_node_id":"0.0-8.0-3.58","subject":"tleq585qfz8qaaa","sona":"7450"},{"rt":269.87499999813735,"stimulus":"<p>Bereit?</p>","key_press":32,"trial_type":"html-keyboard-response","trial_index":243,"time_elapsed":490255,"internal_node_id":"0.0-8.0-0.59","subject":"tleq585qfz8qaaa","sona":"7450"},{"rt":null,"stimulus":"<div style=\"font-size:60px;\">+</div>","key_press":null,"trial_type":"html-keyboard-response","trial_index":244,"time_elapsed":492258,"internal_node_id":"0.0-8.0-1.59","subject":"tleq585qfz8qaaa","sona":"7450"},{"trial_type":"turing-test","trial_index":245,"time_elapsed":496292,"internal_node_id":"0.0-8.0-2.59","subject":"tleq585qfz8qaaa","sona":"7450"},{"rt":442.53000000026077,"stimulus":"<p>Welche Sequenz haben Sie als natürlicher empfunden?</p>","key_press":74,"test_part":"response","test_stimulus":{"position":1,"left":"bvh/vr_prediction_models/model(vcgpdm)-dataset(return-bottle-hold)-mode(ELBO)-parts(3)-dyn(15)-lvm(30)-hold(3)/final-lines.txt","right":"bvh/return-bottle-hold-training3-lines.txt","att_check":false},"trial_type":"html-keyboard-response","trial_index":246,"time_elapsed":496740,"internal_node_id":"0.0-8.0-3.59","subject":"tleq585qfz8qaaa","sona":"7450"},{"rt":283.94499997375533,"stimulus":"<p>Bereit?</p>","key_press":32,"trial_type":"html-keyboard-response","trial_index":247,"time_elapsed":497027,"internal_node_id":"0.0-8.0-0.60","subject":"tleq585qfz8qaaa","sona":"7450"},{"rt":null,"stimulus":"<div style=\"font-size:60px;\">+</div>","key_press":null,"trial_type":"html-keyboard-response","trial_index":248,"time_elapsed":499029,"internal_node_id":"0.0-8.0-1.60","subject":"tleq585qfz8qaaa","sona":"7450"},{"trial_type":"turing-test","trial_index":249,"time_elapsed":504605,"internal_node_id":"0.0-8.0-2.60","subject":"tleq585qfz8qaaa","sona":"7450"},{"rt":530.815000005532,"stimulus":"<p>Welche Sequenz haben Sie als natürlicher empfunden?</p>","key_press":70,"test_part":"response","test_stimulus":{"position":0,"left":"bvh/pass-bottle-training1-lines.txt","right":"bvh/vr_prediction_models/model(tmp)-dataset(pass-bottle)-numprim(3)-hold(1)/final-lines.txt","att_check":false},"trial_type":"html-keyboard-response","trial_index":250,"time_elapsed":505142,"internal_node_id":"0.0-8.0-3.60","subject":"tleq585qfz8qaaa","sona":"7450"},{"rt":272.76500000152737,"stimulus":"<p>Bereit?</p>","key_press":32,"trial_type":"html-keyboard-response","trial_index":251,"time_elapsed":505420,"internal_node_id":"0.0-8.0-0.61","subject":"tleq585qfz8qaaa","sona":"7450"},{"rt":null,"stimulus":"<div style=\"font-size:60px;\">+</div>","key_press":null,"trial_type":"html-keyboard-response","trial_index":252,"time_elapsed":507422,"internal_node_id":"0.0-8.0-1.61","subject":"tleq585qfz8qaaa","sona":"7450"},{"trial_type":"turing-test","trial_index":253,"time_elapsed":513189,"internal_node_id":"0.0-8.0-2.61","subject":"tleq585qfz8qaaa","sona":"7450"},{"rt":611.1450000316836,"stimulus":"<p>Welche Sequenz haben Sie als natürlicher empfunden?</p>","key_press":74,"test_part":"response","test_stimulus":{"position":1,"left":"bvh/vr_prediction_models/model(vcgpdm)-dataset(pass-bottle)-mode(MAP)-parts(1)-hold(1)/final-lines.txt","right":"bvh/pass-bottle-training1-lines.txt","att_check":false},"trial_type":"html-keyboard-response","trial_index":254,"time_elapsed":513808,"internal_node_id":"0.0-8.0-3.61","subject":"tleq585qfz8qaaa","sona":"7450"},{"rt":323.9049999974668,"stimulus":"<p>Bereit?</p>","key_press":32,"trial_type":"html-keyboard-response","trial_index":255,"time_elapsed":514136,"internal_node_id":"0.0-8.0-0.62","subject":"tleq585qfz8qaaa","sona":"7450"},{"rt":null,"stimulus":"<div style=\"font-size:60px;\">+</div>","key_press":null,"trial_type":"html-keyboard-response","trial_index":256,"time_elapsed":516142,"internal_node_id":"0.0-8.0-1.62","subject":"tleq585qfz8qaaa","sona":"7450"},{"trial_type":"turing-test","trial_index":257,"time_elapsed":519466,"internal_node_id":"0.0-8.0-2.62","subject":"tleq585qfz8qaaa","sona":"7450"},{"rt":558.9950000285171,"stimulus":"<p>Welche Sequenz haben Sie als natürlicher empfunden?</p>","key_press":70,"test_part":"response","test_stimulus":{"position":1,"left":"bvh/vr_prediction_models/model(dmp)-dataset(pass-bottle-hold)-npsi(70)-hold(1)/final-lines.txt","right":"bvh/pass-bottle-hold-training1-lines.txt","att_check":false},"trial_type":"html-keyboard-response","trial_index":258,"time_elapsed":520029,"internal_node_id":"0.0-8.0-3.62","subject":"tleq585qfz8qaaa","sona":"7450"},{"rt":275.37499996833503,"stimulus":"<p>Bereit?</p>","key_press":32,"trial_type":"html-keyboard-response","trial_index":259,"time_elapsed":520308,"internal_node_id":"0.0-8.0-0.63","subject":"tleq585qfz8qaaa","sona":"7450"},{"rt":null,"stimulus":"<div style=\"font-size:60px;\">+</div>","key_press":null,"trial_type":"html-keyboard-response","trial_index":260,"time_elapsed":522312,"internal_node_id":"0.0-8.0-1.63","subject":"tleq585qfz8qaaa","sona":"7450"},{"trial_type":"turing-test","trial_index":261,"time_elapsed":528379,"internal_node_id":"0.0-8.0-2.63","subject":"tleq585qfz8qaaa","sona":"7450"},{"rt":767.5799999851733,"stimulus":"<p>Welche Sequenz haben Sie als natürlicher empfunden?</p>","key_press":70,"test_part":"response","test_stimulus":{"position":1,"left":"bvh/vr_prediction_models/model(vcgpdm)-dataset(return-bottle)-mode(ELBO)-parts(1)-dyn(30)-lvm(30)-hold(3)/final-lines.txt","right":"bvh/return-bottle-training3-lines.txt","att_check":false},"trial_type":"html-keyboard-response","trial_index":262,"time_elapsed":529152,"internal_node_id":"0.0-8.0-3.63","subject":"tleq585qfz8qaaa","sona":"7450"},{"rt":314.10000001778826,"stimulus":"<p>Bereit?</p>","key_press":32,"trial_type":"html-keyboard-response","trial_index":263,"time_elapsed":529471,"internal_node_id":"0.0-8.0-0.64","subject":"tleq585qfz8qaaa","sona":"7450"},{"rt":null,"stimulus":"<div style=\"font-size:60px;\">+</div>","key_press":null,"trial_type":"html-keyboard-response","trial_index":264,"time_elapsed":531473,"internal_node_id":"0.0-8.0-1.64","subject":"tleq585qfz8qaaa","sona":"7450"},{"trial_type":"turing-test","trial_index":265,"time_elapsed":537130,"internal_node_id":"0.0-8.0-2.64","subject":"tleq585qfz8qaaa","sona":"7450"},{"rt":573.1200000154786,"stimulus":"<p>Welche Sequenz haben Sie als natürlicher empfunden?</p>","key_press":70,"test_part":"response","test_stimulus":{"position":0,"left":"bvh/return-bottle-training3-lines.txt","right":"bvh/vr_prediction_models/model(vcgpdm)-dataset(return-bottle)-mode(ELBO)-parts(1)-dyn(10)-lvm(30)-hold(3)/final-lines.txt","att_check":false},"trial_type":"html-keyboard-response","trial_index":266,"time_elapsed":537710,"internal_node_id":"0.0-8.0-3.64","subject":"tleq585qfz8qaaa","sona":"7450"},{"rt":306.5949999727309,"stimulus":"<p>Bereit?</p>","key_press":32,"trial_type":"html-keyboard-response","trial_index":267,"time_elapsed":538020,"internal_node_id":"0.0-8.0-0.65","subject":"tleq585qfz8qaaa","sona":"7450"},{"rt":null,"stimulus":"<div style=\"font-size:60px;\">+</div>","key_press":null,"trial_type":"html-keyboard-response","trial_index":268,"time_elapsed":540022,"internal_node_id":"0.0-8.0-1.65","subject":"tleq585qfz8qaaa","sona":"7450"},{"trial_type":"turing-test","trial_index":269,"time_elapsed":545725,"internal_node_id":"0.0-8.0-2.65","subject":"tleq585qfz8qaaa","sona":"7450"},{"rt":651.2550000334159,"stimulus":"<p>Welche Sequenz haben Sie als natürlicher empfunden?</p>","key_press":70,"test_part":"response","test_stimulus":{"position":0,"left":"bvh/pass-bottle-training1-lines.txt","right":"bvh/vr_prediction_models/model(dmp)-dataset(pass-bottle)-npsi(20)-hold(1)/final-lines.txt","att_check":false},"trial_type":"html-keyboard-response","trial_index":270,"time_elapsed":546381,"internal_node_id":"0.0-8.0-3.65","subject":"tleq585qfz8qaaa","sona":"7450"},{"rt":233.42000000411645,"stimulus":"<p>Bereit?</p>","key_press":32,"trial_type":"html-keyboard-response","trial_index":271,"time_elapsed":546619,"internal_node_id":"0.0-8.0-0.66","subject":"tleq585qfz8qaaa","sona":"7450"},{"rt":null,"stimulus":"<div style=\"font-size:60px;\">+</div>","key_press":null,"trial_type":"html-keyboard-response","trial_index":272,"time_elapsed":548621,"internal_node_id":"0.0-8.0-1.66","subject":"tleq585qfz8qaaa","sona":"7450"},{"trial_type":"turing-test","trial_index":273,"time_elapsed":554499,"internal_node_id":"0.0-8.0-2.66","subject":"tleq585qfz8qaaa","sona":"7450"},{"rt":494.90499997045845,"stimulus":"<p>Welche Sequenz haben Sie als natürlicher empfunden?</p>","key_press":70,"test_part":"response","test_stimulus":{"position":1,"left":"bvh/vr_prediction_models/model(tmp)-dataset(pass-bottle)-numprim(8)-hold(4)/final-lines.txt","right":"bvh/pass-bottle-training4-lines.txt","att_check":false},"trial_type":"html-keyboard-response","trial_index":274,"time_elapsed":554998,"internal_node_id":"0.0-8.0-3.66","subject":"tleq585qfz8qaaa","sona":"7450"},{"rt":255.00499998452142,"stimulus":"<p>Bereit?</p>","key_press":32,"trial_type":"html-keyboard-response","trial_index":275,"time_elapsed":555257,"internal_node_id":"0.0-8.0-0.67","subject":"tleq585qfz8qaaa","sona":"7450"},{"rt":null,"stimulus":"<div style=\"font-size:60px;\">+</div>","key_press":null,"trial_type":"html-keyboard-response","trial_index":276,"time_elapsed":557259,"internal_node_id":"0.0-8.0-1.67","subject":"tleq585qfz8qaaa","sona":"7450"},{"trial_type":"turing-test","trial_index":277,"time_elapsed":560936,"internal_node_id":"0.0-8.0-2.67","subject":"tleq585qfz8qaaa","sona":"7450"},{"rt":386.0550000099465,"stimulus":"<p>Welche Sequenz haben Sie als natürlicher empfunden?</p>","key_press":70,"test_part":"response","test_stimulus":{"position":1,"left":"bvh/vr_prediction_models/model(tmp)-dataset(pass-bottle-hold)-numprim(15)-hold(3)/final-lines.txt","right":"bvh/pass-bottle-hold-training3-lines.txt","att_check":false},"trial_type":"html-keyboard-response","trial_index":278,"time_elapsed":561326,"internal_node_id":"0.0-8.0-3.67","subject":"tleq585qfz8qaaa","sona":"7450"},{"rt":174.43499999353662,"stimulus":"<p>Bereit?</p>","key_press":32,"trial_type":"html-keyboard-response","trial_index":279,"time_elapsed":561505,"internal_node_id":"0.0-8.0-0.68","subject":"tleq585qfz8qaaa","sona":"7450"},{"rt":null,"stimulus":"<div style=\"font-size:60px;\">+</div>","key_press":null,"trial_type":"html-keyboard-response","trial_index":280,"time_elapsed":563506,"internal_node_id":"0.0-8.0-1.68","subject":"tleq585qfz8qaaa","sona":"7450"},{"trial_type":"turing-test","trial_index":281,"time_elapsed":566985,"internal_node_id":"0.0-8.0-2.68","subject":"tleq585qfz8qaaa","sona":"7450"},{"rt":426.355000003241,"stimulus":"<p>Welche Sequenz haben Sie als natürlicher empfunden?</p>","key_press":70,"test_part":"response","test_stimulus":{"position":0,"left":"bvh/return-bottle-hold-training1-lines.txt","right":"bvh/vr_prediction_models/model(vcgpdm)-dataset(return-bottle-hold)-mode(ELBO)-parts(3)-dyn(20)-lvm(20)-hold(1)/final-lines.txt","att_check":false},"trial_type":"html-keyboard-response","trial_index":282,"time_elapsed":567417,"internal_node_id":"0.0-8.0-3.68","subject":"tleq585qfz8qaaa","sona":"7450"},{"rt":234.88999996334314,"stimulus":"<p>Bereit?</p>","key_press":32,"trial_type":"html-keyboard-response","trial_index":283,"time_elapsed":567655,"internal_node_id":"0.0-8.0-0.69","subject":"tleq585qfz8qaaa","sona":"7450"},{"rt":null,"stimulus":"<div style=\"font-size:60px;\">+</div>","key_press":null,"trial_type":"html-keyboard-response","trial_index":284,"time_elapsed":569660,"internal_node_id":"0.0-8.0-1.69","subject":"tleq585qfz8qaaa","sona":"7450"},{"trial_type":"turing-test","trial_index":285,"time_elapsed":576536,"internal_node_id":"0.0-8.0-2.69","subject":"tleq585qfz8qaaa","sona":"7450"},{"rt":557.8000000095926,"stimulus":"<p>Welche Sequenz haben Sie als natürlicher empfunden?</p>","key_press":74,"test_part":"response","test_stimulus":{"position":1,"left":"bvh/vr_prediction_models/model(vcgpdm)-dataset(return-bottle)-mode(ELBO)-parts(1)-dyn(20)-lvm(30)-hold(4)/final-lines.txt","right":"bvh/return-bottle-training4-lines.txt","att_check":false},"trial_type":"html-keyboard-response","trial_index":286,"time_elapsed":577099,"internal_node_id":"0.0-8.0-3.69","subject":"tleq585qfz8qaaa","sona":"7450"},{"rt":345.37999995518476,"stimulus":"<p>Bereit?</p>","key_press":32,"trial_type":"html-keyboard-response","trial_index":287,"time_elapsed":577448,"internal_node_id":"0.0-8.0-0.70","subject":"tleq585qfz8qaaa","sona":"7450"},{"rt":null,"stimulus":"<div style=\"font-size:60px;\">+</div>","key_press":null,"trial_type":"html-keyboard-response","trial_index":288,"time_elapsed":579450,"internal_node_id":"0.0-8.0-1.70","subject":"tleq585qfz8qaaa","sona":"7450"},{"trial_type":"turing-test","trial_index":289,"time_elapsed":583111,"internal_node_id":"0.0-8.0-2.70","subject":"tleq585qfz8qaaa","sona":"7450"},{"rt":472.94000000692904,"stimulus":"<p>Welche Sequenz haben Sie als natürlicher empfunden?</p>","key_press":70,"test_part":"response","test_stimulus":{"position":0,"left":"bvh/pass-bottle-hold-training0-lines.txt","right":"bvh/vr_prediction_models/model(vcgpdm)-dataset(pass-bottle-hold)-mode(ELBO)-parts(1)-dyn(35)-lvm(30)-hold(0)/final-lines.txt","att_check":false},"trial_type":"html-keyboard-response","trial_index":290,"time_elapsed":583589,"internal_node_id":"0.0-8.0-3.70","subject":"tleq585qfz8qaaa","sona":"7450"},{"rt":253.57500003883615,"stimulus":"<p>Bereit?</p>","key_press":32,"trial_type":"html-keyboard-response","trial_index":291,"time_elapsed":583846,"internal_node_id":"0.0-8.0-0.71","subject":"tleq585qfz8qaaa","sona":"7450"},{"rt":null,"stimulus":"<div style=\"font-size:60px;\">+</div>","key_press":null,"trial_type":"html-keyboard-response","trial_index":292,"time_elapsed":585848,"internal_node_id":"0.0-8.0-1.71","subject":"tleq585qfz8qaaa","sona":"7450"},{"trial_type":"turing-test","trial_index":293,"time_elapsed":589274,"internal_node_id":"0.0-8.0-2.71","subject":"tleq585qfz8qaaa","sona":"7450"},{"rt":517.9899999639019,"stimulus":"<p>Welche Sequenz haben Sie als natürlicher empfunden?</p>","key_press":74,"test_part":"response","test_stimulus":{"position":1,"left":"bvh/vr_prediction_models/model(vcgpdm)-dataset(pass-bottle-hold)-mode(ELBO)-parts(3)-dyn(20)-lvm(20)-hold(1)/final-lines.txt","right":"bvh/pass-bottle-hold-training1-lines.txt","att_check":false},"trial_type":"html-keyboard-response","trial_index":294,"time_elapsed":589796,"internal_node_id":"0.0-8.0-3.71","subject":"tleq585qfz8qaaa","sona":"7450"},{"rt":225.1350000151433,"stimulus":"<p>Bereit?</p>","key_press":32,"trial_type":"html-keyboard-response","trial_index":295,"time_elapsed":590024,"internal_node_id":"0.0-8.0-0.72","subject":"tleq585qfz8qaaa","sona":"7450"},{"rt":null,"stimulus":"<div style=\"font-size:60px;\">+</div>","key_press":null,"trial_type":"html-keyboard-response","trial_index":296,"time_elapsed":592030,"internal_node_id":"0.0-8.0-1.72","subject":"tleq585qfz8qaaa","sona":"7450"},{"trial_type":"turing-test","trial_index":297,"time_elapsed":599539,"internal_node_id":"0.0-8.0-2.72","subject":"tleq585qfz8qaaa","sona":"7450"},{"rt":524.0049999556504,"stimulus":"<p>Welche Sequenz haben Sie als natürlicher empfunden?</p>","key_press":74,"test_part":"response","test_stimulus":{"position":1,"left":"bvh/vr_prediction_models/model(tmp)-dataset(return-bottle)-numprim(12)-hold(2)/final-lines.txt","right":"bvh/return-bottle-training2-lines.txt","att_check":false},"trial_type":"html-keyboard-response","trial_index":298,"time_elapsed":600067,"internal_node_id":"0.0-8.0-3.72","subject":"tleq585qfz8qaaa","sona":"7450"},{"rt":163.6850000359118,"stimulus":"<p>Bereit?</p>","key_press":32,"trial_type":"html-keyboard-response","trial_index":299,"time_elapsed":600236,"internal_node_id":"0.0-8.0-0.73","subject":"tleq585qfz8qaaa","sona":"7450"},{"rt":null,"stimulus":"<div style=\"font-size:60px;\">+</div>","key_press":null,"trial_type":"html-keyboard-response","trial_index":300,"time_elapsed":602239,"internal_node_id":"0.0-8.0-1.73","subject":"tleq585qfz8qaaa","sona":"7450"},{"trial_type":"turing-test","trial_index":301,"time_elapsed":605878,"internal_node_id":"0.0-8.0-2.73","subject":"tleq585qfz8qaaa","sona":"7450"},{"rt":546.9600000069477,"stimulus":"<p>Welche Sequenz haben Sie als natürlicher empfunden?</p>","key_press":74,"test_part":"response","test_stimulus":{"position":1,"left":"bvh/vr_prediction_models/model(tmp)-dataset(return-bottle-hold)-numprim(4)-hold(3)/final-lines.txt","right":"bvh/return-bottle-hold-training3-lines.txt","att_check":false},"trial_type":"html-keyboard-response","trial_index":302,"time_elapsed":606429,"internal_node_id":"0.0-8.0-3.73","subject":"tleq585qfz8qaaa","sona":"7450"},{"rt":244.2049999954179,"stimulus":"<p>Bereit?</p>","key_press":32,"trial_type":"html-keyboard-response","trial_index":303,"time_elapsed":606678,"internal_node_id":"0.0-8.0-0.74","subject":"tleq585qfz8qaaa","sona":"7450"},{"rt":null,"stimulus":"<div style=\"font-size:60px;\">+</div>","key_press":null,"trial_type":"html-keyboard-response","trial_index":304,"time_elapsed":608680,"internal_node_id":"0.0-8.0-1.74","subject":"tleq585qfz8qaaa","sona":"7450"},{"trial_type":"turing-test","trial_index":305,"time_elapsed":612252,"internal_node_id":"0.0-8.0-2.74","subject":"tleq585qfz8qaaa","sona":"7450"},{"rt":492.85999999847263,"stimulus":"<p>Welche Sequenz haben Sie als natürlicher empfunden?</p>","key_press":70,"test_part":"response","test_stimulus":{"position":1,"left":"bvh/vr_prediction_models/model(vcgpdm)-dataset(pass-bottle-hold)-mode(ELBO)-parts(1)-dyn(30)-lvm(35)-hold(2)/final-lines.txt","right":"bvh/pass-bottle-hold-training2-lines.txt","att_check":false},"trial_type":"html-keyboard-response","trial_index":306,"time_elapsed":612749,"internal_node_id":"0.0-8.0-3.74","subject":"tleq585qfz8qaaa","sona":"7450"},{"rt":230.43500003404915,"stimulus":"<p>Bereit?</p>","key_press":32,"trial_type":"html-keyboard-response","trial_index":307,"time_elapsed":612983,"internal_node_id":"0.0-8.0-0.75","subject":"tleq585qfz8qaaa","sona":"7450"},{"rt":null,"stimulus":"<div style=\"font-size:60px;\">+</div>","key_press":null,"trial_type":"html-keyboard-response","trial_index":308,"time_elapsed":614985,"internal_node_id":"0.0-8.0-1.75","subject":"tleq585qfz8qaaa","sona":"7450"},{"trial_type":"turing-test","trial_index":309,"time_elapsed":618625,"internal_node_id":"0.0-8.0-2.75","subject":"tleq585qfz8qaaa","sona":"7450"},{"rt":557.8649999806657,"stimulus":"<p>Welche Sequenz haben Sie als natürlicher empfunden?</p>","key_press":74,"test_part":"response","test_stimulus":{"position":1,"left":"bvh/vr_prediction_models/model(vcgpdm)-dataset(return-bottle-hold)-mode(MAP)-parts(1)-hold(1)/final-lines.txt","right":"bvh/return-bottle-hold-training1-lines.txt","att_check":false},"trial_type":"html-keyboard-response","trial_index":310,"time_elapsed":619188,"internal_node_id":"0.0-8.0-3.75","subject":"tleq585qfz8qaaa","sona":"7450"},{"rt":246.55499996151775,"stimulus":"<p>Bereit?</p>","key_press":32,"trial_type":"html-keyboard-response","trial_index":311,"time_elapsed":619438,"internal_node_id":"0.0-8.0-0.76","subject":"tleq585qfz8qaaa","sona":"7450"},{"rt":null,"stimulus":"<div style=\"font-size:60px;\">+</div>","key_press":null,"trial_type":"html-keyboard-response","trial_index":312,"time_elapsed":621441,"internal_node_id":"0.0-8.0-1.76","subject":"tleq585qfz8qaaa","sona":"7450"},{"trial_type":"turing-test","trial_index":313,"time_elapsed":627729,"internal_node_id":"0.0-8.0-2.76","subject":"tleq585qfz8qaaa","sona":"7450"},{"rt":450.0300000072457,"stimulus":"<p>Welche Sequenz haben Sie als natürlicher empfunden?</p>","key_press":70,"test_part":"response","test_stimulus":{"position":0,"left":"bvh/return-bottle-training1-lines.txt","right":"bvh/vr_prediction_models/model(vcgpdm)-dataset(return-bottle)-mode(ELBO)-parts(1)-dyn(35)-lvm(10)-hold(1)/final-lines.txt","att_check":false},"trial_type":"html-keyboard-response","trial_index":314,"time_elapsed":628187,"internal_node_id":"0.0-8.0-3.76","subject":"tleq585qfz8qaaa","sona":"7450"},{"rt":93.21500000078231,"stimulus":"<p>Bereit?</p>","key_press":32,"trial_type":"html-keyboard-response","trial_index":315,"time_elapsed":628284,"internal_node_id":"0.0-8.0-0.77","subject":"tleq585qfz8qaaa","sona":"7450"},{"rt":null,"stimulus":"<div style=\"font-size:60px;\">+</div>","key_press":null,"trial_type":"html-keyboard-response","trial_index":316,"time_elapsed":630287,"internal_node_id":"0.0-8.0-1.77","subject":"tleq585qfz8qaaa","sona":"7450"},{"trial_type":"turing-test","trial_index":317,"time_elapsed":633934,"internal_node_id":"0.0-8.0-2.77","subject":"tleq585qfz8qaaa","sona":"7450"},{"rt":506.89000001875684,"stimulus":"<p>Welche Sequenz haben Sie als natürlicher empfunden?</p>","key_press":74,"test_part":"response","test_stimulus":{"position":0,"left":"bvh/return-bottle-hold-training3-lines.txt","right":"bvh/vr_prediction_models/model(tmp)-dataset(return-bottle-hold)-numprim(12)-hold(3)/final-lines.txt","att_check":false},"trial_type":"html-keyboard-response","trial_index":318,"time_elapsed":634445,"internal_node_id":"0.0-8.0-3.77","subject":"tleq585qfz8qaaa","sona":"7450"},{"rt":203.55000003473833,"stimulus":"<p>Bereit?</p>","key_press":32,"trial_type":"html-keyboard-response","trial_index":319,"time_elapsed":634654,"internal_node_id":"0.0-8.0-0.78","subject":"tleq585qfz8qaaa","sona":"7450"},{"rt":null,"stimulus":"<div style=\"font-size:60px;\">+</div>","key_press":null,"trial_type":"html-keyboard-response","trial_index":320,"time_elapsed":636656,"internal_node_id":"0.0-8.0-1.78","subject":"tleq585qfz8qaaa","sona":"7450"},{"trial_type":"turing-test","trial_index":321,"time_elapsed":640305,"internal_node_id":"0.0-8.0-2.78","subject":"tleq585qfz8qaaa","sona":"7450"},{"rt":625.3800000413321,"stimulus":"<p>Welche Sequenz haben Sie als natürlicher empfunden?</p>","key_press":74,"test_part":"response","test_stimulus":{"position":1,"left":"bvh/vr_prediction_models/model(vcgpdm)-dataset(pass-bottle-hold)-mode(ELBO)-parts(3)-dyn(25)-lvm(30)-hold(2)/final-lines.txt","right":"bvh/pass-bottle-hold-training2-lines.txt","att_check":false},"trial_type":"html-keyboard-response","trial_index":322,"time_elapsed":640936,"internal_node_id":"0.0-8.0-3.78","subject":"tleq585qfz8qaaa","sona":"7450"},{"rt":213.7300000176765,"stimulus":"<p>Bereit?</p>","key_press":32,"trial_type":"html-keyboard-response","trial_index":323,"time_elapsed":641153,"internal_node_id":"0.0-8.0-0.79","subject":"tleq585qfz8qaaa","sona":"7450"},{"rt":null,"stimulus":"<div style=\"font-size:60px;\">+</div>","key_press":null,"trial_type":"html-keyboard-response","trial_index":324,"time_elapsed":643155,"internal_node_id":"0.0-8.0-1.79","subject":"tleq585qfz8qaaa","sona":"7450"},{"trial_type":"turing-test","trial_index":325,"time_elapsed":646488,"internal_node_id":"0.0-8.0-2.79","subject":"tleq585qfz8qaaa","sona":"7450"},{"rt":654.3800000217743,"stimulus":"<p>Welche Sequenz haben Sie als natürlicher empfunden?</p>","key_press":74,"test_part":"response","test_stimulus":{"position":1,"left":"bvh/vr_prediction_models/model(dmp)-dataset(pass-bottle-hold)-npsi(10)-hold(2)/final-lines.txt","right":"bvh/pass-bottle-hold-training2-lines.txt","att_check":false},"trial_type":"html-keyboard-response","trial_index":326,"time_elapsed":647147,"internal_node_id":"0.0-8.0-3.79","subject":"tleq585qfz8qaaa","sona":"7450"},{"rt":7478.035000036471,"responses":"{\"age\":\"24\",\"gender\":\"männlich\"}","trial_type":"survey-text","trial_index":327,"time_elapsed":654641,"internal_node_id":"0.0-10.0-0.0","subject":"tleq585qfz8qaaa","sona":"7450"},{"rt":29880.85499999579,"responses":"{\"area\":\"Schultern\",\"Q1\":\"Keine flüssige Bewegung\",\"Q2\":\"Die Schultern und Ellenbogen\"}","trial_type":"survey-text","trial_index":328,"time_elapsed":684544,"internal_node_id":"0.0-10.0-1.0","subject":"tleq585qfz8qaaa","sona":"7450"}]