[{"rt":9923.274999950081,"stimulus":"<p>Welcome!<br> Please choose your language to start the experiment in the chosen language.</p><p>Willkommen!<br> Bitte wählen Sie eine Sprache, um das Experiment in der ausgewählten Sprache zu starten</p>","button_pressed":"1","trial_type":"html-button-response","trial_index":0,"time_elapsed":9931,"internal_node_id":"0.0-0.0","subject":"had0tqqggckhwkv","sona":"9361"},{"view_history":"[{\"page_index\":0,\"viewing_time\":1113.0649999249727},{\"page_index\":1,\"viewing_time\":1101.6700000036508},{\"page_index\":2,\"viewing_time\":1219.219999969937},{\"page_index\":3,\"viewing_time\":1068.7550000147894},{\"page_index\":4,\"viewing_time\":1119.620000012219}]","rt":5623.829999938607,"trial_type":"instructions","trial_index":1,"time_elapsed":15556,"internal_node_id":"0.0-1.0-0.0","subject":"had0tqqggckhwkv","sona":"9361"},{"rt":1073.4400000656024,"stimulus":"<p>Bereit?</p>","key_press":32,"trial_type":"html-keyboard-response","trial_index":2,"time_elapsed":16631,"internal_node_id":"0.0-3.0","subject":"had0tqqggckhwkv","sona":"9361"},{"rt":null,"stimulus":"<div style=\"font-size:60px;\">+</div>","key_press":null,"trial_type":"html-keyboard-response","trial_index":3,"time_elapsed":18645,"internal_node_id":"0.0-4.0","subject":"had0tqqggckhwkv","sona":"9361"},{"trial_type":"training","trial_index":4,"time_elapsed":21873,"internal_node_id":"0.0-5.0","subject":"had0tqqggckhwkv","sona":"9361"},{"rt":1186.519999988377,"stimulus":"<p>Welche Sequenz haben Sie als natürlicher empfunden?</p>","key_press":74,"trial_type":"html-keyboard-response","trial_index":5,"time_elapsed":23061,"internal_node_id":"0.0-6.0","subject":"had0tqqggckhwkv","sona":"9361"},{"rt":1633.1300000892952,"stimulus":"<p>Das Experiment startet nun.</p><p><small>Bitte drücken Sie den Knopf, wenn Sie bereit sind.</small></p>","button_pressed":"0","trial_type":"html-button-response","trial_index":6,"time_elapsed":24696,"internal_node_id":"0.0-7.0","subject":"had0tqqggckhwkv","sona":"9361"},{"rt":3452.114999992773,"stimulus":"<p>Bereit?</p>","key_press":32,"trial_type":"html-keyboard-response","trial_index":7,"time_elapsed":28149,"internal_node_id":"0.0-8.0-0.0","subject":"had0tqqggckhwkv","sona":"9361"},{"rt":null,"stimulus":"<div style=\"font-size:60px;\">+</div>","key_press":null,"trial_type":"html-keyboard-response","trial_index":8,"time_elapsed":30153,"internal_node_id":"0.0-8.0-1.0","subject":"had0tqqggckhwkv","sona":"9361"},{"trial_type":"turing-test","trial_index":9,"time_elapsed":36247,"internal_node_id":"0.0-8.0-2.0","subject":"had0tqqggckhwkv","sona":"9361"},{"rt":2675.0049999682233,"stimulus":"<p>Welche Sequenz haben Sie als natürlicher empfunden?</p>","key_press":74,"test_part":"response","test_stimulus":{"position":1,"left":"bvh/vr_prediction_models/model(tmp)-dataset(pass-bottle)-numprim(14)-hold(2)/final-lines.txt","right":"bvh/pass-bottle-training2-lines.txt","att_check":false},"trial_type":"html-keyboard-response","trial_index":10,"time_elapsed":38927,"internal_node_id":"0.0-8.0-3.0","subject":"had0tqqggckhwkv","sona":"9361"},{"rt":190.44999999459833,"stimulus":"<p>Bereit?</p>","key_press":32,"trial_type":"html-keyboard-response","trial_index":11,"time_elapsed":39121,"internal_node_id":"0.0-8.0-0.1","subject":"had0tqqggckhwkv","sona":"9361"},{"rt":null,"stimulus":"<div style=\"font-size:60px;\">+</div>","key_press":null,"trial_type":"html-keyboard-response","trial_index":12,"time_elapsed":41122,"internal_node_id":"0.0-8.0-1.1","subject":"had0tqqggckhwkv","sona":"9361"},{"trial_type":"turing-test","trial_index":13,"time_elapsed":46495,"internal_node_id":"0.0-8.0-2.1","subject":"had0tqqggckhwkv","sona":"9361"},{"rt":5638.219999964349,"stimulus":"<p>Welche Sequenz haben Sie als natürlicher empfunden?</p>","key_press":74,"test_part":"response","test_stimulus":{"position":1,"left":"bvh/vr_prediction_models/model(dmp)-dataset(return-bottle)-npsi(60)-hold(0)/final-lines.txt","right":"bvh/return-bottle-training0-lines.txt","att_check":true},"trial_type":"html-keyboard-response","trial_index":14,"time_elapsed":52134,"internal_node_id":"0.0-8.0-3.1","subject":"had0tqqggckhwkv","sona":"9361"},{"rt":218.0299999890849,"stimulus":"<p>Bereit?</p>","key_press":32,"trial_type":"html-keyboard-response","trial_index":15,"time_elapsed":52355,"internal_node_id":"0.0-8.0-0.2","subject":"had0tqqggckhwkv","sona":"9361"},{"rt":null,"stimulus":"<div style=\"font-size:60px;\">+</div>","key_press":null,"trial_type":"html-keyboard-response","trial_index":16,"time_elapsed":54358,"internal_node_id":"0.0-8.0-1.2","subject":"had0tqqggckhwkv","sona":"9361"},{"trial_type":"turing-test","trial_index":17,"time_elapsed":57836,"internal_node_id":"0.0-8.0-2.2","subject":"had0tqqggckhwkv","sona":"9361"},{"rt":751.0299999266863,"stimulus":"<p>Welche Sequenz haben Sie als natürlicher empfunden?</p>","key_press":74,"test_part":"response","test_stimulus":{"position":1,"left":"bvh/vr_prediction_models/model(dmp)-dataset(pass-bottle-hold)-npsi(50)-hold(3)/final-lines.txt","right":"bvh/pass-bottle-hold-training3-lines.txt","att_check":true},"trial_type":"html-keyboard-response","trial_index":18,"time_elapsed":58590,"internal_node_id":"0.0-8.0-3.2","subject":"had0tqqggckhwkv","sona":"9361"},{"rt":275.4650000715628,"stimulus":"<p>Bereit?</p>","key_press":32,"trial_type":"html-keyboard-response","trial_index":19,"time_elapsed":58868,"internal_node_id":"0.0-8.0-0.3","subject":"had0tqqggckhwkv","sona":"9361"},{"rt":null,"stimulus":"<div style=\"font-size:60px;\">+</div>","key_press":null,"trial_type":"html-keyboard-response","trial_index":20,"time_elapsed":60870,"internal_node_id":"0.0-8.0-1.3","subject":"had0tqqggckhwkv","sona":"9361"},{"trial_type":"turing-test","trial_index":21,"time_elapsed":66222,"internal_node_id":"0.0-8.0-2.3","subject":"had0tqqggckhwkv","sona":"9361"},{"rt":1659.5100000267848,"stimulus":"<p>Welche Sequenz haben Sie als natürlicher empfunden?</p>","key_press":74,"test_part":"response","test_stimulus":{"position":0,"left":"bvh/pass-bottle-training1-lines.txt","right":"bvh/vr_prediction_models/model(tmp)-dataset(pass-bottle)-numprim(8)-hold(1)/final-lines.txt","att_check":false},"trial_type":"html-keyboard-response","trial_index":22,"time_elapsed":67885,"internal_node_id":"0.0-8.0-3.3","subject":"had0tqqggckhwkv","sona":"9361"},{"rt":241.7600000044331,"stimulus":"<p>Bereit?</p>","key_press":32,"trial_type":"html-keyboard-response","trial_index":23,"time_elapsed":68129,"internal_node_id":"0.0-8.0-0.4","subject":"had0tqqggckhwkv","sona":"9361"},{"rt":null,"stimulus":"<div style=\"font-size:60px;\">+</div>","key_press":null,"trial_type":"html-keyboard-response","trial_index":24,"time_elapsed":70131,"internal_node_id":"0.0-8.0-1.4","subject":"had0tqqggckhwkv","sona":"9361"},{"trial_type":"turing-test","trial_index":25,"time_elapsed":73565,"internal_node_id":"0.0-8.0-2.4","subject":"had0tqqggckhwkv","sona":"9361"},{"rt":3171.2350000161678,"stimulus":"<p>Welche Sequenz haben Sie als natürlicher empfunden?</p>","key_press":74,"test_part":"response","test_stimulus":{"position":0,"left":"bvh/return-bottle-hold-training1-lines.txt","right":"bvh/vr_prediction_models/model(vcgpdm)-dataset(return-bottle-hold)-mode(MAP)-parts(3)-hold(1)/final-lines.txt","att_check":false},"trial_type":"html-keyboard-response","trial_index":26,"time_elapsed":76739,"internal_node_id":"0.0-8.0-3.4","subject":"had0tqqggckhwkv","sona":"9361"},{"rt":203.56499997433275,"stimulus":"<p>Bereit?</p>","key_press":32,"trial_type":"html-keyboard-response","trial_index":27,"time_elapsed":76945,"internal_node_id":"0.0-8.0-0.5","subject":"had0tqqggckhwkv","sona":"9361"},{"rt":null,"stimulus":"<div style=\"font-size:60px;\">+</div>","key_press":null,"trial_type":"html-keyboard-response","trial_index":28,"time_elapsed":78949,"internal_node_id":"0.0-8.0-1.5","subject":"had0tqqggckhwkv","sona":"9361"},{"trial_type":"turing-test","trial_index":29,"time_elapsed":82220,"internal_node_id":"0.0-8.0-2.5","subject":"had0tqqggckhwkv","sona":"9361"},{"rt":590.2999999234453,"stimulus":"<p>Welche Sequenz haben Sie als natürlicher empfunden?</p>","key_press":70,"test_part":"response","test_stimulus":{"position":1,"left":"bvh/vr_prediction_models/model(dmp)-dataset(pass-bottle-hold)-npsi(50)-hold(0)/final-lines.txt","right":"bvh/pass-bottle-hold-training0-lines.txt","att_check":false},"trial_type":"html-keyboard-response","trial_index":30,"time_elapsed":82813,"internal_node_id":"0.0-8.0-3.5","subject":"had0tqqggckhwkv","sona":"9361"},{"rt":203.7700000219047,"stimulus":"<p>Bereit?</p>","key_press":32,"trial_type":"html-keyboard-response","trial_index":31,"time_elapsed":83019,"internal_node_id":"0.0-8.0-0.6","subject":"had0tqqggckhwkv","sona":"9361"},{"rt":null,"stimulus":"<div style=\"font-size:60px;\">+</div>","key_press":null,"trial_type":"html-keyboard-response","trial_index":32,"time_elapsed":85021,"internal_node_id":"0.0-8.0-1.6","subject":"had0tqqggckhwkv","sona":"9361"},{"trial_type":"turing-test","trial_index":33,"time_elapsed":88531,"internal_node_id":"0.0-8.0-2.6","subject":"had0tqqggckhwkv","sona":"9361"},{"rt":734.9399999948218,"stimulus":"<p>Welche Sequenz haben Sie als natürlicher empfunden?</p>","key_press":70,"test_part":"response","test_stimulus":{"position":1,"left":"bvh/vr_prediction_models/model(tmp)-dataset(pass-bottle-hold)-numprim(12)-hold(3)/final-lines.txt","right":"bvh/pass-bottle-hold-training3-lines.txt","att_check":false},"trial_type":"html-keyboard-response","trial_index":34,"time_elapsed":89268,"internal_node_id":"0.0-8.0-3.6","subject":"had0tqqggckhwkv","sona":"9361"},{"rt":219.38000002410263,"stimulus":"<p>Bereit?</p>","key_press":32,"trial_type":"html-keyboard-response","trial_index":35,"time_elapsed":89490,"internal_node_id":"0.0-8.0-0.7","subject":"had0tqqggckhwkv","sona":"9361"},{"rt":null,"stimulus":"<div style=\"font-size:60px;\">+</div>","key_press":null,"trial_type":"html-keyboard-response","trial_index":36,"time_elapsed":91491,"internal_node_id":"0.0-8.0-1.7","subject":"had0tqqggckhwkv","sona":"9361"},{"trial_type":"turing-test","trial_index":37,"time_elapsed":94924,"internal_node_id":"0.0-8.0-2.7","subject":"had0tqqggckhwkv","sona":"9361"},{"rt":882.9000000841916,"stimulus":"<p>Welche Sequenz haben Sie als natürlicher empfunden?</p>","key_press":70,"test_part":"response","test_stimulus":{"position":1,"left":"bvh/vr_prediction_models/model(dmp)-dataset(pass-bottle-hold)-npsi(50)-hold(3)/final-lines.txt","right":"bvh/pass-bottle-hold-training3-lines.txt","att_check":false},"trial_type":"html-keyboard-response","trial_index":38,"time_elapsed":95812,"internal_node_id":"0.0-8.0-3.7","subject":"had0tqqggckhwkv","sona":"9361"},{"rt":445.67500008270144,"stimulus":"<p>Bereit?</p>","key_press":32,"trial_type":"html-keyboard-response","trial_index":39,"time_elapsed":96259,"internal_node_id":"0.0-8.0-0.8","subject":"had0tqqggckhwkv","sona":"9361"},{"rt":null,"stimulus":"<div style=\"font-size:60px;\">+</div>","key_press":null,"trial_type":"html-keyboard-response","trial_index":40,"time_elapsed":98262,"internal_node_id":"0.0-8.0-1.8","subject":"had0tqqggckhwkv","sona":"9361"},{"trial_type":"turing-test","trial_index":41,"time_elapsed":104301,"internal_node_id":"0.0-8.0-2.8","subject":"had0tqqggckhwkv","sona":"9361"},{"rt":533.835000009276,"stimulus":"<p>Welche Sequenz haben Sie als natürlicher empfunden?</p>","key_press":70,"test_part":"response","test_stimulus":{"position":1,"left":"bvh/vr_prediction_models/model(vcgpdm)-dataset(pass-bottle)-mode(ELBO)-parts(3)-dyn(10)-lvm(30)-hold(3)/final-lines.txt","right":"bvh/pass-bottle-training3-lines.txt","att_check":false},"trial_type":"html-keyboard-response","trial_index":42,"time_elapsed":104838,"internal_node_id":"0.0-8.0-3.8","subject":"had0tqqggckhwkv","sona":"9361"},{"rt":314.5500000100583,"stimulus":"<p>Bereit?</p>","key_press":32,"trial_type":"html-keyboard-response","trial_index":43,"time_elapsed":105156,"internal_node_id":"0.0-8.0-0.9","subject":"had0tqqggckhwkv","sona":"9361"},{"rt":null,"stimulus":"<div style=\"font-size:60px;\">+</div>","key_press":null,"trial_type":"html-keyboard-response","trial_index":44,"time_elapsed":107159,"internal_node_id":"0.0-8.0-1.9","subject":"had0tqqggckhwkv","sona":"9361"},{"trial_type":"turing-test","trial_index":45,"time_elapsed":113137,"internal_node_id":"0.0-8.0-2.9","subject":"had0tqqggckhwkv","sona":"9361"},{"rt":444.29500005207956,"stimulus":"<p>Welche Sequenz haben Sie als natürlicher empfunden?</p>","key_press":70,"test_part":"response","test_stimulus":{"position":1,"left":"bvh/vr_prediction_models/model(tmp)-dataset(pass-bottle)-numprim(4)-hold(3)/final-lines.txt","right":"bvh/pass-bottle-training3-lines.txt","att_check":false},"trial_type":"html-keyboard-response","trial_index":46,"time_elapsed":113585,"internal_node_id":"0.0-8.0-3.9","subject":"had0tqqggckhwkv","sona":"9361"},{"rt":276.46500000264496,"stimulus":"<p>Bereit?</p>","key_press":32,"trial_type":"html-keyboard-response","trial_index":47,"time_elapsed":113863,"internal_node_id":"0.0-8.0-0.10","subject":"had0tqqggckhwkv","sona":"9361"},{"rt":null,"stimulus":"<div style=\"font-size:60px;\">+</div>","key_press":null,"trial_type":"html-keyboard-response","trial_index":48,"time_elapsed":115865,"internal_node_id":"0.0-8.0-1.10","subject":"had0tqqggckhwkv","sona":"9361"},{"trial_type":"turing-test","trial_index":49,"time_elapsed":119292,"internal_node_id":"0.0-8.0-2.10","subject":"had0tqqggckhwkv","sona":"9361"},{"rt":3143.584999954328,"stimulus":"<p>Welche Sequenz haben Sie als natürlicher empfunden?</p>","key_press":70,"test_part":"response","test_stimulus":{"position":1,"left":"bvh/vr_prediction_models/model(dmp)-dataset(pass-bottle-hold)-npsi(90)-hold(3)/final-lines.txt","right":"bvh/pass-bottle-hold-training3-lines.txt","att_check":false},"trial_type":"html-keyboard-response","trial_index":50,"time_elapsed":122438,"internal_node_id":"0.0-8.0-3.10","subject":"had0tqqggckhwkv","sona":"9361"},{"rt":258.6850000079721,"stimulus":"<p>Bereit?</p>","key_press":32,"trial_type":"html-keyboard-response","trial_index":51,"time_elapsed":122700,"internal_node_id":"0.0-8.0-0.11","subject":"had0tqqggckhwkv","sona":"9361"},{"rt":null,"stimulus":"<div style=\"font-size:60px;\">+</div>","key_press":null,"trial_type":"html-keyboard-response","trial_index":52,"time_elapsed":124701,"internal_node_id":"0.0-8.0-1.11","subject":"had0tqqggckhwkv","sona":"9361"},{"trial_type":"turing-test","trial_index":53,"time_elapsed":127942,"internal_node_id":"0.0-8.0-2.11","subject":"had0tqqggckhwkv","sona":"9361"}]