[{"rt":2458.129999999983,"stimulus":"<p>Welcome!<br> Please choose your language to start the experiment in the chosen language.</p><p>Willkommen!<br> Bitte wählen Sie eine Sprache, um das Experiment in der ausgewählten Sprache zu starten</p>","button_pressed":"1","trial_type":"html-button-response","trial_index":0,"time_elapsed":2479,"internal_node_id":"0.0-0.0","subject":"lscd4lw4rc50y0q","sona":"7351"},{"view_history":"[{\"page_index\":0,\"viewing_time\":4669.255000000703},{\"page_index\":1,\"viewing_time\":1663.0049999994299},{\"page_index\":2,\"viewing_time\":3073.5750000003463},{\"page_index\":3,\"viewing_time\":4614.700000000084},{\"page_index\":2,\"viewing_time\":1275.2499999996871},{\"page_index\":1,\"viewing_time\":968.5550000003786},{\"page_index\":0,\"viewing_time\":1513.2699999994657},{\"page_index\":1,\"viewing_time\":1434.0200000006007},{\"page_index\":2,\"viewing_time\":2364.520000000084},{\"page_index\":3,\"viewing_time\":1407.3499999994965},{\"page_index\":4,\"viewing_time\":1540.3999999998632}]","rt":24525.16000000014,"trial_type":"instructions","trial_index":1,"time_elapsed":27006,"internal_node_id":"0.0-1.0-0.0","subject":"lscd4lw4rc50y0q","sona":"7351"},{"rt":1791.1699999995108,"stimulus":"<p>Bereit?</p>","key_press":32,"trial_type":"html-keyboard-response","trial_index":2,"time_elapsed":28799,"internal_node_id":"0.0-3.0","subject":"lscd4lw4rc50y0q","sona":"7351"},{"rt":null,"stimulus":"<div style=\"font-size:60px;\">+</div>","key_press":null,"trial_type":"html-keyboard-response","trial_index":3,"time_elapsed":30802,"internal_node_id":"0.0-4.0","subject":"lscd4lw4rc50y0q","sona":"7351"},{"trial_type":"training","trial_index":4,"time_elapsed":34273,"internal_node_id":"0.0-5.0","subject":"lscd4lw4rc50y0q","sona":"7351"},{"rt":183.6700000003475,"stimulus":"<p>Welche Sequenz haben Sie als natürlicher empfunden?</p>","key_press":70,"trial_type":"html-keyboard-response","trial_index":5,"time_elapsed":34459,"internal_node_id":"0.0-6.0","subject":"lscd4lw4rc50y0q","sona":"7351"},{"rt":2243.445000000065,"stimulus":"<p>Das Experiment startet nun.</p><p><small>Bitte drücken Sie den Knopf, wenn Sie bereit sind.</small></p>","button_pressed":"0","trial_type":"html-button-response","trial_index":6,"time_elapsed":36705,"internal_node_id":"0.0-7.0","subject":"lscd4lw4rc50y0q","sona":"7351"},{"rt":1333.3599999996295,"stimulus":"<p>Bereit?</p>","key_press":32,"trial_type":"html-keyboard-response","trial_index":7,"time_elapsed":38040,"internal_node_id":"0.0-8.0-0.0","subject":"lscd4lw4rc50y0q","sona":"7351"},{"rt":null,"stimulus":"<div style=\"font-size:60px;\">+</div>","key_press":null,"trial_type":"html-keyboard-response","trial_index":8,"time_elapsed":40045,"internal_node_id":"0.0-8.0-1.0","subject":"lscd4lw4rc50y0q","sona":"7351"},{"trial_type":"turing-test","trial_index":9,"time_elapsed":43877,"internal_node_id":"0.0-8.0-2.0","subject":"lscd4lw4rc50y0q","sona":"7351"},{"rt":832.3700000000827,"stimulus":"<p>Welche Sequenz haben Sie als natürlicher empfunden?</p>","key_press":70,"test_part":"response","test_stimulus":{"position":0,"left":"bvh/return-bottle-hold-training3-lines.txt","right":"bvh/vr_prediction_models/model(vcgpdm)-dataset(return-bottle-hold)-mode(ELBO)-parts(1)-dyn(25)-lvm(35)-hold(3)/final-lines.txt","att_check":false},"trial_type":"html-keyboard-response","trial_index":10,"time_elapsed":44713,"internal_node_id":"0.0-8.0-3.0","subject":"lscd4lw4rc50y0q","sona":"7351"},{"rt":792.4449999991339,"stimulus":"<p>Bereit?</p>","key_press":32,"trial_type":"html-keyboard-response","trial_index":11,"time_elapsed":45510,"internal_node_id":"0.0-8.0-0.1","subject":"lscd4lw4rc50y0q","sona":"7351"},{"rt":null,"stimulus":"<div style=\"font-size:60px;\">+</div>","key_press":null,"trial_type":"html-keyboard-response","trial_index":12,"time_elapsed":47512,"internal_node_id":"0.0-8.0-1.1","subject":"lscd4lw4rc50y0q","sona":"7351"},{"trial_type":"turing-test","trial_index":13,"time_elapsed":53676,"internal_node_id":"0.0-8.0-2.1","subject":"lscd4lw4rc50y0q","sona":"7351"},{"rt":698.0849999999919,"stimulus":"<p>Welche Sequenz haben Sie als natürlicher empfunden?</p>","key_press":70,"test_part":"response","test_stimulus":{"position":0,"left":"bvh/return-bottle-training1-lines.txt","right":"bvh/vr_prediction_models/model(dmp)-dataset(return-bottle)-npsi(60)-hold(1)/final-lines.txt","att_check":false},"trial_type":"html-keyboard-response","trial_index":14,"time_elapsed":54381,"internal_node_id":"0.0-8.0-3.1","subject":"lscd4lw4rc50y0q","sona":"7351"},{"rt":568.754999999328,"stimulus":"<p>Bereit?</p>","key_press":32,"trial_type":"html-keyboard-response","trial_index":15,"time_elapsed":54953,"internal_node_id":"0.0-8.0-0.2","subject":"lscd4lw4rc50y0q","sona":"7351"},{"rt":null,"stimulus":"<div style=\"font-size:60px;\">+</div>","key_press":null,"trial_type":"html-keyboard-response","trial_index":16,"time_elapsed":56955,"internal_node_id":"0.0-8.0-1.2","subject":"lscd4lw4rc50y0q","sona":"7351"},{"trial_type":"turing-test","trial_index":17,"time_elapsed":60297,"internal_node_id":"0.0-8.0-2.2","subject":"lscd4lw4rc50y0q","sona":"7351"},{"rt":662.8899999996065,"stimulus":"<p>Welche Sequenz haben Sie als natürlicher empfunden?</p>","key_press":70,"test_part":"response","test_stimulus":{"position":0,"left":"bvh/pass-bottle-hold-training0-lines.txt","right":"bvh/vr_prediction_models/model(tmp)-dataset(pass-bottle-hold)-numprim(8)-hold(0)/final-lines.txt","att_check":false},"trial_type":"html-keyboard-response","trial_index":18,"time_elapsed":60962,"internal_node_id":"0.0-8.0-3.2","subject":"lscd4lw4rc50y0q","sona":"7351"},{"rt":646.1199999994278,"stimulus":"<p>Bereit?</p>","key_press":32,"trial_type":"html-keyboard-response","trial_index":19,"time_elapsed":61610,"internal_node_id":"0.0-8.0-0.3","subject":"lscd4lw4rc50y0q","sona":"7351"},{"rt":null,"stimulus":"<div style=\"font-size:60px;\">+</div>","key_press":null,"trial_type":"html-keyboard-response","trial_index":20,"time_elapsed":63613,"internal_node_id":"0.0-8.0-1.3","subject":"lscd4lw4rc50y0q","sona":"7351"},{"trial_type":"turing-test","trial_index":21,"time_elapsed":69081,"internal_node_id":"0.0-8.0-2.3","subject":"lscd4lw4rc50y0q","sona":"7351"},{"rt":674.2450000001554,"stimulus":"<p>Welche Sequenz haben Sie als natürlicher empfunden?</p>","key_press":70,"test_part":"response","test_stimulus":{"position":0,"left":"bvh/return-bottle-training0-lines.txt","right":"bvh/vr_prediction_models/model(dmp)-dataset(return-bottle)-npsi(10)-hold(0)/final-lines.txt","att_check":false},"trial_type":"html-keyboard-response","trial_index":22,"time_elapsed":69759,"internal_node_id":"0.0-8.0-3.3","subject":"lscd4lw4rc50y0q","sona":"7351"},{"rt":460.0149999996502,"stimulus":"<p>Bereit?</p>","key_press":32,"trial_type":"html-keyboard-response","trial_index":23,"time_elapsed":70221,"internal_node_id":"0.0-8.0-0.4","subject":"lscd4lw4rc50y0q","sona":"7351"},{"rt":null,"stimulus":"<div style=\"font-size:60px;\">+</div>","key_press":null,"trial_type":"html-keyboard-response","trial_index":24,"time_elapsed":72225,"internal_node_id":"0.0-8.0-1.4","subject":"lscd4lw4rc50y0q","sona":"7351"},{"trial_type":"turing-test","trial_index":25,"time_elapsed":75849,"internal_node_id":"0.0-8.0-2.4","subject":"lscd4lw4rc50y0q","sona":"7351"},{"rt":565.9449999993667,"stimulus":"<p>Welche Sequenz haben Sie als natürlicher empfunden?</p>","key_press":74,"test_part":"response","test_stimulus":{"position":0,"left":"bvh/pass-bottle-hold-training4-lines.txt","right":"bvh/vr_prediction_models/model(dmp)-dataset(pass-bottle-hold)-npsi(70)-hold(4)/final-lines.txt","att_check":false},"trial_type":"html-keyboard-response","trial_index":26,"time_elapsed":76418,"internal_node_id":"0.0-8.0-3.4","subject":"lscd4lw4rc50y0q","sona":"7351"},{"rt":650.3700000003009,"stimulus":"<p>Bereit?</p>","key_press":32,"trial_type":"html-keyboard-response","trial_index":27,"time_elapsed":77072,"internal_node_id":"0.0-8.0-0.5","subject":"lscd4lw4rc50y0q","sona":"7351"},{"rt":null,"stimulus":"<div style=\"font-size:60px;\">+</div>","key_press":null,"trial_type":"html-keyboard-response","trial_index":28,"time_elapsed":79075,"internal_node_id":"0.0-8.0-1.5","subject":"lscd4lw4rc50y0q","sona":"7351"},{"trial_type":"turing-test","trial_index":29,"time_elapsed":82704,"internal_node_id":"0.0-8.0-2.5","subject":"lscd4lw4rc50y0q","sona":"7351"},{"rt":725.0500000000029,"stimulus":"<p>Welche Sequenz haben Sie als natürlicher empfunden?</p>","key_press":74,"test_part":"response","test_stimulus":{"position":1,"left":"bvh/vr_prediction_models/model(vcgpdm)-dataset(pass-bottle-hold)-mode(ELBO)-parts(3)-dyn(15)-lvm(30)-hold(0)/final-lines.txt","right":"bvh/pass-bottle-hold-training0-lines.txt","att_check":false},"trial_type":"html-keyboard-response","trial_index":30,"time_elapsed":83434,"internal_node_id":"0.0-8.0-3.5","subject":"lscd4lw4rc50y0q","sona":"7351"},{"rt":856.1300000001211,"stimulus":"<p>Bereit?</p>","key_press":32,"trial_type":"html-keyboard-response","trial_index":31,"time_elapsed":84293,"internal_node_id":"0.0-8.0-0.6","subject":"lscd4lw4rc50y0q","sona":"7351"},{"rt":null,"stimulus":"<div style=\"font-size:60px;\">+</div>","key_press":null,"trial_type":"html-keyboard-response","trial_index":32,"time_elapsed":86296,"internal_node_id":"0.0-8.0-1.6","subject":"lscd4lw4rc50y0q","sona":"7351"},{"trial_type":"turing-test","trial_index":33,"time_elapsed":89913,"internal_node_id":"0.0-8.0-2.6","subject":"lscd4lw4rc50y0q","sona":"7351"},{"rt":972.6249999994325,"stimulus":"<p>Welche Sequenz haben Sie als natürlicher empfunden?</p>","key_press":70,"test_part":"response","test_stimulus":{"position":0,"left":"bvh/pass-bottle-hold-training4-lines.txt","right":"bvh/vr_prediction_models/model(tmp)-dataset(pass-bottle-hold)-numprim(6)-hold(4)/final-lines.txt","att_check":false},"trial_type":"html-keyboard-response","trial_index":34,"time_elapsed":90891,"internal_node_id":"0.0-8.0-3.6","subject":"lscd4lw4rc50y0q","sona":"7351"},{"rt":2882.955000000031,"stimulus":"<p>Bereit?</p>","key_press":32,"trial_type":"html-keyboard-response","trial_index":35,"time_elapsed":93777,"internal_node_id":"0.0-8.0-0.7","subject":"lscd4lw4rc50y0q","sona":"7351"},{"rt":null,"stimulus":"<div style=\"font-size:60px;\">+</div>","key_press":null,"trial_type":"html-keyboard-response","trial_index":36,"time_elapsed":95780,"internal_node_id":"0.0-8.0-1.7","subject":"lscd4lw4rc50y0q","sona":"7351"},{"trial_type":"turing-test","trial_index":37,"time_elapsed":101700,"internal_node_id":"0.0-8.0-2.7","subject":"lscd4lw4rc50y0q","sona":"7351"},{"rt":771.5299999999988,"stimulus":"<p>Welche Sequenz haben Sie als natürlicher empfunden?</p>","key_press":70,"test_part":"response","test_stimulus":{"position":0,"left":"bvh/pass-bottle-training3-lines.txt","right":"bvh/vr_prediction_models/model(tmp)-dataset(pass-bottle)-numprim(4)-hold(3)/final-lines.txt","att_check":false},"trial_type":"html-keyboard-response","trial_index":38,"time_elapsed":102478,"internal_node_id":"0.0-8.0-3.7","subject":"lscd4lw4rc50y0q","sona":"7351"},{"rt":718.2149999998801,"stimulus":"<p>Bereit?</p>","key_press":32,"trial_type":"html-keyboard-response","trial_index":39,"time_elapsed":103199,"internal_node_id":"0.0-8.0-0.8","subject":"lscd4lw4rc50y0q","sona":"7351"},{"rt":null,"stimulus":"<div style=\"font-size:60px;\">+</div>","key_press":null,"trial_type":"html-keyboard-response","trial_index":40,"time_elapsed":105202,"internal_node_id":"0.0-8.0-1.8","subject":"lscd4lw4rc50y0q","sona":"7351"},{"trial_type":"turing-test","trial_index":41,"time_elapsed":111303,"internal_node_id":"0.0-8.0-2.8","subject":"lscd4lw4rc50y0q","sona":"7351"},{"rt":461.08999999977823,"stimulus":"<p>Welche Sequenz haben Sie als natürlicher empfunden?</p>","key_press":74,"test_part":"response","test_stimulus":{"position":1,"left":"bvh/vr_prediction_models/model(tmp)-dataset(return-bottle)-numprim(5)-hold(1)/final-lines.txt","right":"bvh/return-bottle-training1-lines.txt","att_check":false},"trial_type":"html-keyboard-response","trial_index":42,"time_elapsed":111770,"internal_node_id":"0.0-8.0-3.8","subject":"lscd4lw4rc50y0q","sona":"7351"},{"rt":629.2199999997974,"stimulus":"<p>Bereit?</p>","key_press":32,"trial_type":"html-keyboard-response","trial_index":43,"time_elapsed":112404,"internal_node_id":"0.0-8.0-0.9","subject":"lscd4lw4rc50y0q","sona":"7351"},{"rt":null,"stimulus":"<div style=\"font-size:60px;\">+</div>","key_press":null,"trial_type":"html-keyboard-response","trial_index":44,"time_elapsed":114407,"internal_node_id":"0.0-8.0-1.9","subject":"lscd4lw4rc50y0q","sona":"7351"},{"trial_type":"turing-test","trial_index":45,"time_elapsed":117791,"internal_node_id":"0.0-8.0-2.9","subject":"lscd4lw4rc50y0q","sona":"7351"},{"rt":434.4149999997171,"stimulus":"<p>Welche Sequenz haben Sie als natürlicher empfunden?</p>","key_press":70,"test_part":"response","test_stimulus":{"position":1,"left":"bvh/vr_prediction_models/model(dmp)-dataset(pass-bottle-hold)-npsi(90)-hold(2)/final-lines.txt","right":"bvh/pass-bottle-hold-training2-lines.txt","att_check":false},"trial_type":"html-keyboard-response","trial_index":46,"time_elapsed":118230,"internal_node_id":"0.0-8.0-3.9","subject":"lscd4lw4rc50y0q","sona":"7351"},{"rt":443.2950000000419,"stimulus":"<p>Bereit?</p>","key_press":32,"trial_type":"html-keyboard-response","trial_index":47,"time_elapsed":118677,"internal_node_id":"0.0-8.0-0.10","subject":"lscd4lw4rc50y0q","sona":"7351"},{"rt":null,"stimulus":"<div style=\"font-size:60px;\">+</div>","key_press":null,"trial_type":"html-keyboard-response","trial_index":48,"time_elapsed":120679,"internal_node_id":"0.0-8.0-1.10","subject":"lscd4lw4rc50y0q","sona":"7351"},{"trial_type":"turing-test","trial_index":49,"time_elapsed":124091,"internal_node_id":"0.0-8.0-2.10","subject":"lscd4lw4rc50y0q","sona":"7351"},{"rt":898.590000000695,"stimulus":"<p>Welche Sequenz haben Sie als natürlicher empfunden?</p>","key_press":74,"test_part":"response","test_stimulus":{"position":1,"left":"bvh/vr_prediction_models/model(dmp)-dataset(return-bottle-hold)-npsi(20)-hold(1)/final-lines.txt","right":"bvh/return-bottle-hold-training1-lines.txt","att_check":true},"trial_type":"html-keyboard-response","trial_index":50,"time_elapsed":124993,"internal_node_id":"0.0-8.0-3.10","subject":"lscd4lw4rc50y0q","sona":"7351"}]