[{"rt":9490,"stimulus":"<p>Welcome!<br> Please choose your language to start the experiment in the chosen language.</p><p>Willkommen!<br> Bitte wählen Sie eine Sprache um das Experiment in der ausgewählten Sprache zu starten</p>","button_pressed":"1","trial_type":"html-button-response","trial_index":0,"time_elapsed":9496,"internal_node_id":"0.0-0.0","subject":"arpj52d3xdw15s5","sona":"3973"},{"view_history":"[{\"page_index\":0,\"viewing_time\":597},{\"page_index\":1,\"viewing_time\":823},{\"page_index\":2,\"viewing_time\":718},{\"page_index\":3,\"viewing_time\":800}]","rt":2938,"trial_type":"instructions","trial_index":1,"time_elapsed":12435,"internal_node_id":"0.0-1.0-0.0","subject":"arpj52d3xdw15s5","sona":"3973"},{"rt":710,"stimulus":"<p>Bereit?</p>","button_pressed":"0","trial_type":"html-button-response","trial_index":2,"time_elapsed":13148,"internal_node_id":"0.0-3.0","subject":"arpj52d3xdw15s5","sona":"3973"},{"rt":null,"stimulus":"<div style=\"font-size:60px;\">+</div>","key_press":null,"trial_type":"html-keyboard-response","trial_index":3,"time_elapsed":15151,"internal_node_id":"0.0-4.0","subject":"arpj52d3xdw15s5","sona":"3973"},{"trial_type":"training","trial_index":4,"time_elapsed":18462,"internal_node_id":"0.0-5.0","subject":"arpj52d3xdw15s5","sona":"3973"},{"rt":1205,"stimulus":"<p>Welche Sequenz haben Sie als natürlicher empfunden?</p>","button_pressed":"0","trial_type":"html-button-response","trial_index":5,"time_elapsed":19667,"internal_node_id":"0.0-6.0","subject":"arpj52d3xdw15s5","sona":"3973"},{"rt":1249,"stimulus":"<p>Das Experiment startet nun.</p><p> Bitte drücken Sie den Knopf, wenn Sie bereit sind.</p>","button_pressed":"0","trial_type":"html-button-response","trial_index":6,"time_elapsed":20918,"internal_node_id":"0.0-7.0","subject":"arpj52d3xdw15s5","sona":"3973"},{"rt":862,"stimulus":"<p>Bereit?</p>","button_pressed":"0","trial_type":"html-button-response","trial_index":7,"time_elapsed":21782,"internal_node_id":"0.0-8.0-0.0","subject":"arpj52d3xdw15s5","sona":"3973"},{"rt":null,"stimulus":"<div style=\"font-size:60px;\">+</div>","key_press":null,"trial_type":"html-keyboard-response","trial_index":8,"time_elapsed":23787,"internal_node_id":"0.0-8.0-1.0","subject":"arpj52d3xdw15s5","sona":"3973"},{"trial_type":"turing-test","trial_index":9,"time_elapsed":29620,"internal_node_id":"0.0-8.0-2.0","subject":"arpj52d3xdw15s5","sona":"3973"},{"rt":922,"stimulus":"<p>Welche Sequenz haben Sie als natürlicher empfunden?</p>","button_pressed":"1","test_part":"response","test_stimulus":{"position":0,"left":"bvh/pass-bottle-training4-lines.txt","right":"bvh/vr_prediction_models/model(vcgpdm)-dataset(pass-bottle)-mode(ELBO)-parts(1)-dyn(15)-lvm(35)-hold(4)/final-lines.txt","att_check":false},"trial_type":"html-button-response","trial_index":10,"time_elapsed":30544,"internal_node_id":"0.0-8.0-3.0","subject":"arpj52d3xdw15s5","sona":"3973"},{"rt":718,"stimulus":"<p>Bereit?</p>","button_pressed":"0","trial_type":"html-button-response","trial_index":11,"time_elapsed":31264,"internal_node_id":"0.0-8.0-0.1","subject":"arpj52d3xdw15s5","sona":"3973"},{"rt":null,"stimulus":"<div style=\"font-size:60px;\">+</div>","key_press":null,"trial_type":"html-keyboard-response","trial_index":12,"time_elapsed":33265,"internal_node_id":"0.0-8.0-1.1","subject":"arpj52d3xdw15s5","sona":"3973"},{"trial_type":"turing-test","trial_index":13,"time_elapsed":39020,"internal_node_id":"0.0-8.0-2.1","subject":"arpj52d3xdw15s5","sona":"3973"},{"rt":1039,"stimulus":"<p>Welche Sequenz haben Sie als natürlicher empfunden?</p>","button_pressed":"0","test_part":"response","test_stimulus":{"position":0,"left":"bvh/pass-bottle-training3-lines.txt","right":"bvh/vr_prediction_models/model(dmp)-dataset(pass-bottle)-npsi(90)-hold(3)/final-lines.txt","att_check":false},"trial_type":"html-button-response","trial_index":14,"time_elapsed":40062,"internal_node_id":"0.0-8.0-3.1","subject":"arpj52d3xdw15s5","sona":"3973"}]