[{"rt":16016,"stimulus":"<p>Welcome!<br> Please choose your language to start the experiment in the chosen language.</p><p>Willkommen!<br> Bitte wählen Sie eine Sprache, um das Experiment in der ausgewählten Sprache zu starten</p>","button_pressed":"1","trial_type":"html-button-response","trial_index":0,"time_elapsed":16022,"internal_node_id":"0.0-0.0","subject":"9xwqk2jgdl928td","sona":"7480"},{"view_history":"[{\"page_index\":0,\"viewing_time\":5837},{\"page_index\":1,\"viewing_time\":8204},{\"page_index\":2,\"viewing_time\":5022},{\"page_index\":3,\"viewing_time\":5385},{\"page_index\":4,\"viewing_time\":2425}]","rt":26874,"trial_type":"instructions","trial_index":1,"time_elapsed":42899,"internal_node_id":"0.0-1.0-0.0","subject":"9xwqk2jgdl928td","sona":"7480"},{"rt":1787,"stimulus":"<p>Bereit?</p>","key_press":32,"trial_type":"html-keyboard-response","trial_index":2,"time_elapsed":44690,"internal_node_id":"0.0-3.0","subject":"9xwqk2jgdl928td","sona":"7480"},{"rt":null,"stimulus":"<div style=\"font-size:60px;\">+</div>","key_press":null,"trial_type":"html-keyboard-response","trial_index":3,"time_elapsed":46713,"internal_node_id":"0.0-4.0","subject":"9xwqk2jgdl928td","sona":"7480"},{"trial_type":"training","trial_index":4,"time_elapsed":50637,"internal_node_id":"0.0-5.0","subject":"9xwqk2jgdl928td","sona":"7480"},{"rt":3597,"stimulus":"<p>Welche Sequenz haben Sie als natürlicher empfunden?</p>","key_press":70,"trial_type":"html-keyboard-response","trial_index":5,"time_elapsed":54237,"internal_node_id":"0.0-6.0","subject":"9xwqk2jgdl928td","sona":"7480"},{"rt":12488419,"stimulus":"<p>Das Experiment startet nun.</p><p><small>Bitte drücken Sie den Knopf, wenn Sie bereit sind.</small></p>","button_pressed":"0","trial_type":"html-button-response","trial_index":6,"time_elapsed":12539681,"internal_node_id":"0.0-7.0","subject":"9xwqk2jgdl928td","sona":"7480"},{"rt":1764,"stimulus":"<p>Bereit?</p>","key_press":32,"trial_type":"html-keyboard-response","trial_index":7,"time_elapsed":12541450,"internal_node_id":"0.0-8.0-0.0","subject":"9xwqk2jgdl928td","sona":"7480"},{"rt":null,"stimulus":"<div style=\"font-size:60px;\">+</div>","key_press":null,"trial_type":"html-keyboard-response","trial_index":8,"time_elapsed":12543472,"internal_node_id":"0.0-8.0-1.0","subject":"9xwqk2jgdl928td","sona":"7480"},{"trial_type":"turing-test","trial_index":9,"time_elapsed":12550238,"internal_node_id":"0.0-8.0-2.0","subject":"9xwqk2jgdl928td","sona":"7480"},{"rt":3434,"stimulus":"<p>Welche Sequenz haben Sie als natürlicher empfunden?</p>","key_press":70,"test_part":"response","test_stimulus":{"position":0,"left":"bvh/return-bottle-training1-lines.txt","right":"bvh/vr_prediction_models/model(tmp)-dataset(return-bottle)-numprim(3)-hold(1)/final-lines.txt","att_check":false},"trial_type":"html-keyboard-response","trial_index":10,"time_elapsed":12553676,"internal_node_id":"0.0-8.0-3.0","subject":"9xwqk2jgdl928td","sona":"7480"},{"rt":1478,"stimulus":"<p>Bereit?</p>","key_press":32,"trial_type":"html-keyboard-response","trial_index":11,"time_elapsed":12555159,"internal_node_id":"0.0-8.0-0.1","subject":"9xwqk2jgdl928td","sona":"7480"},{"rt":null,"stimulus":"<div style=\"font-size:60px;\">+</div>","key_press":null,"trial_type":"html-keyboard-response","trial_index":12,"time_elapsed":12557171,"internal_node_id":"0.0-8.0-1.1","subject":"9xwqk2jgdl928td","sona":"7480"},{"trial_type":"turing-test","trial_index":13,"time_elapsed":12563147,"internal_node_id":"0.0-8.0-2.1","subject":"9xwqk2jgdl928td","sona":"7480"},{"rt":1727,"stimulus":"<p>Welche Sequenz haben Sie als natürlicher empfunden?</p>","key_press":70,"test_part":"response","test_stimulus":{"position":1,"left":"bvh/vr_prediction_models/model(dmp)-dataset(pass-bottle)-npsi(40)-hold(1)/final-lines.txt","right":"bvh/pass-bottle-training1-lines.txt","att_check":false},"trial_type":"html-keyboard-response","trial_index":14,"time_elapsed":12564878,"internal_node_id":"0.0-8.0-3.1","subject":"9xwqk2jgdl928td","sona":"7480"},{"rt":1087,"stimulus":"<p>Bereit?</p>","key_press":32,"trial_type":"html-keyboard-response","trial_index":15,"time_elapsed":12565969,"internal_node_id":"0.0-8.0-0.2","subject":"9xwqk2jgdl928td","sona":"7480"},{"rt":null,"stimulus":"<div style=\"font-size:60px;\">+</div>","key_press":null,"trial_type":"html-keyboard-response","trial_index":16,"time_elapsed":12567979,"internal_node_id":"0.0-8.0-1.2","subject":"9xwqk2jgdl928td","sona":"7480"},{"trial_type":"turing-test","trial_index":17,"time_elapsed":12571605,"internal_node_id":"0.0-8.0-2.2","subject":"9xwqk2jgdl928td","sona":"7480"},{"rt":660,"stimulus":"<p>Welche Sequenz haben Sie als natürlicher empfunden?</p>","key_press":74,"test_part":"response","test_stimulus":{"position":0,"left":"bvh/pass-bottle-hold-training1-lines.txt","right":"bvh/vr_prediction_models/model(tmp)-dataset(pass-bottle-hold)-numprim(9)-hold(1)/final-lines.txt","att_check":false},"trial_type":"html-keyboard-response","trial_index":18,"time_elapsed":12572269,"internal_node_id":"0.0-8.0-3.2","subject":"9xwqk2jgdl928td","sona":"7480"},{"rt":723,"stimulus":"<p>Bereit?</p>","key_press":32,"trial_type":"html-keyboard-response","trial_index":19,"time_elapsed":12572996,"internal_node_id":"0.0-8.0-0.3","subject":"9xwqk2jgdl928td","sona":"7480"},{"rt":null,"stimulus":"<div style=\"font-size:60px;\">+</div>","key_press":null,"trial_type":"html-keyboard-response","trial_index":20,"time_elapsed":12575007,"internal_node_id":"0.0-8.0-1.3","subject":"9xwqk2jgdl928td","sona":"7480"},{"trial_type":"turing-test","trial_index":21,"time_elapsed":12583073,"internal_node_id":"0.0-8.0-2.3","subject":"9xwqk2jgdl928td","sona":"7480"},{"rt":571,"stimulus":"<p>Welche Sequenz haben Sie als natürlicher empfunden?</p>","key_press":74,"test_part":"response","test_stimulus":{"position":0,"left":"bvh/return-bottle-training4-lines.txt","right":"bvh/vr_prediction_models/model(vcgpdm)-dataset(return-bottle)-mode(ELBO)-parts(3)-dyn(20)-lvm(20)-hold(4)/final-lines.txt","att_check":false},"trial_type":"html-keyboard-response","trial_index":22,"time_elapsed":12583648,"internal_node_id":"0.0-8.0-3.3","subject":"9xwqk2jgdl928td","sona":"7480"},{"rt":950,"stimulus":"<p>Bereit?</p>","key_press":32,"trial_type":"html-keyboard-response","trial_index":23,"time_elapsed":12584601,"internal_node_id":"0.0-8.0-0.4","subject":"9xwqk2jgdl928td","sona":"7480"},{"rt":null,"stimulus":"<div style=\"font-size:60px;\">+</div>","key_press":null,"trial_type":"html-keyboard-response","trial_index":24,"time_elapsed":12586615,"internal_node_id":"0.0-8.0-1.4","subject":"9xwqk2jgdl928td","sona":"7480"},{"trial_type":"turing-test","trial_index":25,"time_elapsed":12594541,"internal_node_id":"0.0-8.0-2.4","subject":"9xwqk2jgdl928td","sona":"7480"},{"rt":556,"stimulus":"<p>Welche Sequenz haben Sie als natürlicher empfunden?</p>","key_press":70,"test_part":"response","test_stimulus":{"position":0,"left":"bvh/return-bottle-training3-lines.txt","right":"bvh/vr_prediction_models/model(vcgpdm)-dataset(return-bottle)-mode(ELBO)-parts(1)-dyn(20)-lvm(20)-hold(3)/final-lines.txt","att_check":false},"trial_type":"html-keyboard-response","trial_index":26,"time_elapsed":12595098,"internal_node_id":"0.0-8.0-3.4","subject":"9xwqk2jgdl928td","sona":"7480"},{"rt":6712,"stimulus":"<p>Bereit?</p>","key_press":32,"trial_type":"html-keyboard-response","trial_index":27,"time_elapsed":12601814,"internal_node_id":"0.0-8.0-0.5","subject":"9xwqk2jgdl928td","sona":"7480"},{"rt":null,"stimulus":"<div style=\"font-size:60px;\">+</div>","key_press":null,"trial_type":"html-keyboard-response","trial_index":28,"time_elapsed":12603820,"internal_node_id":"0.0-8.0-1.5","subject":"9xwqk2jgdl928td","sona":"7480"},{"trial_type":"turing-test","trial_index":29,"time_elapsed":12608814,"internal_node_id":"0.0-8.0-2.5","subject":"9xwqk2jgdl928td","sona":"7480"},{"rt":845,"stimulus":"<p>Welche Sequenz haben Sie als natürlicher empfunden?</p>","key_press":74,"test_part":"response","test_stimulus":{"position":1,"left":"bvh/vr_prediction_models/model(vcgpdm)-dataset(pass-bottle-hold)-mode(ELBO)-parts(1)-dyn(35)-lvm(30)-hold(1)/final-lines.txt","right":"bvh/pass-bottle-hold-training1-lines.txt","att_check":false},"trial_type":"html-keyboard-response","trial_index":30,"time_elapsed":12609661,"internal_node_id":"0.0-8.0-3.5","subject":"9xwqk2jgdl928td","sona":"7480"},{"rt":505,"stimulus":"<p>Bereit?</p>","key_press":32,"trial_type":"html-keyboard-response","trial_index":31,"time_elapsed":12610167,"internal_node_id":"0.0-8.0-0.6","subject":"9xwqk2jgdl928td","sona":"7480"},{"rt":null,"stimulus":"<div style=\"font-size:60px;\">+</div>","key_press":null,"trial_type":"html-keyboard-response","trial_index":32,"time_elapsed":12612176,"internal_node_id":"0.0-8.0-1.6","subject":"9xwqk2jgdl928td","sona":"7480"},{"trial_type":"turing-test","trial_index":33,"time_elapsed":12617481,"internal_node_id":"0.0-8.0-2.6","subject":"9xwqk2jgdl928td","sona":"7480"},{"rt":1345,"stimulus":"<p>Welche Sequenz haben Sie als natürlicher empfunden?</p>","key_press":74,"test_part":"response","test_stimulus":{"position":1,"left":"bvh/vr_prediction_models/model(vcgpdm)-dataset(return-bottle-hold)-mode(ELBO)-parts(1)-dyn(10)-lvm(30)-hold(2)/final-lines.txt","right":"bvh/return-bottle-hold-training2-lines.txt","att_check":false},"trial_type":"html-keyboard-response","trial_index":34,"time_elapsed":12618830,"internal_node_id":"0.0-8.0-3.6","subject":"9xwqk2jgdl928td","sona":"7480"},{"rt":468,"stimulus":"<p>Bereit?</p>","key_press":32,"trial_type":"html-keyboard-response","trial_index":35,"time_elapsed":12619303,"internal_node_id":"0.0-8.0-0.7","subject":"9xwqk2jgdl928td","sona":"7480"},{"rt":null,"stimulus":"<div style=\"font-size:60px;\">+</div>","key_press":null,"trial_type":"html-keyboard-response","trial_index":36,"time_elapsed":12621313,"internal_node_id":"0.0-8.0-1.7","subject":"9xwqk2jgdl928td","sona":"7480"},{"trial_type":"turing-test","trial_index":37,"time_elapsed":12627166,"internal_node_id":"0.0-8.0-2.7","subject":"9xwqk2jgdl928td","sona":"7480"},{"rt":521,"stimulus":"<p>Welche Sequenz haben Sie als natürlicher empfunden?</p>","key_press":70,"test_part":"response","test_stimulus":{"position":0,"left":"bvh/pass-bottle-hold-training4-lines.txt","right":"bvh/vr_prediction_models/model(vcgpdm)-dataset(pass-bottle-hold)-mode(ELBO)-parts(3)-dyn(20)-lvm(20)-hold(4)/final-lines.txt","att_check":false},"trial_type":"html-keyboard-response","trial_index":38,"time_elapsed":12627692,"internal_node_id":"0.0-8.0-3.7","subject":"9xwqk2jgdl928td","sona":"7480"},{"rt":464,"stimulus":"<p>Bereit?</p>","key_press":32,"trial_type":"html-keyboard-response","trial_index":39,"time_elapsed":12628159,"internal_node_id":"0.0-8.0-0.8","subject":"9xwqk2jgdl928td","sona":"7480"},{"rt":null,"stimulus":"<div style=\"font-size:60px;\">+</div>","key_press":null,"trial_type":"html-keyboard-response","trial_index":40,"time_elapsed":12630173,"internal_node_id":"0.0-8.0-1.8","subject":"9xwqk2jgdl928td","sona":"7480"},{"trial_type":"turing-test","trial_index":41,"time_elapsed":12633837,"internal_node_id":"0.0-8.0-2.8","subject":"9xwqk2jgdl928td","sona":"7480"},{"rt":572,"stimulus":"<p>Welche Sequenz haben Sie als natürlicher empfunden?</p>","key_press":74,"test_part":"response","test_stimulus":{"position":1,"left":"bvh/vr_prediction_models/model(dmp)-dataset(return-bottle-hold)-npsi(10)-hold(2)/final-lines.txt","right":"bvh/return-bottle-hold-training2-lines.txt","att_check":true},"trial_type":"html-keyboard-response","trial_index":42,"time_elapsed":12634413,"internal_node_id":"0.0-8.0-3.8","subject":"9xwqk2jgdl928td","sona":"7480"},{"rt":486,"stimulus":"<p>Bereit?</p>","key_press":32,"trial_type":"html-keyboard-response","trial_index":43,"time_elapsed":12634905,"internal_node_id":"0.0-8.0-0.9","subject":"9xwqk2jgdl928td","sona":"7480"},{"rt":null,"stimulus":"<div style=\"font-size:60px;\">+</div>","key_press":null,"trial_type":"html-keyboard-response","trial_index":44,"time_elapsed":12636920,"internal_node_id":"0.0-8.0-1.9","subject":"9xwqk2jgdl928td","sona":"7480"},{"trial_type":"turing-test","trial_index":45,"time_elapsed":12642217,"internal_node_id":"0.0-8.0-2.9","subject":"9xwqk2jgdl928td","sona":"7480"},{"rt":708,"stimulus":"<p>Welche Sequenz haben Sie als natürlicher empfunden?</p>","key_press":70,"test_part":"response","test_stimulus":{"position":1,"left":"bvh/vr_prediction_models/model(vcgpdm)-dataset(return-bottle-hold)-mode(ELBO)-parts(1)-dyn(30)-lvm(35)-hold(1)/final-lines.txt","right":"bvh/return-bottle-hold-training1-lines.txt","att_check":false},"trial_type":"html-keyboard-response","trial_index":46,"time_elapsed":12642929,"internal_node_id":"0.0-8.0-3.9","subject":"9xwqk2jgdl928td","sona":"7480"},{"rt":389,"stimulus":"<p>Bereit?</p>","key_press":32,"trial_type":"html-keyboard-response","trial_index":47,"time_elapsed":12643321,"internal_node_id":"0.0-8.0-0.10","subject":"9xwqk2jgdl928td","sona":"7480"},{"rt":null,"stimulus":"<div style=\"font-size:60px;\">+</div>","key_press":null,"trial_type":"html-keyboard-response","trial_index":48,"time_elapsed":12645343,"internal_node_id":"0.0-8.0-1.10","subject":"9xwqk2jgdl928td","sona":"7480"},{"trial_type":"turing-test","trial_index":49,"time_elapsed":12651257,"internal_node_id":"0.0-8.0-2.10","subject":"9xwqk2jgdl928td","sona":"7480"},{"rt":596,"stimulus":"<p>Welche Sequenz haben Sie als natürlicher empfunden?</p>","key_press":70,"test_part":"response","test_stimulus":{"position":0,"left":"bvh/return-bottle-hold-training0-lines.txt","right":"bvh/vr_prediction_models/model(tmp)-dataset(return-bottle-hold)-numprim(15)-hold(0)/final-lines.txt","att_check":false},"trial_type":"html-keyboard-response","trial_index":50,"time_elapsed":12651857,"internal_node_id":"0.0-8.0-3.10","subject":"9xwqk2jgdl928td","sona":"7480"},{"rt":501,"stimulus":"<p>Bereit?</p>","key_press":32,"trial_type":"html-keyboard-response","trial_index":51,"time_elapsed":12652360,"internal_node_id":"0.0-8.0-0.11","subject":"9xwqk2jgdl928td","sona":"7480"},{"rt":null,"stimulus":"<div style=\"font-size:60px;\">+</div>","key_press":null,"trial_type":"html-keyboard-response","trial_index":52,"time_elapsed":12654373,"internal_node_id":"0.0-8.0-1.11","subject":"9xwqk2jgdl928td","sona":"7480"},{"trial_type":"turing-test","trial_index":53,"time_elapsed":12661127,"internal_node_id":"0.0-8.0-2.11","subject":"9xwqk2jgdl928td","sona":"7480"},{"rt":720,"stimulus":"<p>Welche Sequenz haben Sie als natürlicher empfunden?</p>","key_press":70,"test_part":"response","test_stimulus":{"position":0,"left":"bvh/pass-bottle-training2-lines.txt","right":"bvh/vr_prediction_models/model(tmp)-dataset(pass-bottle)-numprim(5)-hold(2)/final-lines.txt","att_check":false},"trial_type":"html-keyboard-response","trial_index":54,"time_elapsed":12661850,"internal_node_id":"0.0-8.0-3.11","subject":"9xwqk2jgdl928td","sona":"7480"},{"rt":411,"stimulus":"<p>Bereit?</p>","key_press":32,"trial_type":"html-keyboard-response","trial_index":55,"time_elapsed":12662263,"internal_node_id":"0.0-8.0-0.12","subject":"9xwqk2jgdl928td","sona":"7480"},{"rt":null,"stimulus":"<div style=\"font-size:60px;\">+</div>","key_press":null,"trial_type":"html-keyboard-response","trial_index":56,"time_elapsed":12664281,"internal_node_id":"0.0-8.0-1.12","subject":"9xwqk2jgdl928td","sona":"7480"},{"trial_type":"turing-test","trial_index":57,"time_elapsed":12669467,"internal_node_id":"0.0-8.0-2.12","subject":"9xwqk2jgdl928td","sona":"7480"},{"rt":442,"stimulus":"<p>Welche Sequenz haben Sie als natürlicher empfunden?</p>","key_press":70,"test_part":"response","test_stimulus":{"position":0,"left":"bvh/pass-bottle-hold-training2-lines.txt","right":"bvh/vr_prediction_models/model(vcgpdm)-dataset(pass-bottle-hold)-mode(ELBO)-parts(1)-dyn(20)-lvm(5)-hold(2)/final-lines.txt","att_check":false},"trial_type":"html-keyboard-response","trial_index":58,"time_elapsed":12669912,"internal_node_id":"0.0-8.0-3.12","subject":"9xwqk2jgdl928td","sona":"7480"},{"rt":403,"stimulus":"<p>Bereit?</p>","key_press":32,"trial_type":"html-keyboard-response","trial_index":59,"time_elapsed":12670318,"internal_node_id":"0.0-8.0-0.13","subject":"9xwqk2jgdl928td","sona":"7480"},{"rt":null,"stimulus":"<div style=\"font-size:60px;\">+</div>","key_press":null,"trial_type":"html-keyboard-response","trial_index":60,"time_elapsed":12672322,"internal_node_id":"0.0-8.0-1.13","subject":"9xwqk2jgdl928td","sona":"7480"},{"trial_type":"turing-test","trial_index":61,"time_elapsed":12679589,"internal_node_id":"0.0-8.0-2.13","subject":"9xwqk2jgdl928td","sona":"7480"},{"rt":508,"stimulus":"<p>Welche Sequenz haben Sie als natürlicher empfunden?</p>","key_press":70,"test_part":"response","test_stimulus":{"position":0,"left":"bvh/return-bottle-training2-lines.txt","right":"bvh/vr_prediction_models/model(dmp)-dataset(return-bottle)-npsi(20)-hold(2)/final-lines.txt","att_check":false},"trial_type":"html-keyboard-response","trial_index":62,"time_elapsed":12680098,"internal_node_id":"0.0-8.0-3.13","subject":"9xwqk2jgdl928td","sona":"7480"},{"rt":391,"stimulus":"<p>Bereit?</p>","key_press":32,"trial_type":"html-keyboard-response","trial_index":63,"time_elapsed":12680495,"internal_node_id":"0.0-8.0-0.14","subject":"9xwqk2jgdl928td","sona":"7480"},{"rt":null,"stimulus":"<div style=\"font-size:60px;\">+</div>","key_press":null,"trial_type":"html-keyboard-response","trial_index":64,"time_elapsed":12682508,"internal_node_id":"0.0-8.0-1.14","subject":"9xwqk2jgdl928td","sona":"7480"},{"trial_type":"turing-test","trial_index":65,"time_elapsed":12685875,"internal_node_id":"0.0-8.0-2.14","subject":"9xwqk2jgdl928td","sona":"7480"},{"rt":395,"stimulus":"<p>Welche Sequenz haben Sie als natürlicher empfunden?</p>","key_press":70,"test_part":"response","test_stimulus":{"position":0,"left":"bvh/pass-bottle-hold-training1-lines.txt","right":"bvh/vr_prediction_models/model(tmp)-dataset(pass-bottle-hold)-numprim(14)-hold(1)/final-lines.txt","att_check":false},"trial_type":"html-keyboard-response","trial_index":66,"time_elapsed":12686274,"internal_node_id":"0.0-8.0-3.14","subject":"9xwqk2jgdl928td","sona":"7480"},{"rt":386,"stimulus":"<p>Bereit?</p>","key_press":32,"trial_type":"html-keyboard-response","trial_index":67,"time_elapsed":12686664,"internal_node_id":"0.0-8.0-0.15","subject":"9xwqk2jgdl928td","sona":"7480"},{"rt":null,"stimulus":"<div style=\"font-size:60px;\">+</div>","key_press":null,"trial_type":"html-keyboard-response","trial_index":68,"time_elapsed":12688669,"internal_node_id":"0.0-8.0-1.15","subject":"9xwqk2jgdl928td","sona":"7480"},{"trial_type":"turing-test","trial_index":69,"time_elapsed":12696093,"internal_node_id":"0.0-8.0-2.15","subject":"9xwqk2jgdl928td","sona":"7480"},{"rt":413,"stimulus":"<p>Welche Sequenz haben Sie als natürlicher empfunden?</p>","key_press":74,"test_part":"response","test_stimulus":{"position":1,"left":"bvh/vr_prediction_models/model(dmp)-dataset(pass-bottle)-npsi(50)-hold(0)/final-lines.txt","right":"bvh/pass-bottle-training0-lines.txt","att_check":false},"trial_type":"html-keyboard-response","trial_index":70,"time_elapsed":12696510,"internal_node_id":"0.0-8.0-3.15","subject":"9xwqk2jgdl928td","sona":"7480"},{"rt":416,"stimulus":"<p>Bereit?</p>","key_press":32,"trial_type":"html-keyboard-response","trial_index":71,"time_elapsed":12696929,"internal_node_id":"0.0-8.0-0.16","subject":"9xwqk2jgdl928td","sona":"7480"},{"rt":null,"stimulus":"<div style=\"font-size:60px;\">+</div>","key_press":null,"trial_type":"html-keyboard-response","trial_index":72,"time_elapsed":12698962,"internal_node_id":"0.0-8.0-1.16","subject":"9xwqk2jgdl928td","sona":"7480"},{"trial_type":"turing-test","trial_index":73,"time_elapsed":12706057,"internal_node_id":"0.0-8.0-2.16","subject":"9xwqk2jgdl928td","sona":"7480"},{"rt":470,"stimulus":"<p>Welche Sequenz haben Sie als natürlicher empfunden?</p>","key_press":74,"test_part":"response","test_stimulus":{"position":1,"left":"bvh/vr_prediction_models/model(vcgpdm)-dataset(return-bottle-hold)-mode(ELBO)-parts(3)-dyn(20)-lvm(20)-hold(0)/final-lines.txt","right":"bvh/return-bottle-hold-training0-lines.txt","att_check":false},"trial_type":"html-keyboard-response","trial_index":74,"time_elapsed":12706530,"internal_node_id":"0.0-8.0-3.16","subject":"9xwqk2jgdl928td","sona":"7480"},{"rt":401,"stimulus":"<p>Bereit?</p>","key_press":32,"trial_type":"html-keyboard-response","trial_index":75,"time_elapsed":12706935,"internal_node_id":"0.0-8.0-0.17","subject":"9xwqk2jgdl928td","sona":"7480"},{"rt":null,"stimulus":"<div style=\"font-size:60px;\">+</div>","key_press":null,"trial_type":"html-keyboard-response","trial_index":76,"time_elapsed":12708956,"internal_node_id":"0.0-8.0-1.17","subject":"9xwqk2jgdl928td","sona":"7480"},{"trial_type":"turing-test","trial_index":77,"time_elapsed":12715014,"internal_node_id":"0.0-8.0-2.17","subject":"9xwqk2jgdl928td","sona":"7480"},{"rt":590,"stimulus":"<p>Welche Sequenz haben Sie als natürlicher empfunden?</p>","key_press":70,"test_part":"response","test_stimulus":{"position":0,"left":"bvh/return-bottle-training4-lines.txt","right":"bvh/vr_prediction_models/model(tmp)-dataset(return-bottle)-numprim(4)-hold(4)/final-lines.txt","att_check":false},"trial_type":"html-keyboard-response","trial_index":78,"time_elapsed":12715607,"internal_node_id":"0.0-8.0-3.17","subject":"9xwqk2jgdl928td","sona":"7480"},{"rt":378,"stimulus":"<p>Bereit?</p>","key_press":32,"trial_type":"html-keyboard-response","trial_index":79,"time_elapsed":12715988,"internal_node_id":"0.0-8.0-0.18","subject":"9xwqk2jgdl928td","sona":"7480"},{"rt":null,"stimulus":"<div style=\"font-size:60px;\">+</div>","key_press":null,"trial_type":"html-keyboard-response","trial_index":80,"time_elapsed":12717996,"internal_node_id":"0.0-8.0-1.18","subject":"9xwqk2jgdl928td","sona":"7480"},{"trial_type":"turing-test","trial_index":81,"time_elapsed":12722538,"internal_node_id":"0.0-8.0-2.18","subject":"9xwqk2jgdl928td","sona":"7480"},{"rt":533,"stimulus":"<p>Welche Sequenz haben Sie als natürlicher empfunden?</p>","key_press":74,"test_part":"response","test_stimulus":{"position":1,"left":"bvh/vr_prediction_models/model(dmp)-dataset(return-bottle-hold)-npsi(70)-hold(3)/final-lines.txt","right":"bvh/return-bottle-hold-training3-lines.txt","att_check":false},"trial_type":"html-keyboard-response","trial_index":82,"time_elapsed":12723075,"internal_node_id":"0.0-8.0-3.18","subject":"9xwqk2jgdl928td","sona":"7480"},{"rt":342,"stimulus":"<p>Bereit?</p>","key_press":32,"trial_type":"html-keyboard-response","trial_index":83,"time_elapsed":12723421,"internal_node_id":"0.0-8.0-0.19","subject":"9xwqk2jgdl928td","sona":"7480"},{"rt":null,"stimulus":"<div style=\"font-size:60px;\">+</div>","key_press":null,"trial_type":"html-keyboard-response","trial_index":84,"time_elapsed":12725429,"internal_node_id":"0.0-8.0-1.19","subject":"9xwqk2jgdl928td","sona":"7480"},{"trial_type":"turing-test","trial_index":85,"time_elapsed":12728926,"internal_node_id":"0.0-8.0-2.19","subject":"9xwqk2jgdl928td","sona":"7480"},{"rt":314677,"stimulus":"<p>Welche Sequenz haben Sie als natürlicher empfunden?</p>","key_press":70,"test_part":"response","test_stimulus":{"position":1,"left":"bvh/vr_prediction_models/model(tmp)-dataset(pass-bottle-hold)-numprim(4)-hold(2)/final-lines.txt","right":"bvh/pass-bottle-hold-training2-lines.txt","att_check":false},"trial_type":"html-keyboard-response","trial_index":86,"time_elapsed":13040340,"internal_node_id":"0.0-8.0-3.19","subject":"9xwqk2jgdl928td","sona":"7480"},{"rt":573,"stimulus":"<p>Bereit?</p>","key_press":32,"trial_type":"html-keyboard-response","trial_index":87,"time_elapsed":13040916,"internal_node_id":"0.0-8.0-0.20","subject":"9xwqk2jgdl928td","sona":"7480"},{"rt":null,"stimulus":"<div style=\"font-size:60px;\">+</div>","key_press":null,"trial_type":"html-keyboard-response","trial_index":88,"time_elapsed":13042942,"internal_node_id":"0.0-8.0-1.20","subject":"9xwqk2jgdl928td","sona":"7480"},{"trial_type":"turing-test","trial_index":89,"time_elapsed":13051136,"internal_node_id":"0.0-8.0-2.20","subject":"9xwqk2jgdl928td","sona":"7480"},{"rt":419,"stimulus":"<p>Welche Sequenz haben Sie als natürlicher empfunden?</p>","key_press":70,"test_part":"response","test_stimulus":{"position":1,"left":"bvh/vr_prediction_models/model(vcgpdm)-dataset(pass-bottle)-mode(MAP)-parts(1)-hold(2)/final-lines.txt","right":"bvh/pass-bottle-training2-lines.txt","att_check":false},"trial_type":"html-keyboard-response","trial_index":90,"time_elapsed":13051558,"internal_node_id":"0.0-8.0-3.20","subject":"9xwqk2jgdl928td","sona":"7480"},{"rt":401,"stimulus":"<p>Bereit?</p>","key_press":32,"trial_type":"html-keyboard-response","trial_index":91,"time_elapsed":13051960,"internal_node_id":"0.0-8.0-0.21","subject":"9xwqk2jgdl928td","sona":"7480"},{"rt":null,"stimulus":"<div style=\"font-size:60px;\">+</div>","key_press":null,"trial_type":"html-keyboard-response","trial_index":92,"time_elapsed":13053984,"internal_node_id":"0.0-8.0-1.21","subject":"9xwqk2jgdl928td","sona":"7480"},{"trial_type":"turing-test","trial_index":93,"time_elapsed":13059140,"internal_node_id":"0.0-8.0-2.21","subject":"9xwqk2jgdl928td","sona":"7480"},{"rt":626,"stimulus":"<p>Welche Sequenz haben Sie als natürlicher empfunden?</p>","key_press":74,"test_part":"response","test_stimulus":{"position":0,"left":"bvh/return-bottle-hold-training3-lines.txt","right":"bvh/vr_prediction_models/model(vcgpdm)-dataset(return-bottle-hold)-mode(ELBO)-parts(3)-dyn(20)-lvm(35)-hold(3)/final-lines.txt","att_check":false},"trial_type":"html-keyboard-response","trial_index":94,"time_elapsed":13059769,"internal_node_id":"0.0-8.0-3.21","subject":"9xwqk2jgdl928td","sona":"7480"},{"rt":297,"stimulus":"<p>Bereit?</p>","key_press":32,"trial_type":"html-keyboard-response","trial_index":95,"time_elapsed":13060068,"internal_node_id":"0.0-8.0-0.22","subject":"9xwqk2jgdl928td","sona":"7480"},{"rt":null,"stimulus":"<div style=\"font-size:60px;\">+</div>","key_press":null,"trial_type":"html-keyboard-response","trial_index":96,"time_elapsed":13062084,"internal_node_id":"0.0-8.0-1.22","subject":"9xwqk2jgdl928td","sona":"7480"},{"trial_type":"turing-test","trial_index":97,"time_elapsed":13068080,"internal_node_id":"0.0-8.0-2.22","subject":"9xwqk2jgdl928td","sona":"7480"},{"rt":434,"stimulus":"<p>Welche Sequenz haben Sie als natürlicher empfunden?</p>","key_press":70,"test_part":"response","test_stimulus":{"position":1,"left":"bvh/vr_prediction_models/model(tmp)-dataset(return-bottle)-numprim(3)-hold(4)/final-lines.txt","right":"bvh/return-bottle-training4-lines.txt","att_check":false},"trial_type":"html-keyboard-response","trial_index":98,"time_elapsed":13068515,"internal_node_id":"0.0-8.0-3.22","subject":"9xwqk2jgdl928td","sona":"7480"},{"rt":257,"stimulus":"<p>Bereit?</p>","key_press":32,"trial_type":"html-keyboard-response","trial_index":99,"time_elapsed":13068775,"internal_node_id":"0.0-8.0-0.23","subject":"9xwqk2jgdl928td","sona":"7480"},{"rt":null,"stimulus":"<div style=\"font-size:60px;\">+</div>","key_press":null,"trial_type":"html-keyboard-response","trial_index":100,"time_elapsed":13070778,"internal_node_id":"0.0-8.0-1.23","subject":"9xwqk2jgdl928td","sona":"7480"},{"trial_type":"turing-test","trial_index":101,"time_elapsed":13077582,"internal_node_id":"0.0-8.0-2.23","subject":"9xwqk2jgdl928td","sona":"7480"},{"rt":744,"stimulus":"<p>Welche Sequenz haben Sie als natürlicher empfunden?</p>","key_press":74,"test_part":"response","test_stimulus":{"position":1,"left":"bvh/vr_prediction_models/model(tmp)-dataset(return-bottle)-numprim(8)-hold(2)/final-lines.txt","right":"bvh/return-bottle-training2-lines.txt","att_check":false},"trial_type":"html-keyboard-response","trial_index":102,"time_elapsed":13078328,"internal_node_id":"0.0-8.0-3.23","subject":"9xwqk2jgdl928td","sona":"7480"},{"rt":289,"stimulus":"<p>Bereit?</p>","key_press":32,"trial_type":"html-keyboard-response","trial_index":103,"time_elapsed":13078619,"internal_node_id":"0.0-8.0-0.24","subject":"9xwqk2jgdl928td","sona":"7480"},{"rt":null,"stimulus":"<div style=\"font-size:60px;\">+</div>","key_press":null,"trial_type":"html-keyboard-response","trial_index":104,"time_elapsed":13080635,"internal_node_id":"0.0-8.0-1.24","subject":"9xwqk2jgdl928td","sona":"7480"},{"trial_type":"turing-test","trial_index":105,"time_elapsed":13088377,"internal_node_id":"0.0-8.0-2.24","subject":"9xwqk2jgdl928td","sona":"7480"},{"rt":697,"stimulus":"<p>Welche Sequenz haben Sie als natürlicher empfunden?</p>","key_press":70,"test_part":"response","test_stimulus":{"position":0,"left":"bvh/pass-bottle-training2-lines.txt","right":"bvh/vr_prediction_models/model(vcgpdm)-dataset(pass-bottle)-mode(ELBO)-parts(1)-dyn(10)-lvm(5)-hold(2)/final-lines.txt","att_check":false},"trial_type":"html-keyboard-response","trial_index":106,"time_elapsed":13089077,"internal_node_id":"0.0-8.0-3.24","subject":"9xwqk2jgdl928td","sona":"7480"},{"rt":256,"stimulus":"<p>Bereit?</p>","key_press":32,"trial_type":"html-keyboard-response","trial_index":107,"time_elapsed":13089335,"internal_node_id":"0.0-8.0-0.25","subject":"9xwqk2jgdl928td","sona":"7480"},{"rt":null,"stimulus":"<div style=\"font-size:60px;\">+</div>","key_press":null,"trial_type":"html-keyboard-response","trial_index":108,"time_elapsed":13091353,"internal_node_id":"0.0-8.0-1.25","subject":"9xwqk2jgdl928td","sona":"7480"},{"trial_type":"turing-test","trial_index":109,"time_elapsed":13098679,"internal_node_id":"0.0-8.0-2.25","subject":"9xwqk2jgdl928td","sona":"7480"},{"rt":348,"stimulus":"<p>Welche Sequenz haben Sie als natürlicher empfunden?</p>","key_press":70,"test_part":"response","test_stimulus":{"position":0,"left":"bvh/return-bottle-training4-lines.txt","right":"bvh/vr_prediction_models/model(vcgpdm)-dataset(return-bottle)-mode(ELBO)-parts(1)-dyn(20)-lvm(20)-hold(4)/final-lines.txt","att_check":false},"trial_type":"html-keyboard-response","trial_index":110,"time_elapsed":13099030,"internal_node_id":"0.0-8.0-3.25","subject":"9xwqk2jgdl928td","sona":"7480"},{"rt":356,"stimulus":"<p>Bereit?</p>","key_press":32,"trial_type":"html-keyboard-response","trial_index":111,"time_elapsed":13099386,"internal_node_id":"0.0-8.0-0.26","subject":"9xwqk2jgdl928td","sona":"7480"},{"rt":null,"stimulus":"<div style=\"font-size:60px;\">+</div>","key_press":null,"trial_type":"html-keyboard-response","trial_index":112,"time_elapsed":13101389,"internal_node_id":"0.0-8.0-1.26","subject":"9xwqk2jgdl928td","sona":"7480"},{"trial_type":"turing-test","trial_index":113,"time_elapsed":13104830,"internal_node_id":"0.0-8.0-2.26","subject":"9xwqk2jgdl928td","sona":"7480"},{"rt":506,"stimulus":"<p>Welche Sequenz haben Sie als natürlicher empfunden?</p>","key_press":70,"test_part":"response","test_stimulus":{"position":0,"left":"bvh/pass-bottle-hold-training2-lines.txt","right":"bvh/vr_prediction_models/model(tmp)-dataset(pass-bottle-hold)-numprim(5)-hold(2)/final-lines.txt","att_check":false},"trial_type":"html-keyboard-response","trial_index":114,"time_elapsed":13105339,"internal_node_id":"0.0-8.0-3.26","subject":"9xwqk2jgdl928td","sona":"7480"},{"rt":350,"stimulus":"<p>Bereit?</p>","key_press":32,"trial_type":"html-keyboard-response","trial_index":115,"time_elapsed":13105691,"internal_node_id":"0.0-8.0-0.27","subject":"9xwqk2jgdl928td","sona":"7480"},{"rt":null,"stimulus":"<div style=\"font-size:60px;\">+</div>","key_press":null,"trial_type":"html-keyboard-response","trial_index":116,"time_elapsed":13107694,"internal_node_id":"0.0-8.0-1.27","subject":"9xwqk2jgdl928td","sona":"7480"},{"trial_type":"turing-test","trial_index":117,"time_elapsed":13112470,"internal_node_id":"0.0-8.0-2.27","subject":"9xwqk2jgdl928td","sona":"7480"},{"rt":435,"stimulus":"<p>Welche Sequenz haben Sie als natürlicher empfunden?</p>","key_press":70,"test_part":"response","test_stimulus":{"position":0,"left":"bvh/pass-bottle-hold-training1-lines.txt","right":"bvh/vr_prediction_models/model(vcgpdm)-dataset(pass-bottle-hold)-mode(ELBO)-parts(3)-dyn(10)-lvm(25)-hold(1)/final-lines.txt","att_check":false},"trial_type":"html-keyboard-response","trial_index":118,"time_elapsed":13112906,"internal_node_id":"0.0-8.0-3.27","subject":"9xwqk2jgdl928td","sona":"7480"},{"rt":273,"stimulus":"<p>Bereit?</p>","key_press":32,"trial_type":"html-keyboard-response","trial_index":119,"time_elapsed":13113183,"internal_node_id":"0.0-8.0-0.28","subject":"9xwqk2jgdl928td","sona":"7480"},{"rt":null,"stimulus":"<div style=\"font-size:60px;\">+</div>","key_press":null,"trial_type":"html-keyboard-response","trial_index":120,"time_elapsed":13115190,"internal_node_id":"0.0-8.0-1.28","subject":"9xwqk2jgdl928td","sona":"7480"},{"trial_type":"turing-test","trial_index":121,"time_elapsed":13121516,"internal_node_id":"0.0-8.0-2.28","subject":"9xwqk2jgdl928td","sona":"7480"},{"rt":392,"stimulus":"<p>Welche Sequenz haben Sie als natürlicher empfunden?</p>","key_press":74,"test_part":"response","test_stimulus":{"position":1,"left":"bvh/vr_prediction_models/model(dmp)-dataset(pass-bottle)-npsi(100)-hold(3)/final-lines.txt","right":"bvh/pass-bottle-training3-lines.txt","att_check":true},"trial_type":"html-keyboard-response","trial_index":122,"time_elapsed":13121910,"internal_node_id":"0.0-8.0-3.28","subject":"9xwqk2jgdl928td","sona":"7480"},{"rt":251,"stimulus":"<p>Bereit?</p>","key_press":32,"trial_type":"html-keyboard-response","trial_index":123,"time_elapsed":13122164,"internal_node_id":"0.0-8.0-0.29","subject":"9xwqk2jgdl928td","sona":"7480"},{"rt":null,"stimulus":"<div style=\"font-size:60px;\">+</div>","key_press":null,"trial_type":"html-keyboard-response","trial_index":124,"time_elapsed":13124175,"internal_node_id":"0.0-8.0-1.29","subject":"9xwqk2jgdl928td","sona":"7480"},{"trial_type":"turing-test","trial_index":125,"time_elapsed":13129412,"internal_node_id":"0.0-8.0-2.29","subject":"9xwqk2jgdl928td","sona":"7480"},{"rt":418,"stimulus":"<p>Welche Sequenz haben Sie als natürlicher empfunden?</p>","key_press":70,"test_part":"response","test_stimulus":{"position":0,"left":"bvh/pass-bottle-hold-training0-lines.txt","right":"bvh/vr_prediction_models/model(vcgpdm)-dataset(pass-bottle-hold)-mode(ELBO)-parts(1)-dyn(35)-lvm(10)-hold(0)/final-lines.txt","att_check":false},"trial_type":"html-keyboard-response","trial_index":126,"time_elapsed":13129835,"internal_node_id":"0.0-8.0-3.29","subject":"9xwqk2jgdl928td","sona":"7480"},{"rt":363,"stimulus":"<p>Bereit?</p>","key_press":32,"trial_type":"html-keyboard-response","trial_index":127,"time_elapsed":13130201,"internal_node_id":"0.0-8.0-0.30","subject":"9xwqk2jgdl928td","sona":"7480"},{"rt":null,"stimulus":"<div style=\"font-size:60px;\">+</div>","key_press":null,"trial_type":"html-keyboard-response","trial_index":128,"time_elapsed":13132240,"internal_node_id":"0.0-8.0-1.30","subject":"9xwqk2jgdl928td","sona":"7480"},{"trial_type":"turing-test","trial_index":129,"time_elapsed":13139954,"internal_node_id":"0.0-8.0-2.30","subject":"9xwqk2jgdl928td","sona":"7480"},{"rt":606,"stimulus":"<p>Welche Sequenz haben Sie als natürlicher empfunden?</p>","key_press":70,"test_part":"response","test_stimulus":{"position":1,"left":"bvh/vr_prediction_models/model(vcgpdm)-dataset(pass-bottle)-mode(ELBO)-parts(3)-dyn(20)-lvm(20)-hold(2)/final-lines.txt","right":"bvh/pass-bottle-training2-lines.txt","att_check":false},"trial_type":"html-keyboard-response","trial_index":130,"time_elapsed":13140563,"internal_node_id":"0.0-8.0-3.30","subject":"9xwqk2jgdl928td","sona":"7480"},{"rt":316,"stimulus":"<p>Bereit?</p>","key_press":32,"trial_type":"html-keyboard-response","trial_index":131,"time_elapsed":13140883,"internal_node_id":"0.0-8.0-0.31","subject":"9xwqk2jgdl928td","sona":"7480"},{"rt":null,"stimulus":"<div style=\"font-size:60px;\">+</div>","key_press":null,"trial_type":"html-keyboard-response","trial_index":132,"time_elapsed":13142888,"internal_node_id":"0.0-8.0-1.31","subject":"9xwqk2jgdl928td","sona":"7480"},{"trial_type":"turing-test","trial_index":133,"time_elapsed":13146235,"internal_node_id":"0.0-8.0-2.31","subject":"9xwqk2jgdl928td","sona":"7480"},{"rt":345,"stimulus":"<p>Welche Sequenz haben Sie als natürlicher empfunden?</p>","key_press":74,"test_part":"response","test_stimulus":{"position":1,"left":"bvh/vr_prediction_models/model(dmp)-dataset(pass-bottle-hold)-npsi(40)-hold(1)/final-lines.txt","right":"bvh/pass-bottle-hold-training1-lines.txt","att_check":true},"trial_type":"html-keyboard-response","trial_index":134,"time_elapsed":13146585,"internal_node_id":"0.0-8.0-3.31","subject":"9xwqk2jgdl928td","sona":"7480"},{"rt":367,"stimulus":"<p>Bereit?</p>","key_press":32,"trial_type":"html-keyboard-response","trial_index":135,"time_elapsed":13146957,"internal_node_id":"0.0-8.0-0.32","subject":"9xwqk2jgdl928td","sona":"7480"},{"rt":null,"stimulus":"<div style=\"font-size:60px;\">+</div>","key_press":null,"trial_type":"html-keyboard-response","trial_index":136,"time_elapsed":13148961,"internal_node_id":"0.0-8.0-1.32","subject":"9xwqk2jgdl928td","sona":"7480"},{"trial_type":"turing-test","trial_index":137,"time_elapsed":13152467,"internal_node_id":"0.0-8.0-2.32","subject":"9xwqk2jgdl928td","sona":"7480"},{"rt":524,"stimulus":"<p>Welche Sequenz haben Sie als natürlicher empfunden?</p>","key_press":74,"test_part":"response","test_stimulus":{"position":1,"left":"bvh/vr_prediction_models/model(vcgpdm)-dataset(pass-bottle-hold)-mode(ELBO)-parts(3)-dyn(20)-lvm(20)-hold(4)/final-lines.txt","right":"bvh/pass-bottle-hold-training4-lines.txt","att_check":false},"trial_type":"html-keyboard-response","trial_index":138,"time_elapsed":13152995,"internal_node_id":"0.0-8.0-3.32","subject":"9xwqk2jgdl928td","sona":"7480"},{"rt":250,"stimulus":"<p>Bereit?</p>","key_press":32,"trial_type":"html-keyboard-response","trial_index":139,"time_elapsed":13153249,"internal_node_id":"0.0-8.0-0.33","subject":"9xwqk2jgdl928td","sona":"7480"},{"rt":null,"stimulus":"<div style=\"font-size:60px;\">+</div>","key_press":null,"trial_type":"html-keyboard-response","trial_index":140,"time_elapsed":13155273,"internal_node_id":"0.0-8.0-1.33","subject":"9xwqk2jgdl928td","sona":"7480"},{"trial_type":"turing-test","trial_index":141,"time_elapsed":13162612,"internal_node_id":"0.0-8.0-2.33","subject":"9xwqk2jgdl928td","sona":"7480"},{"rt":309,"stimulus":"<p>Welche Sequenz haben Sie als natürlicher empfunden?</p>","key_press":70,"test_part":"response","test_stimulus":{"position":0,"left":"bvh/return-bottle-training4-lines.txt","right":"bvh/vr_prediction_models/model(vcgpdm)-dataset(return-bottle)-mode(ELBO)-parts(3)-dyn(20)-lvm(35)-hold(4)/final-lines.txt","att_check":false},"trial_type":"html-keyboard-response","trial_index":142,"time_elapsed":13162925,"internal_node_id":"0.0-8.0-3.33","subject":"9xwqk2jgdl928td","sona":"7480"},{"rt":298,"stimulus":"<p>Bereit?</p>","key_press":32,"trial_type":"html-keyboard-response","trial_index":143,"time_elapsed":13163226,"internal_node_id":"0.0-8.0-0.34","subject":"9xwqk2jgdl928td","sona":"7480"},{"rt":null,"stimulus":"<div style=\"font-size:60px;\">+</div>","key_press":null,"trial_type":"html-keyboard-response","trial_index":144,"time_elapsed":13165247,"internal_node_id":"0.0-8.0-1.34","subject":"9xwqk2jgdl928td","sona":"7480"},{"trial_type":"turing-test","trial_index":145,"time_elapsed":13168555,"internal_node_id":"0.0-8.0-2.34","subject":"9xwqk2jgdl928td","sona":"7480"},{"rt":517,"stimulus":"<p>Welche Sequenz haben Sie als natürlicher empfunden?</p>","key_press":70,"test_part":"response","test_stimulus":{"position":0,"left":"bvh/pass-bottle-hold-training1-lines.txt","right":"bvh/vr_prediction_models/model(tmp)-dataset(pass-bottle-hold)-numprim(5)-hold(1)/final-lines.txt","att_check":false},"trial_type":"html-keyboard-response","trial_index":146,"time_elapsed":13169074,"internal_node_id":"0.0-8.0-3.34","subject":"9xwqk2jgdl928td","sona":"7480"},{"rt":357,"stimulus":"<p>Bereit?</p>","key_press":32,"trial_type":"html-keyboard-response","trial_index":147,"time_elapsed":13169434,"internal_node_id":"0.0-8.0-0.35","subject":"9xwqk2jgdl928td","sona":"7480"},{"rt":null,"stimulus":"<div style=\"font-size:60px;\">+</div>","key_press":null,"trial_type":"html-keyboard-response","trial_index":148,"time_elapsed":13171465,"internal_node_id":"0.0-8.0-1.35","subject":"9xwqk2jgdl928td","sona":"7480"},{"trial_type":"turing-test","trial_index":149,"time_elapsed":13178110,"internal_node_id":"0.0-8.0-2.35","subject":"9xwqk2jgdl928td","sona":"7480"},{"rt":349,"stimulus":"<p>Welche Sequenz haben Sie als natürlicher empfunden?</p>","key_press":70,"test_part":"response","test_stimulus":{"position":0,"left":"bvh/return-bottle-training1-lines.txt","right":"bvh/vr_prediction_models/model(tmp)-dataset(return-bottle)-numprim(5)-hold(1)/final-lines.txt","att_check":false},"trial_type":"html-keyboard-response","trial_index":150,"time_elapsed":13178464,"internal_node_id":"0.0-8.0-3.35","subject":"9xwqk2jgdl928td","sona":"7480"},{"rt":311,"stimulus":"<p>Bereit?</p>","key_press":32,"trial_type":"html-keyboard-response","trial_index":151,"time_elapsed":13178778,"internal_node_id":"0.0-8.0-0.36","subject":"9xwqk2jgdl928td","sona":"7480"},{"rt":null,"stimulus":"<div style=\"font-size:60px;\">+</div>","key_press":null,"trial_type":"html-keyboard-response","trial_index":152,"time_elapsed":13180808,"internal_node_id":"0.0-8.0-1.36","subject":"9xwqk2jgdl928td","sona":"7480"},{"trial_type":"turing-test","trial_index":153,"time_elapsed":13186250,"internal_node_id":"0.0-8.0-2.36","subject":"9xwqk2jgdl928td","sona":"7480"},{"rt":434,"stimulus":"<p>Welche Sequenz haben Sie als natürlicher empfunden?</p>","key_press":70,"test_part":"response","test_stimulus":{"position":0,"left":"bvh/return-bottle-hold-training4-lines.txt","right":"bvh/vr_prediction_models/model(vcgpdm)-dataset(return-bottle-hold)-mode(ELBO)-parts(3)-dyn(10)-lvm(30)-hold(4)/final-lines.txt","att_check":false},"trial_type":"html-keyboard-response","trial_index":154,"time_elapsed":13186688,"internal_node_id":"0.0-8.0-3.36","subject":"9xwqk2jgdl928td","sona":"7480"},{"rt":330,"stimulus":"<p>Bereit?</p>","key_press":32,"trial_type":"html-keyboard-response","trial_index":155,"time_elapsed":13187023,"internal_node_id":"0.0-8.0-0.37","subject":"9xwqk2jgdl928td","sona":"7480"},{"rt":null,"stimulus":"<div style=\"font-size:60px;\">+</div>","key_press":null,"trial_type":"html-keyboard-response","trial_index":156,"time_elapsed":13189040,"internal_node_id":"0.0-8.0-1.37","subject":"9xwqk2jgdl928td","sona":"7480"},{"trial_type":"turing-test","trial_index":157,"time_elapsed":13197300,"internal_node_id":"0.0-8.0-2.37","subject":"9xwqk2jgdl928td","sona":"7480"},{"rt":381,"stimulus":"<p>Welche Sequenz haben Sie als natürlicher empfunden?</p>","key_press":70,"test_part":"response","test_stimulus":{"position":0,"left":"bvh/pass-bottle-training0-lines.txt","right":"bvh/vr_prediction_models/model(vcgpdm)-dataset(pass-bottle)-mode(ELBO)-parts(3)-dyn(10)-lvm(30)-hold(0)/final-lines.txt","att_check":false},"trial_type":"html-keyboard-response","trial_index":158,"time_elapsed":13197686,"internal_node_id":"0.0-8.0-3.37","subject":"9xwqk2jgdl928td","sona":"7480"},{"rt":301,"stimulus":"<p>Bereit?</p>","key_press":32,"trial_type":"html-keyboard-response","trial_index":159,"time_elapsed":13197988,"internal_node_id":"0.0-8.0-0.38","subject":"9xwqk2jgdl928td","sona":"7480"},{"rt":null,"stimulus":"<div style=\"font-size:60px;\">+</div>","key_press":null,"trial_type":"html-keyboard-response","trial_index":160,"time_elapsed":13199991,"internal_node_id":"0.0-8.0-1.38","subject":"9xwqk2jgdl928td","sona":"7480"},{"trial_type":"turing-test","trial_index":161,"time_elapsed":13203444,"internal_node_id":"0.0-8.0-2.38","subject":"9xwqk2jgdl928td","sona":"7480"},{"rt":744,"stimulus":"<p>Welche Sequenz haben Sie als natürlicher empfunden?</p>","key_press":74,"test_part":"response","test_stimulus":{"position":1,"left":"bvh/vr_prediction_models/model(dmp)-dataset(pass-bottle-hold)-npsi(60)-hold(0)/final-lines.txt","right":"bvh/pass-bottle-hold-training0-lines.txt","att_check":false},"trial_type":"html-keyboard-response","trial_index":162,"time_elapsed":13204198,"internal_node_id":"0.0-8.0-3.38","subject":"9xwqk2jgdl928td","sona":"7480"},{"rt":251,"stimulus":"<p>Bereit?</p>","key_press":32,"trial_type":"html-keyboard-response","trial_index":163,"time_elapsed":13204452,"internal_node_id":"0.0-8.0-0.39","subject":"9xwqk2jgdl928td","sona":"7480"},{"rt":null,"stimulus":"<div style=\"font-size:60px;\">+</div>","key_press":null,"trial_type":"html-keyboard-response","trial_index":164,"time_elapsed":13206456,"internal_node_id":"0.0-8.0-1.39","subject":"9xwqk2jgdl928td","sona":"7480"},{"trial_type":"turing-test","trial_index":165,"time_elapsed":13212120,"internal_node_id":"0.0-8.0-2.39","subject":"9xwqk2jgdl928td","sona":"7480"},{"rt":557,"stimulus":"<p>Welche Sequenz haben Sie als natürlicher empfunden?</p>","key_press":74,"test_part":"response","test_stimulus":{"position":1,"left":"bvh/vr_prediction_models/model(vcgpdm)-dataset(return-bottle)-mode(ELBO)-parts(1)-dyn(20)-lvm(20)-hold(4)/final-lines.txt","right":"bvh/return-bottle-training4-lines.txt","att_check":false},"trial_type":"html-keyboard-response","trial_index":166,"time_elapsed":13212681,"internal_node_id":"0.0-8.0-3.39","subject":"9xwqk2jgdl928td","sona":"7480"},{"rt":269,"stimulus":"<p>Bereit?</p>","key_press":32,"trial_type":"html-keyboard-response","trial_index":167,"time_elapsed":13212953,"internal_node_id":"0.0-8.0-0.40","subject":"9xwqk2jgdl928td","sona":"7480"},{"rt":null,"stimulus":"<div style=\"font-size:60px;\">+</div>","key_press":null,"trial_type":"html-keyboard-response","trial_index":168,"time_elapsed":13214959,"internal_node_id":"0.0-8.0-1.40","subject":"9xwqk2jgdl928td","sona":"7480"},{"trial_type":"turing-test","trial_index":169,"time_elapsed":13218276,"internal_node_id":"0.0-8.0-2.40","subject":"9xwqk2jgdl928td","sona":"7480"},{"rt":548,"stimulus":"<p>Welche Sequenz haben Sie als natürlicher empfunden?</p>","key_press":70,"test_part":"response","test_stimulus":{"position":1,"left":"bvh/vr_prediction_models/model(dmp)-dataset(pass-bottle-hold)-npsi(90)-hold(1)/final-lines.txt","right":"bvh/pass-bottle-hold-training1-lines.txt","att_check":false},"trial_type":"html-keyboard-response","trial_index":170,"time_elapsed":13218826,"internal_node_id":"0.0-8.0-3.40","subject":"9xwqk2jgdl928td","sona":"7480"},{"rt":223,"stimulus":"<p>Bereit?</p>","key_press":32,"trial_type":"html-keyboard-response","trial_index":171,"time_elapsed":13219053,"internal_node_id":"0.0-8.0-0.41","subject":"9xwqk2jgdl928td","sona":"7480"},{"rt":null,"stimulus":"<div style=\"font-size:60px;\">+</div>","key_press":null,"trial_type":"html-keyboard-response","trial_index":172,"time_elapsed":13221060,"internal_node_id":"0.0-8.0-1.41","subject":"9xwqk2jgdl928td","sona":"7480"},{"trial_type":"turing-test","trial_index":173,"time_elapsed":13227077,"internal_node_id":"0.0-8.0-2.41","subject":"9xwqk2jgdl928td","sona":"7480"},{"rt":1502,"stimulus":"<p>Welche Sequenz haben Sie als natürlicher empfunden?</p>","key_press":70,"test_part":"response","test_stimulus":{"position":0,"left":"bvh/return-bottle-training3-lines.txt","right":"bvh/vr_prediction_models/model(tmp)-dataset(return-bottle)-numprim(9)-hold(3)/final-lines.txt","att_check":false},"trial_type":"html-keyboard-response","trial_index":174,"time_elapsed":13228581,"internal_node_id":"0.0-8.0-3.41","subject":"9xwqk2jgdl928td","sona":"7480"},{"rt":300,"stimulus":"<p>Bereit?</p>","key_press":32,"trial_type":"html-keyboard-response","trial_index":175,"time_elapsed":13228887,"internal_node_id":"0.0-8.0-0.42","subject":"9xwqk2jgdl928td","sona":"7480"},{"rt":null,"stimulus":"<div style=\"font-size:60px;\">+</div>","key_press":null,"trial_type":"html-keyboard-response","trial_index":176,"time_elapsed":13230907,"internal_node_id":"0.0-8.0-1.42","subject":"9xwqk2jgdl928td","sona":"7480"},{"trial_type":"turing-test","trial_index":177,"time_elapsed":13237183,"internal_node_id":"0.0-8.0-2.42","subject":"9xwqk2jgdl928td","sona":"7480"},{"rt":1004,"stimulus":"<p>Welche Sequenz haben Sie als natürlicher empfunden?</p>","key_press":74,"test_part":"response","test_stimulus":{"position":1,"left":"bvh/vr_prediction_models/model(dmp)-dataset(return-bottle)-npsi(60)-hold(1)/final-lines.txt","right":"bvh/return-bottle-training1-lines.txt","att_check":false},"trial_type":"html-keyboard-response","trial_index":178,"time_elapsed":13238190,"internal_node_id":"0.0-8.0-3.42","subject":"9xwqk2jgdl928td","sona":"7480"},{"rt":362,"stimulus":"<p>Bereit?</p>","key_press":32,"trial_type":"html-keyboard-response","trial_index":179,"time_elapsed":13238557,"internal_node_id":"0.0-8.0-0.43","subject":"9xwqk2jgdl928td","sona":"7480"},{"rt":null,"stimulus":"<div style=\"font-size:60px;\">+</div>","key_press":null,"trial_type":"html-keyboard-response","trial_index":180,"time_elapsed":13240585,"internal_node_id":"0.0-8.0-1.43","subject":"9xwqk2jgdl928td","sona":"7480"},{"trial_type":"turing-test","trial_index":181,"time_elapsed":13246839,"internal_node_id":"0.0-8.0-2.43","subject":"9xwqk2jgdl928td","sona":"7480"},{"rt":601,"stimulus":"<p>Welche Sequenz haben Sie als natürlicher empfunden?</p>","key_press":74,"test_part":"response","test_stimulus":{"position":0,"left":"bvh/return-bottle-training1-lines.txt","right":"bvh/vr_prediction_models/model(tmp)-dataset(return-bottle)-numprim(13)-hold(1)/final-lines.txt","att_check":false},"trial_type":"html-keyboard-response","trial_index":182,"time_elapsed":13247444,"internal_node_id":"0.0-8.0-3.43","subject":"9xwqk2jgdl928td","sona":"7480"},{"rt":404,"stimulus":"<p>Bereit?</p>","key_press":32,"trial_type":"html-keyboard-response","trial_index":183,"time_elapsed":13247851,"internal_node_id":"0.0-8.0-0.44","subject":"9xwqk2jgdl928td","sona":"7480"},{"rt":null,"stimulus":"<div style=\"font-size:60px;\">+</div>","key_press":null,"trial_type":"html-keyboard-response","trial_index":184,"time_elapsed":13249867,"internal_node_id":"0.0-8.0-1.44","subject":"9xwqk2jgdl928td","sona":"7480"},{"trial_type":"turing-test","trial_index":185,"time_elapsed":13255945,"internal_node_id":"0.0-8.0-2.44","subject":"9xwqk2jgdl928td","sona":"7480"},{"rt":683,"stimulus":"<p>Welche Sequenz haben Sie als natürlicher empfunden?</p>","key_press":74,"test_part":"response","test_stimulus":{"position":0,"left":"bvh/pass-bottle-training3-lines.txt","right":"bvh/vr_prediction_models/model(tmp)-dataset(pass-bottle)-numprim(11)-hold(3)/final-lines.txt","att_check":false},"trial_type":"html-keyboard-response","trial_index":186,"time_elapsed":13256633,"internal_node_id":"0.0-8.0-3.44","subject":"9xwqk2jgdl928td","sona":"7480"},{"rt":503,"stimulus":"<p>Bereit?</p>","key_press":32,"trial_type":"html-keyboard-response","trial_index":187,"time_elapsed":13257139,"internal_node_id":"0.0-8.0-0.45","subject":"9xwqk2jgdl928td","sona":"7480"},{"rt":null,"stimulus":"<div style=\"font-size:60px;\">+</div>","key_press":null,"trial_type":"html-keyboard-response","trial_index":188,"time_elapsed":13259142,"internal_node_id":"0.0-8.0-1.45","subject":"9xwqk2jgdl928td","sona":"7480"},{"trial_type":"turing-test","trial_index":189,"time_elapsed":13265433,"internal_node_id":"0.0-8.0-2.45","subject":"9xwqk2jgdl928td","sona":"7480"},{"rt":584,"stimulus":"<p>Welche Sequenz haben Sie als natürlicher empfunden?</p>","key_press":74,"test_part":"response","test_stimulus":{"position":0,"left":"bvh/pass-bottle-training2-lines.txt","right":"bvh/vr_prediction_models/model(tmp)-dataset(pass-bottle)-numprim(3)-hold(2)/final-lines.txt","att_check":false},"trial_type":"html-keyboard-response","trial_index":190,"time_elapsed":13266023,"internal_node_id":"0.0-8.0-3.45","subject":"9xwqk2jgdl928td","sona":"7480"},{"rt":462,"stimulus":"<p>Bereit?</p>","key_press":32,"trial_type":"html-keyboard-response","trial_index":191,"time_elapsed":13266488,"internal_node_id":"0.0-8.0-0.46","subject":"9xwqk2jgdl928td","sona":"7480"},{"rt":null,"stimulus":"<div style=\"font-size:60px;\">+</div>","key_press":null,"trial_type":"html-keyboard-response","trial_index":192,"time_elapsed":13268506,"internal_node_id":"0.0-8.0-1.46","subject":"9xwqk2jgdl928td","sona":"7480"},{"trial_type":"turing-test","trial_index":193,"time_elapsed":13276093,"internal_node_id":"0.0-8.0-2.46","subject":"9xwqk2jgdl928td","sona":"7480"},{"rt":743,"stimulus":"<p>Welche Sequenz haben Sie als natürlicher empfunden?</p>","key_press":74,"test_part":"response","test_stimulus":{"position":0,"left":"bvh/return-bottle-training1-lines.txt","right":"bvh/vr_prediction_models/model(vcgpdm)-dataset(return-bottle)-mode(ELBO)-parts(1)-dyn(15)-lvm(35)-hold(1)/final-lines.txt","att_check":false},"trial_type":"html-keyboard-response","trial_index":194,"time_elapsed":13276840,"internal_node_id":"0.0-8.0-3.46","subject":"9xwqk2jgdl928td","sona":"7480"},{"rt":194,"stimulus":"<p>Bereit?</p>","key_press":32,"trial_type":"html-keyboard-response","trial_index":195,"time_elapsed":13277036,"internal_node_id":"0.0-8.0-0.47","subject":"9xwqk2jgdl928td","sona":"7480"},{"rt":null,"stimulus":"<div style=\"font-size:60px;\">+</div>","key_press":null,"trial_type":"html-keyboard-response","trial_index":196,"time_elapsed":13279068,"internal_node_id":"0.0-8.0-1.47","subject":"9xwqk2jgdl928td","sona":"7480"},{"trial_type":"turing-test","trial_index":197,"time_elapsed":13284026,"internal_node_id":"0.0-8.0-2.47","subject":"9xwqk2jgdl928td","sona":"7480"},{"rt":429,"stimulus":"<p>Welche Sequenz haben Sie als natürlicher empfunden?</p>","key_press":70,"test_part":"response","test_stimulus":{"position":0,"left":"bvh/return-bottle-hold-training1-lines.txt","right":"bvh/vr_prediction_models/model(vcgpdm)-dataset(return-bottle-hold)-mode(ELBO)-parts(3)-dyn(10)-lvm(30)-hold(1)/final-lines.txt","att_check":false},"trial_type":"html-keyboard-response","trial_index":198,"time_elapsed":13284459,"internal_node_id":"0.0-8.0-3.47","subject":"9xwqk2jgdl928td","sona":"7480"},{"rt":316,"stimulus":"<p>Bereit?</p>","key_press":32,"trial_type":"html-keyboard-response","trial_index":199,"time_elapsed":13284778,"internal_node_id":"0.0-8.0-0.48","subject":"9xwqk2jgdl928td","sona":"7480"},{"rt":null,"stimulus":"<div style=\"font-size:60px;\">+</div>","key_press":null,"trial_type":"html-keyboard-response","trial_index":200,"time_elapsed":13286799,"internal_node_id":"0.0-8.0-1.48","subject":"9xwqk2jgdl928td","sona":"7480"},{"trial_type":"turing-test","trial_index":201,"time_elapsed":13292111,"internal_node_id":"0.0-8.0-2.48","subject":"9xwqk2jgdl928td","sona":"7480"},{"rt":339,"stimulus":"<p>Welche Sequenz haben Sie als natürlicher empfunden?</p>","key_press":70,"test_part":"response","test_stimulus":{"position":1,"left":"bvh/vr_prediction_models/model(vcgpdm)-dataset(pass-bottle-hold)-mode(ELBO)-parts(3)-dyn(25)-lvm(25)-hold(3)/final-lines.txt","right":"bvh/pass-bottle-hold-training3-lines.txt","att_check":false},"trial_type":"html-keyboard-response","trial_index":202,"time_elapsed":13292455,"internal_node_id":"0.0-8.0-3.48","subject":"9xwqk2jgdl928td","sona":"7480"},{"rt":406,"stimulus":"<p>Bereit?</p>","key_press":32,"trial_type":"html-keyboard-response","trial_index":203,"time_elapsed":13292864,"internal_node_id":"0.0-8.0-0.49","subject":"9xwqk2jgdl928td","sona":"7480"},{"rt":null,"stimulus":"<div style=\"font-size:60px;\">+</div>","key_press":null,"trial_type":"html-keyboard-response","trial_index":204,"time_elapsed":13294871,"internal_node_id":"0.0-8.0-1.49","subject":"9xwqk2jgdl928td","sona":"7480"},{"trial_type":"turing-test","trial_index":205,"time_elapsed":13299967,"internal_node_id":"0.0-8.0-2.49","subject":"9xwqk2jgdl928td","sona":"7480"},{"rt":446,"stimulus":"<p>Welche Sequenz haben Sie als natürlicher empfunden?</p>","key_press":74,"test_part":"response","test_stimulus":{"position":1,"left":"bvh/vr_prediction_models/model(vcgpdm)-dataset(pass-bottle-hold)-mode(MAP)-parts(3)-hold(3)/final-lines.txt","right":"bvh/pass-bottle-hold-training3-lines.txt","att_check":false},"trial_type":"html-keyboard-response","trial_index":206,"time_elapsed":13300418,"internal_node_id":"0.0-8.0-3.49","subject":"9xwqk2jgdl928td","sona":"7480"},{"rt":258,"stimulus":"<p>Bereit?</p>","key_press":32,"trial_type":"html-keyboard-response","trial_index":207,"time_elapsed":13300679,"internal_node_id":"0.0-8.0-0.50","subject":"9xwqk2jgdl928td","sona":"7480"},{"rt":null,"stimulus":"<div style=\"font-size:60px;\">+</div>","key_press":null,"trial_type":"html-keyboard-response","trial_index":208,"time_elapsed":13302709,"internal_node_id":"0.0-8.0-1.50","subject":"9xwqk2jgdl928td","sona":"7480"},{"trial_type":"turing-test","trial_index":209,"time_elapsed":13307957,"internal_node_id":"0.0-8.0-2.50","subject":"9xwqk2jgdl928td","sona":"7480"},{"rt":342,"stimulus":"<p>Welche Sequenz haben Sie als natürlicher empfunden?</p>","key_press":70,"test_part":"response","test_stimulus":{"position":1,"left":"bvh/vr_prediction_models/model(vcgpdm)-dataset(return-bottle-hold)-mode(ELBO)-parts(1)-dyn(20)-lvm(30)-hold(4)/final-lines.txt","right":"bvh/return-bottle-hold-training4-lines.txt","att_check":false},"trial_type":"html-keyboard-response","trial_index":210,"time_elapsed":13308303,"internal_node_id":"0.0-8.0-3.50","subject":"9xwqk2jgdl928td","sona":"7480"},{"rt":356,"stimulus":"<p>Bereit?</p>","key_press":32,"trial_type":"html-keyboard-response","trial_index":211,"time_elapsed":13308663,"internal_node_id":"0.0-8.0-0.51","subject":"9xwqk2jgdl928td","sona":"7480"},{"rt":null,"stimulus":"<div style=\"font-size:60px;\">+</div>","key_press":null,"trial_type":"html-keyboard-response","trial_index":212,"time_elapsed":13310680,"internal_node_id":"0.0-8.0-1.51","subject":"9xwqk2jgdl928td","sona":"7480"},{"trial_type":"turing-test","trial_index":213,"time_elapsed":13316590,"internal_node_id":"0.0-8.0-2.51","subject":"9xwqk2jgdl928td","sona":"7480"},{"rt":1349,"stimulus":"<p>Welche Sequenz haben Sie als natürlicher empfunden?</p>","key_press":70,"test_part":"response","test_stimulus":{"position":1,"left":"bvh/vr_prediction_models/model(dmp)-dataset(return-bottle)-npsi(20)-hold(0)/final-lines.txt","right":"bvh/return-bottle-training0-lines.txt","att_check":false},"trial_type":"html-keyboard-response","trial_index":214,"time_elapsed":13317943,"internal_node_id":"0.0-8.0-3.51","subject":"9xwqk2jgdl928td","sona":"7480"},{"rt":333,"stimulus":"<p>Bereit?</p>","key_press":32,"trial_type":"html-keyboard-response","trial_index":215,"time_elapsed":13318280,"internal_node_id":"0.0-8.0-0.52","subject":"9xwqk2jgdl928td","sona":"7480"},{"rt":null,"stimulus":"<div style=\"font-size:60px;\">+</div>","key_press":null,"trial_type":"html-keyboard-response","trial_index":216,"time_elapsed":13320291,"internal_node_id":"0.0-8.0-1.52","subject":"9xwqk2jgdl928td","sona":"7480"},{"trial_type":"turing-test","trial_index":217,"time_elapsed":13327228,"internal_node_id":"0.0-8.0-2.52","subject":"9xwqk2jgdl928td","sona":"7480"},{"rt":480,"stimulus":"<p>Welche Sequenz haben Sie als natürlicher empfunden?</p>","key_press":70,"test_part":"response","test_stimulus":{"position":0,"left":"bvh/pass-bottle-training1-lines.txt","right":"bvh/vr_prediction_models/model(vcgpdm)-dataset(pass-bottle)-mode(MAP)-parts(3)-hold(1)/final-lines.txt","att_check":false},"trial_type":"html-keyboard-response","trial_index":218,"time_elapsed":13327712,"internal_node_id":"0.0-8.0-3.52","subject":"9xwqk2jgdl928td","sona":"7480"},{"rt":317,"stimulus":"<p>Bereit?</p>","key_press":32,"trial_type":"html-keyboard-response","trial_index":219,"time_elapsed":13328034,"internal_node_id":"0.0-8.0-0.53","subject":"9xwqk2jgdl928td","sona":"7480"},{"rt":null,"stimulus":"<div style=\"font-size:60px;\">+</div>","key_press":null,"trial_type":"html-keyboard-response","trial_index":220,"time_elapsed":13330051,"internal_node_id":"0.0-8.0-1.53","subject":"9xwqk2jgdl928td","sona":"7480"},{"trial_type":"turing-test","trial_index":221,"time_elapsed":13337331,"internal_node_id":"0.0-8.0-2.53","subject":"9xwqk2jgdl928td","sona":"7480"},{"rt":414,"stimulus":"<p>Welche Sequenz haben Sie als natürlicher empfunden?</p>","key_press":70,"test_part":"response","test_stimulus":{"position":0,"left":"bvh/return-bottle-training4-lines.txt","right":"bvh/vr_prediction_models/model(vcgpdm)-dataset(return-bottle)-mode(ELBO)-parts(3)-dyn(25)-lvm(30)-hold(4)/final-lines.txt","att_check":false},"trial_type":"html-keyboard-response","trial_index":222,"time_elapsed":13337749,"internal_node_id":"0.0-8.0-3.53","subject":"9xwqk2jgdl928td","sona":"7480"},{"rt":327,"stimulus":"<p>Bereit?</p>","key_press":32,"trial_type":"html-keyboard-response","trial_index":223,"time_elapsed":13338080,"internal_node_id":"0.0-8.0-0.54","subject":"9xwqk2jgdl928td","sona":"7480"},{"rt":null,"stimulus":"<div style=\"font-size:60px;\">+</div>","key_press":null,"trial_type":"html-keyboard-response","trial_index":224,"time_elapsed":13340105,"internal_node_id":"0.0-8.0-1.54","subject":"9xwqk2jgdl928td","sona":"7480"},{"trial_type":"turing-test","trial_index":225,"time_elapsed":13347242,"internal_node_id":"0.0-8.0-2.54","subject":"9xwqk2jgdl928td","sona":"7480"},{"rt":219,"stimulus":"<p>Welche Sequenz haben Sie als natürlicher empfunden?</p>","key_press":74,"test_part":"response","test_stimulus":{"position":1,"left":"bvh/vr_prediction_models/model(vcgpdm)-dataset(pass-bottle)-mode(ELBO)-parts(1)-dyn(10)-lvm(30)-hold(1)/final-lines.txt","right":"bvh/pass-bottle-training1-lines.txt","att_check":false},"trial_type":"html-keyboard-response","trial_index":226,"time_elapsed":13347465,"internal_node_id":"0.0-8.0-3.54","subject":"9xwqk2jgdl928td","sona":"7480"},{"rt":380,"stimulus":"<p>Bereit?</p>","key_press":32,"trial_type":"html-keyboard-response","trial_index":227,"time_elapsed":13347846,"internal_node_id":"0.0-8.0-0.55","subject":"9xwqk2jgdl928td","sona":"7480"},{"rt":null,"stimulus":"<div style=\"font-size:60px;\">+</div>","key_press":null,"trial_type":"html-keyboard-response","trial_index":228,"time_elapsed":13349866,"internal_node_id":"0.0-8.0-1.55","subject":"9xwqk2jgdl928td","sona":"7480"},{"trial_type":"turing-test","trial_index":229,"time_elapsed":13355228,"internal_node_id":"0.0-8.0-2.55","subject":"9xwqk2jgdl928td","sona":"7480"},{"rt":870,"stimulus":"<p>Welche Sequenz haben Sie als natürlicher empfunden?</p>","key_press":74,"test_part":"response","test_stimulus":{"position":1,"left":"bvh/vr_prediction_models/model(dmp)-dataset(return-bottle-hold)-npsi(100)-hold(0)/final-lines.txt","right":"bvh/return-bottle-hold-training0-lines.txt","att_check":false},"trial_type":"html-keyboard-response","trial_index":230,"time_elapsed":13356102,"internal_node_id":"0.0-8.0-3.55","subject":"9xwqk2jgdl928td","sona":"7480"},{"rt":198,"stimulus":"<p>Bereit?</p>","key_press":32,"trial_type":"html-keyboard-response","trial_index":231,"time_elapsed":13356301,"internal_node_id":"0.0-8.0-0.56","subject":"9xwqk2jgdl928td","sona":"7480"},{"rt":null,"stimulus":"<div style=\"font-size:60px;\">+</div>","key_press":null,"trial_type":"html-keyboard-response","trial_index":232,"time_elapsed":13358311,"internal_node_id":"0.0-8.0-1.56","subject":"9xwqk2jgdl928td","sona":"7480"},{"trial_type":"turing-test","trial_index":233,"time_elapsed":13361773,"internal_node_id":"0.0-8.0-2.56","subject":"9xwqk2jgdl928td","sona":"7480"},{"rt":473,"stimulus":"<p>Welche Sequenz haben Sie als natürlicher empfunden?</p>","key_press":74,"test_part":"response","test_stimulus":{"position":0,"left":"bvh/pass-bottle-hold-training2-lines.txt","right":"bvh/vr_prediction_models/model(dmp)-dataset(pass-bottle-hold)-npsi(80)-hold(2)/final-lines.txt","att_check":false},"trial_type":"html-keyboard-response","trial_index":234,"time_elapsed":13362251,"internal_node_id":"0.0-8.0-3.56","subject":"9xwqk2jgdl928td","sona":"7480"},{"rt":247,"stimulus":"<p>Bereit?</p>","key_press":32,"trial_type":"html-keyboard-response","trial_index":235,"time_elapsed":13362502,"internal_node_id":"0.0-8.0-0.57","subject":"9xwqk2jgdl928td","sona":"7480"},{"rt":null,"stimulus":"<div style=\"font-size:60px;\">+</div>","key_press":null,"trial_type":"html-keyboard-response","trial_index":236,"time_elapsed":13364514,"internal_node_id":"0.0-8.0-1.57","subject":"9xwqk2jgdl928td","sona":"7480"},{"trial_type":"turing-test","trial_index":237,"time_elapsed":13369438,"internal_node_id":"0.0-8.0-2.57","subject":"9xwqk2jgdl928td","sona":"7480"},{"rt":470,"stimulus":"<p>Welche Sequenz haben Sie als natürlicher empfunden?</p>","key_press":70,"test_part":"response","test_stimulus":{"position":1,"left":"bvh/vr_prediction_models/model(vcgpdm)-dataset(pass-bottle-hold)-mode(ELBO)-parts(1)-dyn(20)-lvm(30)-hold(2)/final-lines.txt","right":"bvh/pass-bottle-hold-training2-lines.txt","att_check":false},"trial_type":"html-keyboard-response","trial_index":238,"time_elapsed":13369912,"internal_node_id":"0.0-8.0-3.57","subject":"9xwqk2jgdl928td","sona":"7480"},{"rt":245,"stimulus":"<p>Bereit?</p>","key_press":32,"trial_type":"html-keyboard-response","trial_index":239,"time_elapsed":13370162,"internal_node_id":"0.0-8.0-0.58","subject":"9xwqk2jgdl928td","sona":"7480"},{"rt":null,"stimulus":"<div style=\"font-size:60px;\">+</div>","key_press":null,"trial_type":"html-keyboard-response","trial_index":240,"time_elapsed":13372169,"internal_node_id":"0.0-8.0-1.58","subject":"9xwqk2jgdl928td","sona":"7480"},{"trial_type":"turing-test","trial_index":241,"time_elapsed":13379953,"internal_node_id":"0.0-8.0-2.58","subject":"9xwqk2jgdl928td","sona":"7480"},{"rt":398,"stimulus":"<p>Welche Sequenz haben Sie als natürlicher empfunden?</p>","key_press":74,"test_part":"response","test_stimulus":{"position":0,"left":"bvh/return-bottle-training1-lines.txt","right":"bvh/vr_prediction_models/model(vcgpdm)-dataset(return-bottle)-mode(ELBO)-parts(1)-dyn(10)-lvm(25)-hold(1)/final-lines.txt","att_check":false},"trial_type":"html-keyboard-response","trial_index":242,"time_elapsed":13380355,"internal_node_id":"0.0-8.0-3.58","subject":"9xwqk2jgdl928td","sona":"7480"},{"rt":382,"stimulus":"<p>Bereit?</p>","key_press":32,"trial_type":"html-keyboard-response","trial_index":243,"time_elapsed":13380745,"internal_node_id":"0.0-8.0-0.59","subject":"9xwqk2jgdl928td","sona":"7480"},{"rt":null,"stimulus":"<div style=\"font-size:60px;\">+</div>","key_press":null,"trial_type":"html-keyboard-response","trial_index":244,"time_elapsed":13382758,"internal_node_id":"0.0-8.0-1.59","subject":"9xwqk2jgdl928td","sona":"7480"},{"trial_type":"turing-test","trial_index":245,"time_elapsed":13386320,"internal_node_id":"0.0-8.0-2.59","subject":"9xwqk2jgdl928td","sona":"7480"},{"rt":726,"stimulus":"<p>Welche Sequenz haben Sie als natürlicher empfunden?</p>","key_press":74,"test_part":"response","test_stimulus":{"position":0,"left":"bvh/return-bottle-hold-training2-lines.txt","right":"bvh/vr_prediction_models/model(tmp)-dataset(return-bottle-hold)-numprim(9)-hold(2)/final-lines.txt","att_check":false},"trial_type":"html-keyboard-response","trial_index":246,"time_elapsed":13387050,"internal_node_id":"0.0-8.0-3.59","subject":"9xwqk2jgdl928td","sona":"7480"},{"rt":336,"stimulus":"<p>Bereit?</p>","key_press":32,"trial_type":"html-keyboard-response","trial_index":247,"time_elapsed":13387392,"internal_node_id":"0.0-8.0-0.60","subject":"9xwqk2jgdl928td","sona":"7480"},{"rt":null,"stimulus":"<div style=\"font-size:60px;\">+</div>","key_press":null,"trial_type":"html-keyboard-response","trial_index":248,"time_elapsed":13389423,"internal_node_id":"0.0-8.0-1.60","subject":"9xwqk2jgdl928td","sona":"7480"},{"trial_type":"turing-test","trial_index":249,"time_elapsed":13396420,"internal_node_id":"0.0-8.0-2.60","subject":"9xwqk2jgdl928td","sona":"7480"},{"rt":405,"stimulus":"<p>Welche Sequenz haben Sie als natürlicher empfunden?</p>","key_press":70,"test_part":"response","test_stimulus":{"position":0,"left":"bvh/pass-bottle-training1-lines.txt","right":"bvh/vr_prediction_models/model(vcgpdm)-dataset(pass-bottle)-mode(ELBO)-parts(3)-dyn(35)-lvm(20)-hold(1)/final-lines.txt","att_check":false},"trial_type":"html-keyboard-response","trial_index":250,"time_elapsed":13396834,"internal_node_id":"0.0-8.0-3.60","subject":"9xwqk2jgdl928td","sona":"7480"},{"rt":324,"stimulus":"<p>Bereit?</p>","key_press":32,"trial_type":"html-keyboard-response","trial_index":251,"time_elapsed":13397164,"internal_node_id":"0.0-8.0-0.61","subject":"9xwqk2jgdl928td","sona":"7480"},{"rt":null,"stimulus":"<div style=\"font-size:60px;\">+</div>","key_press":null,"trial_type":"html-keyboard-response","trial_index":252,"time_elapsed":13399195,"internal_node_id":"0.0-8.0-1.61","subject":"9xwqk2jgdl928td","sona":"7480"},{"trial_type":"turing-test","trial_index":253,"time_elapsed":13402947,"internal_node_id":"0.0-8.0-2.61","subject":"9xwqk2jgdl928td","sona":"7480"},{"rt":680,"stimulus":"<p>Welche Sequenz haben Sie als natürlicher empfunden?</p>","key_press":74,"test_part":"response","test_stimulus":{"position":1,"left":"bvh/vr_prediction_models/model(tmp)-dataset(return-bottle-hold)-numprim(11)-hold(3)/final-lines.txt","right":"bvh/return-bottle-hold-training3-lines.txt","att_check":false},"trial_type":"html-keyboard-response","trial_index":254,"time_elapsed":13403633,"internal_node_id":"0.0-8.0-3.61","subject":"9xwqk2jgdl928td","sona":"7480"},{"rt":225,"stimulus":"<p>Bereit?</p>","key_press":32,"trial_type":"html-keyboard-response","trial_index":255,"time_elapsed":13403862,"internal_node_id":"0.0-8.0-0.62","subject":"9xwqk2jgdl928td","sona":"7480"},{"rt":null,"stimulus":"<div style=\"font-size:60px;\">+</div>","key_press":null,"trial_type":"html-keyboard-response","trial_index":256,"time_elapsed":13405887,"internal_node_id":"0.0-8.0-1.62","subject":"9xwqk2jgdl928td","sona":"7480"},{"trial_type":"turing-test","trial_index":257,"time_elapsed":13414008,"internal_node_id":"0.0-8.0-2.62","subject":"9xwqk2jgdl928td","sona":"7480"},{"rt":390,"stimulus":"<p>Welche Sequenz haben Sie als natürlicher empfunden?</p>","key_press":74,"test_part":"response","test_stimulus":{"position":1,"left":"bvh/vr_prediction_models/model(vcgpdm)-dataset(return-bottle)-mode(ELBO)-parts(3)-dyn(25)-lvm(25)-hold(2)/final-lines.txt","right":"bvh/return-bottle-training2-lines.txt","att_check":false},"trial_type":"html-keyboard-response","trial_index":258,"time_elapsed":13414403,"internal_node_id":"0.0-8.0-3.62","subject":"9xwqk2jgdl928td","sona":"7480"},{"rt":220,"stimulus":"<p>Bereit?</p>","key_press":32,"trial_type":"html-keyboard-response","trial_index":259,"time_elapsed":13414628,"internal_node_id":"0.0-8.0-0.63","subject":"9xwqk2jgdl928td","sona":"7480"},{"rt":null,"stimulus":"<div style=\"font-size:60px;\">+</div>","key_press":null,"trial_type":"html-keyboard-response","trial_index":260,"time_elapsed":13416656,"internal_node_id":"0.0-8.0-1.63","subject":"9xwqk2jgdl928td","sona":"7480"},{"trial_type":"turing-test","trial_index":261,"time_elapsed":13423895,"internal_node_id":"0.0-8.0-2.63","subject":"9xwqk2jgdl928td","sona":"7480"},{"rt":559,"stimulus":"<p>Welche Sequenz haben Sie als natürlicher empfunden?</p>","key_press":70,"test_part":"response","test_stimulus":{"position":1,"left":"bvh/vr_prediction_models/model(vcgpdm)-dataset(return-bottle)-mode(ELBO)-parts(3)-dyn(35)-lvm(20)-hold(3)/final-lines.txt","right":"bvh/return-bottle-training3-lines.txt","att_check":false},"trial_type":"html-keyboard-response","trial_index":262,"time_elapsed":13424460,"internal_node_id":"0.0-8.0-3.63","subject":"9xwqk2jgdl928td","sona":"7480"},{"rt":403,"stimulus":"<p>Bereit?</p>","key_press":32,"trial_type":"html-keyboard-response","trial_index":263,"time_elapsed":13424867,"internal_node_id":"0.0-8.0-0.64","subject":"9xwqk2jgdl928td","sona":"7480"},{"rt":null,"stimulus":"<div style=\"font-size:60px;\">+</div>","key_press":null,"trial_type":"html-keyboard-response","trial_index":264,"time_elapsed":13426884,"internal_node_id":"0.0-8.0-1.64","subject":"9xwqk2jgdl928td","sona":"7480"},{"trial_type":"turing-test","trial_index":265,"time_elapsed":13432993,"internal_node_id":"0.0-8.0-2.64","subject":"9xwqk2jgdl928td","sona":"7480"},{"rt":596,"stimulus":"<p>Welche Sequenz haben Sie als natürlicher empfunden?</p>","key_press":74,"test_part":"response","test_stimulus":{"position":1,"left":"bvh/vr_prediction_models/model(tmp)-dataset(pass-bottle)-numprim(6)-hold(3)/final-lines.txt","right":"bvh/pass-bottle-training3-lines.txt","att_check":false},"trial_type":"html-keyboard-response","trial_index":266,"time_elapsed":13433592,"internal_node_id":"0.0-8.0-3.64","subject":"9xwqk2jgdl928td","sona":"7480"},{"rt":555,"stimulus":"<p>Bereit?</p>","key_press":32,"trial_type":"html-keyboard-response","trial_index":267,"time_elapsed":13434151,"internal_node_id":"0.0-8.0-0.65","subject":"9xwqk2jgdl928td","sona":"7480"},{"rt":null,"stimulus":"<div style=\"font-size:60px;\">+</div>","key_press":null,"trial_type":"html-keyboard-response","trial_index":268,"time_elapsed":13436171,"internal_node_id":"0.0-8.0-1.65","subject":"9xwqk2jgdl928td","sona":"7480"},{"trial_type":"turing-test","trial_index":269,"time_elapsed":13439517,"internal_node_id":"0.0-8.0-2.65","subject":"9xwqk2jgdl928td","sona":"7480"},{"rt":759,"stimulus":"<p>Welche Sequenz haben Sie als natürlicher empfunden?</p>","key_press":74,"test_part":"response","test_stimulus":{"position":0,"left":"bvh/pass-bottle-hold-training1-lines.txt","right":"bvh/vr_prediction_models/model(tmp)-dataset(pass-bottle-hold)-numprim(7)-hold(1)/final-lines.txt","att_check":false},"trial_type":"html-keyboard-response","trial_index":270,"time_elapsed":13440280,"internal_node_id":"0.0-8.0-3.65","subject":"9xwqk2jgdl928td","sona":"7480"},{"rt":251,"stimulus":"<p>Bereit?</p>","key_press":32,"trial_type":"html-keyboard-response","trial_index":271,"time_elapsed":13440535,"internal_node_id":"0.0-8.0-0.66","subject":"9xwqk2jgdl928td","sona":"7480"},{"rt":null,"stimulus":"<div style=\"font-size:60px;\">+</div>","key_press":null,"trial_type":"html-keyboard-response","trial_index":272,"time_elapsed":13442559,"internal_node_id":"0.0-8.0-1.66","subject":"9xwqk2jgdl928td","sona":"7480"},{"trial_type":"turing-test","trial_index":273,"time_elapsed":13449879,"internal_node_id":"0.0-8.0-2.66","subject":"9xwqk2jgdl928td","sona":"7480"},{"rt":754,"stimulus":"<p>Welche Sequenz haben Sie als natürlicher empfunden?</p>","key_press":70,"test_part":"response","test_stimulus":{"position":1,"left":"bvh/vr_prediction_models/model(vcgpdm)-dataset(return-bottle)-mode(MAP)-parts(1)-hold(4)/final-lines.txt","right":"bvh/return-bottle-training4-lines.txt","att_check":false},"trial_type":"html-keyboard-response","trial_index":274,"time_elapsed":13450640,"internal_node_id":"0.0-8.0-3.66","subject":"9xwqk2jgdl928td","sona":"7480"},{"rt":402,"stimulus":"<p>Bereit?</p>","key_press":32,"trial_type":"html-keyboard-response","trial_index":275,"time_elapsed":13451045,"internal_node_id":"0.0-8.0-0.67","subject":"9xwqk2jgdl928td","sona":"7480"},{"rt":null,"stimulus":"<div style=\"font-size:60px;\">+</div>","key_press":null,"trial_type":"html-keyboard-response","trial_index":276,"time_elapsed":13453080,"internal_node_id":"0.0-8.0-1.67","subject":"9xwqk2jgdl928td","sona":"7480"},{"trial_type":"turing-test","trial_index":277,"time_elapsed":13456827,"internal_node_id":"0.0-8.0-2.67","subject":"9xwqk2jgdl928td","sona":"7480"},{"rt":929,"stimulus":"<p>Welche Sequenz haben Sie als natürlicher empfunden?</p>","key_press":70,"test_part":"response","test_stimulus":{"position":1,"left":"bvh/vr_prediction_models/model(tmp)-dataset(pass-bottle-hold)-numprim(15)-hold(4)/final-lines.txt","right":"bvh/pass-bottle-hold-training4-lines.txt","att_check":false},"trial_type":"html-keyboard-response","trial_index":278,"time_elapsed":13457764,"internal_node_id":"0.0-8.0-3.67","subject":"9xwqk2jgdl928td","sona":"7480"},{"rt":332,"stimulus":"<p>Bereit?</p>","key_press":32,"trial_type":"html-keyboard-response","trial_index":279,"time_elapsed":13458101,"internal_node_id":"0.0-8.0-0.68","subject":"9xwqk2jgdl928td","sona":"7480"},{"rt":null,"stimulus":"<div style=\"font-size:60px;\">+</div>","key_press":null,"trial_type":"html-keyboard-response","trial_index":280,"time_elapsed":13460123,"internal_node_id":"0.0-8.0-1.68","subject":"9xwqk2jgdl928td","sona":"7480"},{"trial_type":"turing-test","trial_index":281,"time_elapsed":13468435,"internal_node_id":"0.0-8.0-2.68","subject":"9xwqk2jgdl928td","sona":"7480"},{"rt":435,"stimulus":"<p>Welche Sequenz haben Sie als natürlicher empfunden?</p>","key_press":74,"test_part":"response","test_stimulus":{"position":1,"left":"bvh/vr_prediction_models/model(vcgpdm)-dataset(pass-bottle)-mode(ELBO)-parts(1)-dyn(35)-lvm(10)-hold(0)/final-lines.txt","right":"bvh/pass-bottle-training0-lines.txt","att_check":false},"trial_type":"html-keyboard-response","trial_index":282,"time_elapsed":13468877,"internal_node_id":"0.0-8.0-3.68","subject":"9xwqk2jgdl928td","sona":"7480"},{"rt":246,"stimulus":"<p>Bereit?</p>","key_press":32,"trial_type":"html-keyboard-response","trial_index":283,"time_elapsed":13469127,"internal_node_id":"0.0-8.0-0.69","subject":"9xwqk2jgdl928td","sona":"7480"},{"rt":null,"stimulus":"<div style=\"font-size:60px;\">+</div>","key_press":null,"trial_type":"html-keyboard-response","trial_index":284,"time_elapsed":13471133,"internal_node_id":"0.0-8.0-1.69","subject":"9xwqk2jgdl928td","sona":"7480"},{"trial_type":"turing-test","trial_index":285,"time_elapsed":13476409,"internal_node_id":"0.0-8.0-2.69","subject":"9xwqk2jgdl928td","sona":"7480"},{"rt":491,"stimulus":"<p>Welche Sequenz haben Sie als natürlicher empfunden?</p>","key_press":74,"test_part":"response","test_stimulus":{"position":1,"left":"bvh/vr_prediction_models/model(dmp)-dataset(return-bottle-hold)-npsi(40)-hold(0)/final-lines.txt","right":"bvh/return-bottle-hold-training0-lines.txt","att_check":false},"trial_type":"html-keyboard-response","trial_index":286,"time_elapsed":13476906,"internal_node_id":"0.0-8.0-3.69","subject":"9xwqk2jgdl928td","sona":"7480"},{"rt":215,"stimulus":"<p>Bereit?</p>","key_press":32,"trial_type":"html-keyboard-response","trial_index":287,"time_elapsed":13477126,"internal_node_id":"0.0-8.0-0.70","subject":"9xwqk2jgdl928td","sona":"7480"},{"rt":null,"stimulus":"<div style=\"font-size:60px;\">+</div>","key_press":null,"trial_type":"html-keyboard-response","trial_index":288,"time_elapsed":13479139,"internal_node_id":"0.0-8.0-1.70","subject":"9xwqk2jgdl928td","sona":"7480"},{"trial_type":"turing-test","trial_index":289,"time_elapsed":13485328,"internal_node_id":"0.0-8.0-2.70","subject":"9xwqk2jgdl928td","sona":"7480"},{"rt":321,"stimulus":"<p>Welche Sequenz haben Sie als natürlicher empfunden?</p>","key_press":70,"test_part":"response","test_stimulus":{"position":1,"left":"bvh/vr_prediction_models/model(tmp)-dataset(pass-bottle)-numprim(12)-hold(3)/final-lines.txt","right":"bvh/pass-bottle-training3-lines.txt","att_check":false},"trial_type":"html-keyboard-response","trial_index":290,"time_elapsed":13485654,"internal_node_id":"0.0-8.0-3.70","subject":"9xwqk2jgdl928td","sona":"7480"},{"rt":232,"stimulus":"<p>Bereit?</p>","key_press":32,"trial_type":"html-keyboard-response","trial_index":291,"time_elapsed":13485889,"internal_node_id":"0.0-8.0-0.71","subject":"9xwqk2jgdl928td","sona":"7480"},{"rt":null,"stimulus":"<div style=\"font-size:60px;\">+</div>","key_press":null,"trial_type":"html-keyboard-response","trial_index":292,"time_elapsed":13487910,"internal_node_id":"0.0-8.0-1.71","subject":"9xwqk2jgdl928td","sona":"7480"},{"trial_type":"turing-test","trial_index":293,"time_elapsed":13496556,"internal_node_id":"0.0-8.0-2.71","subject":"9xwqk2jgdl928td","sona":"7480"},{"rt":809,"stimulus":"<p>Welche Sequenz haben Sie als natürlicher empfunden?</p>","key_press":74,"test_part":"response","test_stimulus":{"position":1,"left":"bvh/vr_prediction_models/model(vcgpdm)-dataset(pass-bottle)-mode(ELBO)-parts(1)-dyn(20)-lvm(20)-hold(0)/final-lines.txt","right":"bvh/pass-bottle-training0-lines.txt","att_check":false},"trial_type":"html-keyboard-response","trial_index":294,"time_elapsed":13497371,"internal_node_id":"0.0-8.0-3.71","subject":"9xwqk2jgdl928td","sona":"7480"},{"rt":435,"stimulus":"<p>Bereit?</p>","key_press":32,"trial_type":"html-keyboard-response","trial_index":295,"time_elapsed":13497807,"internal_node_id":"0.0-8.0-0.72","subject":"9xwqk2jgdl928td","sona":"7480"},{"rt":null,"stimulus":"<div style=\"font-size:60px;\">+</div>","key_press":null,"trial_type":"html-keyboard-response","trial_index":296,"time_elapsed":13499831,"internal_node_id":"0.0-8.0-1.72","subject":"9xwqk2jgdl928td","sona":"7480"},{"trial_type":"turing-test","trial_index":297,"time_elapsed":13508072,"internal_node_id":"0.0-8.0-2.72","subject":"9xwqk2jgdl928td","sona":"7480"},{"rt":442,"stimulus":"<p>Welche Sequenz haben Sie als natürlicher empfunden?</p>","key_press":74,"test_part":"response","test_stimulus":{"position":1,"left":"bvh/vr_prediction_models/model(vcgpdm)-dataset(pass-bottle)-mode(ELBO)-parts(1)-dyn(10)-lvm(30)-hold(0)/final-lines.txt","right":"bvh/pass-bottle-training0-lines.txt","att_check":false},"trial_type":"html-keyboard-response","trial_index":298,"time_elapsed":13508519,"internal_node_id":"0.0-8.0-3.72","subject":"9xwqk2jgdl928td","sona":"7480"},{"rt":299,"stimulus":"<p>Bereit?</p>","key_press":32,"trial_type":"html-keyboard-response","trial_index":299,"time_elapsed":13508822,"internal_node_id":"0.0-8.0-0.73","subject":"9xwqk2jgdl928td","sona":"7480"},{"rt":null,"stimulus":"<div style=\"font-size:60px;\">+</div>","key_press":null,"trial_type":"html-keyboard-response","trial_index":300,"time_elapsed":13510832,"internal_node_id":"0.0-8.0-1.73","subject":"9xwqk2jgdl928td","sona":"7480"},{"trial_type":"turing-test","trial_index":301,"time_elapsed":13514522,"internal_node_id":"0.0-8.0-2.73","subject":"9xwqk2jgdl928td","sona":"7480"},{"rt":1160,"stimulus":"<p>Welche Sequenz haben Sie als natürlicher empfunden?</p>","key_press":74,"test_part":"response","test_stimulus":{"position":0,"left":"bvh/pass-bottle-hold-training4-lines.txt","right":"bvh/vr_prediction_models/model(dmp)-dataset(pass-bottle-hold)-npsi(50)-hold(4)/final-lines.txt","att_check":false},"trial_type":"html-keyboard-response","trial_index":302,"time_elapsed":13515684,"internal_node_id":"0.0-8.0-3.73","subject":"9xwqk2jgdl928td","sona":"7480"},{"rt":233,"stimulus":"<p>Bereit?</p>","key_press":32,"trial_type":"html-keyboard-response","trial_index":303,"time_elapsed":13515920,"internal_node_id":"0.0-8.0-0.74","subject":"9xwqk2jgdl928td","sona":"7480"},{"rt":null,"stimulus":"<div style=\"font-size:60px;\">+</div>","key_press":null,"trial_type":"html-keyboard-response","trial_index":304,"time_elapsed":13517933,"internal_node_id":"0.0-8.0-1.74","subject":"9xwqk2jgdl928td","sona":"7480"},{"trial_type":"turing-test","trial_index":305,"time_elapsed":13524208,"internal_node_id":"0.0-8.0-2.74","subject":"9xwqk2jgdl928td","sona":"7480"},{"rt":381,"stimulus":"<p>Welche Sequenz haben Sie als natürlicher empfunden?</p>","key_press":74,"test_part":"response","test_stimulus":{"position":1,"left":"bvh/vr_prediction_models/model(dmp)-dataset(return-bottle)-npsi(40)-hold(1)/final-lines.txt","right":"bvh/return-bottle-training1-lines.txt","att_check":false},"trial_type":"html-keyboard-response","trial_index":306,"time_elapsed":13524594,"internal_node_id":"0.0-8.0-3.74","subject":"9xwqk2jgdl928td","sona":"7480"},{"rt":244,"stimulus":"<p>Bereit?</p>","key_press":32,"trial_type":"html-keyboard-response","trial_index":307,"time_elapsed":13524844,"internal_node_id":"0.0-8.0-0.75","subject":"9xwqk2jgdl928td","sona":"7480"},{"rt":null,"stimulus":"<div style=\"font-size:60px;\">+</div>","key_press":null,"trial_type":"html-keyboard-response","trial_index":308,"time_elapsed":13526854,"internal_node_id":"0.0-8.0-1.75","subject":"9xwqk2jgdl928td","sona":"7480"},{"trial_type":"turing-test","trial_index":309,"time_elapsed":13530567,"internal_node_id":"0.0-8.0-2.75","subject":"9xwqk2jgdl928td","sona":"7480"},{"rt":717,"stimulus":"<p>Welche Sequenz haben Sie als natürlicher empfunden?</p>","key_press":74,"test_part":"response","test_stimulus":{"position":1,"left":"bvh/vr_prediction_models/model(tmp)-dataset(return-bottle-hold)-numprim(3)-hold(3)/final-lines.txt","right":"bvh/return-bottle-hold-training3-lines.txt","att_check":false},"trial_type":"html-keyboard-response","trial_index":310,"time_elapsed":13531290,"internal_node_id":"0.0-8.0-3.75","subject":"9xwqk2jgdl928td","sona":"7480"},{"rt":467,"stimulus":"<p>Bereit?</p>","key_press":32,"trial_type":"html-keyboard-response","trial_index":311,"time_elapsed":13531761,"internal_node_id":"0.0-8.0-0.76","subject":"9xwqk2jgdl928td","sona":"7480"},{"rt":null,"stimulus":"<div style=\"font-size:60px;\">+</div>","key_press":null,"trial_type":"html-keyboard-response","trial_index":312,"time_elapsed":13533777,"internal_node_id":"0.0-8.0-1.76","subject":"9xwqk2jgdl928td","sona":"7480"},{"trial_type":"turing-test","trial_index":313,"time_elapsed":13538849,"internal_node_id":"0.0-8.0-2.76","subject":"9xwqk2jgdl928td","sona":"7480"},{"rt":373,"stimulus":"<p>Welche Sequenz haben Sie als natürlicher empfunden?</p>","key_press":70,"test_part":"response","test_stimulus":{"position":1,"left":"bvh/vr_prediction_models/model(vcgpdm)-dataset(pass-bottle-hold)-mode(ELBO)-parts(3)-dyn(25)-lvm(15)-hold(3)/final-lines.txt","right":"bvh/pass-bottle-hold-training3-lines.txt","att_check":false},"trial_type":"html-keyboard-response","trial_index":314,"time_elapsed":13539225,"internal_node_id":"0.0-8.0-3.76","subject":"9xwqk2jgdl928td","sona":"7480"},{"rt":306,"stimulus":"<p>Bereit?</p>","key_press":32,"trial_type":"html-keyboard-response","trial_index":315,"time_elapsed":13539535,"internal_node_id":"0.0-8.0-0.77","subject":"9xwqk2jgdl928td","sona":"7480"},{"rt":null,"stimulus":"<div style=\"font-size:60px;\">+</div>","key_press":null,"trial_type":"html-keyboard-response","trial_index":316,"time_elapsed":13541559,"internal_node_id":"0.0-8.0-1.77","subject":"9xwqk2jgdl928td","sona":"7480"},{"trial_type":"turing-test","trial_index":317,"time_elapsed":13545422,"internal_node_id":"0.0-8.0-2.77","subject":"9xwqk2jgdl928td","sona":"7480"},{"rt":701,"stimulus":"<p>Welche Sequenz haben Sie als natürlicher empfunden?</p>","key_press":74,"test_part":"response","test_stimulus":{"position":1,"left":"bvh/vr_prediction_models/model(dmp)-dataset(return-bottle-hold)-npsi(40)-hold(4)/final-lines.txt","right":"bvh/return-bottle-hold-training4-lines.txt","att_check":false},"trial_type":"html-keyboard-response","trial_index":318,"time_elapsed":13546128,"internal_node_id":"0.0-8.0-3.77","subject":"9xwqk2jgdl928td","sona":"7480"},{"rt":201,"stimulus":"<p>Bereit?</p>","key_press":32,"trial_type":"html-keyboard-response","trial_index":319,"time_elapsed":13546332,"internal_node_id":"0.0-8.0-0.78","subject":"9xwqk2jgdl928td","sona":"7480"},{"rt":null,"stimulus":"<div style=\"font-size:60px;\">+</div>","key_press":null,"trial_type":"html-keyboard-response","trial_index":320,"time_elapsed":13548335,"internal_node_id":"0.0-8.0-1.78","subject":"9xwqk2jgdl928td","sona":"7480"},{"trial_type":"turing-test","trial_index":321,"time_elapsed":13554009,"internal_node_id":"0.0-8.0-2.78","subject":"9xwqk2jgdl928td","sona":"7480"},{"rt":768,"stimulus":"<p>Welche Sequenz haben Sie als natürlicher empfunden?</p>","key_press":70,"test_part":"response","test_stimulus":{"position":0,"left":"bvh/return-bottle-training4-lines.txt","right":"bvh/vr_prediction_models/model(vcgpdm)-dataset(return-bottle)-mode(MAP)-parts(1)-hold(4)/final-lines.txt","att_check":false},"trial_type":"html-keyboard-response","trial_index":322,"time_elapsed":13554784,"internal_node_id":"0.0-8.0-3.78","subject":"9xwqk2jgdl928td","sona":"7480"},{"rt":416,"stimulus":"<p>Bereit?</p>","key_press":32,"trial_type":"html-keyboard-response","trial_index":323,"time_elapsed":13555207,"internal_node_id":"0.0-8.0-0.79","subject":"9xwqk2jgdl928td","sona":"7480"},{"rt":null,"stimulus":"<div style=\"font-size:60px;\">+</div>","key_press":null,"trial_type":"html-keyboard-response","trial_index":324,"time_elapsed":13557229,"internal_node_id":"0.0-8.0-1.79","subject":"9xwqk2jgdl928td","sona":"7480"},{"trial_type":"turing-test","trial_index":325,"time_elapsed":13563649,"internal_node_id":"0.0-8.0-2.79","subject":"9xwqk2jgdl928td","sona":"7480"},{"rt":827,"stimulus":"<p>Welche Sequenz haben Sie als natürlicher empfunden?</p>","key_press":74,"test_part":"response","test_stimulus":{"position":0,"left":"bvh/pass-bottle-training2-lines.txt","right":"bvh/vr_prediction_models/model(tmp)-dataset(pass-bottle)-numprim(14)-hold(2)/final-lines.txt","att_check":false},"trial_type":"html-keyboard-response","trial_index":326,"time_elapsed":13564481,"internal_node_id":"0.0-8.0-3.79","subject":"9xwqk2jgdl928td","sona":"7480"},{"rt":12065,"responses":"{\"age\":\"19\",\"gender\":\"weiblich\"}","trial_type":"survey-text","trial_index":327,"time_elapsed":13576560,"internal_node_id":"0.0-10.0-0.0","subject":"9xwqk2jgdl928td","sona":"7480"},{"rt":57585,"responses":"{\"area\":\"Schultern und Arme\",\"Q1\":\"manche waren zu ruckartig, manche haben sich komisch gedreht\",\"Q2\":\"drehen\"}","trial_type":"survey-text","trial_index":328,"time_elapsed":13634160,"internal_node_id":"0.0-10.0-1.0","subject":"9xwqk2jgdl928td","sona":"7480"}]