[{"rt":7342.125000010128,"stimulus":"<p>Welcome!<br> Please choose your language to start the experiment in the chosen language.</p><p>Willkommen!<br> Bitte wählen Sie eine Sprache, um das Experiment in der ausgewählten Sprache zu starten</p>","button_pressed":"1","trial_type":"html-button-response","trial_index":0,"time_elapsed":7354,"internal_node_id":"0.0-0.0","subject":"wlyutpr2o0co7m2","sona":"9688"},{"view_history":"[{\"page_index\":0,\"viewing_time\":7268.439999999828},{\"page_index\":1,\"viewing_time\":2801.8449999945005},{\"page_index\":2,\"viewing_time\":11430.129999993369},{\"page_index\":3,\"viewing_time\":8173.995000004652},{\"page_index\":4,\"viewing_time\":4478.029999998398}]","rt":34153.09499998693,"trial_type":"instructions","trial_index":1,"time_elapsed":41508,"internal_node_id":"0.0-1.0-0.0","subject":"wlyutpr2o0co7m2","sona":"9688"},{"rt":3619.730000005802,"stimulus":"<p>Bereit?</p>","key_press":32,"trial_type":"html-keyboard-response","trial_index":2,"time_elapsed":45129,"internal_node_id":"0.0-3.0","subject":"wlyutpr2o0co7m2","sona":"9688"},{"rt":null,"stimulus":"<div style=\"font-size:60px;\">+</div>","key_press":null,"trial_type":"html-keyboard-response","trial_index":3,"time_elapsed":47131,"internal_node_id":"0.0-4.0","subject":"wlyutpr2o0co7m2","sona":"9688"},{"trial_type":"training","trial_index":4,"time_elapsed":50433,"internal_node_id":"0.0-5.0","subject":"wlyutpr2o0co7m2","sona":"9688"},{"rt":1164.9449999968056,"stimulus":"<p>Welche Sequenz haben Sie als natürlicher empfunden?</p>","key_press":70,"trial_type":"html-keyboard-response","trial_index":5,"time_elapsed":51599,"internal_node_id":"0.0-6.0","subject":"wlyutpr2o0co7m2","sona":"9688"},{"rt":4951.759999996284,"stimulus":"<p>Das Experiment startet nun.</p><p><small>Bitte drücken Sie den Knopf, wenn Sie bereit sind.</small></p>","button_pressed":"0","trial_type":"html-button-response","trial_index":6,"time_elapsed":56551,"internal_node_id":"0.0-7.0","subject":"wlyutpr2o0co7m2","sona":"9688"},{"rt":2659.220000001369,"stimulus":"<p>Bereit?</p>","key_press":32,"trial_type":"html-keyboard-response","trial_index":7,"time_elapsed":59212,"internal_node_id":"0.0-8.0-0.0","subject":"wlyutpr2o0co7m2","sona":"9688"},{"rt":null,"stimulus":"<div style=\"font-size:60px;\">+</div>","key_press":null,"trial_type":"html-keyboard-response","trial_index":8,"time_elapsed":61214,"internal_node_id":"0.0-8.0-1.0","subject":"wlyutpr2o0co7m2","sona":"9688"},{"trial_type":"turing-test","trial_index":9,"time_elapsed":64464,"internal_node_id":"0.0-8.0-2.0","subject":"wlyutpr2o0co7m2","sona":"9688"},{"rt":1843.13999999722,"stimulus":"<p>Welche Sequenz haben Sie als natürlicher empfunden?</p>","key_press":70,"test_part":"response","test_stimulus":{"position":1,"left":"bvh/vr_prediction_models/model(tmp)-dataset(pass-bottle-hold)-numprim(11)-hold(0)/final-lines.txt","right":"bvh/pass-bottle-hold-training0-lines.txt","att_check":false},"trial_type":"html-keyboard-response","trial_index":10,"time_elapsed":66309,"internal_node_id":"0.0-8.0-3.0","subject":"wlyutpr2o0co7m2","sona":"9688"},{"rt":2248.0800000048475,"stimulus":"<p>Bereit?</p>","key_press":32,"trial_type":"html-keyboard-response","trial_index":11,"time_elapsed":68559,"internal_node_id":"0.0-8.0-0.1","subject":"wlyutpr2o0co7m2","sona":"9688"},{"rt":null,"stimulus":"<div style=\"font-size:60px;\">+</div>","key_press":null,"trial_type":"html-keyboard-response","trial_index":12,"time_elapsed":70560,"internal_node_id":"0.0-8.0-1.1","subject":"wlyutpr2o0co7m2","sona":"9688"},{"trial_type":"turing-test","trial_index":13,"time_elapsed":73850,"internal_node_id":"0.0-8.0-2.1","subject":"wlyutpr2o0co7m2","sona":"9688"},{"rt":1542.9149999981746,"stimulus":"<p>Welche Sequenz haben Sie als natürlicher empfunden?</p>","key_press":70,"test_part":"response","test_stimulus":{"position":0,"left":"bvh/return-bottle-hold-training1-lines.txt","right":"bvh/vr_prediction_models/model(tmp)-dataset(return-bottle-hold)-numprim(15)-hold(1)/final-lines.txt","att_check":false},"trial_type":"html-keyboard-response","trial_index":14,"time_elapsed":75395,"internal_node_id":"0.0-8.0-3.1","subject":"wlyutpr2o0co7m2","sona":"9688"},{"rt":1042.459999996936,"stimulus":"<p>Bereit?</p>","key_press":32,"trial_type":"html-keyboard-response","trial_index":15,"time_elapsed":76438,"internal_node_id":"0.0-8.0-0.2","subject":"wlyutpr2o0co7m2","sona":"9688"},{"rt":null,"stimulus":"<div style=\"font-size:60px;\">+</div>","key_press":null,"trial_type":"html-keyboard-response","trial_index":16,"time_elapsed":78441,"internal_node_id":"0.0-8.0-1.2","subject":"wlyutpr2o0co7m2","sona":"9688"},{"trial_type":"turing-test","trial_index":17,"time_elapsed":81772,"internal_node_id":"0.0-8.0-2.2","subject":"wlyutpr2o0co7m2","sona":"9688"},{"rt":743.0200000089826,"stimulus":"<p>Welche Sequenz haben Sie als natürlicher empfunden?</p>","key_press":70,"test_part":"response","test_stimulus":{"position":0,"left":"bvh/pass-bottle-hold-training0-lines.txt","right":"bvh/vr_prediction_models/model(vcgpdm)-dataset(pass-bottle-hold)-mode(MAP)-parts(3)-hold(0)/final-lines.txt","att_check":false},"trial_type":"html-keyboard-response","trial_index":18,"time_elapsed":82517,"internal_node_id":"0.0-8.0-3.2","subject":"wlyutpr2o0co7m2","sona":"9688"},{"rt":444.7050000017043,"stimulus":"<p>Bereit?</p>","key_press":32,"trial_type":"html-keyboard-response","trial_index":19,"time_elapsed":82963,"internal_node_id":"0.0-8.0-0.3","subject":"wlyutpr2o0co7m2","sona":"9688"},{"rt":null,"stimulus":"<div style=\"font-size:60px;\">+</div>","key_press":null,"trial_type":"html-keyboard-response","trial_index":20,"time_elapsed":84966,"internal_node_id":"0.0-8.0-1.3","subject":"wlyutpr2o0co7m2","sona":"9688"},{"trial_type":"turing-test","trial_index":21,"time_elapsed":88376,"internal_node_id":"0.0-8.0-2.3","subject":"wlyutpr2o0co7m2","sona":"9688"},{"rt":654.8449999972945,"stimulus":"<p>Welche Sequenz haben Sie als natürlicher empfunden?</p>","key_press":74,"test_part":"response","test_stimulus":{"position":1,"left":"bvh/vr_prediction_models/model(dmp)-dataset(return-bottle-hold)-npsi(70)-hold(2)/final-lines.txt","right":"bvh/return-bottle-hold-training2-lines.txt","att_check":false},"trial_type":"html-keyboard-response","trial_index":22,"time_elapsed":89033,"internal_node_id":"0.0-8.0-3.3","subject":"wlyutpr2o0co7m2","sona":"9688"},{"rt":359.73500000545755,"stimulus":"<p>Bereit?</p>","key_press":32,"trial_type":"html-keyboard-response","trial_index":23,"time_elapsed":89394,"internal_node_id":"0.0-8.0-0.4","subject":"wlyutpr2o0co7m2","sona":"9688"},{"rt":null,"stimulus":"<div style=\"font-size:60px;\">+</div>","key_press":null,"trial_type":"html-keyboard-response","trial_index":24,"time_elapsed":91396,"internal_node_id":"0.0-8.0-1.4","subject":"wlyutpr2o0co7m2","sona":"9688"},{"trial_type":"turing-test","trial_index":25,"time_elapsed":95017,"internal_node_id":"0.0-8.0-2.4","subject":"wlyutpr2o0co7m2","sona":"9688"},{"rt":785.8450000057928,"stimulus":"<p>Welche Sequenz haben Sie als natürlicher empfunden?</p>","key_press":70,"test_part":"response","test_stimulus":{"position":0,"left":"bvh/return-bottle-hold-training3-lines.txt","right":"bvh/vr_prediction_models/model(vcgpdm)-dataset(return-bottle-hold)-mode(ELBO)-parts(3)-dyn(20)-lvm(15)-hold(3)/final-lines.txt","att_check":false},"trial_type":"html-keyboard-response","trial_index":26,"time_elapsed":95804,"internal_node_id":"0.0-8.0-3.4","subject":"wlyutpr2o0co7m2","sona":"9688"},{"rt":364.3350000056671,"stimulus":"<p>Bereit?</p>","key_press":32,"trial_type":"html-keyboard-response","trial_index":27,"time_elapsed":96169,"internal_node_id":"0.0-8.0-0.5","subject":"wlyutpr2o0co7m2","sona":"9688"},{"rt":null,"stimulus":"<div style=\"font-size:60px;\">+</div>","key_press":null,"trial_type":"html-keyboard-response","trial_index":28,"time_elapsed":98172,"internal_node_id":"0.0-8.0-1.5","subject":"wlyutpr2o0co7m2","sona":"9688"},{"trial_type":"turing-test","trial_index":29,"time_elapsed":104742,"internal_node_id":"0.0-8.0-2.5","subject":"wlyutpr2o0co7m2","sona":"9688"},{"rt":558.4400000079768,"stimulus":"<p>Welche Sequenz haben Sie als natürlicher empfunden?</p>","key_press":70,"test_part":"response","test_stimulus":{"position":0,"left":"bvh/return-bottle-training2-lines.txt","right":"bvh/vr_prediction_models/model(vcgpdm)-dataset(return-bottle)-mode(ELBO)-parts(1)-dyn(30)-lvm(35)-hold(2)/final-lines.txt","att_check":false},"trial_type":"html-keyboard-response","trial_index":30,"time_elapsed":105302,"internal_node_id":"0.0-8.0-3.5","subject":"wlyutpr2o0co7m2","sona":"9688"},{"rt":313.13500000396743,"stimulus":"<p>Bereit?</p>","key_press":32,"trial_type":"html-keyboard-response","trial_index":31,"time_elapsed":105616,"internal_node_id":"0.0-8.0-0.6","subject":"wlyutpr2o0co7m2","sona":"9688"},{"rt":null,"stimulus":"<div style=\"font-size:60px;\">+</div>","key_press":null,"trial_type":"html-keyboard-response","trial_index":32,"time_elapsed":107619,"internal_node_id":"0.0-8.0-1.6","subject":"wlyutpr2o0co7m2","sona":"9688"},{"trial_type":"turing-test","trial_index":33,"time_elapsed":111082,"internal_node_id":"0.0-8.0-2.6","subject":"wlyutpr2o0co7m2","sona":"9688"},{"rt":1014.0249999967637,"stimulus":"<p>Welche Sequenz haben Sie als natürlicher empfunden?</p>","key_press":74,"test_part":"response","test_stimulus":{"position":1,"left":"bvh/vr_prediction_models/model(vcgpdm)-dataset(return-bottle-hold)-mode(ELBO)-parts(3)-dyn(25)-lvm(25)-hold(2)/final-lines.txt","right":"bvh/return-bottle-hold-training2-lines.txt","att_check":false},"trial_type":"html-keyboard-response","trial_index":34,"time_elapsed":112097,"internal_node_id":"0.0-8.0-3.6","subject":"wlyutpr2o0co7m2","sona":"9688"},{"rt":344.9899999977788,"stimulus":"<p>Bereit?</p>","key_press":32,"trial_type":"html-keyboard-response","trial_index":35,"time_elapsed":112443,"internal_node_id":"0.0-8.0-0.7","subject":"wlyutpr2o0co7m2","sona":"9688"},{"rt":null,"stimulus":"<div style=\"font-size:60px;\">+</div>","key_press":null,"trial_type":"html-keyboard-response","trial_index":36,"time_elapsed":114445,"internal_node_id":"0.0-8.0-1.7","subject":"wlyutpr2o0co7m2","sona":"9688"},{"trial_type":"turing-test","trial_index":37,"time_elapsed":118087,"internal_node_id":"0.0-8.0-2.7","subject":"wlyutpr2o0co7m2","sona":"9688"},{"rt":624.8900000064168,"stimulus":"<p>Welche Sequenz haben Sie als natürlicher empfunden?</p>","key_press":74,"test_part":"response","test_stimulus":{"position":1,"left":"bvh/vr_prediction_models/model(vcgpdm)-dataset(return-bottle-hold)-mode(MAP)-parts(1)-hold(3)/final-lines.txt","right":"bvh/return-bottle-hold-training3-lines.txt","att_check":false},"trial_type":"html-keyboard-response","trial_index":38,"time_elapsed":118714,"internal_node_id":"0.0-8.0-3.7","subject":"wlyutpr2o0co7m2","sona":"9688"},{"rt":233.03999999188818,"stimulus":"<p>Bereit?</p>","key_press":32,"trial_type":"html-keyboard-response","trial_index":39,"time_elapsed":118948,"internal_node_id":"0.0-8.0-0.8","subject":"wlyutpr2o0co7m2","sona":"9688"},{"rt":null,"stimulus":"<div style=\"font-size:60px;\">+</div>","key_press":null,"trial_type":"html-keyboard-response","trial_index":40,"time_elapsed":120951,"internal_node_id":"0.0-8.0-1.8","subject":"wlyutpr2o0co7m2","sona":"9688"},{"trial_type":"turing-test","trial_index":41,"time_elapsed":124191,"internal_node_id":"0.0-8.0-2.8","subject":"wlyutpr2o0co7m2","sona":"9688"},{"rt":729.6099999948638,"stimulus":"<p>Welche Sequenz haben Sie als natürlicher empfunden?</p>","key_press":74,"test_part":"response","test_stimulus":{"position":1,"left":"bvh/vr_prediction_models/model(vcgpdm)-dataset(pass-bottle-hold)-mode(ELBO)-parts(1)-dyn(20)-lvm(20)-hold(1)/final-lines.txt","right":"bvh/pass-bottle-hold-training1-lines.txt","att_check":false},"trial_type":"html-keyboard-response","trial_index":42,"time_elapsed":124923,"internal_node_id":"0.0-8.0-3.8","subject":"wlyutpr2o0co7m2","sona":"9688"},{"rt":284.5450000022538,"stimulus":"<p>Bereit?</p>","key_press":32,"trial_type":"html-keyboard-response","trial_index":43,"time_elapsed":125208,"internal_node_id":"0.0-8.0-0.9","subject":"wlyutpr2o0co7m2","sona":"9688"},{"rt":null,"stimulus":"<div style=\"font-size:60px;\">+</div>","key_press":null,"trial_type":"html-keyboard-response","trial_index":44,"time_elapsed":127211,"internal_node_id":"0.0-8.0-1.9","subject":"wlyutpr2o0co7m2","sona":"9688"},{"trial_type":"turing-test","trial_index":45,"time_elapsed":130550,"internal_node_id":"0.0-8.0-2.9","subject":"wlyutpr2o0co7m2","sona":"9688"},{"rt":269.61999999184627,"stimulus":"<p>Welche Sequenz haben Sie als natürlicher empfunden?</p>","key_press":74,"test_part":"response","test_stimulus":{"position":1,"left":"bvh/vr_prediction_models/model(vcgpdm)-dataset(return-bottle-hold)-mode(ELBO)-parts(3)-dyn(10)-lvm(25)-hold(1)/final-lines.txt","right":"bvh/return-bottle-hold-training1-lines.txt","att_check":false},"trial_type":"html-keyboard-response","trial_index":46,"time_elapsed":130822,"internal_node_id":"0.0-8.0-3.9","subject":"wlyutpr2o0co7m2","sona":"9688"},{"rt":384.15499999246094,"stimulus":"<p>Bereit?</p>","key_press":32,"trial_type":"html-keyboard-response","trial_index":47,"time_elapsed":131207,"internal_node_id":"0.0-8.0-0.10","subject":"wlyutpr2o0co7m2","sona":"9688"},{"rt":null,"stimulus":"<div style=\"font-size:60px;\">+</div>","key_press":null,"trial_type":"html-keyboard-response","trial_index":48,"time_elapsed":133210,"internal_node_id":"0.0-8.0-1.10","subject":"wlyutpr2o0co7m2","sona":"9688"},{"trial_type":"turing-test","trial_index":49,"time_elapsed":139863,"internal_node_id":"0.0-8.0-2.10","subject":"wlyutpr2o0co7m2","sona":"9688"},{"rt":570.3249999933178,"stimulus":"<p>Welche Sequenz haben Sie als natürlicher empfunden?</p>","key_press":74,"test_part":"response","test_stimulus":{"position":1,"left":"bvh/vr_prediction_models/model(dmp)-dataset(pass-bottle)-npsi(70)-hold(0)/final-lines.txt","right":"bvh/pass-bottle-training0-lines.txt","att_check":false},"trial_type":"html-keyboard-response","trial_index":50,"time_elapsed":140435,"internal_node_id":"0.0-8.0-3.10","subject":"wlyutpr2o0co7m2","sona":"9688"},{"rt":284.07500000321306,"stimulus":"<p>Bereit?</p>","key_press":32,"trial_type":"html-keyboard-response","trial_index":51,"time_elapsed":140721,"internal_node_id":"0.0-8.0-0.11","subject":"wlyutpr2o0co7m2","sona":"9688"},{"rt":null,"stimulus":"<div style=\"font-size:60px;\">+</div>","key_press":null,"trial_type":"html-keyboard-response","trial_index":52,"time_elapsed":142723,"internal_node_id":"0.0-8.0-1.11","subject":"wlyutpr2o0co7m2","sona":"9688"}]