[{"rt":1716.1250000353903,"stimulus":"<p>Welcome!<br> Please choose your language to start the experiment in the chosen language.</p><p>Willkommen!<br> Bitte wählen Sie eine Sprache, um das Experiment in der ausgewählten Sprache zu starten</p>","button_pressed":"1","trial_type":"html-button-response","trial_index":0,"time_elapsed":1746,"internal_node_id":"0.0-0.0","subject":"nr2fwejqhkwt4ka","sona":"9712"},{"view_history":"[{\"page_index\":0,\"viewing_time\":2678.135000052862},{\"page_index\":1,\"viewing_time\":3391.5649999980815},{\"page_index\":2,\"viewing_time\":4008.014999970328},{\"page_index\":3,\"viewing_time\":951.9549999968149},{\"page_index\":4,\"viewing_time\":1887.9799999995157}]","rt":12918.46000001533,"trial_type":"instructions","trial_index":1,"time_elapsed":14665,"internal_node_id":"0.0-1.0-0.0","subject":"nr2fwejqhkwt4ka","sona":"9712"},{"rt":2692.3649999662302,"stimulus":"<p>Bereit?</p>","key_press":32,"trial_type":"html-keyboard-response","trial_index":2,"time_elapsed":17359,"internal_node_id":"0.0-3.0","subject":"nr2fwejqhkwt4ka","sona":"9712"},{"rt":null,"stimulus":"<div style=\"font-size:60px;\">+</div>","key_press":null,"trial_type":"html-keyboard-response","trial_index":3,"time_elapsed":19382,"internal_node_id":"0.0-4.0","subject":"nr2fwejqhkwt4ka","sona":"9712"},{"trial_type":"training","trial_index":4,"time_elapsed":22851,"internal_node_id":"0.0-5.0","subject":"nr2fwejqhkwt4ka","sona":"9712"},{"rt":280.15499998582527,"stimulus":"<p>Welche Sequenz haben Sie als natürlicher empfunden?</p>","key_press":70,"trial_type":"html-keyboard-response","trial_index":5,"time_elapsed":23135,"internal_node_id":"0.0-6.0","subject":"nr2fwejqhkwt4ka","sona":"9712"},{"rt":2440.625000046566,"stimulus":"<p>Das Experiment startet nun.</p><p><small>Bitte drücken Sie den Knopf, wenn Sie bereit sind.</small></p>","button_pressed":"0","trial_type":"html-button-response","trial_index":6,"time_elapsed":25577,"internal_node_id":"0.0-7.0","subject":"nr2fwejqhkwt4ka","sona":"9712"},{"rt":2719.794999982696,"stimulus":"<p>Bereit?</p>","key_press":32,"trial_type":"html-keyboard-response","trial_index":7,"time_elapsed":28298,"internal_node_id":"0.0-8.0-0.0","subject":"nr2fwejqhkwt4ka","sona":"9712"},{"rt":null,"stimulus":"<div style=\"font-size:60px;\">+</div>","key_press":null,"trial_type":"html-keyboard-response","trial_index":8,"time_elapsed":30303,"internal_node_id":"0.0-8.0-1.0","subject":"nr2fwejqhkwt4ka","sona":"9712"},{"trial_type":"turing-test","trial_index":9,"time_elapsed":33792,"internal_node_id":"0.0-8.0-2.0","subject":"nr2fwejqhkwt4ka","sona":"9712"},{"rt":381.3199999858625,"stimulus":"<p>Welche Sequenz haben Sie als natürlicher empfunden?</p>","key_press":70,"test_part":"response","test_stimulus":{"position":0,"left":"bvh/return-bottle-hold-training1-lines.txt","right":"bvh/vr_prediction_models/model(vcgpdm)-dataset(return-bottle-hold)-mode(ELBO)-parts(1)-dyn(25)-lvm(35)-hold(1)/final-lines.txt","att_check":false},"trial_type":"html-keyboard-response","trial_index":10,"time_elapsed":34180,"internal_node_id":"0.0-8.0-3.0","subject":"nr2fwejqhkwt4ka","sona":"9712"},{"rt":302.060000016354,"stimulus":"<p>Bereit?</p>","key_press":32,"trial_type":"html-keyboard-response","trial_index":11,"time_elapsed":34487,"internal_node_id":"0.0-8.0-0.1","subject":"nr2fwejqhkwt4ka","sona":"9712"},{"rt":null,"stimulus":"<div style=\"font-size:60px;\">+</div>","key_press":null,"trial_type":"html-keyboard-response","trial_index":12,"time_elapsed":36489,"internal_node_id":"0.0-8.0-1.1","subject":"nr2fwejqhkwt4ka","sona":"9712"},{"trial_type":"turing-test","trial_index":13,"time_elapsed":42561,"internal_node_id":"0.0-8.0-2.1","subject":"nr2fwejqhkwt4ka","sona":"9712"},{"rt":445.3900000080466,"stimulus":"<p>Welche Sequenz haben Sie als natürlicher empfunden?</p>","key_press":74,"test_part":"response","test_stimulus":{"position":1,"left":"bvh/vr_prediction_models/model(vcgpdm)-dataset(pass-bottle)-mode(ELBO)-parts(3)-dyn(20)-lvm(15)-hold(2)/final-lines.txt","right":"bvh/pass-bottle-training2-lines.txt","att_check":false},"trial_type":"html-keyboard-response","trial_index":14,"time_elapsed":43013,"internal_node_id":"0.0-8.0-3.1","subject":"nr2fwejqhkwt4ka","sona":"9712"},{"rt":251.7799999914132,"stimulus":"<p>Bereit?</p>","key_press":32,"trial_type":"html-keyboard-response","trial_index":15,"time_elapsed":43268,"internal_node_id":"0.0-8.0-0.2","subject":"nr2fwejqhkwt4ka","sona":"9712"},{"rt":null,"stimulus":"<div style=\"font-size:60px;\">+</div>","key_press":null,"trial_type":"html-keyboard-response","trial_index":16,"time_elapsed":45270,"internal_node_id":"0.0-8.0-1.2","subject":"nr2fwejqhkwt4ka","sona":"9712"},{"trial_type":"turing-test","trial_index":17,"time_elapsed":51104,"internal_node_id":"0.0-8.0-2.2","subject":"nr2fwejqhkwt4ka","sona":"9712"},{"rt":491.97000003186986,"stimulus":"<p>Welche Sequenz haben Sie als natürlicher empfunden?</p>","key_press":74,"test_part":"response","test_stimulus":{"position":0,"left":"bvh/pass-bottle-training4-lines.txt","right":"bvh/vr_prediction_models/model(vcgpdm)-dataset(pass-bottle)-mode(ELBO)-parts(1)-dyn(25)-lvm(35)-hold(4)/final-lines.txt","att_check":false},"trial_type":"html-keyboard-response","trial_index":18,"time_elapsed":51602,"internal_node_id":"0.0-8.0-3.2","subject":"nr2fwejqhkwt4ka","sona":"9712"},{"rt":335.3199999546632,"stimulus":"<p>Bereit?</p>","key_press":32,"trial_type":"html-keyboard-response","trial_index":19,"time_elapsed":51942,"internal_node_id":"0.0-8.0-0.3","subject":"nr2fwejqhkwt4ka","sona":"9712"},{"rt":null,"stimulus":"<div style=\"font-size:60px;\">+</div>","key_press":null,"trial_type":"html-keyboard-response","trial_index":20,"time_elapsed":53944,"internal_node_id":"0.0-8.0-1.3","subject":"nr2fwejqhkwt4ka","sona":"9712"},{"trial_type":"turing-test","trial_index":21,"time_elapsed":57745,"internal_node_id":"0.0-8.0-2.3","subject":"nr2fwejqhkwt4ka","sona":"9712"},{"rt":368.9349999767728,"stimulus":"<p>Welche Sequenz haben Sie als natürlicher empfunden?</p>","key_press":70,"test_part":"response","test_stimulus":{"position":0,"left":"bvh/return-bottle-hold-training3-lines.txt","right":"bvh/vr_prediction_models/model(vcgpdm)-dataset(return-bottle-hold)-mode(ELBO)-parts(1)-dyn(10)-lvm(25)-hold(3)/final-lines.txt","att_check":false},"trial_type":"html-keyboard-response","trial_index":22,"time_elapsed":58120,"internal_node_id":"0.0-8.0-3.3","subject":"nr2fwejqhkwt4ka","sona":"9712"},{"rt":236.78999999538064,"stimulus":"<p>Bereit?</p>","key_press":32,"trial_type":"html-keyboard-response","trial_index":23,"time_elapsed":58361,"internal_node_id":"0.0-8.0-0.4","subject":"nr2fwejqhkwt4ka","sona":"9712"},{"rt":null,"stimulus":"<div style=\"font-size:60px;\">+</div>","key_press":null,"trial_type":"html-keyboard-response","trial_index":24,"time_elapsed":60364,"internal_node_id":"0.0-8.0-1.4","subject":"nr2fwejqhkwt4ka","sona":"9712"},{"trial_type":"turing-test","trial_index":25,"time_elapsed":63950,"internal_node_id":"0.0-8.0-2.4","subject":"nr2fwejqhkwt4ka","sona":"9712"},{"rt":290.694999974221,"stimulus":"<p>Welche Sequenz haben Sie als natürlicher empfunden?</p>","key_press":74,"test_part":"response","test_stimulus":{"position":1,"left":"bvh/vr_prediction_models/model(vcgpdm)-dataset(pass-bottle-hold)-mode(ELBO)-parts(1)-dyn(25)-lvm(35)-hold(0)/final-lines.txt","right":"bvh/pass-bottle-hold-training0-lines.txt","att_check":false},"trial_type":"html-keyboard-response","trial_index":26,"time_elapsed":64249,"internal_node_id":"0.0-8.0-3.4","subject":"nr2fwejqhkwt4ka","sona":"9712"},{"rt":390.25500003481284,"stimulus":"<p>Bereit?</p>","key_press":32,"trial_type":"html-keyboard-response","trial_index":27,"time_elapsed":64643,"internal_node_id":"0.0-8.0-0.5","subject":"nr2fwejqhkwt4ka","sona":"9712"},{"rt":null,"stimulus":"<div style=\"font-size:60px;\">+</div>","key_press":null,"trial_type":"html-keyboard-response","trial_index":28,"time_elapsed":66646,"internal_node_id":"0.0-8.0-1.5","subject":"nr2fwejqhkwt4ka","sona":"9712"},{"trial_type":"turing-test","trial_index":29,"time_elapsed":70316,"internal_node_id":"0.0-8.0-2.5","subject":"nr2fwejqhkwt4ka","sona":"9712"},{"rt":1291.815000004135,"stimulus":"<p>Welche Sequenz haben Sie als natürlicher empfunden?</p>","key_press":70,"test_part":"response","test_stimulus":{"position":0,"left":"bvh/pass-bottle-hold-training2-lines.txt","right":"bvh/vr_prediction_models/model(vcgpdm)-dataset(pass-bottle-hold)-mode(ELBO)-parts(3)-dyn(35)-lvm(20)-hold(2)/final-lines.txt","att_check":false},"trial_type":"html-keyboard-response","trial_index":30,"time_elapsed":71615,"internal_node_id":"0.0-8.0-3.5","subject":"nr2fwejqhkwt4ka","sona":"9712"},{"rt":3214.5549999549985,"stimulus":"<p>Bereit?</p>","key_press":32,"trial_type":"html-keyboard-response","trial_index":31,"time_elapsed":74833,"internal_node_id":"0.0-8.0-0.6","subject":"nr2fwejqhkwt4ka","sona":"9712"},{"rt":null,"stimulus":"<div style=\"font-size:60px;\">+</div>","key_press":null,"trial_type":"html-keyboard-response","trial_index":32,"time_elapsed":76836,"internal_node_id":"0.0-8.0-1.6","subject":"nr2fwejqhkwt4ka","sona":"9712"},{"trial_type":"turing-test","trial_index":33,"time_elapsed":82926,"internal_node_id":"0.0-8.0-2.6","subject":"nr2fwejqhkwt4ka","sona":"9712"},{"rt":430.92000001342967,"stimulus":"<p>Welche Sequenz haben Sie als natürlicher empfunden?</p>","key_press":70,"test_part":"response","test_stimulus":{"position":0,"left":"bvh/pass-bottle-training3-lines.txt","right":"bvh/vr_prediction_models/model(vcgpdm)-dataset(pass-bottle)-mode(ELBO)-parts(3)-dyn(25)-lvm(25)-hold(3)/final-lines.txt","att_check":false},"trial_type":"html-keyboard-response","trial_index":34,"time_elapsed":83366,"internal_node_id":"0.0-8.0-3.6","subject":"nr2fwejqhkwt4ka","sona":"9712"},{"rt":313.7350000324659,"stimulus":"<p>Bereit?</p>","key_press":32,"trial_type":"html-keyboard-response","trial_index":35,"time_elapsed":83684,"internal_node_id":"0.0-8.0-0.7","subject":"nr2fwejqhkwt4ka","sona":"9712"},{"rt":null,"stimulus":"<div style=\"font-size:60px;\">+</div>","key_press":null,"trial_type":"html-keyboard-response","trial_index":36,"time_elapsed":85686,"internal_node_id":"0.0-8.0-1.7","subject":"nr2fwejqhkwt4ka","sona":"9712"},{"trial_type":"turing-test","trial_index":37,"time_elapsed":89482,"internal_node_id":"0.0-8.0-2.7","subject":"nr2fwejqhkwt4ka","sona":"9712"},{"rt":515.5549999908544,"stimulus":"<p>Welche Sequenz haben Sie als natürlicher empfunden?</p>","key_press":70,"test_part":"response","test_stimulus":{"position":0,"left":"bvh/return-bottle-hold-training4-lines.txt","right":"bvh/vr_prediction_models/model(vcgpdm)-dataset(return-bottle-hold)-mode(ELBO)-parts(3)-dyn(25)-lvm(25)-hold(4)/final-lines.txt","att_check":false},"trial_type":"html-keyboard-response","trial_index":38,"time_elapsed":90004,"internal_node_id":"0.0-8.0-3.7","subject":"nr2fwejqhkwt4ka","sona":"9712"},{"rt":348.33499998785555,"stimulus":"<p>Bereit?</p>","key_press":32,"trial_type":"html-keyboard-response","trial_index":39,"time_elapsed":90356,"internal_node_id":"0.0-8.0-0.8","subject":"nr2fwejqhkwt4ka","sona":"9712"},{"rt":null,"stimulus":"<div style=\"font-size:60px;\">+</div>","key_press":null,"trial_type":"html-keyboard-response","trial_index":40,"time_elapsed":92358,"internal_node_id":"0.0-8.0-1.8","subject":"nr2fwejqhkwt4ka","sona":"9712"},{"trial_type":"turing-test","trial_index":41,"time_elapsed":98329,"internal_node_id":"0.0-8.0-2.8","subject":"nr2fwejqhkwt4ka","sona":"9712"},{"rt":442.2999999951571,"stimulus":"<p>Welche Sequenz haben Sie als natürlicher empfunden?</p>","key_press":74,"test_part":"response","test_stimulus":{"position":1,"left":"bvh/vr_prediction_models/model(vcgpdm)-dataset(return-bottle)-mode(ELBO)-parts(3)-dyn(25)-lvm(15)-hold(4)/final-lines.txt","right":"bvh/return-bottle-training4-lines.txt","att_check":false},"trial_type":"html-keyboard-response","trial_index":42,"time_elapsed":98778,"internal_node_id":"0.0-8.0-3.8","subject":"nr2fwejqhkwt4ka","sona":"9712"},{"rt":8689.799999992829,"stimulus":"<p>Bereit?</p>","key_press":32,"trial_type":"html-keyboard-response","trial_index":43,"time_elapsed":107474,"internal_node_id":"0.0-8.0-0.9","subject":"nr2fwejqhkwt4ka","sona":"9712"},{"rt":null,"stimulus":"<div style=\"font-size:60px;\">+</div>","key_press":null,"trial_type":"html-keyboard-response","trial_index":44,"time_elapsed":109476,"internal_node_id":"0.0-8.0-1.9","subject":"nr2fwejqhkwt4ka","sona":"9712"},{"trial_type":"turing-test","trial_index":45,"time_elapsed":115074,"internal_node_id":"0.0-8.0-2.9","subject":"nr2fwejqhkwt4ka","sona":"9712"},{"rt":414.00499996962026,"stimulus":"<p>Welche Sequenz haben Sie als natürlicher empfunden?</p>","key_press":74,"test_part":"response","test_stimulus":{"position":1,"left":"bvh/vr_prediction_models/model(vcgpdm)-dataset(pass-bottle)-mode(ELBO)-parts(1)-dyn(30)-lvm(20)-hold(1)/final-lines.txt","right":"bvh/pass-bottle-training1-lines.txt","att_check":false},"trial_type":"html-keyboard-response","trial_index":46,"time_elapsed":115492,"internal_node_id":"0.0-8.0-3.9","subject":"nr2fwejqhkwt4ka","sona":"9712"},{"rt":299.21000002650544,"stimulus":"<p>Bereit?</p>","key_press":32,"trial_type":"html-keyboard-response","trial_index":47,"time_elapsed":115795,"internal_node_id":"0.0-8.0-0.10","subject":"nr2fwejqhkwt4ka","sona":"9712"},{"rt":null,"stimulus":"<div style=\"font-size:60px;\">+</div>","key_press":null,"trial_type":"html-keyboard-response","trial_index":48,"time_elapsed":117796,"internal_node_id":"0.0-8.0-1.10","subject":"nr2fwejqhkwt4ka","sona":"9712"},{"trial_type":"turing-test","trial_index":49,"time_elapsed":123262,"internal_node_id":"0.0-8.0-2.10","subject":"nr2fwejqhkwt4ka","sona":"9712"},{"rt":391.0650000325404,"stimulus":"<p>Welche Sequenz haben Sie als natürlicher empfunden?</p>","key_press":74,"test_part":"response","test_stimulus":{"position":1,"left":"bvh/vr_prediction_models/model(vcgpdm)-dataset(return-bottle)-mode(ELBO)-parts(3)-dyn(25)-lvm(25)-hold(0)/final-lines.txt","right":"bvh/return-bottle-training0-lines.txt","att_check":false},"trial_type":"html-keyboard-response","trial_index":50,"time_elapsed":123659,"internal_node_id":"0.0-8.0-3.10","subject":"nr2fwejqhkwt4ka","sona":"9712"}]