[{"rt":2065.3000000020256,"stimulus":"<p>Welcome!<br> Please choose your language to start the experiment in the chosen language.</p><p>Willkommen!<br> Bitte wählen Sie eine Sprache, um das Experiment in der ausgewählten Sprache zu starten</p>","button_pressed":"1","trial_type":"html-button-response","trial_index":0,"time_elapsed":2097,"internal_node_id":"0.0-0.0","subject":"7c7nvhqv156ratb","sona":"9661"},{"view_history":"[{\"page_index\":0,\"viewing_time\":9171.26499999722},{\"page_index\":1,\"viewing_time\":3271.294999998645},{\"page_index\":2,\"viewing_time\":4719.725000002654},{\"page_index\":3,\"viewing_time\":4041.289999993751},{\"page_index\":4,\"viewing_time\":4407.139999995707}]","rt":25612.664999993285,"trial_type":"instructions","trial_index":1,"time_elapsed":27712,"internal_node_id":"0.0-1.0-0.0","subject":"7c7nvhqv156ratb","sona":"9661"},{"rt":2559.349999995902,"stimulus":"<p>Bereit?</p>","key_press":32,"trial_type":"html-keyboard-response","trial_index":2,"time_elapsed":30274,"internal_node_id":"0.0-3.0","subject":"7c7nvhqv156ratb","sona":"9661"},{"rt":null,"stimulus":"<div style=\"font-size:60px;\">+</div>","key_press":null,"trial_type":"html-keyboard-response","trial_index":3,"time_elapsed":32276,"internal_node_id":"0.0-4.0","subject":"7c7nvhqv156ratb","sona":"9661"},{"trial_type":"training","trial_index":4,"time_elapsed":35640,"internal_node_id":"0.0-5.0","subject":"7c7nvhqv156ratb","sona":"9661"},{"rt":1979.9650000059046,"stimulus":"<p>Welche Sequenz haben Sie als natürlicher empfunden?</p>","key_press":74,"trial_type":"html-keyboard-response","trial_index":5,"time_elapsed":37622,"internal_node_id":"0.0-6.0","subject":"7c7nvhqv156ratb","sona":"9661"},{"rt":7222.110000002431,"stimulus":"<p>Das Experiment startet nun.</p><p><small>Bitte drücken Sie den Knopf, wenn Sie bereit sind.</small></p>","button_pressed":"0","trial_type":"html-button-response","trial_index":6,"time_elapsed":44846,"internal_node_id":"0.0-7.0","subject":"7c7nvhqv156ratb","sona":"9661"},{"rt":1944.564999997965,"stimulus":"<p>Bereit?</p>","key_press":32,"trial_type":"html-keyboard-response","trial_index":7,"time_elapsed":46792,"internal_node_id":"0.0-8.0-0.0","subject":"7c7nvhqv156ratb","sona":"9661"},{"rt":null,"stimulus":"<div style=\"font-size:60px;\">+</div>","key_press":null,"trial_type":"html-keyboard-response","trial_index":8,"time_elapsed":48796,"internal_node_id":"0.0-8.0-1.0","subject":"7c7nvhqv156ratb","sona":"9661"},{"trial_type":"turing-test","trial_index":9,"time_elapsed":52134,"internal_node_id":"0.0-8.0-2.0","subject":"7c7nvhqv156ratb","sona":"9661"},{"rt":482.19999999855645,"stimulus":"<p>Welche Sequenz haben Sie als natürlicher empfunden?</p>","key_press":70,"test_part":"response","test_stimulus":{"position":0,"left":"bvh/return-bottle-hold-training1-lines.txt","right":"bvh/vr_prediction_models/model(dmp)-dataset(return-bottle-hold)-npsi(20)-hold(1)/final-lines.txt","att_check":false},"trial_type":"html-keyboard-response","trial_index":10,"time_elapsed":52621,"internal_node_id":"0.0-8.0-3.0","subject":"7c7nvhqv156ratb","sona":"9661"},{"rt":929.390000004787,"stimulus":"<p>Bereit?</p>","key_press":32,"trial_type":"html-keyboard-response","trial_index":11,"time_elapsed":53554,"internal_node_id":"0.0-8.0-0.1","subject":"7c7nvhqv156ratb","sona":"9661"},{"rt":null,"stimulus":"<div style=\"font-size:60px;\">+</div>","key_press":null,"trial_type":"html-keyboard-response","trial_index":12,"time_elapsed":55556,"internal_node_id":"0.0-8.0-1.1","subject":"7c7nvhqv156ratb","sona":"9661"},{"trial_type":"turing-test","trial_index":13,"time_elapsed":61076,"internal_node_id":"0.0-8.0-2.1","subject":"7c7nvhqv156ratb","sona":"9661"},{"rt":492.25500000466127,"stimulus":"<p>Welche Sequenz haben Sie als natürlicher empfunden?</p>","key_press":74,"test_part":"response","test_stimulus":{"position":0,"left":"bvh/return-bottle-training0-lines.txt","right":"bvh/vr_prediction_models/model(vcgpdm)-dataset(return-bottle)-mode(ELBO)-parts(1)-dyn(20)-lvm(5)-hold(0)/final-lines.txt","att_check":false},"trial_type":"html-keyboard-response","trial_index":14,"time_elapsed":61572,"internal_node_id":"0.0-8.0-3.1","subject":"7c7nvhqv156ratb","sona":"9661"},{"rt":2967.130000004545,"stimulus":"<p>Bereit?</p>","key_press":32,"trial_type":"html-keyboard-response","trial_index":15,"time_elapsed":64542,"internal_node_id":"0.0-8.0-0.2","subject":"7c7nvhqv156ratb","sona":"9661"},{"rt":null,"stimulus":"<div style=\"font-size:60px;\">+</div>","key_press":null,"trial_type":"html-keyboard-response","trial_index":16,"time_elapsed":66544,"internal_node_id":"0.0-8.0-1.2","subject":"7c7nvhqv156ratb","sona":"9661"},{"trial_type":"turing-test","trial_index":17,"time_elapsed":72458,"internal_node_id":"0.0-8.0-2.2","subject":"7c7nvhqv156ratb","sona":"9661"},{"rt":1056.2400000053458,"stimulus":"<p>Welche Sequenz haben Sie als natürlicher empfunden?</p>","key_press":70,"test_part":"response","test_stimulus":{"position":0,"left":"bvh/return-bottle-training4-lines.txt","right":"bvh/vr_prediction_models/model(vcgpdm)-dataset(return-bottle)-mode(ELBO)-parts(3)-dyn(30)-lvm(15)-hold(4)/final-lines.txt","att_check":false},"trial_type":"html-keyboard-response","trial_index":18,"time_elapsed":73517,"internal_node_id":"0.0-8.0-3.2","subject":"7c7nvhqv156ratb","sona":"9661"},{"rt":691.9950000010431,"stimulus":"<p>Bereit?</p>","key_press":32,"trial_type":"html-keyboard-response","trial_index":19,"time_elapsed":74213,"internal_node_id":"0.0-8.0-0.3","subject":"7c7nvhqv156ratb","sona":"9661"},{"rt":null,"stimulus":"<div style=\"font-size:60px;\">+</div>","key_press":null,"trial_type":"html-keyboard-response","trial_index":20,"time_elapsed":76215,"internal_node_id":"0.0-8.0-1.3","subject":"7c7nvhqv156ratb","sona":"9661"},{"trial_type":"turing-test","trial_index":21,"time_elapsed":79962,"internal_node_id":"0.0-8.0-2.3","subject":"7c7nvhqv156ratb","sona":"9661"},{"rt":595.1050000003306,"stimulus":"<p>Welche Sequenz haben Sie als natürlicher empfunden?</p>","key_press":74,"test_part":"response","test_stimulus":{"position":1,"left":"bvh/vr_prediction_models/model(vcgpdm)-dataset(pass-bottle-hold)-mode(MAP)-parts(3)-hold(4)/final-lines.txt","right":"bvh/pass-bottle-hold-training4-lines.txt","att_check":false},"trial_type":"html-keyboard-response","trial_index":22,"time_elapsed":80562,"internal_node_id":"0.0-8.0-3.3","subject":"7c7nvhqv156ratb","sona":"9661"},{"rt":1081.5200000070035,"stimulus":"<p>Bereit?</p>","key_press":32,"trial_type":"html-keyboard-response","trial_index":23,"time_elapsed":81647,"internal_node_id":"0.0-8.0-0.4","subject":"7c7nvhqv156ratb","sona":"9661"},{"rt":null,"stimulus":"<div style=\"font-size:60px;\">+</div>","key_press":null,"trial_type":"html-keyboard-response","trial_index":24,"time_elapsed":83649,"internal_node_id":"0.0-8.0-1.4","subject":"7c7nvhqv156ratb","sona":"9661"},{"trial_type":"turing-test","trial_index":25,"time_elapsed":89492,"internal_node_id":"0.0-8.0-2.4","subject":"7c7nvhqv156ratb","sona":"9661"},{"rt":2226.150000002235,"stimulus":"<p>Welche Sequenz haben Sie als natürlicher empfunden?</p>","key_press":74,"test_part":"response","test_stimulus":{"position":0,"left":"bvh/return-bottle-training4-lines.txt","right":"bvh/vr_prediction_models/model(tmp)-dataset(return-bottle)-numprim(12)-hold(4)/final-lines.txt","att_check":false},"trial_type":"html-keyboard-response","trial_index":26,"time_elapsed":91721,"internal_node_id":"0.0-8.0-3.4","subject":"7c7nvhqv156ratb","sona":"9661"},{"rt":753.2199999986915,"stimulus":"<p>Bereit?</p>","key_press":32,"trial_type":"html-keyboard-response","trial_index":27,"time_elapsed":92477,"internal_node_id":"0.0-8.0-0.5","subject":"7c7nvhqv156ratb","sona":"9661"},{"rt":null,"stimulus":"<div style=\"font-size:60px;\">+</div>","key_press":null,"trial_type":"html-keyboard-response","trial_index":28,"time_elapsed":94479,"internal_node_id":"0.0-8.0-1.5","subject":"7c7nvhqv156ratb","sona":"9661"},{"trial_type":"turing-test","trial_index":29,"time_elapsed":98043,"internal_node_id":"0.0-8.0-2.5","subject":"7c7nvhqv156ratb","sona":"9661"},{"rt":1338.5800000105519,"stimulus":"<p>Welche Sequenz haben Sie als natürlicher empfunden?</p>","key_press":70,"test_part":"response","test_stimulus":{"position":1,"left":"bvh/vr_prediction_models/model(tmp)-dataset(pass-bottle-hold)-numprim(8)-hold(4)/final-lines.txt","right":"bvh/pass-bottle-hold-training4-lines.txt","att_check":false},"trial_type":"html-keyboard-response","trial_index":30,"time_elapsed":99386,"internal_node_id":"0.0-8.0-3.5","subject":"7c7nvhqv156ratb","sona":"9661"},{"rt":477.62499999953434,"stimulus":"<p>Bereit?</p>","key_press":32,"trial_type":"html-keyboard-response","trial_index":31,"time_elapsed":99866,"internal_node_id":"0.0-8.0-0.6","subject":"7c7nvhqv156ratb","sona":"9661"},{"rt":null,"stimulus":"<div style=\"font-size:60px;\">+</div>","key_press":null,"trial_type":"html-keyboard-response","trial_index":32,"time_elapsed":101868,"internal_node_id":"0.0-8.0-1.6","subject":"7c7nvhqv156ratb","sona":"9661"},{"trial_type":"turing-test","trial_index":33,"time_elapsed":108674,"internal_node_id":"0.0-8.0-2.6","subject":"7c7nvhqv156ratb","sona":"9661"},{"rt":484.9549999926239,"stimulus":"<p>Welche Sequenz haben Sie als natürlicher empfunden?</p>","key_press":70,"test_part":"response","test_stimulus":{"position":1,"left":"bvh/vr_prediction_models/model(dmp)-dataset(pass-bottle)-npsi(100)-hold(0)/final-lines.txt","right":"bvh/pass-bottle-training0-lines.txt","att_check":false},"trial_type":"html-keyboard-response","trial_index":34,"time_elapsed":109164,"internal_node_id":"0.0-8.0-3.6","subject":"7c7nvhqv156ratb","sona":"9661"},{"rt":630.6000000040513,"stimulus":"<p>Bereit?</p>","key_press":32,"trial_type":"html-keyboard-response","trial_index":35,"time_elapsed":109797,"internal_node_id":"0.0-8.0-0.7","subject":"7c7nvhqv156ratb","sona":"9661"},{"rt":null,"stimulus":"<div style=\"font-size:60px;\">+</div>","key_press":null,"trial_type":"html-keyboard-response","trial_index":36,"time_elapsed":111800,"internal_node_id":"0.0-8.0-1.7","subject":"7c7nvhqv156ratb","sona":"9661"},{"trial_type":"turing-test","trial_index":37,"time_elapsed":115550,"internal_node_id":"0.0-8.0-2.7","subject":"7c7nvhqv156ratb","sona":"9661"},{"rt":894.0000000002328,"stimulus":"<p>Welche Sequenz haben Sie als natürlicher empfunden?</p>","key_press":74,"test_part":"response","test_stimulus":{"position":0,"left":"bvh/pass-bottle-hold-training4-lines.txt","right":"bvh/vr_prediction_models/model(vcgpdm)-dataset(pass-bottle-hold)-mode(ELBO)-parts(3)-dyn(35)-lvm(20)-hold(4)/final-lines.txt","att_check":false},"trial_type":"html-keyboard-response","trial_index":38,"time_elapsed":116448,"internal_node_id":"0.0-8.0-3.7","subject":"7c7nvhqv156ratb","sona":"9661"},{"rt":1585.8250000019325,"stimulus":"<p>Bereit?</p>","key_press":32,"trial_type":"html-keyboard-response","trial_index":39,"time_elapsed":118039,"internal_node_id":"0.0-8.0-0.8","subject":"7c7nvhqv156ratb","sona":"9661"},{"rt":null,"stimulus":"<div style=\"font-size:60px;\">+</div>","key_press":null,"trial_type":"html-keyboard-response","trial_index":40,"time_elapsed":120042,"internal_node_id":"0.0-8.0-1.8","subject":"7c7nvhqv156ratb","sona":"9661"},{"trial_type":"turing-test","trial_index":41,"time_elapsed":123628,"internal_node_id":"0.0-8.0-2.8","subject":"7c7nvhqv156ratb","sona":"9661"},{"rt":999.2400000046473,"stimulus":"<p>Welche Sequenz haben Sie als natürlicher empfunden?</p>","key_press":74,"test_part":"response","test_stimulus":{"position":0,"left":"bvh/pass-bottle-hold-training4-lines.txt","right":"bvh/vr_prediction_models/model(dmp)-dataset(pass-bottle-hold)-npsi(30)-hold(4)/final-lines.txt","att_check":false},"trial_type":"html-keyboard-response","trial_index":42,"time_elapsed":124631,"internal_node_id":"0.0-8.0-3.8","subject":"7c7nvhqv156ratb","sona":"9661"},{"rt":908.9249999960884,"stimulus":"<p>Bereit?</p>","key_press":32,"trial_type":"html-keyboard-response","trial_index":43,"time_elapsed":125542,"internal_node_id":"0.0-8.0-0.9","subject":"7c7nvhqv156ratb","sona":"9661"},{"rt":null,"stimulus":"<div style=\"font-size:60px;\">+</div>","key_press":null,"trial_type":"html-keyboard-response","trial_index":44,"time_elapsed":127545,"internal_node_id":"0.0-8.0-1.9","subject":"7c7nvhqv156ratb","sona":"9661"},{"trial_type":"turing-test","trial_index":45,"time_elapsed":130834,"internal_node_id":"0.0-8.0-2.9","subject":"7c7nvhqv156ratb","sona":"9661"},{"rt":933.340000003227,"stimulus":"<p>Welche Sequenz haben Sie als natürlicher empfunden?</p>","key_press":74,"test_part":"response","test_stimulus":{"position":1,"left":"bvh/vr_prediction_models/model(dmp)-dataset(pass-bottle-hold)-npsi(20)-hold(0)/final-lines.txt","right":"bvh/pass-bottle-hold-training0-lines.txt","att_check":false},"trial_type":"html-keyboard-response","trial_index":46,"time_elapsed":131771,"internal_node_id":"0.0-8.0-3.9","subject":"7c7nvhqv156ratb","sona":"9661"},{"rt":522.6649999967776,"stimulus":"<p>Bereit?</p>","key_press":32,"trial_type":"html-keyboard-response","trial_index":47,"time_elapsed":132296,"internal_node_id":"0.0-8.0-0.10","subject":"7c7nvhqv156ratb","sona":"9661"},{"rt":null,"stimulus":"<div style=\"font-size:60px;\">+</div>","key_press":null,"trial_type":"html-keyboard-response","trial_index":48,"time_elapsed":134299,"internal_node_id":"0.0-8.0-1.10","subject":"7c7nvhqv156ratb","sona":"9661"},{"trial_type":"turing-test","trial_index":49,"time_elapsed":139999,"internal_node_id":"0.0-8.0-2.10","subject":"7c7nvhqv156ratb","sona":"9661"},{"rt":89.14500000537373,"stimulus":"<p>Welche Sequenz haben Sie als natürlicher empfunden?</p>","key_press":74,"test_part":"response","test_stimulus":{"position":1,"left":"bvh/vr_prediction_models/model(vcgpdm)-dataset(pass-bottle)-mode(ELBO)-parts(1)-dyn(20)-lvm(5)-hold(1)/final-lines.txt","right":"bvh/pass-bottle-training1-lines.txt","att_check":false},"trial_type":"html-keyboard-response","trial_index":50,"time_elapsed":140093,"internal_node_id":"0.0-8.0-3.10","subject":"7c7nvhqv156ratb","sona":"9661"},{"rt":656.0000000026776,"stimulus":"<p>Bereit?</p>","key_press":32,"trial_type":"html-keyboard-response","trial_index":51,"time_elapsed":140751,"internal_node_id":"0.0-8.0-0.11","subject":"7c7nvhqv156ratb","sona":"9661"},{"rt":null,"stimulus":"<div style=\"font-size:60px;\">+</div>","key_press":null,"trial_type":"html-keyboard-response","trial_index":52,"time_elapsed":142753,"internal_node_id":"0.0-8.0-1.11","subject":"7c7nvhqv156ratb","sona":"9661"}]