[{"rt":1327.3650000337511,"stimulus":"<p>Welcome!<br> Please choose your language to start the experiment in the chosen language.</p><p>Willkommen!<br> Bitte wählen Sie eine Sprache, um das Experiment in der ausgewählten Sprache zu starten</p>","button_pressed":"1","trial_type":"html-button-response","trial_index":0,"time_elapsed":1354,"internal_node_id":"0.0-0.0","subject":"0nns4r9c7gagh68","sona":"8665"},{"view_history":"[{\"page_index\":0,\"viewing_time\":468.09000009670854},{\"page_index\":1,\"viewing_time\":959.4999998807907},{\"page_index\":2,\"viewing_time\":372.39999999292195},{\"page_index\":3,\"viewing_time\":676.8900000024587},{\"page_index\":4,\"viewing_time\":555.8900001924485}]","rt":3033.2150000613183,"trial_type":"instructions","trial_index":1,"time_elapsed":4388,"internal_node_id":"0.0-1.0-0.0","subject":"0nns4r9c7gagh68","sona":"8665"},{"rt":1132.7549999114126,"stimulus":"<p>Bereit?</p>","key_press":32,"trial_type":"html-keyboard-response","trial_index":2,"time_elapsed":5521,"internal_node_id":"0.0-3.0","subject":"0nns4r9c7gagh68","sona":"8665"},{"rt":null,"stimulus":"<div style=\"font-size:60px;\">+</div>","key_press":null,"trial_type":"html-keyboard-response","trial_index":3,"time_elapsed":7524,"internal_node_id":"0.0-4.0","subject":"0nns4r9c7gagh68","sona":"8665"},{"trial_type":"training","trial_index":4,"time_elapsed":10727,"internal_node_id":"0.0-5.0","subject":"0nns4r9c7gagh68","sona":"8665"},{"rt":481.35500005446374,"stimulus":"<p>Welche Sequenz haben Sie als natürlicher empfunden?</p>","key_press":70,"trial_type":"html-keyboard-response","trial_index":5,"time_elapsed":11209,"internal_node_id":"0.0-6.0","subject":"0nns4r9c7gagh68","sona":"8665"},{"rt":1232.9700000118464,"stimulus":"<p>Das Experiment startet nun.</p><p><small>Bitte drücken Sie den Knopf, wenn Sie bereit sind.</small></p>","button_pressed":"0","trial_type":"html-button-response","trial_index":6,"time_elapsed":12443,"internal_node_id":"0.0-7.0","subject":"0nns4r9c7gagh68","sona":"8665"},{"rt":1725.5899999290705,"stimulus":"<p>Bereit?</p>","key_press":32,"trial_type":"html-keyboard-response","trial_index":7,"time_elapsed":14169,"internal_node_id":"0.0-8.0-0.0","subject":"0nns4r9c7gagh68","sona":"8665"},{"rt":null,"stimulus":"<div style=\"font-size:60px;\">+</div>","key_press":null,"trial_type":"html-keyboard-response","trial_index":8,"time_elapsed":16190,"internal_node_id":"0.0-8.0-1.0","subject":"0nns4r9c7gagh68","sona":"8665"},{"trial_type":"turing-test","trial_index":9,"time_elapsed":19659,"internal_node_id":"0.0-8.0-2.0","subject":"0nns4r9c7gagh68","sona":"8665"},{"rt":548.6500000115484,"stimulus":"<p>Welche Sequenz haben Sie als natürlicher empfunden?</p>","key_press":70,"test_part":"response","test_stimulus":{"position":1,"left":"bvh/vr_prediction_models/model(vcgpdm)-dataset(pass-bottle-hold)-mode(ELBO)-parts(1)-dyn(35)-lvm(30)-hold(4)/final-lines.txt","right":"bvh/pass-bottle-hold-training4-lines.txt","att_check":false},"trial_type":"html-keyboard-response","trial_index":10,"time_elapsed":20209,"internal_node_id":"0.0-8.0-3.0","subject":"0nns4r9c7gagh68","sona":"8665"},{"rt":319.06999996863306,"stimulus":"<p>Bereit?</p>","key_press":32,"trial_type":"html-keyboard-response","trial_index":11,"time_elapsed":20529,"internal_node_id":"0.0-8.0-0.1","subject":"0nns4r9c7gagh68","sona":"8665"},{"rt":null,"stimulus":"<div style=\"font-size:60px;\">+</div>","key_press":null,"trial_type":"html-keyboard-response","trial_index":12,"time_elapsed":22539,"internal_node_id":"0.0-8.0-1.1","subject":"0nns4r9c7gagh68","sona":"8665"},{"trial_type":"turing-test","trial_index":13,"time_elapsed":27562,"internal_node_id":"0.0-8.0-2.1","subject":"0nns4r9c7gagh68","sona":"8665"},{"rt":406.4350000116974,"stimulus":"<p>Welche Sequenz haben Sie als natürlicher empfunden?</p>","key_press":70,"test_part":"response","test_stimulus":{"position":1,"left":"bvh/vr_prediction_models/model(dmp)-dataset(return-bottle-hold)-npsi(70)-hold(0)/final-lines.txt","right":"bvh/return-bottle-hold-training0-lines.txt","att_check":false},"trial_type":"html-keyboard-response","trial_index":14,"time_elapsed":27969,"internal_node_id":"0.0-8.0-3.1","subject":"0nns4r9c7gagh68","sona":"8665"},{"rt":319.15499991737306,"stimulus":"<p>Bereit?</p>","key_press":32,"trial_type":"html-keyboard-response","trial_index":15,"time_elapsed":28289,"internal_node_id":"0.0-8.0-0.2","subject":"0nns4r9c7gagh68","sona":"8665"},{"rt":null,"stimulus":"<div style=\"font-size:60px;\">+</div>","key_press":null,"trial_type":"html-keyboard-response","trial_index":16,"time_elapsed":30311,"internal_node_id":"0.0-8.0-1.2","subject":"0nns4r9c7gagh68","sona":"8665"},{"trial_type":"turing-test","trial_index":17,"time_elapsed":36071,"internal_node_id":"0.0-8.0-2.2","subject":"0nns4r9c7gagh68","sona":"8665"},{"rt":375.9800000116229,"stimulus":"<p>Welche Sequenz haben Sie als natürlicher empfunden?</p>","key_press":74,"test_part":"response","test_stimulus":{"position":1,"left":"bvh/vr_prediction_models/model(vcgpdm)-dataset(return-bottle)-mode(ELBO)-parts(3)-dyn(10)-lvm(30)-hold(4)/final-lines.txt","right":"bvh/return-bottle-training4-lines.txt","att_check":false},"trial_type":"html-keyboard-response","trial_index":18,"time_elapsed":36449,"internal_node_id":"0.0-8.0-3.2","subject":"0nns4r9c7gagh68","sona":"8665"},{"rt":295.0500000733882,"stimulus":"<p>Bereit?</p>","key_press":32,"trial_type":"html-keyboard-response","trial_index":19,"time_elapsed":36745,"internal_node_id":"0.0-8.0-0.3","subject":"0nns4r9c7gagh68","sona":"8665"},{"rt":null,"stimulus":"<div style=\"font-size:60px;\">+</div>","key_press":null,"trial_type":"html-keyboard-response","trial_index":20,"time_elapsed":38761,"internal_node_id":"0.0-8.0-1.3","subject":"0nns4r9c7gagh68","sona":"8665"},{"trial_type":"turing-test","trial_index":21,"time_elapsed":42020,"internal_node_id":"0.0-8.0-2.3","subject":"0nns4r9c7gagh68","sona":"8665"},{"rt":140.44500002637506,"stimulus":"<p>Welche Sequenz haben Sie als natürlicher empfunden?</p>","key_press":74,"test_part":"response","test_stimulus":{"position":1,"left":"bvh/vr_prediction_models/model(dmp)-dataset(pass-bottle-hold)-npsi(90)-hold(0)/final-lines.txt","right":"bvh/pass-bottle-hold-training0-lines.txt","att_check":true},"trial_type":"html-keyboard-response","trial_index":22,"time_elapsed":42161,"internal_node_id":"0.0-8.0-3.3","subject":"0nns4r9c7gagh68","sona":"8665"},{"rt":399.3900001514703,"stimulus":"<p>Bereit?</p>","key_press":32,"trial_type":"html-keyboard-response","trial_index":23,"time_elapsed":42561,"internal_node_id":"0.0-8.0-0.4","subject":"0nns4r9c7gagh68","sona":"8665"},{"rt":null,"stimulus":"<div style=\"font-size:60px;\">+</div>","key_press":null,"trial_type":"html-keyboard-response","trial_index":24,"time_elapsed":44576,"internal_node_id":"0.0-8.0-1.4","subject":"0nns4r9c7gagh68","sona":"8665"},{"trial_type":"turing-test","trial_index":25,"time_elapsed":47942,"internal_node_id":"0.0-8.0-2.4","subject":"0nns4r9c7gagh68","sona":"8665"},{"rt":449.98000003397465,"stimulus":"<p>Welche Sequenz haben Sie als natürlicher empfunden?</p>","key_press":74,"test_part":"response","test_stimulus":{"position":0,"left":"bvh/return-bottle-hold-training2-lines.txt","right":"bvh/vr_prediction_models/model(tmp)-dataset(return-bottle-hold)-numprim(8)-hold(2)/final-lines.txt","att_check":false},"trial_type":"html-keyboard-response","trial_index":26,"time_elapsed":48393,"internal_node_id":"0.0-8.0-3.4","subject":"0nns4r9c7gagh68","sona":"8665"},{"rt":214.46499996818602,"stimulus":"<p>Bereit?</p>","key_press":32,"trial_type":"html-keyboard-response","trial_index":27,"time_elapsed":48609,"internal_node_id":"0.0-8.0-0.5","subject":"0nns4r9c7gagh68","sona":"8665"},{"rt":null,"stimulus":"<div style=\"font-size:60px;\">+</div>","key_press":null,"trial_type":"html-keyboard-response","trial_index":28,"time_elapsed":50620,"internal_node_id":"0.0-8.0-1.5","subject":"0nns4r9c7gagh68","sona":"8665"},{"trial_type":"turing-test","trial_index":29,"time_elapsed":53849,"internal_node_id":"0.0-8.0-2.5","subject":"0nns4r9c7gagh68","sona":"8665"},{"rt":422.8049998637289,"stimulus":"<p>Welche Sequenz haben Sie als natürlicher empfunden?</p>","key_press":74,"test_part":"response","test_stimulus":{"position":1,"left":"bvh/vr_prediction_models/model(tmp)-dataset(pass-bottle-hold)-numprim(14)-hold(2)/final-lines.txt","right":"bvh/pass-bottle-hold-training2-lines.txt","att_check":false},"trial_type":"html-keyboard-response","trial_index":30,"time_elapsed":54273,"internal_node_id":"0.0-8.0-3.5","subject":"0nns4r9c7gagh68","sona":"8665"},{"rt":270.6849998794496,"stimulus":"<p>Bereit?</p>","key_press":32,"trial_type":"html-keyboard-response","trial_index":31,"time_elapsed":54545,"internal_node_id":"0.0-8.0-0.6","subject":"0nns4r9c7gagh68","sona":"8665"},{"rt":null,"stimulus":"<div style=\"font-size:60px;\">+</div>","key_press":null,"trial_type":"html-keyboard-response","trial_index":32,"time_elapsed":56558,"internal_node_id":"0.0-8.0-1.6","subject":"0nns4r9c7gagh68","sona":"8665"},{"trial_type":"turing-test","trial_index":33,"time_elapsed":61564,"internal_node_id":"0.0-8.0-2.6","subject":"0nns4r9c7gagh68","sona":"8665"},{"rt":491.9549999758601,"stimulus":"<p>Welche Sequenz haben Sie als natürlicher empfunden?</p>","key_press":74,"test_part":"response","test_stimulus":{"position":0,"left":"bvh/return-bottle-hold-training0-lines.txt","right":"bvh/vr_prediction_models/model(dmp)-dataset(return-bottle-hold)-npsi(20)-hold(0)/final-lines.txt","att_check":true},"trial_type":"html-keyboard-response","trial_index":34,"time_elapsed":62056,"internal_node_id":"0.0-8.0-3.6","subject":"0nns4r9c7gagh68","sona":"8665"},{"rt":375.0899999868125,"stimulus":"<p>Bereit?</p>","key_press":32,"trial_type":"html-keyboard-response","trial_index":35,"time_elapsed":62432,"internal_node_id":"0.0-8.0-0.7","subject":"0nns4r9c7gagh68","sona":"8665"},{"rt":null,"stimulus":"<div style=\"font-size:60px;\">+</div>","key_press":null,"trial_type":"html-keyboard-response","trial_index":36,"time_elapsed":64444,"internal_node_id":"0.0-8.0-1.7","subject":"0nns4r9c7gagh68","sona":"8665"},{"trial_type":"turing-test","trial_index":37,"time_elapsed":69450,"internal_node_id":"0.0-8.0-2.7","subject":"0nns4r9c7gagh68","sona":"8665"},{"rt":5845.355000114068,"stimulus":"<p>Welche Sequenz haben Sie als natürlicher empfunden?</p>","key_press":74,"test_part":"response","test_stimulus":{"position":0,"left":"bvh/return-bottle-hold-training0-lines.txt","right":"bvh/vr_prediction_models/model(dmp)-dataset(return-bottle-hold)-npsi(80)-hold(0)/final-lines.txt","att_check":false},"trial_type":"html-keyboard-response","trial_index":38,"time_elapsed":75296,"internal_node_id":"0.0-8.0-3.7","subject":"0nns4r9c7gagh68","sona":"8665"},{"rt":806.6600000020117,"stimulus":"<p>Bereit?</p>","key_press":32,"trial_type":"html-keyboard-response","trial_index":39,"time_elapsed":76104,"internal_node_id":"0.0-8.0-0.8","subject":"0nns4r9c7gagh68","sona":"8665"},{"rt":null,"stimulus":"<div style=\"font-size:60px;\">+</div>","key_press":null,"trial_type":"html-keyboard-response","trial_index":40,"time_elapsed":78111,"internal_node_id":"0.0-8.0-1.8","subject":"0nns4r9c7gagh68","sona":"8665"},{"trial_type":"turing-test","trial_index":41,"time_elapsed":84554,"internal_node_id":"0.0-8.0-2.8","subject":"0nns4r9c7gagh68","sona":"8665"},{"rt":1692.6949999760836,"stimulus":"<p>Welche Sequenz haben Sie als natürlicher empfunden?</p>","key_press":74,"test_part":"response","test_stimulus":{"position":1,"left":"bvh/vr_prediction_models/model(vcgpdm)-dataset(return-bottle)-mode(ELBO)-parts(3)-dyn(20)-lvm(15)-hold(2)/final-lines.txt","right":"bvh/return-bottle-training2-lines.txt","att_check":false},"trial_type":"html-keyboard-response","trial_index":42,"time_elapsed":86249,"internal_node_id":"0.0-8.0-3.8","subject":"0nns4r9c7gagh68","sona":"8665"},{"rt":326.33999991230667,"stimulus":"<p>Bereit?</p>","key_press":32,"trial_type":"html-keyboard-response","trial_index":43,"time_elapsed":86576,"internal_node_id":"0.0-8.0-0.9","subject":"0nns4r9c7gagh68","sona":"8665"},{"rt":null,"stimulus":"<div style=\"font-size:60px;\">+</div>","key_press":null,"trial_type":"html-keyboard-response","trial_index":44,"time_elapsed":88595,"internal_node_id":"0.0-8.0-1.9","subject":"0nns4r9c7gagh68","sona":"8665"},{"trial_type":"turing-test","trial_index":45,"time_elapsed":93674,"internal_node_id":"0.0-8.0-2.9","subject":"0nns4r9c7gagh68","sona":"8665"},{"rt":380.94999990426004,"stimulus":"<p>Welche Sequenz haben Sie als natürlicher empfunden?</p>","key_press":74,"test_part":"response","test_stimulus":{"position":0,"left":"bvh/return-bottle-hold-training0-lines.txt","right":"bvh/vr_prediction_models/model(vcgpdm)-dataset(return-bottle-hold)-mode(ELBO)-parts(3)-dyn(35)-lvm(20)-hold(0)/final-lines.txt","att_check":false},"trial_type":"html-keyboard-response","trial_index":46,"time_elapsed":94056,"internal_node_id":"0.0-8.0-3.9","subject":"0nns4r9c7gagh68","sona":"8665"},{"rt":335.53999988362193,"stimulus":"<p>Bereit?</p>","key_press":32,"trial_type":"html-keyboard-response","trial_index":47,"time_elapsed":94393,"internal_node_id":"0.0-8.0-0.10","subject":"0nns4r9c7gagh68","sona":"8665"},{"rt":null,"stimulus":"<div style=\"font-size:60px;\">+</div>","key_press":null,"trial_type":"html-keyboard-response","trial_index":48,"time_elapsed":96411,"internal_node_id":"0.0-8.0-1.10","subject":"0nns4r9c7gagh68","sona":"8665"},{"trial_type":"turing-test","trial_index":49,"time_elapsed":99642,"internal_node_id":"0.0-8.0-2.10","subject":"0nns4r9c7gagh68","sona":"8665"},{"rt":125.3500001039356,"stimulus":"<p>Welche Sequenz haben Sie als natürlicher empfunden?</p>","key_press":70,"test_part":"response","test_stimulus":{"position":0,"left":"bvh/pass-bottle-hold-training0-lines.txt","right":"bvh/vr_prediction_models/model(tmp)-dataset(pass-bottle-hold)-numprim(8)-hold(0)/final-lines.txt","att_check":false},"trial_type":"html-keyboard-response","trial_index":50,"time_elapsed":99769,"internal_node_id":"0.0-8.0-3.10","subject":"0nns4r9c7gagh68","sona":"8665"},{"rt":438.0099999252707,"stimulus":"<p>Bereit?</p>","key_press":32,"trial_type":"html-keyboard-response","trial_index":51,"time_elapsed":100208,"internal_node_id":"0.0-8.0-0.11","subject":"0nns4r9c7gagh68","sona":"8665"},{"rt":null,"stimulus":"<div style=\"font-size:60px;\">+</div>","key_press":null,"trial_type":"html-keyboard-response","trial_index":52,"time_elapsed":102228,"internal_node_id":"0.0-8.0-1.11","subject":"0nns4r9c7gagh68","sona":"8665"}]