[{"rt":6539,"stimulus":"<p>Welcome!<br> Please choose your language to start the experiment in the chosen language.</p><p>Willkommen!<br> Bitte wählen Sie eine Sprache, um das Experiment in der ausgewählten Sprache zu starten</p>","button_pressed":"1","trial_type":"html-button-response","trial_index":0,"time_elapsed":6565,"internal_node_id":"0.0-0.0","subject":"1k85xq9nqfr397q","sona":"7819"},{"view_history":"[{\"page_index\":0,\"viewing_time\":7152},{\"page_index\":1,\"viewing_time\":2307},{\"page_index\":2,\"viewing_time\":5929},{\"page_index\":3,\"viewing_time\":5366},{\"page_index\":2,\"viewing_time\":2365.0000000000036},{\"page_index\":3,\"viewing_time\":2895.9999999999964},{\"page_index\":4,\"viewing_time\":2448}]","rt":28466,"trial_type":"instructions","trial_index":1,"time_elapsed":35033,"internal_node_id":"0.0-1.0-0.0","subject":"1k85xq9nqfr397q","sona":"7819"},{"rt":2562,"stimulus":"<p>Bereit?</p>","key_press":32,"trial_type":"html-keyboard-response","trial_index":2,"time_elapsed":37597,"internal_node_id":"0.0-3.0","subject":"1k85xq9nqfr397q","sona":"7819"},{"rt":null,"stimulus":"<div style=\"font-size:60px;\">+</div>","key_press":null,"trial_type":"html-keyboard-response","trial_index":3,"time_elapsed":39601,"internal_node_id":"0.0-4.0","subject":"1k85xq9nqfr397q","sona":"7819"},{"trial_type":"training","trial_index":4,"time_elapsed":43088,"internal_node_id":"0.0-5.0","subject":"1k85xq9nqfr397q","sona":"7819"},{"rt":637.0000000000073,"stimulus":"<p>Welche Sequenz haben Sie als natürlicher empfunden?</p>","key_press":70,"trial_type":"html-keyboard-response","trial_index":5,"time_elapsed":43725,"internal_node_id":"0.0-6.0","subject":"1k85xq9nqfr397q","sona":"7819"},{"rt":2459,"stimulus":"<p>Das Experiment startet nun.</p><p><small>Bitte drücken Sie den Knopf, wenn Sie bereit sind.</small></p>","button_pressed":"0","trial_type":"html-button-response","trial_index":6,"time_elapsed":46186,"internal_node_id":"0.0-7.0","subject":"1k85xq9nqfr397q","sona":"7819"},{"rt":1681,"stimulus":"<p>Bereit?</p>","key_press":32,"trial_type":"html-keyboard-response","trial_index":7,"time_elapsed":47868,"internal_node_id":"0.0-8.0-0.0","subject":"1k85xq9nqfr397q","sona":"7819"},{"rt":null,"stimulus":"<div style=\"font-size:60px;\">+</div>","key_press":null,"trial_type":"html-keyboard-response","trial_index":8,"time_elapsed":49871,"internal_node_id":"0.0-8.0-1.0","subject":"1k85xq9nqfr397q","sona":"7819"},{"trial_type":"turing-test","trial_index":9,"time_elapsed":53435,"internal_node_id":"0.0-8.0-2.0","subject":"1k85xq9nqfr397q","sona":"7819"},{"rt":1126,"stimulus":"<p>Welche Sequenz haben Sie als natürlicher empfunden?</p>","key_press":74,"test_part":"response","test_stimulus":{"position":0,"left":"bvh/pass-bottle-hold-training4-lines.txt","right":"bvh/vr_prediction_models/model(dmp)-dataset(pass-bottle-hold)-npsi(80)-hold(4)/final-lines.txt","att_check":true},"trial_type":"html-keyboard-response","trial_index":10,"time_elapsed":54563,"internal_node_id":"0.0-8.0-3.0","subject":"1k85xq9nqfr397q","sona":"7819"},{"rt":1017,"stimulus":"<p>Bereit?</p>","key_press":32,"trial_type":"html-keyboard-response","trial_index":11,"time_elapsed":55582,"internal_node_id":"0.0-8.0-0.1","subject":"1k85xq9nqfr397q","sona":"7819"},{"rt":null,"stimulus":"<div style=\"font-size:60px;\">+</div>","key_press":null,"trial_type":"html-keyboard-response","trial_index":12,"time_elapsed":57585,"internal_node_id":"0.0-8.0-1.1","subject":"1k85xq9nqfr397q","sona":"7819"},{"trial_type":"turing-test","trial_index":13,"time_elapsed":63811,"internal_node_id":"0.0-8.0-2.1","subject":"1k85xq9nqfr397q","sona":"7819"},{"rt":544.9999999999854,"stimulus":"<p>Welche Sequenz haben Sie als natürlicher empfunden?</p>","key_press":70,"test_part":"response","test_stimulus":{"position":0,"left":"bvh/pass-bottle-training2-lines.txt","right":"bvh/vr_prediction_models/model(vcgpdm)-dataset(pass-bottle)-mode(ELBO)-parts(1)-dyn(30)-lvm(35)-hold(2)/final-lines.txt","att_check":false},"trial_type":"html-keyboard-response","trial_index":14,"time_elapsed":64358,"internal_node_id":"0.0-8.0-3.1","subject":"1k85xq9nqfr397q","sona":"7819"},{"rt":1053.9999999999927,"stimulus":"<p>Bereit?</p>","key_press":32,"trial_type":"html-keyboard-response","trial_index":15,"time_elapsed":65414,"internal_node_id":"0.0-8.0-0.2","subject":"1k85xq9nqfr397q","sona":"7819"},{"rt":null,"stimulus":"<div style=\"font-size:60px;\">+</div>","key_press":null,"trial_type":"html-keyboard-response","trial_index":16,"time_elapsed":67416,"internal_node_id":"0.0-8.0-1.2","subject":"1k85xq9nqfr397q","sona":"7819"},{"trial_type":"turing-test","trial_index":17,"time_elapsed":72899,"internal_node_id":"0.0-8.0-2.2","subject":"1k85xq9nqfr397q","sona":"7819"},{"rt":399,"stimulus":"<p>Welche Sequenz haben Sie als natürlicher empfunden?</p>","key_press":74,"test_part":"response","test_stimulus":{"position":1,"left":"bvh/vr_prediction_models/model(dmp)-dataset(pass-bottle)-npsi(10)-hold(1)/final-lines.txt","right":"bvh/pass-bottle-training1-lines.txt","att_check":false},"trial_type":"html-keyboard-response","trial_index":18,"time_elapsed":73300,"internal_node_id":"0.0-8.0-3.2","subject":"1k85xq9nqfr397q","sona":"7819"},{"rt":879,"stimulus":"<p>Bereit?</p>","key_press":32,"trial_type":"html-keyboard-response","trial_index":19,"time_elapsed":74180,"internal_node_id":"0.0-8.0-0.3","subject":"1k85xq9nqfr397q","sona":"7819"},{"rt":null,"stimulus":"<div style=\"font-size:60px;\">+</div>","key_press":null,"trial_type":"html-keyboard-response","trial_index":20,"time_elapsed":76183,"internal_node_id":"0.0-8.0-1.3","subject":"1k85xq9nqfr397q","sona":"7819"},{"trial_type":"turing-test","trial_index":21,"time_elapsed":79931,"internal_node_id":"0.0-8.0-2.3","subject":"1k85xq9nqfr397q","sona":"7819"},{"rt":206,"stimulus":"<p>Welche Sequenz haben Sie als natürlicher empfunden?</p>","key_press":74,"test_part":"response","test_stimulus":{"position":0,"left":"bvh/pass-bottle-hold-training4-lines.txt","right":"bvh/vr_prediction_models/model(vcgpdm)-dataset(pass-bottle-hold)-mode(ELBO)-parts(1)-dyn(20)-lvm(20)-hold(4)/final-lines.txt","att_check":false},"trial_type":"html-keyboard-response","trial_index":22,"time_elapsed":80139,"internal_node_id":"0.0-8.0-3.3","subject":"1k85xq9nqfr397q","sona":"7819"},{"rt":978,"stimulus":"<p>Bereit?</p>","key_press":32,"trial_type":"html-keyboard-response","trial_index":23,"time_elapsed":81119,"internal_node_id":"0.0-8.0-0.4","subject":"1k85xq9nqfr397q","sona":"7819"},{"rt":null,"stimulus":"<div style=\"font-size:60px;\">+</div>","key_press":null,"trial_type":"html-keyboard-response","trial_index":24,"time_elapsed":83122,"internal_node_id":"0.0-8.0-1.4","subject":"1k85xq9nqfr397q","sona":"7819"},{"trial_type":"turing-test","trial_index":25,"time_elapsed":89918,"internal_node_id":"0.0-8.0-2.4","subject":"1k85xq9nqfr397q","sona":"7819"},{"rt":804,"stimulus":"<p>Welche Sequenz haben Sie als natürlicher empfunden?</p>","key_press":70,"test_part":"response","test_stimulus":{"position":0,"left":"bvh/pass-bottle-training0-lines.txt","right":"bvh/vr_prediction_models/model(vcgpdm)-dataset(pass-bottle)-mode(ELBO)-parts(1)-dyn(30)-lvm(35)-hold(0)/final-lines.txt","att_check":false},"trial_type":"html-keyboard-response","trial_index":26,"time_elapsed":90724,"internal_node_id":"0.0-8.0-3.4","subject":"1k85xq9nqfr397q","sona":"7819"},{"rt":596.9999999999854,"stimulus":"<p>Bereit?</p>","key_press":32,"trial_type":"html-keyboard-response","trial_index":27,"time_elapsed":91322,"internal_node_id":"0.0-8.0-0.5","subject":"1k85xq9nqfr397q","sona":"7819"},{"rt":null,"stimulus":"<div style=\"font-size:60px;\">+</div>","key_press":null,"trial_type":"html-keyboard-response","trial_index":28,"time_elapsed":93325,"internal_node_id":"0.0-8.0-1.5","subject":"1k85xq9nqfr397q","sona":"7819"},{"trial_type":"turing-test","trial_index":29,"time_elapsed":99045,"internal_node_id":"0.0-8.0-2.5","subject":"1k85xq9nqfr397q","sona":"7819"},{"rt":660.0000000000146,"stimulus":"<p>Welche Sequenz haben Sie als natürlicher empfunden?</p>","key_press":74,"test_part":"response","test_stimulus":{"position":1,"left":"bvh/vr_prediction_models/model(dmp)-dataset(return-bottle)-npsi(90)-hold(3)/final-lines.txt","right":"bvh/return-bottle-training3-lines.txt","att_check":false},"trial_type":"html-keyboard-response","trial_index":30,"time_elapsed":99708,"internal_node_id":"0.0-8.0-3.5","subject":"1k85xq9nqfr397q","sona":"7819"},{"rt":874,"stimulus":"<p>Bereit?</p>","key_press":32,"trial_type":"html-keyboard-response","trial_index":31,"time_elapsed":100584,"internal_node_id":"0.0-8.0-0.6","subject":"1k85xq9nqfr397q","sona":"7819"},{"rt":null,"stimulus":"<div style=\"font-size:60px;\">+</div>","key_press":null,"trial_type":"html-keyboard-response","trial_index":32,"time_elapsed":102587,"internal_node_id":"0.0-8.0-1.6","subject":"1k85xq9nqfr397q","sona":"7819"},{"trial_type":"turing-test","trial_index":33,"time_elapsed":106131,"internal_node_id":"0.0-8.0-2.6","subject":"1k85xq9nqfr397q","sona":"7819"},{"rt":578.0000000000146,"stimulus":"<p>Welche Sequenz haben Sie als natürlicher empfunden?</p>","key_press":70,"test_part":"response","test_stimulus":{"position":0,"left":"bvh/return-bottle-hold-training2-lines.txt","right":"bvh/vr_prediction_models/model(vcgpdm)-dataset(return-bottle-hold)-mode(ELBO)-parts(1)-dyn(10)-lvm(30)-hold(2)/final-lines.txt","att_check":false},"trial_type":"html-keyboard-response","trial_index":34,"time_elapsed":106710,"internal_node_id":"0.0-8.0-3.6","subject":"1k85xq9nqfr397q","sona":"7819"},{"rt":663.0000000000146,"stimulus":"<p>Bereit?</p>","key_press":32,"trial_type":"html-keyboard-response","trial_index":35,"time_elapsed":107374,"internal_node_id":"0.0-8.0-0.7","subject":"1k85xq9nqfr397q","sona":"7819"},{"rt":null,"stimulus":"<div style=\"font-size:60px;\">+</div>","key_press":null,"trial_type":"html-keyboard-response","trial_index":36,"time_elapsed":109377,"internal_node_id":"0.0-8.0-1.7","subject":"1k85xq9nqfr397q","sona":"7819"},{"trial_type":"turing-test","trial_index":37,"time_elapsed":114789,"internal_node_id":"0.0-8.0-2.7","subject":"1k85xq9nqfr397q","sona":"7819"},{"rt":677,"stimulus":"<p>Welche Sequenz haben Sie als natürlicher empfunden?</p>","key_press":70,"test_part":"response","test_stimulus":{"position":1,"left":"bvh/vr_prediction_models/model(tmp)-dataset(return-bottle)-numprim(14)-hold(0)/final-lines.txt","right":"bvh/return-bottle-training0-lines.txt","att_check":false},"trial_type":"html-keyboard-response","trial_index":38,"time_elapsed":115468,"internal_node_id":"0.0-8.0-3.7","subject":"1k85xq9nqfr397q","sona":"7819"},{"rt":662.9999999999854,"stimulus":"<p>Bereit?</p>","key_press":32,"trial_type":"html-keyboard-response","trial_index":39,"time_elapsed":116133,"internal_node_id":"0.0-8.0-0.8","subject":"1k85xq9nqfr397q","sona":"7819"},{"rt":null,"stimulus":"<div style=\"font-size:60px;\">+</div>","key_press":null,"trial_type":"html-keyboard-response","trial_index":40,"time_elapsed":118136,"internal_node_id":"0.0-8.0-1.8","subject":"1k85xq9nqfr397q","sona":"7819"},{"trial_type":"turing-test","trial_index":41,"time_elapsed":123528,"internal_node_id":"0.0-8.0-2.8","subject":"1k85xq9nqfr397q","sona":"7819"},{"rt":382,"stimulus":"<p>Welche Sequenz haben Sie als natürlicher empfunden?</p>","key_press":70,"test_part":"response","test_stimulus":{"position":0,"left":"bvh/pass-bottle-training1-lines.txt","right":"bvh/vr_prediction_models/model(tmp)-dataset(pass-bottle)-numprim(13)-hold(1)/final-lines.txt","att_check":false},"trial_type":"html-keyboard-response","trial_index":42,"time_elapsed":123913,"internal_node_id":"0.0-8.0-3.8","subject":"1k85xq9nqfr397q","sona":"7819"},{"rt":573,"stimulus":"<p>Bereit?</p>","key_press":32,"trial_type":"html-keyboard-response","trial_index":43,"time_elapsed":124488,"internal_node_id":"0.0-8.0-0.9","subject":"1k85xq9nqfr397q","sona":"7819"},{"rt":null,"stimulus":"<div style=\"font-size:60px;\">+</div>","key_press":null,"trial_type":"html-keyboard-response","trial_index":44,"time_elapsed":126491,"internal_node_id":"0.0-8.0-1.9","subject":"1k85xq9nqfr397q","sona":"7819"},{"trial_type":"turing-test","trial_index":45,"time_elapsed":129800,"internal_node_id":"0.0-8.0-2.9","subject":"1k85xq9nqfr397q","sona":"7819"},{"rt":1028,"stimulus":"<p>Welche Sequenz haben Sie als natürlicher empfunden?</p>","key_press":74,"test_part":"response","test_stimulus":{"position":0,"left":"bvh/pass-bottle-hold-training0-lines.txt","right":"bvh/vr_prediction_models/model(tmp)-dataset(pass-bottle-hold)-numprim(14)-hold(0)/final-lines.txt","att_check":false},"trial_type":"html-keyboard-response","trial_index":46,"time_elapsed":130830,"internal_node_id":"0.0-8.0-3.9","subject":"1k85xq9nqfr397q","sona":"7819"},{"rt":576,"stimulus":"<p>Bereit?</p>","key_press":32,"trial_type":"html-keyboard-response","trial_index":47,"time_elapsed":131408,"internal_node_id":"0.0-8.0-0.10","subject":"1k85xq9nqfr397q","sona":"7819"},{"rt":null,"stimulus":"<div style=\"font-size:60px;\">+</div>","key_press":null,"trial_type":"html-keyboard-response","trial_index":48,"time_elapsed":133410,"internal_node_id":"0.0-8.0-1.10","subject":"1k85xq9nqfr397q","sona":"7819"},{"trial_type":"turing-test","trial_index":49,"time_elapsed":136888,"internal_node_id":"0.0-8.0-2.10","subject":"1k85xq9nqfr397q","sona":"7819"},{"rt":2093,"stimulus":"<p>Welche Sequenz haben Sie als natürlicher empfunden?</p>","key_press":74,"test_part":"response","test_stimulus":{"position":1,"left":"bvh/vr_prediction_models/model(vcgpdm)-dataset(pass-bottle-hold)-mode(ELBO)-parts(3)-dyn(10)-lvm(30)-hold(2)/final-lines.txt","right":"bvh/pass-bottle-hold-training2-lines.txt","att_check":false},"trial_type":"html-keyboard-response","trial_index":50,"time_elapsed":138983,"internal_node_id":"0.0-8.0-3.10","subject":"1k85xq9nqfr397q","sona":"7819"},{"rt":1071944,"stimulus":"<p>Bereit?</p>","key_press":32,"trial_type":"html-keyboard-response","trial_index":51,"time_elapsed":1210926,"internal_node_id":"0.0-8.0-0.11","subject":"1k85xq9nqfr397q","sona":"7819"},{"rt":null,"stimulus":"<div style=\"font-size:60px;\">+</div>","key_press":null,"trial_type":"html-keyboard-response","trial_index":52,"time_elapsed":1212930,"internal_node_id":"0.0-8.0-1.11","subject":"1k85xq9nqfr397q","sona":"7819"},{"trial_type":"turing-test","trial_index":53,"time_elapsed":1216272,"internal_node_id":"0.0-8.0-2.11","subject":"1k85xq9nqfr397q","sona":"7819"},{"rt":491.99999999976717,"stimulus":"<p>Welche Sequenz haben Sie als natürlicher empfunden?</p>","key_press":74,"test_part":"response","test_stimulus":{"position":0,"left":"bvh/return-bottle-hold-training1-lines.txt","right":"bvh/vr_prediction_models/model(dmp)-dataset(return-bottle-hold)-npsi(60)-hold(1)/final-lines.txt","att_check":false},"trial_type":"html-keyboard-response","trial_index":54,"time_elapsed":1216767,"internal_node_id":"0.0-8.0-3.11","subject":"1k85xq9nqfr397q","sona":"7819"},{"rt":1317,"stimulus":"<p>Bereit?</p>","key_press":32,"trial_type":"html-keyboard-response","trial_index":55,"time_elapsed":1218086,"internal_node_id":"0.0-8.0-0.12","subject":"1k85xq9nqfr397q","sona":"7819"},{"rt":null,"stimulus":"<div style=\"font-size:60px;\">+</div>","key_press":null,"trial_type":"html-keyboard-response","trial_index":56,"time_elapsed":1220089,"internal_node_id":"0.0-8.0-1.12","subject":"1k85xq9nqfr397q","sona":"7819"},{"trial_type":"turing-test","trial_index":57,"time_elapsed":1223351,"internal_node_id":"0.0-8.0-2.12","subject":"1k85xq9nqfr397q","sona":"7819"},{"rt":671,"stimulus":"<p>Welche Sequenz haben Sie als natürlicher empfunden?</p>","key_press":70,"test_part":"response","test_stimulus":{"position":0,"left":"bvh/pass-bottle-hold-training2-lines.txt","right":"bvh/vr_prediction_models/model(tmp)-dataset(pass-bottle-hold)-numprim(6)-hold(2)/final-lines.txt","att_check":false},"trial_type":"html-keyboard-response","trial_index":58,"time_elapsed":1224024,"internal_node_id":"0.0-8.0-3.12","subject":"1k85xq9nqfr397q","sona":"7819"},{"rt":875,"stimulus":"<p>Bereit?</p>","key_press":32,"trial_type":"html-keyboard-response","trial_index":59,"time_elapsed":1224902,"internal_node_id":"0.0-8.0-0.13","subject":"1k85xq9nqfr397q","sona":"7819"},{"rt":null,"stimulus":"<div style=\"font-size:60px;\">+</div>","key_press":null,"trial_type":"html-keyboard-response","trial_index":60,"time_elapsed":1226905,"internal_node_id":"0.0-8.0-1.13","subject":"1k85xq9nqfr397q","sona":"7819"},{"trial_type":"turing-test","trial_index":61,"time_elapsed":1232709,"internal_node_id":"0.0-8.0-2.13","subject":"1k85xq9nqfr397q","sona":"7819"},{"rt":362,"stimulus":"<p>Welche Sequenz haben Sie als natürlicher empfunden?</p>","key_press":70,"test_part":"response","test_stimulus":{"position":0,"left":"bvh/pass-bottle-training3-lines.txt","right":"bvh/vr_prediction_models/model(dmp)-dataset(pass-bottle)-npsi(10)-hold(3)/final-lines.txt","att_check":false},"trial_type":"html-keyboard-response","trial_index":62,"time_elapsed":1233074,"internal_node_id":"0.0-8.0-3.13","subject":"1k85xq9nqfr397q","sona":"7819"},{"rt":2788,"stimulus":"<p>Bereit?</p>","key_press":32,"trial_type":"html-keyboard-response","trial_index":63,"time_elapsed":1235863,"internal_node_id":"0.0-8.0-0.14","subject":"1k85xq9nqfr397q","sona":"7819"},{"rt":null,"stimulus":"<div style=\"font-size:60px;\">+</div>","key_press":null,"trial_type":"html-keyboard-response","trial_index":64,"time_elapsed":1237867,"internal_node_id":"0.0-8.0-1.14","subject":"1k85xq9nqfr397q","sona":"7819"},{"trial_type":"turing-test","trial_index":65,"time_elapsed":1241130,"internal_node_id":"0.0-8.0-2.14","subject":"1k85xq9nqfr397q","sona":"7819"},{"rt":678,"stimulus":"<p>Welche Sequenz haben Sie als natürlicher empfunden?</p>","key_press":70,"test_part":"response","test_stimulus":{"position":1,"left":"bvh/vr_prediction_models/model(dmp)-dataset(pass-bottle-hold)-npsi(100)-hold(0)/final-lines.txt","right":"bvh/pass-bottle-hold-training0-lines.txt","att_check":false},"trial_type":"html-keyboard-response","trial_index":66,"time_elapsed":1241811,"internal_node_id":"0.0-8.0-3.14","subject":"1k85xq9nqfr397q","sona":"7819"},{"rt":814,"stimulus":"<p>Bereit?</p>","key_press":32,"trial_type":"html-keyboard-response","trial_index":67,"time_elapsed":1242627,"internal_node_id":"0.0-8.0-0.15","subject":"1k85xq9nqfr397q","sona":"7819"},{"rt":null,"stimulus":"<div style=\"font-size:60px;\">+</div>","key_press":null,"trial_type":"html-keyboard-response","trial_index":68,"time_elapsed":1244629,"internal_node_id":"0.0-8.0-1.15","subject":"1k85xq9nqfr397q","sona":"7819"},{"trial_type":"turing-test","trial_index":69,"time_elapsed":1248152,"internal_node_id":"0.0-8.0-2.15","subject":"1k85xq9nqfr397q","sona":"7819"},{"rt":613.0000000002328,"stimulus":"<p>Welche Sequenz haben Sie als natürlicher empfunden?</p>","key_press":74,"test_part":"response","test_stimulus":{"position":0,"left":"bvh/pass-bottle-hold-training4-lines.txt","right":"bvh/vr_prediction_models/model(dmp)-dataset(pass-bottle-hold)-npsi(70)-hold(4)/final-lines.txt","att_check":true},"trial_type":"html-keyboard-response","trial_index":70,"time_elapsed":1248767,"internal_node_id":"0.0-8.0-3.15","subject":"1k85xq9nqfr397q","sona":"7819"},{"rt":784,"stimulus":"<p>Bereit?</p>","key_press":32,"trial_type":"html-keyboard-response","trial_index":71,"time_elapsed":1249553,"internal_node_id":"0.0-8.0-0.16","subject":"1k85xq9nqfr397q","sona":"7819"},{"rt":null,"stimulus":"<div style=\"font-size:60px;\">+</div>","key_press":null,"trial_type":"html-keyboard-response","trial_index":72,"time_elapsed":1251558,"internal_node_id":"0.0-8.0-1.16","subject":"1k85xq9nqfr397q","sona":"7819"},{"trial_type":"turing-test","trial_index":73,"time_elapsed":1254985,"internal_node_id":"0.0-8.0-2.16","subject":"1k85xq9nqfr397q","sona":"7819"},{"rt":174.00000000023283,"stimulus":"<p>Welche Sequenz haben Sie als natürlicher empfunden?</p>","key_press":74,"test_part":"response","test_stimulus":{"position":1,"left":"bvh/vr_prediction_models/model(vcgpdm)-dataset(return-bottle-hold)-mode(ELBO)-parts(1)-dyn(25)-lvm(35)-hold(1)/final-lines.txt","right":"bvh/return-bottle-hold-training1-lines.txt","att_check":false},"trial_type":"html-keyboard-response","trial_index":74,"time_elapsed":1255161,"internal_node_id":"0.0-8.0-3.16","subject":"1k85xq9nqfr397q","sona":"7819"},{"rt":607,"stimulus":"<p>Bereit?</p>","key_press":32,"trial_type":"html-keyboard-response","trial_index":75,"time_elapsed":1255770,"internal_node_id":"0.0-8.0-0.17","subject":"1k85xq9nqfr397q","sona":"7819"},{"rt":null,"stimulus":"<div style=\"font-size:60px;\">+</div>","key_press":null,"trial_type":"html-keyboard-response","trial_index":76,"time_elapsed":1257773,"internal_node_id":"0.0-8.0-1.17","subject":"1k85xq9nqfr397q","sona":"7819"},{"trial_type":"turing-test","trial_index":77,"time_elapsed":1263615,"internal_node_id":"0.0-8.0-2.17","subject":"1k85xq9nqfr397q","sona":"7819"},{"rt":518,"stimulus":"<p>Welche Sequenz haben Sie als natürlicher empfunden?</p>","key_press":70,"test_part":"response","test_stimulus":{"position":0,"left":"bvh/pass-bottle-training3-lines.txt","right":"bvh/vr_prediction_models/model(dmp)-dataset(pass-bottle)-npsi(100)-hold(3)/final-lines.txt","att_check":false},"trial_type":"html-keyboard-response","trial_index":78,"time_elapsed":1264136,"internal_node_id":"0.0-8.0-3.17","subject":"1k85xq9nqfr397q","sona":"7819"},{"rt":1684,"stimulus":"<p>Bereit?</p>","key_press":32,"trial_type":"html-keyboard-response","trial_index":79,"time_elapsed":1265822,"internal_node_id":"0.0-8.0-0.18","subject":"1k85xq9nqfr397q","sona":"7819"},{"rt":null,"stimulus":"<div style=\"font-size:60px;\">+</div>","key_press":null,"trial_type":"html-keyboard-response","trial_index":80,"time_elapsed":1267825,"internal_node_id":"0.0-8.0-1.18","subject":"1k85xq9nqfr397q","sona":"7819"},{"trial_type":"turing-test","trial_index":81,"time_elapsed":1273660,"internal_node_id":"0.0-8.0-2.18","subject":"1k85xq9nqfr397q","sona":"7819"},{"rt":304,"stimulus":"<p>Welche Sequenz haben Sie als natürlicher empfunden?</p>","key_press":70,"test_part":"response","test_stimulus":{"position":0,"left":"bvh/return-bottle-training3-lines.txt","right":"bvh/vr_prediction_models/model(vcgpdm)-dataset(return-bottle)-mode(ELBO)-parts(3)-dyn(10)-lvm(25)-hold(3)/final-lines.txt","att_check":false},"trial_type":"html-keyboard-response","trial_index":82,"time_elapsed":1273967,"internal_node_id":"0.0-8.0-3.18","subject":"1k85xq9nqfr397q","sona":"7819"},{"rt":512,"stimulus":"<p>Bereit?</p>","key_press":32,"trial_type":"html-keyboard-response","trial_index":83,"time_elapsed":1274480,"internal_node_id":"0.0-8.0-0.19","subject":"1k85xq9nqfr397q","sona":"7819"},{"rt":null,"stimulus":"<div style=\"font-size:60px;\">+</div>","key_press":null,"trial_type":"html-keyboard-response","trial_index":84,"time_elapsed":1276483,"internal_node_id":"0.0-8.0-1.19","subject":"1k85xq9nqfr397q","sona":"7819"},{"trial_type":"turing-test","trial_index":85,"time_elapsed":1281717,"internal_node_id":"0.0-8.0-2.19","subject":"1k85xq9nqfr397q","sona":"7819"},{"rt":966,"stimulus":"<p>Welche Sequenz haben Sie als natürlicher empfunden?</p>","key_press":74,"test_part":"response","test_stimulus":{"position":1,"left":"bvh/vr_prediction_models/model(vcgpdm)-dataset(return-bottle-hold)-mode(ELBO)-parts(3)-dyn(10)-lvm(10)-hold(0)/final-lines.txt","right":"bvh/return-bottle-hold-training0-lines.txt","att_check":false},"trial_type":"html-keyboard-response","trial_index":86,"time_elapsed":1282685,"internal_node_id":"0.0-8.0-3.19","subject":"1k85xq9nqfr397q","sona":"7819"},{"rt":690,"stimulus":"<p>Bereit?</p>","key_press":32,"trial_type":"html-keyboard-response","trial_index":87,"time_elapsed":1283377,"internal_node_id":"0.0-8.0-0.20","subject":"1k85xq9nqfr397q","sona":"7819"},{"rt":null,"stimulus":"<div style=\"font-size:60px;\">+</div>","key_press":null,"trial_type":"html-keyboard-response","trial_index":88,"time_elapsed":1285380,"internal_node_id":"0.0-8.0-1.20","subject":"1k85xq9nqfr397q","sona":"7819"},{"trial_type":"turing-test","trial_index":89,"time_elapsed":1288691,"internal_node_id":"0.0-8.0-2.20","subject":"1k85xq9nqfr397q","sona":"7819"},{"rt":1050,"stimulus":"<p>Welche Sequenz haben Sie als natürlicher empfunden?</p>","key_press":70,"test_part":"response","test_stimulus":{"position":0,"left":"bvh/pass-bottle-hold-training1-lines.txt","right":"bvh/vr_prediction_models/model(vcgpdm)-dataset(pass-bottle-hold)-mode(MAP)-parts(3)-hold(1)/final-lines.txt","att_check":false},"trial_type":"html-keyboard-response","trial_index":90,"time_elapsed":1289744,"internal_node_id":"0.0-8.0-3.20","subject":"1k85xq9nqfr397q","sona":"7819"},{"rt":561,"stimulus":"<p>Bereit?</p>","key_press":32,"trial_type":"html-keyboard-response","trial_index":91,"time_elapsed":1290307,"internal_node_id":"0.0-8.0-0.21","subject":"1k85xq9nqfr397q","sona":"7819"},{"rt":null,"stimulus":"<div style=\"font-size:60px;\">+</div>","key_press":null,"trial_type":"html-keyboard-response","trial_index":92,"time_elapsed":1292310,"internal_node_id":"0.0-8.0-1.21","subject":"1k85xq9nqfr397q","sona":"7819"},{"trial_type":"turing-test","trial_index":93,"time_elapsed":1299126,"internal_node_id":"0.0-8.0-2.21","subject":"1k85xq9nqfr397q","sona":"7819"},{"rt":675,"stimulus":"<p>Welche Sequenz haben Sie als natürlicher empfunden?</p>","key_press":74,"test_part":"response","test_stimulus":{"position":0,"left":"bvh/pass-bottle-training0-lines.txt","right":"bvh/vr_prediction_models/model(vcgpdm)-dataset(pass-bottle)-mode(ELBO)-parts(1)-dyn(10)-lvm(5)-hold(0)/final-lines.txt","att_check":false},"trial_type":"html-keyboard-response","trial_index":94,"time_elapsed":1299803,"internal_node_id":"0.0-8.0-3.21","subject":"1k85xq9nqfr397q","sona":"7819"},{"rt":733,"stimulus":"<p>Bereit?</p>","key_press":32,"trial_type":"html-keyboard-response","trial_index":95,"time_elapsed":1300538,"internal_node_id":"0.0-8.0-0.22","subject":"1k85xq9nqfr397q","sona":"7819"},{"rt":null,"stimulus":"<div style=\"font-size:60px;\">+</div>","key_press":null,"trial_type":"html-keyboard-response","trial_index":96,"time_elapsed":1302541,"internal_node_id":"0.0-8.0-1.22","subject":"1k85xq9nqfr397q","sona":"7819"},{"trial_type":"turing-test","trial_index":97,"time_elapsed":1309206,"internal_node_id":"0.0-8.0-2.22","subject":"1k85xq9nqfr397q","sona":"7819"},{"rt":342,"stimulus":"<p>Welche Sequenz haben Sie als natürlicher empfunden?</p>","key_press":70,"test_part":"response","test_stimulus":{"position":0,"left":"bvh/return-bottle-training2-lines.txt","right":"bvh/vr_prediction_models/model(tmp)-dataset(return-bottle)-numprim(14)-hold(2)/final-lines.txt","att_check":false},"trial_type":"html-keyboard-response","trial_index":98,"time_elapsed":1309550,"internal_node_id":"0.0-8.0-3.22","subject":"1k85xq9nqfr397q","sona":"7819"},{"rt":689,"stimulus":"<p>Bereit?</p>","key_press":32,"trial_type":"html-keyboard-response","trial_index":99,"time_elapsed":1310241,"internal_node_id":"0.0-8.0-0.23","subject":"1k85xq9nqfr397q","sona":"7819"},{"rt":null,"stimulus":"<div style=\"font-size:60px;\">+</div>","key_press":null,"trial_type":"html-keyboard-response","trial_index":100,"time_elapsed":1312244,"internal_node_id":"0.0-8.0-1.23","subject":"1k85xq9nqfr397q","sona":"7819"},{"trial_type":"turing-test","trial_index":101,"time_elapsed":1318334,"internal_node_id":"0.0-8.0-2.23","subject":"1k85xq9nqfr397q","sona":"7819"},{"rt":462,"stimulus":"<p>Welche Sequenz haben Sie als natürlicher empfunden?</p>","key_press":74,"test_part":"response","test_stimulus":{"position":1,"left":"bvh/vr_prediction_models/model(tmp)-dataset(return-bottle)-numprim(13)-hold(1)/final-lines.txt","right":"bvh/return-bottle-training1-lines.txt","att_check":false},"trial_type":"html-keyboard-response","trial_index":102,"time_elapsed":1318798,"internal_node_id":"0.0-8.0-3.23","subject":"1k85xq9nqfr397q","sona":"7819"},{"rt":593,"stimulus":"<p>Bereit?</p>","key_press":32,"trial_type":"html-keyboard-response","trial_index":103,"time_elapsed":1319393,"internal_node_id":"0.0-8.0-0.24","subject":"1k85xq9nqfr397q","sona":"7819"},{"rt":null,"stimulus":"<div style=\"font-size:60px;\">+</div>","key_press":null,"trial_type":"html-keyboard-response","trial_index":104,"time_elapsed":1321396,"internal_node_id":"0.0-8.0-1.24","subject":"1k85xq9nqfr397q","sona":"7819"},{"trial_type":"turing-test","trial_index":105,"time_elapsed":1325161,"internal_node_id":"0.0-8.0-2.24","subject":"1k85xq9nqfr397q","sona":"7819"},{"rt":409.99999999976717,"stimulus":"<p>Welche Sequenz haben Sie als natürlicher empfunden?</p>","key_press":70,"test_part":"response","test_stimulus":{"position":1,"left":"bvh/vr_prediction_models/model(vcgpdm)-dataset(return-bottle-hold)-mode(ELBO)-parts(1)-dyn(35)-lvm(10)-hold(3)/final-lines.txt","right":"bvh/return-bottle-hold-training3-lines.txt","att_check":false},"trial_type":"html-keyboard-response","trial_index":106,"time_elapsed":1325574,"internal_node_id":"0.0-8.0-3.24","subject":"1k85xq9nqfr397q","sona":"7819"},{"rt":667.9999999997672,"stimulus":"<p>Bereit?</p>","key_press":32,"trial_type":"html-keyboard-response","trial_index":107,"time_elapsed":1326245,"internal_node_id":"0.0-8.0-0.25","subject":"1k85xq9nqfr397q","sona":"7819"},{"rt":null,"stimulus":"<div style=\"font-size:60px;\">+</div>","key_press":null,"trial_type":"html-keyboard-response","trial_index":108,"time_elapsed":1328248,"internal_node_id":"0.0-8.0-1.25","subject":"1k85xq9nqfr397q","sona":"7819"},{"trial_type":"turing-test","trial_index":109,"time_elapsed":1334095,"internal_node_id":"0.0-8.0-2.25","subject":"1k85xq9nqfr397q","sona":"7819"},{"rt":729,"stimulus":"<p>Welche Sequenz haben Sie als natürlicher empfunden?</p>","key_press":74,"test_part":"response","test_stimulus":{"position":0,"left":"bvh/return-bottle-training4-lines.txt","right":"bvh/vr_prediction_models/model(vcgpdm)-dataset(return-bottle)-mode(ELBO)-parts(1)-dyn(10)-lvm(5)-hold(4)/final-lines.txt","att_check":false},"trial_type":"html-keyboard-response","trial_index":110,"time_elapsed":1334827,"internal_node_id":"0.0-8.0-3.25","subject":"1k85xq9nqfr397q","sona":"7819"},{"rt":547,"stimulus":"<p>Bereit?</p>","key_press":32,"trial_type":"html-keyboard-response","trial_index":111,"time_elapsed":1335377,"internal_node_id":"0.0-8.0-0.26","subject":"1k85xq9nqfr397q","sona":"7819"},{"rt":null,"stimulus":"<div style=\"font-size:60px;\">+</div>","key_press":null,"trial_type":"html-keyboard-response","trial_index":112,"time_elapsed":1337380,"internal_node_id":"0.0-8.0-1.26","subject":"1k85xq9nqfr397q","sona":"7819"},{"trial_type":"turing-test","trial_index":113,"time_elapsed":1342457,"internal_node_id":"0.0-8.0-2.26","subject":"1k85xq9nqfr397q","sona":"7819"},{"rt":653,"stimulus":"<p>Welche Sequenz haben Sie als natürlicher empfunden?</p>","key_press":74,"test_part":"response","test_stimulus":{"position":0,"left":"bvh/return-bottle-hold-training0-lines.txt","right":"bvh/vr_prediction_models/model(tmp)-dataset(return-bottle-hold)-numprim(10)-hold(0)/final-lines.txt","att_check":false},"trial_type":"html-keyboard-response","trial_index":114,"time_elapsed":1343113,"internal_node_id":"0.0-8.0-3.26","subject":"1k85xq9nqfr397q","sona":"7819"},{"rt":678.9999999997672,"stimulus":"<p>Bereit?</p>","key_press":32,"trial_type":"html-keyboard-response","trial_index":115,"time_elapsed":1343795,"internal_node_id":"0.0-8.0-0.27","subject":"1k85xq9nqfr397q","sona":"7819"},{"rt":null,"stimulus":"<div style=\"font-size:60px;\">+</div>","key_press":null,"trial_type":"html-keyboard-response","trial_index":116,"time_elapsed":1345798,"internal_node_id":"0.0-8.0-1.27","subject":"1k85xq9nqfr397q","sona":"7819"},{"trial_type":"turing-test","trial_index":117,"time_elapsed":1352314,"internal_node_id":"0.0-8.0-2.27","subject":"1k85xq9nqfr397q","sona":"7819"},{"rt":440,"stimulus":"<p>Welche Sequenz haben Sie als natürlicher empfunden?</p>","key_press":70,"test_part":"response","test_stimulus":{"position":0,"left":"bvh/return-bottle-training2-lines.txt","right":"bvh/vr_prediction_models/model(tmp)-dataset(return-bottle)-numprim(6)-hold(2)/final-lines.txt","att_check":false},"trial_type":"html-keyboard-response","trial_index":118,"time_elapsed":1352757,"internal_node_id":"0.0-8.0-3.27","subject":"1k85xq9nqfr397q","sona":"7819"},{"rt":708.9999999997672,"stimulus":"<p>Bereit?</p>","key_press":32,"trial_type":"html-keyboard-response","trial_index":119,"time_elapsed":1353469,"internal_node_id":"0.0-8.0-0.28","subject":"1k85xq9nqfr397q","sona":"7819"},{"rt":null,"stimulus":"<div style=\"font-size:60px;\">+</div>","key_press":null,"trial_type":"html-keyboard-response","trial_index":120,"time_elapsed":1355472,"internal_node_id":"0.0-8.0-1.28","subject":"1k85xq9nqfr397q","sona":"7819"},{"trial_type":"turing-test","trial_index":121,"time_elapsed":1362321,"internal_node_id":"0.0-8.0-2.28","subject":"1k85xq9nqfr397q","sona":"7819"},{"rt":352,"stimulus":"<p>Welche Sequenz haben Sie als natürlicher empfunden?</p>","key_press":70,"test_part":"response","test_stimulus":{"position":0,"left":"bvh/pass-bottle-training0-lines.txt","right":"bvh/vr_prediction_models/model(vcgpdm)-dataset(pass-bottle)-mode(ELBO)-parts(3)-dyn(20)-lvm(20)-hold(0)/final-lines.txt","att_check":false},"trial_type":"html-keyboard-response","trial_index":122,"time_elapsed":1362677,"internal_node_id":"0.0-8.0-3.28","subject":"1k85xq9nqfr397q","sona":"7819"},{"rt":938.0000000002328,"stimulus":"<p>Bereit?</p>","key_press":32,"trial_type":"html-keyboard-response","trial_index":123,"time_elapsed":1363616,"internal_node_id":"0.0-8.0-0.29","subject":"1k85xq9nqfr397q","sona":"7819"},{"rt":null,"stimulus":"<div style=\"font-size:60px;\">+</div>","key_press":null,"trial_type":"html-keyboard-response","trial_index":124,"time_elapsed":1365620,"internal_node_id":"0.0-8.0-1.29","subject":"1k85xq9nqfr397q","sona":"7819"},{"trial_type":"turing-test","trial_index":125,"time_elapsed":1368756,"internal_node_id":"0.0-8.0-2.29","subject":"1k85xq9nqfr397q","sona":"7819"},{"rt":855,"stimulus":"<p>Welche Sequenz haben Sie als natürlicher empfunden?</p>","key_press":70,"test_part":"response","test_stimulus":{"position":0,"left":"bvh/pass-bottle-hold-training1-lines.txt","right":"bvh/vr_prediction_models/model(tmp)-dataset(pass-bottle-hold)-numprim(4)-hold(1)/final-lines.txt","att_check":false},"trial_type":"html-keyboard-response","trial_index":126,"time_elapsed":1369615,"internal_node_id":"0.0-8.0-3.29","subject":"1k85xq9nqfr397q","sona":"7819"},{"rt":531,"stimulus":"<p>Bereit?</p>","key_press":32,"trial_type":"html-keyboard-response","trial_index":127,"time_elapsed":1370149,"internal_node_id":"0.0-8.0-0.30","subject":"1k85xq9nqfr397q","sona":"7819"},{"rt":null,"stimulus":"<div style=\"font-size:60px;\">+</div>","key_press":null,"trial_type":"html-keyboard-response","trial_index":128,"time_elapsed":1372152,"internal_node_id":"0.0-8.0-1.30","subject":"1k85xq9nqfr397q","sona":"7819"},{"trial_type":"turing-test","trial_index":129,"time_elapsed":1378066,"internal_node_id":"0.0-8.0-2.30","subject":"1k85xq9nqfr397q","sona":"7819"},{"rt":728.9999999997672,"stimulus":"<p>Welche Sequenz haben Sie als natürlicher empfunden?</p>","key_press":70,"test_part":"response","test_stimulus":{"position":1,"left":"bvh/vr_prediction_models/model(vcgpdm)-dataset(pass-bottle)-mode(MAP)-parts(3)-hold(3)/final-lines.txt","right":"bvh/pass-bottle-training3-lines.txt","att_check":false},"trial_type":"html-keyboard-response","trial_index":130,"time_elapsed":1378798,"internal_node_id":"0.0-8.0-3.30","subject":"1k85xq9nqfr397q","sona":"7819"},{"rt":553,"stimulus":"<p>Bereit?</p>","key_press":32,"trial_type":"html-keyboard-response","trial_index":131,"time_elapsed":1379354,"internal_node_id":"0.0-8.0-0.31","subject":"1k85xq9nqfr397q","sona":"7819"},{"rt":null,"stimulus":"<div style=\"font-size:60px;\">+</div>","key_press":null,"trial_type":"html-keyboard-response","trial_index":132,"time_elapsed":1381357,"internal_node_id":"0.0-8.0-1.31","subject":"1k85xq9nqfr397q","sona":"7819"},{"trial_type":"turing-test","trial_index":133,"time_elapsed":1387052,"internal_node_id":"0.0-8.0-2.31","subject":"1k85xq9nqfr397q","sona":"7819"},{"rt":461,"stimulus":"<p>Welche Sequenz haben Sie als natürlicher empfunden?</p>","key_press":74,"test_part":"response","test_stimulus":{"position":1,"left":"bvh/vr_prediction_models/model(tmp)-dataset(return-bottle)-numprim(11)-hold(4)/final-lines.txt","right":"bvh/return-bottle-training4-lines.txt","att_check":false},"trial_type":"html-keyboard-response","trial_index":134,"time_elapsed":1387515,"internal_node_id":"0.0-8.0-3.31","subject":"1k85xq9nqfr397q","sona":"7819"},{"rt":627,"stimulus":"<p>Bereit?</p>","key_press":32,"trial_type":"html-keyboard-response","trial_index":135,"time_elapsed":1388145,"internal_node_id":"0.0-8.0-0.32","subject":"1k85xq9nqfr397q","sona":"7819"},{"rt":null,"stimulus":"<div style=\"font-size:60px;\">+</div>","key_press":null,"trial_type":"html-keyboard-response","trial_index":136,"time_elapsed":1390148,"internal_node_id":"0.0-8.0-1.32","subject":"1k85xq9nqfr397q","sona":"7819"},{"trial_type":"turing-test","trial_index":137,"time_elapsed":1395942,"internal_node_id":"0.0-8.0-2.32","subject":"1k85xq9nqfr397q","sona":"7819"},{"rt":466.99999999976717,"stimulus":"<p>Welche Sequenz haben Sie als natürlicher empfunden?</p>","key_press":70,"test_part":"response","test_stimulus":{"position":0,"left":"bvh/return-bottle-training3-lines.txt","right":"bvh/vr_prediction_models/model(vcgpdm)-dataset(return-bottle)-mode(ELBO)-parts(1)-dyn(30)-lvm(35)-hold(3)/final-lines.txt","att_check":false},"trial_type":"html-keyboard-response","trial_index":138,"time_elapsed":1396411,"internal_node_id":"0.0-8.0-3.32","subject":"1k85xq9nqfr397q","sona":"7819"},{"rt":548,"stimulus":"<p>Bereit?</p>","key_press":32,"trial_type":"html-keyboard-response","trial_index":139,"time_elapsed":1396961,"internal_node_id":"0.0-8.0-0.33","subject":"1k85xq9nqfr397q","sona":"7819"},{"rt":null,"stimulus":"<div style=\"font-size:60px;\">+</div>","key_press":null,"trial_type":"html-keyboard-response","trial_index":140,"time_elapsed":1398965,"internal_node_id":"0.0-8.0-1.33","subject":"1k85xq9nqfr397q","sona":"7819"},{"trial_type":"turing-test","trial_index":141,"time_elapsed":1405125,"internal_node_id":"0.0-8.0-2.33","subject":"1k85xq9nqfr397q","sona":"7819"},{"rt":497.99999999976717,"stimulus":"<p>Welche Sequenz haben Sie als natürlicher empfunden?</p>","key_press":74,"test_part":"response","test_stimulus":{"position":1,"left":"bvh/vr_prediction_models/model(vcgpdm)-dataset(pass-bottle)-mode(ELBO)-parts(1)-dyn(20)-lvm(30)-hold(2)/final-lines.txt","right":"bvh/pass-bottle-training2-lines.txt","att_check":false},"trial_type":"html-keyboard-response","trial_index":142,"time_elapsed":1405626,"internal_node_id":"0.0-8.0-3.33","subject":"1k85xq9nqfr397q","sona":"7819"},{"rt":575.0000000002328,"stimulus":"<p>Bereit?</p>","key_press":32,"trial_type":"html-keyboard-response","trial_index":143,"time_elapsed":1406204,"internal_node_id":"0.0-8.0-0.34","subject":"1k85xq9nqfr397q","sona":"7819"},{"rt":null,"stimulus":"<div style=\"font-size:60px;\">+</div>","key_press":null,"trial_type":"html-keyboard-response","trial_index":144,"time_elapsed":1408207,"internal_node_id":"0.0-8.0-1.34","subject":"1k85xq9nqfr397q","sona":"7819"},{"trial_type":"turing-test","trial_index":145,"time_elapsed":1411556,"internal_node_id":"0.0-8.0-2.34","subject":"1k85xq9nqfr397q","sona":"7819"},{"rt":670,"stimulus":"<p>Welche Sequenz haben Sie als natürlicher empfunden?</p>","key_press":70,"test_part":"response","test_stimulus":{"position":1,"left":"bvh/vr_prediction_models/model(vcgpdm)-dataset(pass-bottle-hold)-mode(ELBO)-parts(1)-dyn(10)-lvm(5)-hold(0)/final-lines.txt","right":"bvh/pass-bottle-hold-training0-lines.txt","att_check":false},"trial_type":"html-keyboard-response","trial_index":146,"time_elapsed":1412229,"internal_node_id":"0.0-8.0-3.34","subject":"1k85xq9nqfr397q","sona":"7819"},{"rt":627.0000000002328,"stimulus":"<p>Bereit?</p>","key_press":32,"trial_type":"html-keyboard-response","trial_index":147,"time_elapsed":1412858,"internal_node_id":"0.0-8.0-0.35","subject":"1k85xq9nqfr397q","sona":"7819"},{"rt":null,"stimulus":"<div style=\"font-size:60px;\">+</div>","key_press":null,"trial_type":"html-keyboard-response","trial_index":148,"time_elapsed":1414861,"internal_node_id":"0.0-8.0-1.35","subject":"1k85xq9nqfr397q","sona":"7819"},{"trial_type":"turing-test","trial_index":149,"time_elapsed":1420605,"internal_node_id":"0.0-8.0-2.35","subject":"1k85xq9nqfr397q","sona":"7819"},{"rt":3508.999999999767,"stimulus":"<p>Welche Sequenz haben Sie als natürlicher empfunden?</p>","key_press":74,"test_part":"response","test_stimulus":{"position":1,"left":"bvh/vr_prediction_models/model(tmp)-dataset(return-bottle)-numprim(8)-hold(3)/final-lines.txt","right":"bvh/return-bottle-training3-lines.txt","att_check":false},"trial_type":"html-keyboard-response","trial_index":150,"time_elapsed":1424117,"internal_node_id":"0.0-8.0-3.35","subject":"1k85xq9nqfr397q","sona":"7819"}]