[{"rt":2193,"stimulus":"<p>Welcome!<br> Please choose your language to start the experiment in the chosen language.</p><p>Willkommen!<br> Bitte wählen Sie eine Sprache, um das Experiment in der ausgewählten Sprache zu starten</p>","button_pressed":"1","trial_type":"html-button-response","trial_index":0,"time_elapsed":2196,"internal_node_id":"0.0-0.0","subject":"czqz2vn41ke95ts","sona":"9589"},{"view_history":"[{\"page_index\":0,\"viewing_time\":9503},{\"page_index\":1,\"viewing_time\":5455},{\"page_index\":2,\"viewing_time\":8153},{\"page_index\":3,\"viewing_time\":9296},{\"page_index\":4,\"viewing_time\":2921}]","rt":35329,"trial_type":"instructions","trial_index":1,"time_elapsed":37526,"internal_node_id":"0.0-1.0-0.0","subject":"czqz2vn41ke95ts","sona":"9589"},{"rt":2636,"stimulus":"<p>Bereit?</p>","key_press":32,"trial_type":"html-keyboard-response","trial_index":2,"time_elapsed":40166,"internal_node_id":"0.0-3.0","subject":"czqz2vn41ke95ts","sona":"9589"},{"rt":null,"stimulus":"<div style=\"font-size:60px;\">+</div>","key_press":null,"trial_type":"html-keyboard-response","trial_index":3,"time_elapsed":42198,"internal_node_id":"0.0-4.0","subject":"czqz2vn41ke95ts","sona":"9589"},{"trial_type":"training","trial_index":4,"time_elapsed":45479,"internal_node_id":"0.0-5.0","subject":"czqz2vn41ke95ts","sona":"9589"},{"rt":1631,"stimulus":"<p>Welche Sequenz haben Sie als natürlicher empfunden?</p>","key_press":74,"trial_type":"html-keyboard-response","trial_index":5,"time_elapsed":47114,"internal_node_id":"0.0-6.0","subject":"czqz2vn41ke95ts","sona":"9589"},{"rt":5337,"stimulus":"<p>Das Experiment startet nun.</p><p><small>Bitte drücken Sie den Knopf, wenn Sie bereit sind.</small></p>","button_pressed":"0","trial_type":"html-button-response","trial_index":6,"time_elapsed":52452,"internal_node_id":"0.0-7.0","subject":"czqz2vn41ke95ts","sona":"9589"},{"rt":2516,"stimulus":"<p>Bereit?</p>","key_press":32,"trial_type":"html-keyboard-response","trial_index":7,"time_elapsed":54970,"internal_node_id":"0.0-8.0-0.0","subject":"czqz2vn41ke95ts","sona":"9589"},{"rt":null,"stimulus":"<div style=\"font-size:60px;\">+</div>","key_press":null,"trial_type":"html-keyboard-response","trial_index":8,"time_elapsed":57009,"internal_node_id":"0.0-8.0-1.0","subject":"czqz2vn41ke95ts","sona":"9589"},{"trial_type":"turing-test","trial_index":9,"time_elapsed":60438,"internal_node_id":"0.0-8.0-2.0","subject":"czqz2vn41ke95ts","sona":"9589"},{"rt":2088,"stimulus":"<p>Welche Sequenz haben Sie als natürlicher empfunden?</p>","key_press":70,"test_part":"response","test_stimulus":{"position":0,"left":"bvh/pass-bottle-hold-training2-lines.txt","right":"bvh/vr_prediction_models/model(vcgpdm)-dataset(pass-bottle-hold)-mode(ELBO)-parts(3)-dyn(25)-lvm(15)-hold(2)/final-lines.txt","att_check":false},"trial_type":"html-keyboard-response","trial_index":10,"time_elapsed":62527,"internal_node_id":"0.0-8.0-3.0","subject":"czqz2vn41ke95ts","sona":"9589"},{"rt":1258,"stimulus":"<p>Bereit?</p>","key_press":32,"trial_type":"html-keyboard-response","trial_index":11,"time_elapsed":63787,"internal_node_id":"0.0-8.0-0.1","subject":"czqz2vn41ke95ts","sona":"9589"},{"rt":null,"stimulus":"<div style=\"font-size:60px;\">+</div>","key_press":null,"trial_type":"html-keyboard-response","trial_index":12,"time_elapsed":65809,"internal_node_id":"0.0-8.0-1.1","subject":"czqz2vn41ke95ts","sona":"9589"},{"trial_type":"turing-test","trial_index":13,"time_elapsed":69428,"internal_node_id":"0.0-8.0-2.1","subject":"czqz2vn41ke95ts","sona":"9589"},{"rt":818,"stimulus":"<p>Welche Sequenz haben Sie als natürlicher empfunden?</p>","key_press":74,"test_part":"response","test_stimulus":{"position":1,"left":"bvh/vr_prediction_models/model(dmp)-dataset(return-bottle-hold)-npsi(40)-hold(4)/final-lines.txt","right":"bvh/return-bottle-hold-training4-lines.txt","att_check":false},"trial_type":"html-keyboard-response","trial_index":14,"time_elapsed":70251,"internal_node_id":"0.0-8.0-3.1","subject":"czqz2vn41ke95ts","sona":"9589"},{"rt":560,"stimulus":"<p>Bereit?</p>","key_press":32,"trial_type":"html-keyboard-response","trial_index":15,"time_elapsed":70813,"internal_node_id":"0.0-8.0-0.2","subject":"czqz2vn41ke95ts","sona":"9589"},{"rt":null,"stimulus":"<div style=\"font-size:60px;\">+</div>","key_press":null,"trial_type":"html-keyboard-response","trial_index":16,"time_elapsed":72838,"internal_node_id":"0.0-8.0-1.2","subject":"czqz2vn41ke95ts","sona":"9589"},{"trial_type":"turing-test","trial_index":17,"time_elapsed":78478,"internal_node_id":"0.0-8.0-2.2","subject":"czqz2vn41ke95ts","sona":"9589"},{"rt":1053,"stimulus":"<p>Welche Sequenz haben Sie als natürlicher empfunden?</p>","key_press":74,"test_part":"response","test_stimulus":{"position":1,"left":"bvh/vr_prediction_models/model(tmp)-dataset(pass-bottle)-numprim(7)-hold(4)/final-lines.txt","right":"bvh/pass-bottle-training4-lines.txt","att_check":false},"trial_type":"html-keyboard-response","trial_index":18,"time_elapsed":79534,"internal_node_id":"0.0-8.0-3.2","subject":"czqz2vn41ke95ts","sona":"9589"},{"rt":827,"stimulus":"<p>Bereit?</p>","key_press":32,"trial_type":"html-keyboard-response","trial_index":19,"time_elapsed":80362,"internal_node_id":"0.0-8.0-0.3","subject":"czqz2vn41ke95ts","sona":"9589"},{"rt":null,"stimulus":"<div style=\"font-size:60px;\">+</div>","key_press":null,"trial_type":"html-keyboard-response","trial_index":20,"time_elapsed":82399,"internal_node_id":"0.0-8.0-1.3","subject":"czqz2vn41ke95ts","sona":"9589"},{"trial_type":"turing-test","trial_index":21,"time_elapsed":87755,"internal_node_id":"0.0-8.0-2.3","subject":"czqz2vn41ke95ts","sona":"9589"},{"rt":1422,"stimulus":"<p>Welche Sequenz haben Sie als natürlicher empfunden?</p>","key_press":70,"test_part":"response","test_stimulus":{"position":0,"left":"bvh/pass-bottle-training1-lines.txt","right":"bvh/vr_prediction_models/model(tmp)-dataset(pass-bottle)-numprim(9)-hold(1)/final-lines.txt","att_check":false},"trial_type":"html-keyboard-response","trial_index":22,"time_elapsed":89180,"internal_node_id":"0.0-8.0-3.3","subject":"czqz2vn41ke95ts","sona":"9589"},{"rt":699,"stimulus":"<p>Bereit?</p>","key_press":32,"trial_type":"html-keyboard-response","trial_index":23,"time_elapsed":89881,"internal_node_id":"0.0-8.0-0.4","subject":"czqz2vn41ke95ts","sona":"9589"},{"rt":null,"stimulus":"<div style=\"font-size:60px;\">+</div>","key_press":null,"trial_type":"html-keyboard-response","trial_index":24,"time_elapsed":91919,"internal_node_id":"0.0-8.0-1.4","subject":"czqz2vn41ke95ts","sona":"9589"},{"trial_type":"turing-test","trial_index":25,"time_elapsed":97648,"internal_node_id":"0.0-8.0-2.4","subject":"czqz2vn41ke95ts","sona":"9589"},{"rt":1021,"stimulus":"<p>Welche Sequenz haben Sie als natürlicher empfunden?</p>","key_press":74,"test_part":"response","test_stimulus":{"position":0,"left":"bvh/pass-bottle-training3-lines.txt","right":"bvh/vr_prediction_models/model(tmp)-dataset(pass-bottle)-numprim(6)-hold(3)/final-lines.txt","att_check":false},"trial_type":"html-keyboard-response","trial_index":26,"time_elapsed":98673,"internal_node_id":"0.0-8.0-3.4","subject":"czqz2vn41ke95ts","sona":"9589"},{"rt":900,"stimulus":"<p>Bereit?</p>","key_press":32,"trial_type":"html-keyboard-response","trial_index":27,"time_elapsed":99577,"internal_node_id":"0.0-8.0-0.5","subject":"czqz2vn41ke95ts","sona":"9589"},{"rt":null,"stimulus":"<div style=\"font-size:60px;\">+</div>","key_press":null,"trial_type":"html-keyboard-response","trial_index":28,"time_elapsed":101609,"internal_node_id":"0.0-8.0-1.5","subject":"czqz2vn41ke95ts","sona":"9589"},{"trial_type":"turing-test","trial_index":29,"time_elapsed":107758,"internal_node_id":"0.0-8.0-2.5","subject":"czqz2vn41ke95ts","sona":"9589"},{"rt":804,"stimulus":"<p>Welche Sequenz haben Sie als natürlicher empfunden?</p>","key_press":70,"test_part":"response","test_stimulus":{"position":1,"left":"bvh/vr_prediction_models/model(vcgpdm)-dataset(return-bottle)-mode(MAP)-parts(1)-hold(1)/final-lines.txt","right":"bvh/return-bottle-training1-lines.txt","att_check":false},"trial_type":"html-keyboard-response","trial_index":30,"time_elapsed":108565,"internal_node_id":"0.0-8.0-3.5","subject":"czqz2vn41ke95ts","sona":"9589"},{"rt":676,"stimulus":"<p>Bereit?</p>","key_press":32,"trial_type":"html-keyboard-response","trial_index":31,"time_elapsed":109243,"internal_node_id":"0.0-8.0-0.6","subject":"czqz2vn41ke95ts","sona":"9589"},{"rt":null,"stimulus":"<div style=\"font-size:60px;\">+</div>","key_press":null,"trial_type":"html-keyboard-response","trial_index":32,"time_elapsed":111279,"internal_node_id":"0.0-8.0-1.6","subject":"czqz2vn41ke95ts","sona":"9589"},{"trial_type":"turing-test","trial_index":33,"time_elapsed":116977,"internal_node_id":"0.0-8.0-2.6","subject":"czqz2vn41ke95ts","sona":"9589"},{"rt":639,"stimulus":"<p>Welche Sequenz haben Sie als natürlicher empfunden?</p>","key_press":70,"test_part":"response","test_stimulus":{"position":0,"left":"bvh/pass-bottle-training3-lines.txt","right":"bvh/vr_prediction_models/model(tmp)-dataset(pass-bottle)-numprim(13)-hold(3)/final-lines.txt","att_check":false},"trial_type":"html-keyboard-response","trial_index":34,"time_elapsed":117618,"internal_node_id":"0.0-8.0-3.6","subject":"czqz2vn41ke95ts","sona":"9589"},{"rt":446,"stimulus":"<p>Bereit?</p>","key_press":32,"trial_type":"html-keyboard-response","trial_index":35,"time_elapsed":118065,"internal_node_id":"0.0-8.0-0.7","subject":"czqz2vn41ke95ts","sona":"9589"},{"rt":null,"stimulus":"<div style=\"font-size:60px;\">+</div>","key_press":null,"trial_type":"html-keyboard-response","trial_index":36,"time_elapsed":120089,"internal_node_id":"0.0-8.0-1.7","subject":"czqz2vn41ke95ts","sona":"9589"},{"trial_type":"turing-test","trial_index":37,"time_elapsed":126588,"internal_node_id":"0.0-8.0-2.7","subject":"czqz2vn41ke95ts","sona":"9589"},{"rt":1996,"stimulus":"<p>Welche Sequenz haben Sie als natürlicher empfunden?</p>","key_press":70,"test_part":"response","test_stimulus":{"position":1,"left":"bvh/vr_prediction_models/model(dmp)-dataset(return-bottle)-npsi(90)-hold(2)/final-lines.txt","right":"bvh/return-bottle-training2-lines.txt","att_check":false},"trial_type":"html-keyboard-response","trial_index":38,"time_elapsed":128587,"internal_node_id":"0.0-8.0-3.7","subject":"czqz2vn41ke95ts","sona":"9589"},{"rt":903,"stimulus":"<p>Bereit?</p>","key_press":32,"trial_type":"html-keyboard-response","trial_index":39,"time_elapsed":129492,"internal_node_id":"0.0-8.0-0.8","subject":"czqz2vn41ke95ts","sona":"9589"},{"rt":null,"stimulus":"<div style=\"font-size:60px;\">+</div>","key_press":null,"trial_type":"html-keyboard-response","trial_index":40,"time_elapsed":131519,"internal_node_id":"0.0-8.0-1.8","subject":"czqz2vn41ke95ts","sona":"9589"},{"trial_type":"turing-test","trial_index":41,"time_elapsed":135138,"internal_node_id":"0.0-8.0-2.8","subject":"czqz2vn41ke95ts","sona":"9589"},{"rt":4254,"stimulus":"<p>Welche Sequenz haben Sie als natürlicher empfunden?</p>","key_press":74,"test_part":"response","test_stimulus":{"position":1,"left":"bvh/vr_prediction_models/model(dmp)-dataset(return-bottle-hold)-npsi(50)-hold(4)/final-lines.txt","right":"bvh/return-bottle-hold-training4-lines.txt","att_check":false},"trial_type":"html-keyboard-response","trial_index":42,"time_elapsed":139395,"internal_node_id":"0.0-8.0-3.8","subject":"czqz2vn41ke95ts","sona":"9589"},{"rt":695,"stimulus":"<p>Bereit?</p>","key_press":32,"trial_type":"html-keyboard-response","trial_index":43,"time_elapsed":140091,"internal_node_id":"0.0-8.0-0.9","subject":"czqz2vn41ke95ts","sona":"9589"},{"rt":null,"stimulus":"<div style=\"font-size:60px;\">+</div>","key_press":null,"trial_type":"html-keyboard-response","trial_index":44,"time_elapsed":142106,"internal_node_id":"0.0-8.0-1.9","subject":"czqz2vn41ke95ts","sona":"9589"},{"trial_type":"turing-test","trial_index":45,"time_elapsed":147879,"internal_node_id":"0.0-8.0-2.9","subject":"czqz2vn41ke95ts","sona":"9589"},{"rt":1062,"stimulus":"<p>Welche Sequenz haben Sie als natürlicher empfunden?</p>","key_press":70,"test_part":"response","test_stimulus":{"position":1,"left":"bvh/vr_prediction_models/model(vcgpdm)-dataset(pass-bottle)-mode(ELBO)-parts(3)-dyn(25)-lvm(15)-hold(4)/final-lines.txt","right":"bvh/pass-bottle-training4-lines.txt","att_check":false},"trial_type":"html-keyboard-response","trial_index":46,"time_elapsed":148945,"internal_node_id":"0.0-8.0-3.9","subject":"czqz2vn41ke95ts","sona":"9589"},{"rt":750,"stimulus":"<p>Bereit?</p>","key_press":32,"trial_type":"html-keyboard-response","trial_index":47,"time_elapsed":149697,"internal_node_id":"0.0-8.0-0.10","subject":"czqz2vn41ke95ts","sona":"9589"},{"rt":null,"stimulus":"<div style=\"font-size:60px;\">+</div>","key_press":null,"trial_type":"html-keyboard-response","trial_index":48,"time_elapsed":151705,"internal_node_id":"0.0-8.0-1.10","subject":"czqz2vn41ke95ts","sona":"9589"},{"trial_type":"turing-test","trial_index":49,"time_elapsed":157018,"internal_node_id":"0.0-8.0-2.10","subject":"czqz2vn41ke95ts","sona":"9589"},{"rt":1141,"stimulus":"<p>Welche Sequenz haben Sie als natürlicher empfunden?</p>","key_press":74,"test_part":"response","test_stimulus":{"position":1,"left":"bvh/vr_prediction_models/model(tmp)-dataset(return-bottle)-numprim(14)-hold(0)/final-lines.txt","right":"bvh/return-bottle-training0-lines.txt","att_check":false},"trial_type":"html-keyboard-response","trial_index":50,"time_elapsed":158163,"internal_node_id":"0.0-8.0-3.10","subject":"czqz2vn41ke95ts","sona":"9589"},{"rt":559,"stimulus":"<p>Bereit?</p>","key_press":32,"trial_type":"html-keyboard-response","trial_index":51,"time_elapsed":158724,"internal_node_id":"0.0-8.0-0.11","subject":"czqz2vn41ke95ts","sona":"9589"},{"rt":null,"stimulus":"<div style=\"font-size:60px;\">+</div>","key_press":null,"trial_type":"html-keyboard-response","trial_index":52,"time_elapsed":160759,"internal_node_id":"0.0-8.0-1.11","subject":"czqz2vn41ke95ts","sona":"9589"},{"trial_type":"turing-test","trial_index":53,"time_elapsed":167428,"internal_node_id":"0.0-8.0-2.11","subject":"czqz2vn41ke95ts","sona":"9589"}]