[{"rt":1536.1900000134483,"stimulus":"<p>Welcome!<br> Please choose your language to start the experiment in the chosen language.</p><p>Willkommen!<br> Bitte wählen Sie eine Sprache, um das Experiment in der ausgewählten Sprache zu starten</p>","button_pressed":"1","trial_type":"html-button-response","trial_index":0,"time_elapsed":1568,"internal_node_id":"0.0-0.0","subject":"msbvg6elzqpvlgw","sona":"7306"},{"view_history":"[{\"page_index\":0,\"viewing_time\":824.8399999574758},{\"page_index\":1,\"viewing_time\":1520.200000028126},{\"page_index\":2,\"viewing_time\":1149.0449999691918},{\"page_index\":3,\"viewing_time\":1199.6450000442564},{\"page_index\":4,\"viewing_time\":1400.1849999767728}]","rt":6095.849999983329,"trial_type":"instructions","trial_index":1,"time_elapsed":7667,"internal_node_id":"0.0-1.0-0.0","subject":"msbvg6elzqpvlgw","sona":"7306"},{"rt":2783.5550000309013,"stimulus":"<p>Bereit?</p>","key_press":32,"trial_type":"html-keyboard-response","trial_index":2,"time_elapsed":10453,"internal_node_id":"0.0-3.0","subject":"msbvg6elzqpvlgw","sona":"7306"},{"rt":null,"stimulus":"<div style=\"font-size:60px;\">+</div>","key_press":null,"trial_type":"html-keyboard-response","trial_index":3,"time_elapsed":12484,"internal_node_id":"0.0-4.0","subject":"msbvg6elzqpvlgw","sona":"7306"},{"trial_type":"training","trial_index":4,"time_elapsed":15779,"internal_node_id":"0.0-5.0","subject":"msbvg6elzqpvlgw","sona":"7306"},{"rt":445.06499997805804,"stimulus":"<p>Welche Sequenz haben Sie als natürlicher empfunden?</p>","key_press":74,"trial_type":"html-keyboard-response","trial_index":5,"time_elapsed":16226,"internal_node_id":"0.0-6.0","subject":"msbvg6elzqpvlgw","sona":"7306"},{"rt":3737.3999999836087,"stimulus":"<p>Das Experiment startet nun.</p><p><small>Bitte drücken Sie den Knopf, wenn Sie bereit sind.</small></p>","button_pressed":"0","trial_type":"html-button-response","trial_index":6,"time_elapsed":19966,"internal_node_id":"0.0-7.0","subject":"msbvg6elzqpvlgw","sona":"7306"},{"rt":1201.0749999899417,"stimulus":"<p>Bereit?</p>","key_press":32,"trial_type":"html-keyboard-response","trial_index":7,"time_elapsed":21171,"internal_node_id":"0.0-8.0-0.0","subject":"msbvg6elzqpvlgw","sona":"7306"},{"rt":null,"stimulus":"<div style=\"font-size:60px;\">+</div>","key_press":null,"trial_type":"html-keyboard-response","trial_index":8,"time_elapsed":23194,"internal_node_id":"0.0-8.0-1.0","subject":"msbvg6elzqpvlgw","sona":"7306"},{"trial_type":"turing-test","trial_index":9,"time_elapsed":28946,"internal_node_id":"0.0-8.0-2.0","subject":"msbvg6elzqpvlgw","sona":"7306"},{"rt":284.18000001693144,"stimulus":"<p>Welche Sequenz haben Sie als natürlicher empfunden?</p>","key_press":70,"test_part":"response","test_stimulus":{"position":0,"left":"bvh/return-bottle-training3-lines.txt","right":"bvh/vr_prediction_models/model(dmp)-dataset(return-bottle)-npsi(20)-hold(3)/final-lines.txt","att_check":false},"trial_type":"html-keyboard-response","trial_index":10,"time_elapsed":29236,"internal_node_id":"0.0-8.0-3.0","subject":"msbvg6elzqpvlgw","sona":"7306"},{"rt":410.3250000043772,"stimulus":"<p>Bereit?</p>","key_press":32,"trial_type":"html-keyboard-response","trial_index":11,"time_elapsed":29651,"internal_node_id":"0.0-8.0-0.1","subject":"msbvg6elzqpvlgw","sona":"7306"},{"rt":null,"stimulus":"<div style=\"font-size:60px;\">+</div>","key_press":null,"trial_type":"html-keyboard-response","trial_index":12,"time_elapsed":31684,"internal_node_id":"0.0-8.0-1.1","subject":"msbvg6elzqpvlgw","sona":"7306"},{"trial_type":"turing-test","trial_index":13,"time_elapsed":38293,"internal_node_id":"0.0-8.0-2.1","subject":"msbvg6elzqpvlgw","sona":"7306"},{"rt":511.2000000081025,"stimulus":"<p>Welche Sequenz haben Sie als natürlicher empfunden?</p>","key_press":74,"test_part":"response","test_stimulus":{"position":1,"left":"bvh/vr_prediction_models/model(dmp)-dataset(return-bottle)-npsi(80)-hold(2)/final-lines.txt","right":"bvh/return-bottle-training2-lines.txt","att_check":false},"trial_type":"html-keyboard-response","trial_index":14,"time_elapsed":38811,"internal_node_id":"0.0-8.0-3.1","subject":"msbvg6elzqpvlgw","sona":"7306"},{"rt":417.86500002490357,"stimulus":"<p>Bereit?</p>","key_press":32,"trial_type":"html-keyboard-response","trial_index":15,"time_elapsed":39234,"internal_node_id":"0.0-8.0-0.2","subject":"msbvg6elzqpvlgw","sona":"7306"},{"rt":null,"stimulus":"<div style=\"font-size:60px;\">+</div>","key_press":null,"trial_type":"html-keyboard-response","trial_index":16,"time_elapsed":41258,"internal_node_id":"0.0-8.0-1.2","subject":"msbvg6elzqpvlgw","sona":"7306"},{"trial_type":"turing-test","trial_index":17,"time_elapsed":44744,"internal_node_id":"0.0-8.0-2.2","subject":"msbvg6elzqpvlgw","sona":"7306"},{"rt":453.4499999717809,"stimulus":"<p>Welche Sequenz haben Sie als natürlicher empfunden?</p>","key_press":74,"test_part":"response","test_stimulus":{"position":0,"left":"bvh/return-bottle-hold-training2-lines.txt","right":"bvh/vr_prediction_models/model(tmp)-dataset(return-bottle-hold)-numprim(14)-hold(2)/final-lines.txt","att_check":false},"trial_type":"html-keyboard-response","trial_index":18,"time_elapsed":45204,"internal_node_id":"0.0-8.0-3.2","subject":"msbvg6elzqpvlgw","sona":"7306"},{"rt":345.24999995483086,"stimulus":"<p>Bereit?</p>","key_press":32,"trial_type":"html-keyboard-response","trial_index":19,"time_elapsed":45554,"internal_node_id":"0.0-8.0-0.3","subject":"msbvg6elzqpvlgw","sona":"7306"},{"rt":null,"stimulus":"<div style=\"font-size:60px;\">+</div>","key_press":null,"trial_type":"html-keyboard-response","trial_index":20,"time_elapsed":47574,"internal_node_id":"0.0-8.0-1.3","subject":"msbvg6elzqpvlgw","sona":"7306"},{"trial_type":"turing-test","trial_index":21,"time_elapsed":51174,"internal_node_id":"0.0-8.0-2.3","subject":"msbvg6elzqpvlgw","sona":"7306"},{"rt":538.8549999915995,"stimulus":"<p>Welche Sequenz haben Sie als natürlicher empfunden?</p>","key_press":70,"test_part":"response","test_stimulus":{"position":0,"left":"bvh/pass-bottle-hold-training4-lines.txt","right":"bvh/vr_prediction_models/model(tmp)-dataset(pass-bottle-hold)-numprim(12)-hold(4)/final-lines.txt","att_check":false},"trial_type":"html-keyboard-response","trial_index":22,"time_elapsed":51720,"internal_node_id":"0.0-8.0-3.3","subject":"msbvg6elzqpvlgw","sona":"7306"},{"rt":638.2549999980256,"stimulus":"<p>Bereit?</p>","key_press":32,"trial_type":"html-keyboard-response","trial_index":23,"time_elapsed":52361,"internal_node_id":"0.0-8.0-0.4","subject":"msbvg6elzqpvlgw","sona":"7306"},{"rt":null,"stimulus":"<div style=\"font-size:60px;\">+</div>","key_press":null,"trial_type":"html-keyboard-response","trial_index":24,"time_elapsed":54385,"internal_node_id":"0.0-8.0-1.4","subject":"msbvg6elzqpvlgw","sona":"7306"},{"trial_type":"turing-test","trial_index":25,"time_elapsed":60104,"internal_node_id":"0.0-8.0-2.4","subject":"msbvg6elzqpvlgw","sona":"7306"},{"rt":292.03999997116625,"stimulus":"<p>Welche Sequenz haben Sie als natürlicher empfunden?</p>","key_press":70,"test_part":"response","test_stimulus":{"position":0,"left":"bvh/pass-bottle-training4-lines.txt","right":"bvh/vr_prediction_models/model(dmp)-dataset(pass-bottle)-npsi(100)-hold(4)/final-lines.txt","att_check":false},"trial_type":"html-keyboard-response","trial_index":26,"time_elapsed":60401,"internal_node_id":"0.0-8.0-3.4","subject":"msbvg6elzqpvlgw","sona":"7306"},{"rt":390.6149999820627,"stimulus":"<p>Bereit?</p>","key_press":32,"trial_type":"html-keyboard-response","trial_index":27,"time_elapsed":60796,"internal_node_id":"0.0-8.0-0.5","subject":"msbvg6elzqpvlgw","sona":"7306"},{"rt":null,"stimulus":"<div style=\"font-size:60px;\">+</div>","key_press":null,"trial_type":"html-keyboard-response","trial_index":28,"time_elapsed":62835,"internal_node_id":"0.0-8.0-1.5","subject":"msbvg6elzqpvlgw","sona":"7306"},{"trial_type":"turing-test","trial_index":29,"time_elapsed":68823,"internal_node_id":"0.0-8.0-2.5","subject":"msbvg6elzqpvlgw","sona":"7306"},{"rt":458.684999961406,"stimulus":"<p>Welche Sequenz haben Sie als natürlicher empfunden?</p>","key_press":74,"test_part":"response","test_stimulus":{"position":1,"left":"bvh/vr_prediction_models/model(vcgpdm)-dataset(pass-bottle)-mode(ELBO)-parts(1)-dyn(20)-lvm(5)-hold(4)/final-lines.txt","right":"bvh/pass-bottle-training4-lines.txt","att_check":false},"trial_type":"html-keyboard-response","trial_index":30,"time_elapsed":69290,"internal_node_id":"0.0-8.0-3.5","subject":"msbvg6elzqpvlgw","sona":"7306"},{"rt":382.1800000150688,"stimulus":"<p>Bereit?</p>","key_press":32,"trial_type":"html-keyboard-response","trial_index":31,"time_elapsed":69678,"internal_node_id":"0.0-8.0-0.6","subject":"msbvg6elzqpvlgw","sona":"7306"},{"rt":null,"stimulus":"<div style=\"font-size:60px;\">+</div>","key_press":null,"trial_type":"html-keyboard-response","trial_index":32,"time_elapsed":71695,"internal_node_id":"0.0-8.0-1.6","subject":"msbvg6elzqpvlgw","sona":"7306"},{"trial_type":"turing-test","trial_index":33,"time_elapsed":75444,"internal_node_id":"0.0-8.0-2.6","subject":"msbvg6elzqpvlgw","sona":"7306"},{"rt":531.3399999868125,"stimulus":"<p>Welche Sequenz haben Sie als natürlicher empfunden?</p>","key_press":74,"test_part":"response","test_stimulus":{"position":1,"left":"bvh/vr_prediction_models/model(vcgpdm)-dataset(pass-bottle-hold)-mode(MAP)-parts(1)-hold(3)/final-lines.txt","right":"bvh/pass-bottle-hold-training3-lines.txt","att_check":false},"trial_type":"html-keyboard-response","trial_index":34,"time_elapsed":75982,"internal_node_id":"0.0-8.0-3.6","subject":"msbvg6elzqpvlgw","sona":"7306"},{"rt":387.11499999044463,"stimulus":"<p>Bereit?</p>","key_press":32,"trial_type":"html-keyboard-response","trial_index":35,"time_elapsed":76376,"internal_node_id":"0.0-8.0-0.7","subject":"msbvg6elzqpvlgw","sona":"7306"},{"rt":null,"stimulus":"<div style=\"font-size:60px;\">+</div>","key_press":null,"trial_type":"html-keyboard-response","trial_index":36,"time_elapsed":78403,"internal_node_id":"0.0-8.0-1.7","subject":"msbvg6elzqpvlgw","sona":"7306"},{"trial_type":"turing-test","trial_index":37,"time_elapsed":82144,"internal_node_id":"0.0-8.0-2.7","subject":"msbvg6elzqpvlgw","sona":"7306"},{"rt":475.25000001769513,"stimulus":"<p>Welche Sequenz haben Sie als natürlicher empfunden?</p>","key_press":70,"test_part":"response","test_stimulus":{"position":0,"left":"bvh/return-bottle-hold-training3-lines.txt","right":"bvh/vr_prediction_models/model(vcgpdm)-dataset(return-bottle-hold)-mode(ELBO)-parts(1)-dyn(30)-lvm(35)-hold(3)/final-lines.txt","att_check":false},"trial_type":"html-keyboard-response","trial_index":38,"time_elapsed":82624,"internal_node_id":"0.0-8.0-3.7","subject":"msbvg6elzqpvlgw","sona":"7306"},{"rt":345.70000000530854,"stimulus":"<p>Bereit?</p>","key_press":32,"trial_type":"html-keyboard-response","trial_index":39,"time_elapsed":82975,"internal_node_id":"0.0-8.0-0.8","subject":"msbvg6elzqpvlgw","sona":"7306"},{"rt":null,"stimulus":"<div style=\"font-size:60px;\">+</div>","key_press":null,"trial_type":"html-keyboard-response","trial_index":40,"time_elapsed":85015,"internal_node_id":"0.0-8.0-1.8","subject":"msbvg6elzqpvlgw","sona":"7306"},{"trial_type":"turing-test","trial_index":41,"time_elapsed":90604,"internal_node_id":"0.0-8.0-2.8","subject":"msbvg6elzqpvlgw","sona":"7306"},{"rt":229.24499999498948,"stimulus":"<p>Welche Sequenz haben Sie als natürlicher empfunden?</p>","key_press":74,"test_part":"response","test_stimulus":{"position":1,"left":"bvh/vr_prediction_models/model(vcgpdm)-dataset(pass-bottle)-mode(ELBO)-parts(1)-dyn(25)-lvm(35)-hold(1)/final-lines.txt","right":"bvh/pass-bottle-training1-lines.txt","att_check":false},"trial_type":"html-keyboard-response","trial_index":42,"time_elapsed":90840,"internal_node_id":"0.0-8.0-3.8","subject":"msbvg6elzqpvlgw","sona":"7306"},{"rt":490.6900000059977,"stimulus":"<p>Bereit?</p>","key_press":32,"trial_type":"html-keyboard-response","trial_index":43,"time_elapsed":91337,"internal_node_id":"0.0-8.0-0.9","subject":"msbvg6elzqpvlgw","sona":"7306"},{"rt":null,"stimulus":"<div style=\"font-size:60px;\">+</div>","key_press":null,"trial_type":"html-keyboard-response","trial_index":44,"time_elapsed":93364,"internal_node_id":"0.0-8.0-1.9","subject":"msbvg6elzqpvlgw","sona":"7306"},{"trial_type":"turing-test","trial_index":45,"time_elapsed":96714,"internal_node_id":"0.0-8.0-2.9","subject":"msbvg6elzqpvlgw","sona":"7306"},{"rt":1235.8499999972992,"stimulus":"<p>Welche Sequenz haben Sie als natürlicher empfunden?</p>","key_press":70,"test_part":"response","test_stimulus":{"position":0,"left":"bvh/pass-bottle-hold-training2-lines.txt","right":"bvh/vr_prediction_models/model(dmp)-dataset(pass-bottle-hold)-npsi(100)-hold(2)/final-lines.txt","att_check":false},"trial_type":"html-keyboard-response","trial_index":46,"time_elapsed":97956,"internal_node_id":"0.0-8.0-3.9","subject":"msbvg6elzqpvlgw","sona":"7306"},{"rt":331.1950000352226,"stimulus":"<p>Bereit?</p>","key_press":32,"trial_type":"html-keyboard-response","trial_index":47,"time_elapsed":98292,"internal_node_id":"0.0-8.0-0.10","subject":"msbvg6elzqpvlgw","sona":"7306"},{"rt":null,"stimulus":"<div style=\"font-size:60px;\">+</div>","key_press":null,"trial_type":"html-keyboard-response","trial_index":48,"time_elapsed":100334,"internal_node_id":"0.0-8.0-1.10","subject":"msbvg6elzqpvlgw","sona":"7306"},{"trial_type":"turing-test","trial_index":49,"time_elapsed":103814,"internal_node_id":"0.0-8.0-2.10","subject":"msbvg6elzqpvlgw","sona":"7306"},{"rt":495.86500000441447,"stimulus":"<p>Welche Sequenz haben Sie als natürlicher empfunden?</p>","key_press":74,"test_part":"response","test_stimulus":{"position":1,"left":"bvh/vr_prediction_models/model(dmp)-dataset(return-bottle-hold)-npsi(80)-hold(2)/final-lines.txt","right":"bvh/return-bottle-hold-training2-lines.txt","att_check":false},"trial_type":"html-keyboard-response","trial_index":50,"time_elapsed":104315,"internal_node_id":"0.0-8.0-3.10","subject":"msbvg6elzqpvlgw","sona":"7306"},{"rt":322.7750000078231,"stimulus":"<p>Bereit?</p>","key_press":32,"trial_type":"html-keyboard-response","trial_index":51,"time_elapsed":104643,"internal_node_id":"0.0-8.0-0.11","subject":"msbvg6elzqpvlgw","sona":"7306"},{"rt":null,"stimulus":"<div style=\"font-size:60px;\">+</div>","key_press":null,"trial_type":"html-keyboard-response","trial_index":52,"time_elapsed":106674,"internal_node_id":"0.0-8.0-1.11","subject":"msbvg6elzqpvlgw","sona":"7306"}]