[{"rt":2724,"stimulus":"<p>Welcome!<br> Please choose your language to start the experiment in the chosen language.</p><p>Willkommen!<br> Bitte wählen Sie eine Sprache, um das Experiment in der ausgewählten Sprache zu starten</p>","button_pressed":"1","trial_type":"html-button-response","trial_index":0,"time_elapsed":2741,"internal_node_id":"0.0-0.0","subject":"8u8dyzaa18t3son","sona":"7276"},{"view_history":"[{\"page_index\":0,\"viewing_time\":1219},{\"page_index\":1,\"viewing_time\":2141},{\"page_index\":2,\"viewing_time\":3530},{\"page_index\":3,\"viewing_time\":3164},{\"page_index\":4,\"viewing_time\":2216}]","rt":12272,"trial_type":"instructions","trial_index":1,"time_elapsed":15018,"internal_node_id":"0.0-1.0-0.0","subject":"8u8dyzaa18t3son","sona":"7276"},{"rt":1236,"stimulus":"<p>Bereit?</p>","key_press":32,"trial_type":"html-keyboard-response","trial_index":2,"time_elapsed":16262,"internal_node_id":"0.0-3.0","subject":"8u8dyzaa18t3son","sona":"7276"},{"rt":null,"stimulus":"<div style=\"font-size:60px;\">+</div>","key_press":null,"trial_type":"html-keyboard-response","trial_index":3,"time_elapsed":18291,"internal_node_id":"0.0-4.0","subject":"8u8dyzaa18t3son","sona":"7276"},{"trial_type":"training","trial_index":4,"time_elapsed":21751,"internal_node_id":"0.0-5.0","subject":"8u8dyzaa18t3son","sona":"7276"},{"rt":166,"stimulus":"<p>Welche Sequenz haben Sie als natürlicher empfunden?</p>","key_press":70,"trial_type":"html-keyboard-response","trial_index":5,"time_elapsed":21920,"internal_node_id":"0.0-6.0","subject":"8u8dyzaa18t3son","sona":"7276"},{"rt":3796,"stimulus":"<p>Das Experiment startet nun.</p><p><small>Bitte drücken Sie den Knopf, wenn Sie bereit sind.</small></p>","button_pressed":"0","trial_type":"html-button-response","trial_index":6,"time_elapsed":25718,"internal_node_id":"0.0-7.0","subject":"8u8dyzaa18t3son","sona":"7276"},{"rt":1189,"stimulus":"<p>Bereit?</p>","key_press":32,"trial_type":"html-keyboard-response","trial_index":7,"time_elapsed":26913,"internal_node_id":"0.0-8.0-0.0","subject":"8u8dyzaa18t3son","sona":"7276"},{"rt":null,"stimulus":"<div style=\"font-size:60px;\">+</div>","key_press":null,"trial_type":"html-keyboard-response","trial_index":8,"time_elapsed":28942,"internal_node_id":"0.0-8.0-1.0","subject":"8u8dyzaa18t3son","sona":"7276"},{"trial_type":"turing-test","trial_index":9,"time_elapsed":34175,"internal_node_id":"0.0-8.0-2.0","subject":"8u8dyzaa18t3son","sona":"7276"},{"rt":515,"stimulus":"<p>Welche Sequenz haben Sie als natürlicher empfunden?</p>","key_press":74,"test_part":"response","test_stimulus":{"position":1,"left":"bvh/vr_prediction_models/model(vcgpdm)-dataset(return-bottle-hold)-mode(ELBO)-parts(3)-dyn(10)-lvm(25)-hold(0)/final-lines.txt","right":"bvh/return-bottle-hold-training0-lines.txt","att_check":false},"trial_type":"html-keyboard-response","trial_index":10,"time_elapsed":34695,"internal_node_id":"0.0-8.0-3.0","subject":"8u8dyzaa18t3son","sona":"7276"},{"rt":652,"stimulus":"<p>Bereit?</p>","key_press":32,"trial_type":"html-keyboard-response","trial_index":11,"time_elapsed":35351,"internal_node_id":"0.0-8.0-0.1","subject":"8u8dyzaa18t3son","sona":"7276"},{"rt":null,"stimulus":"<div style=\"font-size:60px;\">+</div>","key_press":null,"trial_type":"html-keyboard-response","trial_index":12,"time_elapsed":37375,"internal_node_id":"0.0-8.0-1.1","subject":"8u8dyzaa18t3son","sona":"7276"},{"trial_type":"turing-test","trial_index":13,"time_elapsed":41392,"internal_node_id":"0.0-8.0-2.1","subject":"8u8dyzaa18t3son","sona":"7276"},{"rt":744,"stimulus":"<p>Welche Sequenz haben Sie als natürlicher empfunden?</p>","key_press":70,"test_part":"response","test_stimulus":{"position":0,"left":"bvh/pass-bottle-hold-training0-lines.txt","right":"bvh/vr_prediction_models/model(vcgpdm)-dataset(pass-bottle-hold)-mode(ELBO)-parts(1)-dyn(20)-lvm(30)-hold(0)/final-lines.txt","att_check":false},"trial_type":"html-keyboard-response","trial_index":14,"time_elapsed":42139,"internal_node_id":"0.0-8.0-3.1","subject":"8u8dyzaa18t3son","sona":"7276"},{"rt":271,"stimulus":"<p>Bereit?</p>","key_press":32,"trial_type":"html-keyboard-response","trial_index":15,"time_elapsed":42414,"internal_node_id":"0.0-8.0-0.2","subject":"8u8dyzaa18t3son","sona":"7276"},{"rt":null,"stimulus":"<div style=\"font-size:60px;\">+</div>","key_press":null,"trial_type":"html-keyboard-response","trial_index":16,"time_elapsed":44442,"internal_node_id":"0.0-8.0-1.2","subject":"8u8dyzaa18t3son","sona":"7276"},{"trial_type":"turing-test","trial_index":17,"time_elapsed":48222,"internal_node_id":"0.0-8.0-2.2","subject":"8u8dyzaa18t3son","sona":"7276"},{"rt":412,"stimulus":"<p>Welche Sequenz haben Sie als natürlicher empfunden?</p>","key_press":74,"test_part":"response","test_stimulus":{"position":1,"left":"bvh/vr_prediction_models/model(vcgpdm)-dataset(return-bottle-hold)-mode(ELBO)-parts(1)-dyn(20)-lvm(20)-hold(3)/final-lines.txt","right":"bvh/return-bottle-hold-training3-lines.txt","att_check":false},"trial_type":"html-keyboard-response","trial_index":18,"time_elapsed":48637,"internal_node_id":"0.0-8.0-3.2","subject":"8u8dyzaa18t3son","sona":"7276"},{"rt":177,"stimulus":"<p>Bereit?</p>","key_press":32,"trial_type":"html-keyboard-response","trial_index":19,"time_elapsed":48816,"internal_node_id":"0.0-8.0-0.3","subject":"8u8dyzaa18t3son","sona":"7276"},{"rt":null,"stimulus":"<div style=\"font-size:60px;\">+</div>","key_press":null,"trial_type":"html-keyboard-response","trial_index":20,"time_elapsed":50832,"internal_node_id":"0.0-8.0-1.3","subject":"8u8dyzaa18t3son","sona":"7276"},{"trial_type":"turing-test","trial_index":21,"time_elapsed":54632,"internal_node_id":"0.0-8.0-2.3","subject":"8u8dyzaa18t3son","sona":"7276"},{"rt":260,"stimulus":"<p>Welche Sequenz haben Sie als natürlicher empfunden?</p>","key_press":74,"test_part":"response","test_stimulus":{"position":1,"left":"bvh/vr_prediction_models/model(dmp)-dataset(return-bottle-hold)-npsi(40)-hold(4)/final-lines.txt","right":"bvh/return-bottle-hold-training4-lines.txt","att_check":true},"trial_type":"html-keyboard-response","trial_index":22,"time_elapsed":54898,"internal_node_id":"0.0-8.0-3.3","subject":"8u8dyzaa18t3son","sona":"7276"},{"rt":46,"stimulus":"<p>Bereit?</p>","key_press":32,"trial_type":"html-keyboard-response","trial_index":23,"time_elapsed":54947,"internal_node_id":"0.0-8.0-0.4","subject":"8u8dyzaa18t3son","sona":"7276"},{"rt":null,"stimulus":"<div style=\"font-size:60px;\">+</div>","key_press":null,"trial_type":"html-keyboard-response","trial_index":24,"time_elapsed":56972,"internal_node_id":"0.0-8.0-1.4","subject":"8u8dyzaa18t3son","sona":"7276"},{"trial_type":"turing-test","trial_index":25,"time_elapsed":60552,"internal_node_id":"0.0-8.0-2.4","subject":"8u8dyzaa18t3son","sona":"7276"},{"rt":267,"stimulus":"<p>Welche Sequenz haben Sie als natürlicher empfunden?</p>","key_press":74,"test_part":"response","test_stimulus":{"position":1,"left":"bvh/vr_prediction_models/model(dmp)-dataset(return-bottle-hold)-npsi(90)-hold(2)/final-lines.txt","right":"bvh/return-bottle-hold-training2-lines.txt","att_check":false},"trial_type":"html-keyboard-response","trial_index":26,"time_elapsed":60822,"internal_node_id":"0.0-8.0-3.4","subject":"8u8dyzaa18t3son","sona":"7276"},{"rt":158,"stimulus":"<p>Bereit?</p>","key_press":32,"trial_type":"html-keyboard-response","trial_index":27,"time_elapsed":60983,"internal_node_id":"0.0-8.0-0.5","subject":"8u8dyzaa18t3son","sona":"7276"},{"rt":null,"stimulus":"<div style=\"font-size:60px;\">+</div>","key_press":null,"trial_type":"html-keyboard-response","trial_index":28,"time_elapsed":63012,"internal_node_id":"0.0-8.0-1.5","subject":"8u8dyzaa18t3son","sona":"7276"},{"trial_type":"turing-test","trial_index":29,"time_elapsed":68953,"internal_node_id":"0.0-8.0-2.5","subject":"8u8dyzaa18t3son","sona":"7276"},{"rt":855,"stimulus":"<p>Welche Sequenz haben Sie als natürlicher empfunden?</p>","key_press":74,"test_part":"response","test_stimulus":{"position":1,"left":"bvh/vr_prediction_models/model(vcgpdm)-dataset(return-bottle)-mode(ELBO)-parts(1)-dyn(30)-lvm(30)-hold(4)/final-lines.txt","right":"bvh/return-bottle-training4-lines.txt","att_check":false},"trial_type":"html-keyboard-response","trial_index":30,"time_elapsed":69812,"internal_node_id":"0.0-8.0-3.5","subject":"8u8dyzaa18t3son","sona":"7276"},{"rt":177,"stimulus":"<p>Bereit?</p>","key_press":32,"trial_type":"html-keyboard-response","trial_index":31,"time_elapsed":69991,"internal_node_id":"0.0-8.0-0.6","subject":"8u8dyzaa18t3son","sona":"7276"},{"rt":null,"stimulus":"<div style=\"font-size:60px;\">+</div>","key_press":null,"trial_type":"html-keyboard-response","trial_index":32,"time_elapsed":72015,"internal_node_id":"0.0-8.0-1.6","subject":"8u8dyzaa18t3son","sona":"7276"},{"trial_type":"turing-test","trial_index":33,"time_elapsed":75553,"internal_node_id":"0.0-8.0-2.6","subject":"8u8dyzaa18t3son","sona":"7276"},{"rt":266,"stimulus":"<p>Welche Sequenz haben Sie als natürlicher empfunden?</p>","key_press":70,"test_part":"response","test_stimulus":{"position":0,"left":"bvh/return-bottle-hold-training2-lines.txt","right":"bvh/vr_prediction_models/model(dmp)-dataset(return-bottle-hold)-npsi(50)-hold(2)/final-lines.txt","att_check":false},"trial_type":"html-keyboard-response","trial_index":34,"time_elapsed":75824,"internal_node_id":"0.0-8.0-3.6","subject":"8u8dyzaa18t3son","sona":"7276"},{"rt":169,"stimulus":"<p>Bereit?</p>","key_press":32,"trial_type":"html-keyboard-response","trial_index":35,"time_elapsed":75998,"internal_node_id":"0.0-8.0-0.7","subject":"8u8dyzaa18t3son","sona":"7276"},{"rt":null,"stimulus":"<div style=\"font-size:60px;\">+</div>","key_press":null,"trial_type":"html-keyboard-response","trial_index":36,"time_elapsed":78033,"internal_node_id":"0.0-8.0-1.7","subject":"8u8dyzaa18t3son","sona":"7276"},{"trial_type":"turing-test","trial_index":37,"time_elapsed":83951,"internal_node_id":"0.0-8.0-2.7","subject":"8u8dyzaa18t3son","sona":"7276"},{"rt":306,"stimulus":"<p>Welche Sequenz haben Sie als natürlicher empfunden?</p>","key_press":74,"test_part":"response","test_stimulus":{"position":0,"left":"bvh/return-bottle-training3-lines.txt","right":"bvh/vr_prediction_models/model(vcgpdm)-dataset(return-bottle)-mode(ELBO)-parts(1)-dyn(20)-lvm(20)-hold(3)/final-lines.txt","att_check":false},"trial_type":"html-keyboard-response","trial_index":38,"time_elapsed":84261,"internal_node_id":"0.0-8.0-3.7","subject":"8u8dyzaa18t3son","sona":"7276"},{"rt":97,"stimulus":"<p>Bereit?</p>","key_press":32,"trial_type":"html-keyboard-response","trial_index":39,"time_elapsed":84363,"internal_node_id":"0.0-8.0-0.8","subject":"8u8dyzaa18t3son","sona":"7276"},{"rt":null,"stimulus":"<div style=\"font-size:60px;\">+</div>","key_press":null,"trial_type":"html-keyboard-response","trial_index":40,"time_elapsed":86402,"internal_node_id":"0.0-8.0-1.8","subject":"8u8dyzaa18t3son","sona":"7276"},{"trial_type":"turing-test","trial_index":41,"time_elapsed":90011,"internal_node_id":"0.0-8.0-2.8","subject":"8u8dyzaa18t3son","sona":"7276"},{"rt":298,"stimulus":"<p>Welche Sequenz haben Sie als natürlicher empfunden?</p>","key_press":74,"test_part":"response","test_stimulus":{"position":1,"left":"bvh/vr_prediction_models/model(tmp)-dataset(pass-bottle-hold)-numprim(10)-hold(3)/final-lines.txt","right":"bvh/pass-bottle-hold-training3-lines.txt","att_check":false},"trial_type":"html-keyboard-response","trial_index":42,"time_elapsed":90313,"internal_node_id":"0.0-8.0-3.8","subject":"8u8dyzaa18t3son","sona":"7276"},{"rt":133,"stimulus":"<p>Bereit?</p>","key_press":32,"trial_type":"html-keyboard-response","trial_index":43,"time_elapsed":90451,"internal_node_id":"0.0-8.0-0.9","subject":"8u8dyzaa18t3son","sona":"7276"},{"rt":null,"stimulus":"<div style=\"font-size:60px;\">+</div>","key_press":null,"trial_type":"html-keyboard-response","trial_index":44,"time_elapsed":92491,"internal_node_id":"0.0-8.0-1.9","subject":"8u8dyzaa18t3son","sona":"7276"},{"trial_type":"turing-test","trial_index":45,"time_elapsed":95870,"internal_node_id":"0.0-8.0-2.9","subject":"8u8dyzaa18t3son","sona":"7276"},{"rt":642,"stimulus":"<p>Welche Sequenz haben Sie als natürlicher empfunden?</p>","key_press":70,"test_part":"response","test_stimulus":{"position":1,"left":"bvh/vr_prediction_models/model(dmp)-dataset(pass-bottle-hold)-npsi(90)-hold(0)/final-lines.txt","right":"bvh/pass-bottle-hold-training0-lines.txt","att_check":false},"trial_type":"html-keyboard-response","trial_index":46,"time_elapsed":96517,"internal_node_id":"0.0-8.0-3.9","subject":"8u8dyzaa18t3son","sona":"7276"},{"rt":188,"stimulus":"<p>Bereit?</p>","key_press":32,"trial_type":"html-keyboard-response","trial_index":47,"time_elapsed":96708,"internal_node_id":"0.0-8.0-0.10","subject":"8u8dyzaa18t3son","sona":"7276"},{"rt":null,"stimulus":"<div style=\"font-size:60px;\">+</div>","key_press":null,"trial_type":"html-keyboard-response","trial_index":48,"time_elapsed":98721,"internal_node_id":"0.0-8.0-1.10","subject":"8u8dyzaa18t3son","sona":"7276"},{"trial_type":"turing-test","trial_index":49,"time_elapsed":104248,"internal_node_id":"0.0-8.0-2.10","subject":"8u8dyzaa18t3son","sona":"7276"},{"rt":298,"stimulus":"<p>Welche Sequenz haben Sie als natürlicher empfunden?</p>","key_press":74,"test_part":"response","test_stimulus":{"position":1,"left":"bvh/vr_prediction_models/model(vcgpdm)-dataset(return-bottle)-mode(ELBO)-parts(3)-dyn(10)-lvm(25)-hold(0)/final-lines.txt","right":"bvh/return-bottle-training0-lines.txt","att_check":false},"trial_type":"html-keyboard-response","trial_index":50,"time_elapsed":104550,"internal_node_id":"0.0-8.0-3.10","subject":"8u8dyzaa18t3son","sona":"7276"},{"rt":117,"stimulus":"<p>Bereit?</p>","key_press":32,"trial_type":"html-keyboard-response","trial_index":51,"time_elapsed":104669,"internal_node_id":"0.0-8.0-0.11","subject":"8u8dyzaa18t3son","sona":"7276"},{"rt":null,"stimulus":"<div style=\"font-size:60px;\">+</div>","key_press":null,"trial_type":"html-keyboard-response","trial_index":52,"time_elapsed":106699,"internal_node_id":"0.0-8.0-1.11","subject":"8u8dyzaa18t3son","sona":"7276"},{"trial_type":"turing-test","trial_index":53,"time_elapsed":112618,"internal_node_id":"0.0-8.0-2.11","subject":"8u8dyzaa18t3son","sona":"7276"}]