[{"rt":1528,"stimulus":"<p>Welcome!<br> Please choose your language to start the experiment in the chosen language.</p><p>Willkommen!<br> Bitte wählen Sie eine Sprache um das Experiment in der ausgewählten Sprache zu starten</p>","button_pressed":"1","trial_type":"html-button-response","trial_index":0,"time_elapsed":1549,"internal_node_id":"0.0-0.0","subject":"v9frg7u7uvw37fg"},{"view_history":"[{\"page_index\":0,\"viewing_time\":556},{\"page_index\":1,\"viewing_time\":492},{\"page_index\":2,\"viewing_time\":463},{\"page_index\":3,\"viewing_time\":547}]","rt":2062.000000000001,"trial_type":"instructions","trial_index":1,"time_elapsed":3612,"internal_node_id":"0.0-1.0","subject":"v9frg7u7uvw37fg"},{"rt":578.0000000000009,"stimulus":"<p>Bereit?</p>","button_pressed":"0","trial_type":"html-button-response","trial_index":2,"time_elapsed":4192,"internal_node_id":"0.0-2.0","subject":"v9frg7u7uvw37fg"},{"rt":null,"stimulus":"<div style=\"font-size:60px;\">+</div>","key_press":null,"trial_type":"html-keyboard-response","trial_index":3,"time_elapsed":6199,"internal_node_id":"0.0-3.0","subject":"v9frg7u7uvw37fg"},{"trial_type":"training","trial_index":4,"time_elapsed":10544,"internal_node_id":"0.0-4.0","subject":"v9frg7u7uvw37fg"},{"rt":1002,"stimulus":"<p>Welche Sequenz haben Sie als natürlicher empfunden?</p>","button_pressed":"0","trial_type":"html-button-response","trial_index":5,"time_elapsed":11550,"internal_node_id":"0.0-5.0","subject":"v9frg7u7uvw37fg"},{"rt":868,"stimulus":"<p>Das Experiment startet nun.</p><p> Bitte drücken Sie den Knopf, wenn Sie bereit sind.</p>","button_pressed":"0","trial_type":"html-button-response","trial_index":6,"time_elapsed":12421,"internal_node_id":"0.0-6.0","subject":"v9frg7u7uvw37fg"},{"rt":769,"stimulus":"<p>Bereit?</p>","button_pressed":"0","trial_type":"html-button-response","trial_index":7,"time_elapsed":13192,"internal_node_id":"0.0-7.0-0.0","subject":"v9frg7u7uvw37fg"},{"rt":null,"stimulus":"<div style=\"font-size:60px;\">+</div>","key_press":null,"trial_type":"html-keyboard-response","trial_index":8,"time_elapsed":15197,"internal_node_id":"0.0-7.0-1.0","subject":"v9frg7u7uvw37fg"},{"trial_type":"turing-test","trial_index":9,"time_elapsed":20884,"internal_node_id":"0.0-7.0-2.0","subject":"v9frg7u7uvw37fg"},{"rt":1277,"stimulus":"<p>Welche Sequenz haben Sie als natürlicher empfunden?</p>","button_pressed":"0","test_part":"response","test_stimulus":{"position":0,"left":"bvh/pass-bottle-hold-training1-lines.txt","right":"bvh/vr_prediction_models/model(vcgpdm)-dataset(pass-bottle-hold)-mode(ELBO)-parts(1)-dyn(30)-lvm(35)-hold(1)/final-lines.txt","att_check":false},"trial_type":"html-button-response","trial_index":10,"time_elapsed":22166,"internal_node_id":"0.0-7.0-3.0","subject":"v9frg7u7uvw37fg"},{"rt":696.0000000000036,"stimulus":"<p>Bereit?</p>","button_pressed":"0","trial_type":"html-button-response","trial_index":11,"time_elapsed":22867,"internal_node_id":"0.0-7.0-0.1","subject":"v9frg7u7uvw37fg"},{"rt":null,"stimulus":"<div style=\"font-size:60px;\">+</div>","key_press":null,"trial_type":"html-keyboard-response","trial_index":12,"time_elapsed":24871,"internal_node_id":"0.0-7.0-1.1","subject":"v9frg7u7uvw37fg"},{"trial_type":"turing-test","trial_index":13,"time_elapsed":29386,"internal_node_id":"0.0-7.0-2.1","subject":"v9frg7u7uvw37fg"},{"rt":1018,"stimulus":"<p>Welche Sequenz haben Sie als natürlicher empfunden?</p>","button_pressed":"1","test_part":"response","test_stimulus":{"position":0,"left":"bvh/return-bottle-training2-lines.txt","right":"bvh/vr_prediction_models/model(tmp)-dataset(return-bottle)-numprim(10)-hold(2)/final-lines.txt","att_check":false},"trial_type":"html-button-response","trial_index":14,"time_elapsed":30409,"internal_node_id":"0.0-7.0-3.1","subject":"v9frg7u7uvw37fg"},{"rt":693.9999999999964,"stimulus":"<p>Bereit?</p>","button_pressed":"0","trial_type":"html-button-response","trial_index":15,"time_elapsed":31109,"internal_node_id":"0.0-7.0-0.2","subject":"v9frg7u7uvw37fg"},{"rt":null,"stimulus":"<div style=\"font-size:60px;\">+</div>","key_press":null,"trial_type":"html-keyboard-response","trial_index":16,"time_elapsed":33113,"internal_node_id":"0.0-7.0-1.2","subject":"v9frg7u7uvw37fg"},{"trial_type":"turing-test","trial_index":17,"time_elapsed":38183,"internal_node_id":"0.0-7.0-2.2","subject":"v9frg7u7uvw37fg"},{"rt":1312,"stimulus":"<p>Welche Sequenz haben Sie als natürlicher empfunden?</p>","button_pressed":"0","test_part":"response","test_stimulus":{"position":1,"left":"bvh/vr_prediction_models/model(vcgpdm)-dataset(return-bottle-hold)-mode(MAP)-parts(3)-hold(1)/final-lines.txt","right":"bvh/return-bottle-hold-training1-lines.txt","att_check":false},"trial_type":"html-button-response","trial_index":18,"time_elapsed":39501,"internal_node_id":"0.0-7.0-3.2","subject":"v9frg7u7uvw37fg"},{"rt":1604.0000000000073,"stimulus":"<p>Bereit?</p>","button_pressed":"0","trial_type":"html-button-response","trial_index":19,"time_elapsed":41109,"internal_node_id":"0.0-7.0-0.3","subject":"v9frg7u7uvw37fg"},{"rt":null,"stimulus":"<div style=\"font-size:60px;\">+</div>","key_press":null,"trial_type":"html-keyboard-response","trial_index":20,"time_elapsed":43112,"internal_node_id":"0.0-7.0-1.3","subject":"v9frg7u7uvw37fg"},{"trial_type":"turing-test","trial_index":21,"time_elapsed":48844,"internal_node_id":"0.0-7.0-2.3","subject":"v9frg7u7uvw37fg"},{"rt":1092,"stimulus":"<p>Welche Sequenz haben Sie als natürlicher empfunden?</p>","button_pressed":"0","test_part":"response","test_stimulus":{"position":0,"left":"bvh/return-bottle-hold-training3-lines.txt","right":"bvh/vr_prediction_models/model(vcgpdm)-dataset(return-bottle-hold)-mode(ELBO)-parts(1)-dyn(10)-lvm(30)-hold(3)/final-lines.txt","att_check":false},"trial_type":"html-button-response","trial_index":22,"time_elapsed":49942,"internal_node_id":"0.0-7.0-3.3","subject":"v9frg7u7uvw37fg"},{"rt":738,"stimulus":"<p>Bereit?</p>","button_pressed":"0","trial_type":"html-button-response","trial_index":23,"time_elapsed":50683,"internal_node_id":"0.0-7.0-0.4","subject":"v9frg7u7uvw37fg"},{"rt":null,"stimulus":"<div style=\"font-size:60px;\">+</div>","key_press":null,"trial_type":"html-keyboard-response","trial_index":24,"time_elapsed":52686,"internal_node_id":"0.0-7.0-1.4","subject":"v9frg7u7uvw37fg"},{"trial_type":"turing-test","trial_index":25,"time_elapsed":56805,"internal_node_id":"0.0-7.0-2.4","subject":"v9frg7u7uvw37fg"},{"rt":942.9999999999927,"stimulus":"<p>Welche Sequenz haben Sie als natürlicher empfunden?</p>","button_pressed":"0","test_part":"response","test_stimulus":{"position":0,"left":"bvh/return-bottle-training2-lines.txt","right":"bvh/vr_prediction_models/model(dmp)-dataset(return-bottle)-npsi(80)-hold(2)/final-lines.txt","att_check":true},"trial_type":"html-button-response","trial_index":26,"time_elapsed":57752,"internal_node_id":"0.0-7.0-3.4","subject":"v9frg7u7uvw37fg"},{"rt":533,"stimulus":"<p>Bereit?</p>","button_pressed":"0","trial_type":"html-button-response","trial_index":27,"time_elapsed":58287,"internal_node_id":"0.0-7.0-0.5","subject":"v9frg7u7uvw37fg"},{"rt":null,"stimulus":"<div style=\"font-size:60px;\">+</div>","key_press":null,"trial_type":"html-keyboard-response","trial_index":28,"time_elapsed":60290,"internal_node_id":"0.0-7.0-1.5","subject":"v9frg7u7uvw37fg"},{"trial_type":"turing-test","trial_index":29,"time_elapsed":64407,"internal_node_id":"0.0-7.0-2.5","subject":"v9frg7u7uvw37fg"},{"rt":1051,"stimulus":"<p>Welche Sequenz haben Sie als natürlicher empfunden?</p>","button_pressed":"1","test_part":"response","test_stimulus":{"position":1,"left":"bvh/vr_prediction_models/model(dmp)-dataset(pass-bottle)-npsi(60)-hold(4)/final-lines.txt","right":"bvh/pass-bottle-training4-lines.txt","att_check":true},"trial_type":"html-button-response","trial_index":30,"time_elapsed":65463,"internal_node_id":"0.0-7.0-3.5","subject":"v9frg7u7uvw37fg"},{"rt":717,"stimulus":"<p>Bereit?</p>","button_pressed":"0","trial_type":"html-button-response","trial_index":31,"time_elapsed":66184,"internal_node_id":"0.0-7.0-0.6","subject":"v9frg7u7uvw37fg"},{"rt":null,"stimulus":"<div style=\"font-size:60px;\">+</div>","key_press":null,"trial_type":"html-keyboard-response","trial_index":32,"time_elapsed":68186,"internal_node_id":"0.0-7.0-1.6","subject":"v9frg7u7uvw37fg"},{"trial_type":"turing-test","trial_index":33,"time_elapsed":72835,"internal_node_id":"0.0-7.0-2.6","subject":"v9frg7u7uvw37fg"},{"rt":895,"stimulus":"<p>Welche Sequenz haben Sie als natürlicher empfunden?</p>","button_pressed":"1","test_part":"response","test_stimulus":{"position":0,"left":"bvh/return-bottle-training4-lines.txt","right":"bvh/vr_prediction_models/model(dmp)-dataset(return-bottle)-npsi(10)-hold(4)/final-lines.txt","att_check":false},"trial_type":"html-button-response","trial_index":34,"time_elapsed":73734,"internal_node_id":"0.0-7.0-3.6","subject":"v9frg7u7uvw37fg"},{"rt":584,"stimulus":"<p>Bereit?</p>","button_pressed":"0","trial_type":"html-button-response","trial_index":35,"time_elapsed":74321,"internal_node_id":"0.0-7.0-0.7","subject":"v9frg7u7uvw37fg"},{"rt":null,"stimulus":"<div style=\"font-size:60px;\">+</div>","key_press":null,"trial_type":"html-keyboard-response","trial_index":36,"time_elapsed":76324,"internal_node_id":"0.0-7.0-1.7","subject":"v9frg7u7uvw37fg"},{"trial_type":"turing-test","trial_index":37,"time_elapsed":80745,"internal_node_id":"0.0-7.0-2.7","subject":"v9frg7u7uvw37fg"},{"rt":747,"stimulus":"<p>Welche Sequenz haben Sie als natürlicher empfunden?</p>","button_pressed":"1","test_part":"response","test_stimulus":{"position":1,"left":"bvh/vr_prediction_models/model(tmp)-dataset(pass-bottle-hold)-numprim(13)-hold(1)/final-lines.txt","right":"bvh/pass-bottle-hold-training1-lines.txt","att_check":false},"trial_type":"html-button-response","trial_index":38,"time_elapsed":81498,"internal_node_id":"0.0-7.0-3.7","subject":"v9frg7u7uvw37fg"},{"rt":765,"stimulus":"<p>Bereit?</p>","button_pressed":"0","trial_type":"html-button-response","trial_index":39,"time_elapsed":82267,"internal_node_id":"0.0-7.0-0.8","subject":"v9frg7u7uvw37fg"},{"rt":null,"stimulus":"<div style=\"font-size:60px;\">+</div>","key_press":null,"trial_type":"html-keyboard-response","trial_index":40,"time_elapsed":84271,"internal_node_id":"0.0-7.0-1.8","subject":"v9frg7u7uvw37fg"},{"trial_type":"turing-test","trial_index":41,"time_elapsed":89644,"internal_node_id":"0.0-7.0-2.8","subject":"v9frg7u7uvw37fg"},{"rt":1176.9999999999854,"stimulus":"<p>Welche Sequenz haben Sie als natürlicher empfunden?</p>","button_pressed":"0","test_part":"response","test_stimulus":{"position":0,"left":"bvh/pass-bottle-training3-lines.txt","right":"bvh/vr_prediction_models/model(vcgpdm)-dataset(pass-bottle)-mode(ELBO)-parts(3)-dyn(20)-lvm(20)-hold(3)/final-lines.txt","att_check":false},"trial_type":"html-button-response","trial_index":42,"time_elapsed":90829,"internal_node_id":"0.0-7.0-3.8","subject":"v9frg7u7uvw37fg"},{"rt":626,"stimulus":"<p>Bereit?</p>","button_pressed":"0","trial_type":"html-button-response","trial_index":43,"time_elapsed":91459,"internal_node_id":"0.0-7.0-0.9","subject":"v9frg7u7uvw37fg"},{"rt":null,"stimulus":"<div style=\"font-size:60px;\">+</div>","key_press":null,"trial_type":"html-keyboard-response","trial_index":44,"time_elapsed":93464,"internal_node_id":"0.0-7.0-1.9","subject":"v9frg7u7uvw37fg"},{"trial_type":"turing-test","trial_index":45,"time_elapsed":99079,"internal_node_id":"0.0-7.0-2.9","subject":"v9frg7u7uvw37fg"},{"rt":818,"stimulus":"<p>Welche Sequenz haben Sie als natürlicher empfunden?</p>","button_pressed":"1","test_part":"response","test_stimulus":{"position":0,"left":"bvh/return-bottle-training3-lines.txt","right":"bvh/vr_prediction_models/model(vcgpdm)-dataset(return-bottle)-mode(ELBO)-parts(3)-dyn(25)-lvm(15)-hold(3)/final-lines.txt","att_check":false},"trial_type":"html-button-response","trial_index":46,"time_elapsed":99906,"internal_node_id":"0.0-7.0-3.9","subject":"v9frg7u7uvw37fg"}]