[{"rt":2753,"stimulus":"<p>Welcome!<br> Please choose your language to start the experiment in the chosen language.</p><p>Willkommen!<br> Bitte wählen Sie eine Sprache, um das Experiment in der ausgewählten Sprache zu starten</p>","button_pressed":"1","trial_type":"html-button-response","trial_index":0,"time_elapsed":2772,"internal_node_id":"0.0-0.0","subject":"1ovr9uybm6dym9q","sona":"7363"},{"view_history":"[{\"page_index\":0,\"viewing_time\":8668},{\"page_index\":1,\"viewing_time\":5512},{\"page_index\":2,\"viewing_time\":14657},{\"page_index\":3,\"viewing_time\":5963},{\"page_index\":4,\"viewing_time\":3221}]","rt":38022,"trial_type":"instructions","trial_index":1,"time_elapsed":40796,"internal_node_id":"0.0-1.0-0.0","subject":"1ovr9uybm6dym9q","sona":"7363"},{"rt":1848,"stimulus":"<p>Bereit?</p>","key_press":32,"trial_type":"html-keyboard-response","trial_index":2,"time_elapsed":42645,"internal_node_id":"0.0-3.0","subject":"1ovr9uybm6dym9q","sona":"7363"},{"rt":null,"stimulus":"<div style=\"font-size:60px;\">+</div>","key_press":null,"trial_type":"html-keyboard-response","trial_index":3,"time_elapsed":44649,"internal_node_id":"0.0-4.0","subject":"1ovr9uybm6dym9q","sona":"7363"},{"trial_type":"training","trial_index":4,"time_elapsed":48229,"internal_node_id":"0.0-5.0","subject":"1ovr9uybm6dym9q","sona":"7363"},{"rt":1125,"stimulus":"<p>Welche Sequenz haben Sie als natürlicher empfunden?</p>","key_press":70,"trial_type":"html-keyboard-response","trial_index":5,"time_elapsed":49355,"internal_node_id":"0.0-6.0","subject":"1ovr9uybm6dym9q","sona":"7363"},{"rt":3379,"stimulus":"<p>Das Experiment startet nun.</p><p><small>Bitte drücken Sie den Knopf, wenn Sie bereit sind.</small></p>","button_pressed":"0","trial_type":"html-button-response","trial_index":6,"time_elapsed":52735,"internal_node_id":"0.0-7.0","subject":"1ovr9uybm6dym9q","sona":"7363"},{"rt":1255,"stimulus":"<p>Bereit?</p>","key_press":32,"trial_type":"html-keyboard-response","trial_index":7,"time_elapsed":53991,"internal_node_id":"0.0-8.0-0.0","subject":"1ovr9uybm6dym9q","sona":"7363"},{"rt":null,"stimulus":"<div style=\"font-size:60px;\">+</div>","key_press":null,"trial_type":"html-keyboard-response","trial_index":8,"time_elapsed":55995,"internal_node_id":"0.0-8.0-1.0","subject":"1ovr9uybm6dym9q","sona":"7363"},{"trial_type":"turing-test","trial_index":9,"time_elapsed":61766,"internal_node_id":"0.0-8.0-2.0","subject":"1ovr9uybm6dym9q","sona":"7363"},{"rt":2418.0000000000073,"stimulus":"<p>Welche Sequenz haben Sie als natürlicher empfunden?</p>","key_press":74,"test_part":"response","test_stimulus":{"position":1,"left":"bvh/vr_prediction_models/model(tmp)-dataset(return-bottle)-numprim(9)-hold(4)/final-lines.txt","right":"bvh/return-bottle-training4-lines.txt","att_check":false},"trial_type":"html-keyboard-response","trial_index":10,"time_elapsed":64186,"internal_node_id":"0.0-8.0-3.0","subject":"1ovr9uybm6dym9q","sona":"7363"},{"rt":1031,"stimulus":"<p>Bereit?</p>","key_press":32,"trial_type":"html-keyboard-response","trial_index":11,"time_elapsed":65219,"internal_node_id":"0.0-8.0-0.1","subject":"1ovr9uybm6dym9q","sona":"7363"},{"rt":null,"stimulus":"<div style=\"font-size:60px;\">+</div>","key_press":null,"trial_type":"html-keyboard-response","trial_index":12,"time_elapsed":67222,"internal_node_id":"0.0-8.0-1.1","subject":"1ovr9uybm6dym9q","sona":"7363"},{"trial_type":"turing-test","trial_index":13,"time_elapsed":72953,"internal_node_id":"0.0-8.0-2.1","subject":"1ovr9uybm6dym9q","sona":"7363"},{"rt":1211,"stimulus":"<p>Welche Sequenz haben Sie als natürlicher empfunden?</p>","key_press":74,"test_part":"response","test_stimulus":{"position":1,"left":"bvh/vr_prediction_models/model(tmp)-dataset(return-bottle)-numprim(8)-hold(4)/final-lines.txt","right":"bvh/return-bottle-training4-lines.txt","att_check":false},"trial_type":"html-keyboard-response","trial_index":14,"time_elapsed":74166,"internal_node_id":"0.0-8.0-3.1","subject":"1ovr9uybm6dym9q","sona":"7363"},{"rt":649,"stimulus":"<p>Bereit?</p>","key_press":32,"trial_type":"html-keyboard-response","trial_index":15,"time_elapsed":74817,"internal_node_id":"0.0-8.0-0.2","subject":"1ovr9uybm6dym9q","sona":"7363"},{"rt":null,"stimulus":"<div style=\"font-size:60px;\">+</div>","key_press":null,"trial_type":"html-keyboard-response","trial_index":16,"time_elapsed":76820,"internal_node_id":"0.0-8.0-1.2","subject":"1ovr9uybm6dym9q","sona":"7363"},{"trial_type":"turing-test","trial_index":17,"time_elapsed":83635,"internal_node_id":"0.0-8.0-2.2","subject":"1ovr9uybm6dym9q","sona":"7363"},{"rt":1019,"stimulus":"<p>Welche Sequenz haben Sie als natürlicher empfunden?</p>","key_press":74,"test_part":"response","test_stimulus":{"position":1,"left":"bvh/vr_prediction_models/model(vcgpdm)-dataset(pass-bottle)-mode(ELBO)-parts(1)-dyn(30)-lvm(35)-hold(0)/final-lines.txt","right":"bvh/pass-bottle-training0-lines.txt","att_check":false},"trial_type":"html-keyboard-response","trial_index":18,"time_elapsed":84657,"internal_node_id":"0.0-8.0-3.2","subject":"1ovr9uybm6dym9q","sona":"7363"},{"rt":617,"stimulus":"<p>Bereit?</p>","key_press":32,"trial_type":"html-keyboard-response","trial_index":19,"time_elapsed":85276,"internal_node_id":"0.0-8.0-0.3","subject":"1ovr9uybm6dym9q","sona":"7363"},{"rt":null,"stimulus":"<div style=\"font-size:60px;\">+</div>","key_press":null,"trial_type":"html-keyboard-response","trial_index":20,"time_elapsed":87279,"internal_node_id":"0.0-8.0-1.3","subject":"1ovr9uybm6dym9q","sona":"7363"},{"trial_type":"turing-test","trial_index":21,"time_elapsed":92675,"internal_node_id":"0.0-8.0-2.3","subject":"1ovr9uybm6dym9q","sona":"7363"},{"rt":2432,"stimulus":"<p>Welche Sequenz haben Sie als natürlicher empfunden?</p>","key_press":70,"test_part":"response","test_stimulus":{"position":1,"left":"bvh/vr_prediction_models/model(tmp)-dataset(return-bottle)-numprim(14)-hold(0)/final-lines.txt","right":"bvh/return-bottle-training0-lines.txt","att_check":false},"trial_type":"html-keyboard-response","trial_index":22,"time_elapsed":95109,"internal_node_id":"0.0-8.0-3.3","subject":"1ovr9uybm6dym9q","sona":"7363"},{"rt":1097,"stimulus":"<p>Bereit?</p>","key_press":32,"trial_type":"html-keyboard-response","trial_index":23,"time_elapsed":96208,"internal_node_id":"0.0-8.0-0.4","subject":"1ovr9uybm6dym9q","sona":"7363"},{"rt":null,"stimulus":"<div style=\"font-size:60px;\">+</div>","key_press":null,"trial_type":"html-keyboard-response","trial_index":24,"time_elapsed":98211,"internal_node_id":"0.0-8.0-1.4","subject":"1ovr9uybm6dym9q","sona":"7363"},{"trial_type":"turing-test","trial_index":25,"time_elapsed":101566,"internal_node_id":"0.0-8.0-2.4","subject":"1ovr9uybm6dym9q","sona":"7363"},{"rt":2480,"stimulus":"<p>Welche Sequenz haben Sie als natürlicher empfunden?</p>","key_press":74,"test_part":"response","test_stimulus":{"position":1,"left":"bvh/vr_prediction_models/model(vcgpdm)-dataset(pass-bottle-hold)-mode(ELBO)-parts(3)-dyn(25)-lvm(30)-hold(1)/final-lines.txt","right":"bvh/pass-bottle-hold-training1-lines.txt","att_check":false},"trial_type":"html-keyboard-response","trial_index":26,"time_elapsed":104049,"internal_node_id":"0.0-8.0-3.4","subject":"1ovr9uybm6dym9q","sona":"7363"},{"rt":509,"stimulus":"<p>Bereit?</p>","key_press":32,"trial_type":"html-keyboard-response","trial_index":27,"time_elapsed":104560,"internal_node_id":"0.0-8.0-0.5","subject":"1ovr9uybm6dym9q","sona":"7363"},{"rt":null,"stimulus":"<div style=\"font-size:60px;\">+</div>","key_press":null,"trial_type":"html-keyboard-response","trial_index":28,"time_elapsed":106563,"internal_node_id":"0.0-8.0-1.5","subject":"1ovr9uybm6dym9q","sona":"7363"},{"trial_type":"turing-test","trial_index":29,"time_elapsed":109928,"internal_node_id":"0.0-8.0-2.5","subject":"1ovr9uybm6dym9q","sona":"7363"},{"rt":532,"stimulus":"<p>Welche Sequenz haben Sie als natürlicher empfunden?</p>","key_press":70,"test_part":"response","test_stimulus":{"position":0,"left":"bvh/return-bottle-hold-training1-lines.txt","right":"bvh/vr_prediction_models/model(dmp)-dataset(return-bottle-hold)-npsi(50)-hold(1)/final-lines.txt","att_check":false},"trial_type":"html-keyboard-response","trial_index":30,"time_elapsed":110463,"internal_node_id":"0.0-8.0-3.5","subject":"1ovr9uybm6dym9q","sona":"7363"},{"rt":745,"stimulus":"<p>Bereit?</p>","key_press":32,"trial_type":"html-keyboard-response","trial_index":31,"time_elapsed":111210,"internal_node_id":"0.0-8.0-0.6","subject":"1ovr9uybm6dym9q","sona":"7363"},{"rt":null,"stimulus":"<div style=\"font-size:60px;\">+</div>","key_press":null,"trial_type":"html-keyboard-response","trial_index":32,"time_elapsed":113213,"internal_node_id":"0.0-8.0-1.6","subject":"1ovr9uybm6dym9q","sona":"7363"},{"trial_type":"turing-test","trial_index":33,"time_elapsed":117091,"internal_node_id":"0.0-8.0-2.6","subject":"1ovr9uybm6dym9q","sona":"7363"},{"rt":657,"stimulus":"<p>Welche Sequenz haben Sie als natürlicher empfunden?</p>","key_press":70,"test_part":"response","test_stimulus":{"position":0,"left":"bvh/return-bottle-hold-training4-lines.txt","right":"bvh/vr_prediction_models/model(vcgpdm)-dataset(return-bottle-hold)-mode(ELBO)-parts(1)-dyn(25)-lvm(35)-hold(4)/final-lines.txt","att_check":false},"trial_type":"html-keyboard-response","trial_index":34,"time_elapsed":117750,"internal_node_id":"0.0-8.0-3.6","subject":"1ovr9uybm6dym9q","sona":"7363"},{"rt":521,"stimulus":"<p>Bereit?</p>","key_press":32,"trial_type":"html-keyboard-response","trial_index":35,"time_elapsed":118273,"internal_node_id":"0.0-8.0-0.7","subject":"1ovr9uybm6dym9q","sona":"7363"},{"rt":null,"stimulus":"<div style=\"font-size:60px;\">+</div>","key_press":null,"trial_type":"html-keyboard-response","trial_index":36,"time_elapsed":120277,"internal_node_id":"0.0-8.0-1.7","subject":"1ovr9uybm6dym9q","sona":"7363"},{"trial_type":"turing-test","trial_index":37,"time_elapsed":124272,"internal_node_id":"0.0-8.0-2.7","subject":"1ovr9uybm6dym9q","sona":"7363"},{"rt":595.9999999999854,"stimulus":"<p>Welche Sequenz haben Sie als natürlicher empfunden?</p>","key_press":74,"test_part":"response","test_stimulus":{"position":1,"left":"bvh/vr_prediction_models/model(vcgpdm)-dataset(return-bottle-hold)-mode(ELBO)-parts(1)-dyn(25)-lvm(35)-hold(2)/final-lines.txt","right":"bvh/return-bottle-hold-training2-lines.txt","att_check":false},"trial_type":"html-keyboard-response","trial_index":38,"time_elapsed":124871,"internal_node_id":"0.0-8.0-3.7","subject":"1ovr9uybm6dym9q","sona":"7363"},{"rt":462.99999999998545,"stimulus":"<p>Bereit?</p>","key_press":32,"trial_type":"html-keyboard-response","trial_index":39,"time_elapsed":125335,"internal_node_id":"0.0-8.0-0.8","subject":"1ovr9uybm6dym9q","sona":"7363"},{"rt":null,"stimulus":"<div style=\"font-size:60px;\">+</div>","key_press":null,"trial_type":"html-keyboard-response","trial_index":40,"time_elapsed":127339,"internal_node_id":"0.0-8.0-1.8","subject":"1ovr9uybm6dym9q","sona":"7363"},{"trial_type":"turing-test","trial_index":41,"time_elapsed":131097,"internal_node_id":"0.0-8.0-2.8","subject":"1ovr9uybm6dym9q","sona":"7363"},{"rt":717,"stimulus":"<p>Welche Sequenz haben Sie als natürlicher empfunden?</p>","key_press":74,"test_part":"response","test_stimulus":{"position":1,"left":"bvh/vr_prediction_models/model(vcgpdm)-dataset(return-bottle-hold)-mode(ELBO)-parts(3)-dyn(25)-lvm(30)-hold(3)/final-lines.txt","right":"bvh/return-bottle-hold-training3-lines.txt","att_check":false},"trial_type":"html-keyboard-response","trial_index":42,"time_elapsed":131816,"internal_node_id":"0.0-8.0-3.8","subject":"1ovr9uybm6dym9q","sona":"7363"},{"rt":1950,"stimulus":"<p>Bereit?</p>","key_press":32,"trial_type":"html-keyboard-response","trial_index":43,"time_elapsed":133769,"internal_node_id":"0.0-8.0-0.9","subject":"1ovr9uybm6dym9q","sona":"7363"},{"rt":null,"stimulus":"<div style=\"font-size:60px;\">+</div>","key_press":null,"trial_type":"html-keyboard-response","trial_index":44,"time_elapsed":135772,"internal_node_id":"0.0-8.0-1.9","subject":"1ovr9uybm6dym9q","sona":"7363"},{"trial_type":"turing-test","trial_index":45,"time_elapsed":139454,"internal_node_id":"0.0-8.0-2.9","subject":"1ovr9uybm6dym9q","sona":"7363"},{"rt":974.0000000000291,"stimulus":"<p>Welche Sequenz haben Sie als natürlicher empfunden?</p>","key_press":70,"test_part":"response","test_stimulus":{"position":1,"left":"bvh/vr_prediction_models/model(vcgpdm)-dataset(pass-bottle-hold)-mode(ELBO)-parts(3)-dyn(20)-lvm(35)-hold(3)/final-lines.txt","right":"bvh/pass-bottle-hold-training3-lines.txt","att_check":false},"trial_type":"html-keyboard-response","trial_index":46,"time_elapsed":140431,"internal_node_id":"0.0-8.0-3.9","subject":"1ovr9uybm6dym9q","sona":"7363"},{"rt":12776,"stimulus":"<p>Bereit?</p>","key_press":32,"trial_type":"html-keyboard-response","trial_index":47,"time_elapsed":153210,"internal_node_id":"0.0-8.0-0.10","subject":"1ovr9uybm6dym9q","sona":"7363"},{"rt":null,"stimulus":"<div style=\"font-size:60px;\">+</div>","key_press":null,"trial_type":"html-keyboard-response","trial_index":48,"time_elapsed":155214,"internal_node_id":"0.0-8.0-1.10","subject":"1ovr9uybm6dym9q","sona":"7363"},{"trial_type":"turing-test","trial_index":49,"time_elapsed":160539,"internal_node_id":"0.0-8.0-2.10","subject":"1ovr9uybm6dym9q","sona":"7363"},{"rt":758,"stimulus":"<p>Welche Sequenz haben Sie als natürlicher empfunden?</p>","key_press":74,"test_part":"response","test_stimulus":{"position":0,"left":"bvh/return-bottle-training0-lines.txt","right":"bvh/vr_prediction_models/model(dmp)-dataset(return-bottle)-npsi(20)-hold(0)/final-lines.txt","att_check":false},"trial_type":"html-keyboard-response","trial_index":50,"time_elapsed":161299,"internal_node_id":"0.0-8.0-3.10","subject":"1ovr9uybm6dym9q","sona":"7363"},{"rt":698,"stimulus":"<p>Bereit?</p>","key_press":32,"trial_type":"html-keyboard-response","trial_index":51,"time_elapsed":161999,"internal_node_id":"0.0-8.0-0.11","subject":"1ovr9uybm6dym9q","sona":"7363"},{"rt":null,"stimulus":"<div style=\"font-size:60px;\">+</div>","key_press":null,"trial_type":"html-keyboard-response","trial_index":52,"time_elapsed":164002,"internal_node_id":"0.0-8.0-1.11","subject":"1ovr9uybm6dym9q","sona":"7363"},{"trial_type":"turing-test","trial_index":53,"time_elapsed":169430,"internal_node_id":"0.0-8.0-2.11","subject":"1ovr9uybm6dym9q","sona":"7363"},{"rt":1351.999999999971,"stimulus":"<p>Welche Sequenz haben Sie als natürlicher empfunden?</p>","key_press":70,"test_part":"response","test_stimulus":{"position":0,"left":"bvh/return-bottle-training0-lines.txt","right":"bvh/vr_prediction_models/model(vcgpdm)-dataset(return-bottle)-mode(ELBO)-parts(3)-dyn(25)-lvm(25)-hold(0)/final-lines.txt","att_check":false},"trial_type":"html-keyboard-response","trial_index":54,"time_elapsed":170784,"internal_node_id":"0.0-8.0-3.11","subject":"1ovr9uybm6dym9q","sona":"7363"},{"rt":1182.000000000029,"stimulus":"<p>Bereit?</p>","key_press":32,"trial_type":"html-keyboard-response","trial_index":55,"time_elapsed":171968,"internal_node_id":"0.0-8.0-0.12","subject":"1ovr9uybm6dym9q","sona":"7363"},{"rt":null,"stimulus":"<div style=\"font-size:60px;\">+</div>","key_press":null,"trial_type":"html-keyboard-response","trial_index":56,"time_elapsed":173972,"internal_node_id":"0.0-8.0-1.12","subject":"1ovr9uybm6dym9q","sona":"7363"},{"trial_type":"turing-test","trial_index":57,"time_elapsed":177636,"internal_node_id":"0.0-8.0-2.12","subject":"1ovr9uybm6dym9q","sona":"7363"},{"rt":819,"stimulus":"<p>Welche Sequenz haben Sie als natürlicher empfunden?</p>","key_press":74,"test_part":"response","test_stimulus":{"position":0,"left":"bvh/pass-bottle-hold-training4-lines.txt","right":"bvh/vr_prediction_models/model(vcgpdm)-dataset(pass-bottle-hold)-mode(ELBO)-parts(3)-dyn(35)-lvm(20)-hold(4)/final-lines.txt","att_check":false},"trial_type":"html-keyboard-response","trial_index":58,"time_elapsed":178457,"internal_node_id":"0.0-8.0-3.12","subject":"1ovr9uybm6dym9q","sona":"7363"},{"rt":1651,"stimulus":"<p>Bereit?</p>","key_press":32,"trial_type":"html-keyboard-response","trial_index":59,"time_elapsed":180110,"internal_node_id":"0.0-8.0-0.13","subject":"1ovr9uybm6dym9q","sona":"7363"},{"rt":null,"stimulus":"<div style=\"font-size:60px;\">+</div>","key_press":null,"trial_type":"html-keyboard-response","trial_index":60,"time_elapsed":182113,"internal_node_id":"0.0-8.0-1.13","subject":"1ovr9uybm6dym9q","sona":"7363"},{"trial_type":"turing-test","trial_index":61,"time_elapsed":185409,"internal_node_id":"0.0-8.0-2.13","subject":"1ovr9uybm6dym9q","sona":"7363"},{"rt":801.0000000000291,"stimulus":"<p>Welche Sequenz haben Sie als natürlicher empfunden?</p>","key_press":70,"test_part":"response","test_stimulus":{"position":0,"left":"bvh/pass-bottle-hold-training1-lines.txt","right":"bvh/vr_prediction_models/model(vcgpdm)-dataset(pass-bottle-hold)-mode(ELBO)-parts(1)-dyn(5)-lvm(5)-hold(1)/final-lines.txt","att_check":false},"trial_type":"html-keyboard-response","trial_index":62,"time_elapsed":186212,"internal_node_id":"0.0-8.0-3.13","subject":"1ovr9uybm6dym9q","sona":"7363"},{"rt":1148,"stimulus":"<p>Bereit?</p>","key_press":32,"trial_type":"html-keyboard-response","trial_index":63,"time_elapsed":187362,"internal_node_id":"0.0-8.0-0.14","subject":"1ovr9uybm6dym9q","sona":"7363"},{"rt":null,"stimulus":"<div style=\"font-size:60px;\">+</div>","key_press":null,"trial_type":"html-keyboard-response","trial_index":64,"time_elapsed":189365,"internal_node_id":"0.0-8.0-1.14","subject":"1ovr9uybm6dym9q","sona":"7363"},{"trial_type":"turing-test","trial_index":65,"time_elapsed":195499,"internal_node_id":"0.0-8.0-2.14","subject":"1ovr9uybm6dym9q","sona":"7363"},{"rt":587,"stimulus":"<p>Welche Sequenz haben Sie als natürlicher empfunden?</p>","key_press":70,"test_part":"response","test_stimulus":{"position":1,"left":"bvh/vr_prediction_models/model(tmp)-dataset(pass-bottle)-numprim(13)-hold(4)/final-lines.txt","right":"bvh/pass-bottle-training4-lines.txt","att_check":false},"trial_type":"html-keyboard-response","trial_index":66,"time_elapsed":196089,"internal_node_id":"0.0-8.0-3.14","subject":"1ovr9uybm6dym9q","sona":"7363"},{"rt":2421,"stimulus":"<p>Bereit?</p>","key_press":32,"trial_type":"html-keyboard-response","trial_index":67,"time_elapsed":198513,"internal_node_id":"0.0-8.0-0.15","subject":"1ovr9uybm6dym9q","sona":"7363"},{"rt":null,"stimulus":"<div style=\"font-size:60px;\">+</div>","key_press":null,"trial_type":"html-keyboard-response","trial_index":68,"time_elapsed":200516,"internal_node_id":"0.0-8.0-1.15","subject":"1ovr9uybm6dym9q","sona":"7363"},{"trial_type":"turing-test","trial_index":69,"time_elapsed":204187,"internal_node_id":"0.0-8.0-2.15","subject":"1ovr9uybm6dym9q","sona":"7363"},{"rt":671,"stimulus":"<p>Welche Sequenz haben Sie als natürlicher empfunden?</p>","key_press":70,"test_part":"response","test_stimulus":{"position":1,"left":"bvh/vr_prediction_models/model(dmp)-dataset(return-bottle-hold)-npsi(70)-hold(3)/final-lines.txt","right":"bvh/return-bottle-hold-training3-lines.txt","att_check":false},"trial_type":"html-keyboard-response","trial_index":70,"time_elapsed":204861,"internal_node_id":"0.0-8.0-3.15","subject":"1ovr9uybm6dym9q","sona":"7363"},{"rt":544,"stimulus":"<p>Bereit?</p>","key_press":32,"trial_type":"html-keyboard-response","trial_index":71,"time_elapsed":205406,"internal_node_id":"0.0-8.0-0.16","subject":"1ovr9uybm6dym9q","sona":"7363"},{"rt":null,"stimulus":"<div style=\"font-size:60px;\">+</div>","key_press":null,"trial_type":"html-keyboard-response","trial_index":72,"time_elapsed":207410,"internal_node_id":"0.0-8.0-1.16","subject":"1ovr9uybm6dym9q","sona":"7363"},{"trial_type":"turing-test","trial_index":73,"time_elapsed":214003,"internal_node_id":"0.0-8.0-2.16","subject":"1ovr9uybm6dym9q","sona":"7363"},{"rt":563,"stimulus":"<p>Welche Sequenz haben Sie als natürlicher empfunden?</p>","key_press":74,"test_part":"response","test_stimulus":{"position":1,"left":"bvh/vr_prediction_models/model(tmp)-dataset(return-bottle)-numprim(8)-hold(2)/final-lines.txt","right":"bvh/return-bottle-training2-lines.txt","att_check":false},"trial_type":"html-keyboard-response","trial_index":74,"time_elapsed":214567,"internal_node_id":"0.0-8.0-3.16","subject":"1ovr9uybm6dym9q","sona":"7363"},{"rt":551,"stimulus":"<p>Bereit?</p>","key_press":32,"trial_type":"html-keyboard-response","trial_index":75,"time_elapsed":215119,"internal_node_id":"0.0-8.0-0.17","subject":"1ovr9uybm6dym9q","sona":"7363"},{"rt":null,"stimulus":"<div style=\"font-size:60px;\">+</div>","key_press":null,"trial_type":"html-keyboard-response","trial_index":76,"time_elapsed":217118,"internal_node_id":"0.0-8.0-1.17","subject":"1ovr9uybm6dym9q","sona":"7363"},{"trial_type":"turing-test","trial_index":77,"time_elapsed":220290,"internal_node_id":"0.0-8.0-2.17","subject":"1ovr9uybm6dym9q","sona":"7363"},{"rt":6,"stimulus":"<p>Welche Sequenz haben Sie als natürlicher empfunden?</p>","key_press":70,"test_part":"response","test_stimulus":{"position":0,"left":"bvh/pass-bottle-hold-training1-lines.txt","right":"bvh/vr_prediction_models/model(dmp)-dataset(pass-bottle-hold)-npsi(90)-hold(1)/final-lines.txt","att_check":false},"trial_type":"html-keyboard-response","trial_index":78,"time_elapsed":220300,"internal_node_id":"0.0-8.0-3.17","subject":"1ovr9uybm6dym9q","sona":"7363"},{"rt":742,"stimulus":"<p>Bereit?</p>","key_press":32,"trial_type":"html-keyboard-response","trial_index":79,"time_elapsed":221044,"internal_node_id":"0.0-8.0-0.18","subject":"1ovr9uybm6dym9q","sona":"7363"},{"rt":null,"stimulus":"<div style=\"font-size:60px;\">+</div>","key_press":null,"trial_type":"html-keyboard-response","trial_index":80,"time_elapsed":223044,"internal_node_id":"0.0-8.0-1.18","subject":"1ovr9uybm6dym9q","sona":"7363"},{"trial_type":"turing-test","trial_index":81,"time_elapsed":226309,"internal_node_id":"0.0-8.0-2.18","subject":"1ovr9uybm6dym9q","sona":"7363"},{"rt":376.9999999999709,"stimulus":"<p>Welche Sequenz haben Sie als natürlicher empfunden?</p>","key_press":74,"test_part":"response","test_stimulus":{"position":0,"left":"bvh/pass-bottle-hold-training0-lines.txt","right":"bvh/vr_prediction_models/model(dmp)-dataset(pass-bottle-hold)-npsi(50)-hold(0)/final-lines.txt","att_check":false},"trial_type":"html-keyboard-response","trial_index":82,"time_elapsed":226688,"internal_node_id":"0.0-8.0-3.18","subject":"1ovr9uybm6dym9q","sona":"7363"},{"rt":1713,"stimulus":"<p>Bereit?</p>","key_press":32,"trial_type":"html-keyboard-response","trial_index":83,"time_elapsed":228401,"internal_node_id":"0.0-8.0-0.19","subject":"1ovr9uybm6dym9q","sona":"7363"},{"rt":null,"stimulus":"<div style=\"font-size:60px;\">+</div>","key_press":null,"trial_type":"html-keyboard-response","trial_index":84,"time_elapsed":230404,"internal_node_id":"0.0-8.0-1.19","subject":"1ovr9uybm6dym9q","sona":"7363"},{"trial_type":"turing-test","trial_index":85,"time_elapsed":236247,"internal_node_id":"0.0-8.0-2.19","subject":"1ovr9uybm6dym9q","sona":"7363"},{"rt":4498,"stimulus":"<p>Welche Sequenz haben Sie als natürlicher empfunden?</p>","key_press":74,"test_part":"response","test_stimulus":{"position":0,"left":"bvh/pass-bottle-training3-lines.txt","right":"bvh/vr_prediction_models/model(dmp)-dataset(pass-bottle)-npsi(100)-hold(3)/final-lines.txt","att_check":false},"trial_type":"html-keyboard-response","trial_index":86,"time_elapsed":240746,"internal_node_id":"0.0-8.0-3.19","subject":"1ovr9uybm6dym9q","sona":"7363"},{"rt":593.9999999999709,"stimulus":"<p>Bereit?</p>","key_press":32,"trial_type":"html-keyboard-response","trial_index":87,"time_elapsed":241344,"internal_node_id":"0.0-8.0-0.20","subject":"1ovr9uybm6dym9q","sona":"7363"},{"rt":null,"stimulus":"<div style=\"font-size:60px;\">+</div>","key_press":null,"trial_type":"html-keyboard-response","trial_index":88,"time_elapsed":243346,"internal_node_id":"0.0-8.0-1.20","subject":"1ovr9uybm6dym9q","sona":"7363"},{"trial_type":"turing-test","trial_index":89,"time_elapsed":249640,"internal_node_id":"0.0-8.0-2.20","subject":"1ovr9uybm6dym9q","sona":"7363"},{"rt":807,"stimulus":"<p>Welche Sequenz haben Sie als natürlicher empfunden?</p>","key_press":70,"test_part":"response","test_stimulus":{"position":0,"left":"bvh/pass-bottle-training2-lines.txt","right":"bvh/vr_prediction_models/model(vcgpdm)-dataset(pass-bottle)-mode(ELBO)-parts(1)-dyn(10)-lvm(30)-hold(2)/final-lines.txt","att_check":false},"trial_type":"html-keyboard-response","trial_index":90,"time_elapsed":250449,"internal_node_id":"0.0-8.0-3.20","subject":"1ovr9uybm6dym9q","sona":"7363"},{"rt":615,"stimulus":"<p>Bereit?</p>","key_press":32,"trial_type":"html-keyboard-response","trial_index":91,"time_elapsed":251066,"internal_node_id":"0.0-8.0-0.21","subject":"1ovr9uybm6dym9q","sona":"7363"},{"rt":null,"stimulus":"<div style=\"font-size:60px;\">+</div>","key_press":null,"trial_type":"html-keyboard-response","trial_index":92,"time_elapsed":253069,"internal_node_id":"0.0-8.0-1.21","subject":"1ovr9uybm6dym9q","sona":"7363"},{"trial_type":"turing-test","trial_index":93,"time_elapsed":259582,"internal_node_id":"0.0-8.0-2.21","subject":"1ovr9uybm6dym9q","sona":"7363"},{"rt":939.0000000000291,"stimulus":"<p>Welche Sequenz haben Sie als natürlicher empfunden?</p>","key_press":70,"test_part":"response","test_stimulus":{"position":0,"left":"bvh/return-bottle-training2-lines.txt","right":"bvh/vr_prediction_models/model(tmp)-dataset(return-bottle)-numprim(3)-hold(2)/final-lines.txt","att_check":false},"trial_type":"html-keyboard-response","trial_index":94,"time_elapsed":260523,"internal_node_id":"0.0-8.0-3.21","subject":"1ovr9uybm6dym9q","sona":"7363"},{"rt":715.0000000000291,"stimulus":"<p>Bereit?</p>","key_press":32,"trial_type":"html-keyboard-response","trial_index":95,"time_elapsed":261241,"internal_node_id":"0.0-8.0-0.22","subject":"1ovr9uybm6dym9q","sona":"7363"},{"rt":null,"stimulus":"<div style=\"font-size:60px;\">+</div>","key_press":null,"trial_type":"html-keyboard-response","trial_index":96,"time_elapsed":263244,"internal_node_id":"0.0-8.0-1.22","subject":"1ovr9uybm6dym9q","sona":"7363"},{"trial_type":"turing-test","trial_index":97,"time_elapsed":269324,"internal_node_id":"0.0-8.0-2.22","subject":"1ovr9uybm6dym9q","sona":"7363"},{"rt":455.9999999999418,"stimulus":"<p>Welche Sequenz haben Sie als natürlicher empfunden?</p>","key_press":74,"test_part":"response","test_stimulus":{"position":1,"left":"bvh/vr_prediction_models/model(dmp)-dataset(return-bottle)-npsi(90)-hold(1)/final-lines.txt","right":"bvh/return-bottle-training1-lines.txt","att_check":true},"trial_type":"html-keyboard-response","trial_index":98,"time_elapsed":269783,"internal_node_id":"0.0-8.0-3.22","subject":"1ovr9uybm6dym9q","sona":"7363"},{"rt":738,"stimulus":"<p>Bereit?</p>","key_press":32,"trial_type":"html-keyboard-response","trial_index":99,"time_elapsed":270522,"internal_node_id":"0.0-8.0-0.23","subject":"1ovr9uybm6dym9q","sona":"7363"},{"rt":null,"stimulus":"<div style=\"font-size:60px;\">+</div>","key_press":null,"trial_type":"html-keyboard-response","trial_index":100,"time_elapsed":272525,"internal_node_id":"0.0-8.0-1.23","subject":"1ovr9uybm6dym9q","sona":"7363"},{"trial_type":"turing-test","trial_index":101,"time_elapsed":275814,"internal_node_id":"0.0-8.0-2.23","subject":"1ovr9uybm6dym9q","sona":"7363"},{"rt":473.0000000000582,"stimulus":"<p>Welche Sequenz haben Sie als natürlicher empfunden?</p>","key_press":70,"test_part":"response","test_stimulus":{"position":1,"left":"bvh/vr_prediction_models/model(dmp)-dataset(return-bottle-hold)-npsi(90)-hold(1)/final-lines.txt","right":"bvh/return-bottle-hold-training1-lines.txt","att_check":false},"trial_type":"html-keyboard-response","trial_index":102,"time_elapsed":276290,"internal_node_id":"0.0-8.0-3.23","subject":"1ovr9uybm6dym9q","sona":"7363"},{"rt":505,"stimulus":"<p>Bereit?</p>","key_press":32,"trial_type":"html-keyboard-response","trial_index":103,"time_elapsed":276797,"internal_node_id":"0.0-8.0-0.24","subject":"1ovr9uybm6dym9q","sona":"7363"},{"rt":null,"stimulus":"<div style=\"font-size:60px;\">+</div>","key_press":null,"trial_type":"html-keyboard-response","trial_index":104,"time_elapsed":278800,"internal_node_id":"0.0-8.0-1.24","subject":"1ovr9uybm6dym9q","sona":"7363"},{"trial_type":"turing-test","trial_index":105,"time_elapsed":282465,"internal_node_id":"0.0-8.0-2.24","subject":"1ovr9uybm6dym9q","sona":"7363"},{"rt":583,"stimulus":"<p>Welche Sequenz haben Sie als natürlicher empfunden?</p>","key_press":74,"test_part":"response","test_stimulus":{"position":1,"left":"bvh/vr_prediction_models/model(dmp)-dataset(return-bottle-hold)-npsi(60)-hold(4)/final-lines.txt","right":"bvh/return-bottle-hold-training4-lines.txt","att_check":true},"trial_type":"html-keyboard-response","trial_index":106,"time_elapsed":283051,"internal_node_id":"0.0-8.0-3.24","subject":"1ovr9uybm6dym9q","sona":"7363"},{"rt":785.0000000000582,"stimulus":"<p>Bereit?</p>","key_press":32,"trial_type":"html-keyboard-response","trial_index":107,"time_elapsed":283839,"internal_node_id":"0.0-8.0-0.25","subject":"1ovr9uybm6dym9q","sona":"7363"},{"rt":null,"stimulus":"<div style=\"font-size:60px;\">+</div>","key_press":null,"trial_type":"html-keyboard-response","trial_index":108,"time_elapsed":285842,"internal_node_id":"0.0-8.0-1.25","subject":"1ovr9uybm6dym9q","sona":"7363"},{"trial_type":"turing-test","trial_index":109,"time_elapsed":291484,"internal_node_id":"0.0-8.0-2.25","subject":"1ovr9uybm6dym9q","sona":"7363"},{"rt":1345,"stimulus":"<p>Welche Sequenz haben Sie als natürlicher empfunden?</p>","key_press":70,"test_part":"response","test_stimulus":{"position":0,"left":"bvh/pass-bottle-training1-lines.txt","right":"bvh/vr_prediction_models/model(vcgpdm)-dataset(pass-bottle)-mode(ELBO)-parts(3)-dyn(10)-lvm(30)-hold(1)/final-lines.txt","att_check":false},"trial_type":"html-keyboard-response","trial_index":110,"time_elapsed":292832,"internal_node_id":"0.0-8.0-3.25","subject":"1ovr9uybm6dym9q","sona":"7363"},{"rt":746,"stimulus":"<p>Bereit?</p>","key_press":32,"trial_type":"html-keyboard-response","trial_index":111,"time_elapsed":293581,"internal_node_id":"0.0-8.0-0.26","subject":"1ovr9uybm6dym9q","sona":"7363"},{"rt":null,"stimulus":"<div style=\"font-size:60px;\">+</div>","key_press":null,"trial_type":"html-keyboard-response","trial_index":112,"time_elapsed":295584,"internal_node_id":"0.0-8.0-1.26","subject":"1ovr9uybm6dym9q","sona":"7363"},{"trial_type":"turing-test","trial_index":113,"time_elapsed":299316,"internal_node_id":"0.0-8.0-2.26","subject":"1ovr9uybm6dym9q","sona":"7363"},{"rt":838,"stimulus":"<p>Welche Sequenz haben Sie als natürlicher empfunden?</p>","key_press":74,"test_part":"response","test_stimulus":{"position":1,"left":"bvh/vr_prediction_models/model(vcgpdm)-dataset(pass-bottle-hold)-mode(ELBO)-parts(3)-dyn(15)-lvm(30)-hold(4)/final-lines.txt","right":"bvh/pass-bottle-hold-training4-lines.txt","att_check":false},"trial_type":"html-keyboard-response","trial_index":114,"time_elapsed":300157,"internal_node_id":"0.0-8.0-3.26","subject":"1ovr9uybm6dym9q","sona":"7363"},{"rt":994,"stimulus":"<p>Bereit?</p>","key_press":32,"trial_type":"html-keyboard-response","trial_index":115,"time_elapsed":301153,"internal_node_id":"0.0-8.0-0.27","subject":"1ovr9uybm6dym9q","sona":"7363"},{"rt":null,"stimulus":"<div style=\"font-size:60px;\">+</div>","key_press":null,"trial_type":"html-keyboard-response","trial_index":116,"time_elapsed":303157,"internal_node_id":"0.0-8.0-1.27","subject":"1ovr9uybm6dym9q","sona":"7363"},{"trial_type":"turing-test","trial_index":117,"time_elapsed":308541,"internal_node_id":"0.0-8.0-2.27","subject":"1ovr9uybm6dym9q","sona":"7363"},{"rt":391,"stimulus":"<p>Welche Sequenz haben Sie als natürlicher empfunden?</p>","key_press":70,"test_part":"response","test_stimulus":{"position":1,"left":"bvh/vr_prediction_models/model(tmp)-dataset(pass-bottle)-numprim(10)-hold(1)/final-lines.txt","right":"bvh/pass-bottle-training1-lines.txt","att_check":false},"trial_type":"html-keyboard-response","trial_index":118,"time_elapsed":308936,"internal_node_id":"0.0-8.0-3.27","subject":"1ovr9uybm6dym9q","sona":"7363"},{"rt":1151.0000000000582,"stimulus":"<p>Bereit?</p>","key_press":32,"trial_type":"html-keyboard-response","trial_index":119,"time_elapsed":310089,"internal_node_id":"0.0-8.0-0.28","subject":"1ovr9uybm6dym9q","sona":"7363"},{"rt":null,"stimulus":"<div style=\"font-size:60px;\">+</div>","key_press":null,"trial_type":"html-keyboard-response","trial_index":120,"time_elapsed":312093,"internal_node_id":"0.0-8.0-1.28","subject":"1ovr9uybm6dym9q","sona":"7363"},{"trial_type":"turing-test","trial_index":121,"time_elapsed":318770,"internal_node_id":"0.0-8.0-2.28","subject":"1ovr9uybm6dym9q","sona":"7363"},{"rt":834,"stimulus":"<p>Welche Sequenz haben Sie als natürlicher empfunden?</p>","key_press":70,"test_part":"response","test_stimulus":{"position":0,"left":"bvh/pass-bottle-training0-lines.txt","right":"bvh/vr_prediction_models/model(dmp)-dataset(pass-bottle)-npsi(100)-hold(0)/final-lines.txt","att_check":true},"trial_type":"html-keyboard-response","trial_index":122,"time_elapsed":319606,"internal_node_id":"0.0-8.0-3.28","subject":"1ovr9uybm6dym9q","sona":"7363"},{"rt":865,"stimulus":"<p>Bereit?</p>","key_press":32,"trial_type":"html-keyboard-response","trial_index":123,"time_elapsed":320474,"internal_node_id":"0.0-8.0-0.29","subject":"1ovr9uybm6dym9q","sona":"7363"},{"rt":null,"stimulus":"<div style=\"font-size:60px;\">+</div>","key_press":null,"trial_type":"html-keyboard-response","trial_index":124,"time_elapsed":322478,"internal_node_id":"0.0-8.0-1.29","subject":"1ovr9uybm6dym9q","sona":"7363"},{"trial_type":"turing-test","trial_index":125,"time_elapsed":328107,"internal_node_id":"0.0-8.0-2.29","subject":"1ovr9uybm6dym9q","sona":"7363"},{"rt":860,"stimulus":"<p>Welche Sequenz haben Sie als natürlicher empfunden?</p>","key_press":70,"test_part":"response","test_stimulus":{"position":1,"left":"bvh/vr_prediction_models/model(tmp)-dataset(return-bottle)-numprim(8)-hold(4)/final-lines.txt","right":"bvh/return-bottle-training4-lines.txt","att_check":false},"trial_type":"html-keyboard-response","trial_index":126,"time_elapsed":328970,"internal_node_id":"0.0-8.0-3.29","subject":"1ovr9uybm6dym9q","sona":"7363"},{"rt":550,"stimulus":"<p>Bereit?</p>","key_press":32,"trial_type":"html-keyboard-response","trial_index":127,"time_elapsed":329522,"internal_node_id":"0.0-8.0-0.30","subject":"1ovr9uybm6dym9q","sona":"7363"},{"rt":null,"stimulus":"<div style=\"font-size:60px;\">+</div>","key_press":null,"trial_type":"html-keyboard-response","trial_index":128,"time_elapsed":331524,"internal_node_id":"0.0-8.0-1.30","subject":"1ovr9uybm6dym9q","sona":"7363"},{"trial_type":"turing-test","trial_index":129,"time_elapsed":335035,"internal_node_id":"0.0-8.0-2.30","subject":"1ovr9uybm6dym9q","sona":"7363"},{"rt":684,"stimulus":"<p>Welche Sequenz haben Sie als natürlicher empfunden?</p>","key_press":74,"test_part":"response","test_stimulus":{"position":1,"left":"bvh/vr_prediction_models/model(tmp)-dataset(pass-bottle-hold)-numprim(7)-hold(3)/final-lines.txt","right":"bvh/pass-bottle-hold-training3-lines.txt","att_check":false},"trial_type":"html-keyboard-response","trial_index":130,"time_elapsed":335721,"internal_node_id":"0.0-8.0-3.30","subject":"1ovr9uybm6dym9q","sona":"7363"},{"rt":602,"stimulus":"<p>Bereit?</p>","key_press":32,"trial_type":"html-keyboard-response","trial_index":131,"time_elapsed":336326,"internal_node_id":"0.0-8.0-0.31","subject":"1ovr9uybm6dym9q","sona":"7363"},{"rt":null,"stimulus":"<div style=\"font-size:60px;\">+</div>","key_press":null,"trial_type":"html-keyboard-response","trial_index":132,"time_elapsed":338331,"internal_node_id":"0.0-8.0-1.31","subject":"1ovr9uybm6dym9q","sona":"7363"},{"trial_type":"turing-test","trial_index":133,"time_elapsed":343462,"internal_node_id":"0.0-8.0-2.31","subject":"1ovr9uybm6dym9q","sona":"7363"},{"rt":741.9999999999418,"stimulus":"<p>Welche Sequenz haben Sie als natürlicher empfunden?</p>","key_press":74,"test_part":"response","test_stimulus":{"position":0,"left":"bvh/return-bottle-hold-training0-lines.txt","right":"bvh/vr_prediction_models/model(tmp)-dataset(return-bottle-hold)-numprim(7)-hold(0)/final-lines.txt","att_check":false},"trial_type":"html-keyboard-response","trial_index":134,"time_elapsed":344208,"internal_node_id":"0.0-8.0-3.31","subject":"1ovr9uybm6dym9q","sona":"7363"},{"rt":814,"stimulus":"<p>Bereit?</p>","key_press":32,"trial_type":"html-keyboard-response","trial_index":135,"time_elapsed":345024,"internal_node_id":"0.0-8.0-0.32","subject":"1ovr9uybm6dym9q","sona":"7363"},{"rt":null,"stimulus":"<div style=\"font-size:60px;\">+</div>","key_press":null,"trial_type":"html-keyboard-response","trial_index":136,"time_elapsed":347027,"internal_node_id":"0.0-8.0-1.32","subject":"1ovr9uybm6dym9q","sona":"7363"},{"trial_type":"turing-test","trial_index":137,"time_elapsed":350669,"internal_node_id":"0.0-8.0-2.32","subject":"1ovr9uybm6dym9q","sona":"7363"},{"rt":101,"stimulus":"<p>Welche Sequenz haben Sie als natürlicher empfunden?</p>","key_press":70,"test_part":"response","test_stimulus":{"position":0,"left":"bvh/return-bottle-hold-training2-lines.txt","right":"bvh/vr_prediction_models/model(vcgpdm)-dataset(return-bottle-hold)-mode(ELBO)-parts(1)-dyn(35)-lvm(10)-hold(2)/final-lines.txt","att_check":false},"trial_type":"html-keyboard-response","trial_index":138,"time_elapsed":350772,"internal_node_id":"0.0-8.0-3.32","subject":"1ovr9uybm6dym9q","sona":"7363"},{"rt":1696,"stimulus":"<p>Bereit?</p>","key_press":32,"trial_type":"html-keyboard-response","trial_index":139,"time_elapsed":352471,"internal_node_id":"0.0-8.0-0.33","subject":"1ovr9uybm6dym9q","sona":"7363"},{"rt":null,"stimulus":"<div style=\"font-size:60px;\">+</div>","key_press":null,"trial_type":"html-keyboard-response","trial_index":140,"time_elapsed":354474,"internal_node_id":"0.0-8.0-1.33","subject":"1ovr9uybm6dym9q","sona":"7363"},{"trial_type":"turing-test","trial_index":141,"time_elapsed":359799,"internal_node_id":"0.0-8.0-2.33","subject":"1ovr9uybm6dym9q","sona":"7363"},{"rt":534,"stimulus":"<p>Welche Sequenz haben Sie als natürlicher empfunden?</p>","key_press":74,"test_part":"response","test_stimulus":{"position":1,"left":"bvh/vr_prediction_models/model(dmp)-dataset(return-bottle)-npsi(60)-hold(0)/final-lines.txt","right":"bvh/return-bottle-training0-lines.txt","att_check":false},"trial_type":"html-keyboard-response","trial_index":142,"time_elapsed":360335,"internal_node_id":"0.0-8.0-3.33","subject":"1ovr9uybm6dym9q","sona":"7363"},{"rt":836,"stimulus":"<p>Bereit?</p>","key_press":32,"trial_type":"html-keyboard-response","trial_index":143,"time_elapsed":361174,"internal_node_id":"0.0-8.0-0.34","subject":"1ovr9uybm6dym9q","sona":"7363"},{"rt":null,"stimulus":"<div style=\"font-size:60px;\">+</div>","key_press":null,"trial_type":"html-keyboard-response","trial_index":144,"time_elapsed":363177,"internal_node_id":"0.0-8.0-1.34","subject":"1ovr9uybm6dym9q","sona":"7363"},{"trial_type":"turing-test","trial_index":145,"time_elapsed":366702,"internal_node_id":"0.0-8.0-2.34","subject":"1ovr9uybm6dym9q","sona":"7363"},{"rt":864,"stimulus":"<p>Welche Sequenz haben Sie als natürlicher empfunden?</p>","key_press":74,"test_part":"response","test_stimulus":{"position":1,"left":"bvh/vr_prediction_models/model(tmp)-dataset(pass-bottle-hold)-numprim(13)-hold(4)/final-lines.txt","right":"bvh/pass-bottle-hold-training4-lines.txt","att_check":false},"trial_type":"html-keyboard-response","trial_index":146,"time_elapsed":367569,"internal_node_id":"0.0-8.0-3.34","subject":"1ovr9uybm6dym9q","sona":"7363"},{"rt":522,"stimulus":"<p>Bereit?</p>","key_press":32,"trial_type":"html-keyboard-response","trial_index":147,"time_elapsed":368094,"internal_node_id":"0.0-8.0-0.35","subject":"1ovr9uybm6dym9q","sona":"7363"},{"rt":null,"stimulus":"<div style=\"font-size:60px;\">+</div>","key_press":null,"trial_type":"html-keyboard-response","trial_index":148,"time_elapsed":370097,"internal_node_id":"0.0-8.0-1.35","subject":"1ovr9uybm6dym9q","sona":"7363"},{"trial_type":"turing-test","trial_index":149,"time_elapsed":375815,"internal_node_id":"0.0-8.0-2.35","subject":"1ovr9uybm6dym9q","sona":"7363"},{"rt":2856,"stimulus":"<p>Welche Sequenz haben Sie als natürlicher empfunden?</p>","key_press":74,"test_part":"response","test_stimulus":{"position":0,"left":"bvh/pass-bottle-training1-lines.txt","right":"bvh/vr_prediction_models/model(vcgpdm)-dataset(pass-bottle)-mode(ELBO)-parts(3)-dyn(25)-lvm(15)-hold(1)/final-lines.txt","att_check":false},"trial_type":"html-keyboard-response","trial_index":150,"time_elapsed":378674,"internal_node_id":"0.0-8.0-3.35","subject":"1ovr9uybm6dym9q","sona":"7363"},{"rt":728,"stimulus":"<p>Bereit?</p>","key_press":32,"trial_type":"html-keyboard-response","trial_index":151,"time_elapsed":379405,"internal_node_id":"0.0-8.0-0.36","subject":"1ovr9uybm6dym9q","sona":"7363"},{"rt":null,"stimulus":"<div style=\"font-size:60px;\">+</div>","key_press":null,"trial_type":"html-keyboard-response","trial_index":152,"time_elapsed":381408,"internal_node_id":"0.0-8.0-1.36","subject":"1ovr9uybm6dym9q","sona":"7363"},{"trial_type":"turing-test","trial_index":153,"time_elapsed":387467,"internal_node_id":"0.0-8.0-2.36","subject":"1ovr9uybm6dym9q","sona":"7363"},{"rt":1604,"stimulus":"<p>Welche Sequenz haben Sie als natürlicher empfunden?</p>","key_press":70,"test_part":"response","test_stimulus":{"position":1,"left":"bvh/vr_prediction_models/model(dmp)-dataset(pass-bottle)-npsi(100)-hold(2)/final-lines.txt","right":"bvh/pass-bottle-training2-lines.txt","att_check":false},"trial_type":"html-keyboard-response","trial_index":154,"time_elapsed":389073,"internal_node_id":"0.0-8.0-3.36","subject":"1ovr9uybm6dym9q","sona":"7363"},{"rt":693,"stimulus":"<p>Bereit?</p>","key_press":32,"trial_type":"html-keyboard-response","trial_index":155,"time_elapsed":389769,"internal_node_id":"0.0-8.0-0.37","subject":"1ovr9uybm6dym9q","sona":"7363"},{"rt":null,"stimulus":"<div style=\"font-size:60px;\">+</div>","key_press":null,"trial_type":"html-keyboard-response","trial_index":156,"time_elapsed":391772,"internal_node_id":"0.0-8.0-1.37","subject":"1ovr9uybm6dym9q","sona":"7363"},{"trial_type":"turing-test","trial_index":157,"time_elapsed":398622,"internal_node_id":"0.0-8.0-2.37","subject":"1ovr9uybm6dym9q","sona":"7363"},{"rt":865,"stimulus":"<p>Welche Sequenz haben Sie als natürlicher empfunden?</p>","key_press":74,"test_part":"response","test_stimulus":{"position":1,"left":"bvh/vr_prediction_models/model(vcgpdm)-dataset(pass-bottle)-mode(ELBO)-parts(1)-dyn(15)-lvm(35)-hold(0)/final-lines.txt","right":"bvh/pass-bottle-training0-lines.txt","att_check":false},"trial_type":"html-keyboard-response","trial_index":158,"time_elapsed":399490,"internal_node_id":"0.0-8.0-3.37","subject":"1ovr9uybm6dym9q","sona":"7363"},{"rt":900,"stimulus":"<p>Bereit?</p>","key_press":32,"trial_type":"html-keyboard-response","trial_index":159,"time_elapsed":400393,"internal_node_id":"0.0-8.0-0.38","subject":"1ovr9uybm6dym9q","sona":"7363"},{"rt":null,"stimulus":"<div style=\"font-size:60px;\">+</div>","key_press":null,"trial_type":"html-keyboard-response","trial_index":160,"time_elapsed":402396,"internal_node_id":"0.0-8.0-1.38","subject":"1ovr9uybm6dym9q","sona":"7363"},{"trial_type":"turing-test","trial_index":161,"time_elapsed":406196,"internal_node_id":"0.0-8.0-2.38","subject":"1ovr9uybm6dym9q","sona":"7363"},{"rt":922,"stimulus":"<p>Welche Sequenz haben Sie als natürlicher empfunden?</p>","key_press":70,"test_part":"response","test_stimulus":{"position":1,"left":"bvh/vr_prediction_models/model(vcgpdm)-dataset(pass-bottle-hold)-mode(ELBO)-parts(1)-dyn(20)-lvm(20)-hold(3)/final-lines.txt","right":"bvh/pass-bottle-hold-training3-lines.txt","att_check":false},"trial_type":"html-keyboard-response","trial_index":162,"time_elapsed":407121,"internal_node_id":"0.0-8.0-3.38","subject":"1ovr9uybm6dym9q","sona":"7363"},{"rt":478,"stimulus":"<p>Bereit?</p>","key_press":32,"trial_type":"html-keyboard-response","trial_index":163,"time_elapsed":407602,"internal_node_id":"0.0-8.0-0.39","subject":"1ovr9uybm6dym9q","sona":"7363"},{"rt":null,"stimulus":"<div style=\"font-size:60px;\">+</div>","key_press":null,"trial_type":"html-keyboard-response","trial_index":164,"time_elapsed":409605,"internal_node_id":"0.0-8.0-1.39","subject":"1ovr9uybm6dym9q","sona":"7363"},{"trial_type":"turing-test","trial_index":165,"time_elapsed":413901,"internal_node_id":"0.0-8.0-2.39","subject":"1ovr9uybm6dym9q","sona":"7363"},{"rt":506,"stimulus":"<p>Welche Sequenz haben Sie als natürlicher empfunden?</p>","key_press":70,"test_part":"response","test_stimulus":{"position":0,"left":"bvh/pass-bottle-hold-training2-lines.txt","right":"bvh/vr_prediction_models/model(vcgpdm)-dataset(pass-bottle-hold)-mode(ELBO)-parts(1)-dyn(20)-lvm(30)-hold(2)/final-lines.txt","att_check":false},"trial_type":"html-keyboard-response","trial_index":166,"time_elapsed":414411,"internal_node_id":"0.0-8.0-3.39","subject":"1ovr9uybm6dym9q","sona":"7363"},{"rt":638.0000000000582,"stimulus":"<p>Bereit?</p>","key_press":32,"trial_type":"html-keyboard-response","trial_index":167,"time_elapsed":415051,"internal_node_id":"0.0-8.0-0.40","subject":"1ovr9uybm6dym9q","sona":"7363"},{"rt":null,"stimulus":"<div style=\"font-size:60px;\">+</div>","key_press":null,"trial_type":"html-keyboard-response","trial_index":168,"time_elapsed":417054,"internal_node_id":"0.0-8.0-1.40","subject":"1ovr9uybm6dym9q","sona":"7363"},{"trial_type":"turing-test","trial_index":169,"time_elapsed":420199,"internal_node_id":"0.0-8.0-2.40","subject":"1ovr9uybm6dym9q","sona":"7363"},{"rt":1068,"stimulus":"<p>Welche Sequenz haben Sie als natürlicher empfunden?</p>","key_press":74,"test_part":"response","test_stimulus":{"position":0,"left":"bvh/pass-bottle-hold-training1-lines.txt","right":"bvh/vr_prediction_models/model(tmp)-dataset(pass-bottle-hold)-numprim(4)-hold(1)/final-lines.txt","att_check":false},"trial_type":"html-keyboard-response","trial_index":170,"time_elapsed":421269,"internal_node_id":"0.0-8.0-3.40","subject":"1ovr9uybm6dym9q","sona":"7363"},{"rt":658,"stimulus":"<p>Bereit?</p>","key_press":32,"trial_type":"html-keyboard-response","trial_index":171,"time_elapsed":421931,"internal_node_id":"0.0-8.0-0.41","subject":"1ovr9uybm6dym9q","sona":"7363"},{"rt":null,"stimulus":"<div style=\"font-size:60px;\">+</div>","key_press":null,"trial_type":"html-keyboard-response","trial_index":172,"time_elapsed":423934,"internal_node_id":"0.0-8.0-1.41","subject":"1ovr9uybm6dym9q","sona":"7363"},{"trial_type":"turing-test","trial_index":173,"time_elapsed":429451,"internal_node_id":"0.0-8.0-2.41","subject":"1ovr9uybm6dym9q","sona":"7363"},{"rt":1022,"stimulus":"<p>Welche Sequenz haben Sie als natürlicher empfunden?</p>","key_press":70,"test_part":"response","test_stimulus":{"position":1,"left":"bvh/vr_prediction_models/model(vcgpdm)-dataset(return-bottle)-mode(MAP)-parts(3)-hold(0)/final-lines.txt","right":"bvh/return-bottle-training0-lines.txt","att_check":false},"trial_type":"html-keyboard-response","trial_index":174,"time_elapsed":430475,"internal_node_id":"0.0-8.0-3.41","subject":"1ovr9uybm6dym9q","sona":"7363"},{"rt":538,"stimulus":"<p>Bereit?</p>","key_press":32,"trial_type":"html-keyboard-response","trial_index":175,"time_elapsed":431015,"internal_node_id":"0.0-8.0-0.42","subject":"1ovr9uybm6dym9q","sona":"7363"},{"rt":null,"stimulus":"<div style=\"font-size:60px;\">+</div>","key_press":null,"trial_type":"html-keyboard-response","trial_index":176,"time_elapsed":433018,"internal_node_id":"0.0-8.0-1.42","subject":"1ovr9uybm6dym9q","sona":"7363"},{"trial_type":"turing-test","trial_index":177,"time_elapsed":436808,"internal_node_id":"0.0-8.0-2.42","subject":"1ovr9uybm6dym9q","sona":"7363"},{"rt":873,"stimulus":"<p>Welche Sequenz haben Sie als natürlicher empfunden?</p>","key_press":74,"test_part":"response","test_stimulus":{"position":1,"left":"bvh/vr_prediction_models/model(vcgpdm)-dataset(return-bottle-hold)-mode(MAP)-parts(1)-hold(3)/final-lines.txt","right":"bvh/return-bottle-hold-training3-lines.txt","att_check":false},"trial_type":"html-keyboard-response","trial_index":178,"time_elapsed":437684,"internal_node_id":"0.0-8.0-3.42","subject":"1ovr9uybm6dym9q","sona":"7363"},{"rt":542,"stimulus":"<p>Bereit?</p>","key_press":32,"trial_type":"html-keyboard-response","trial_index":179,"time_elapsed":438229,"internal_node_id":"0.0-8.0-0.43","subject":"1ovr9uybm6dym9q","sona":"7363"},{"rt":null,"stimulus":"<div style=\"font-size:60px;\">+</div>","key_press":null,"trial_type":"html-keyboard-response","trial_index":180,"time_elapsed":440232,"internal_node_id":"0.0-8.0-1.43","subject":"1ovr9uybm6dym9q","sona":"7363"},{"trial_type":"turing-test","trial_index":181,"time_elapsed":443633,"internal_node_id":"0.0-8.0-2.43","subject":"1ovr9uybm6dym9q","sona":"7363"},{"rt":322,"stimulus":"<p>Welche Sequenz haben Sie als natürlicher empfunden?</p>","key_press":70,"test_part":"response","test_stimulus":{"position":0,"left":"bvh/return-bottle-hold-training2-lines.txt","right":"bvh/vr_prediction_models/model(tmp)-dataset(return-bottle-hold)-numprim(15)-hold(2)/final-lines.txt","att_check":false},"trial_type":"html-keyboard-response","trial_index":182,"time_elapsed":443957,"internal_node_id":"0.0-8.0-3.43","subject":"1ovr9uybm6dym9q","sona":"7363"},{"rt":737,"stimulus":"<p>Bereit?</p>","key_press":32,"trial_type":"html-keyboard-response","trial_index":183,"time_elapsed":444696,"internal_node_id":"0.0-8.0-0.44","subject":"1ovr9uybm6dym9q","sona":"7363"},{"rt":null,"stimulus":"<div style=\"font-size:60px;\">+</div>","key_press":null,"trial_type":"html-keyboard-response","trial_index":184,"time_elapsed":446699,"internal_node_id":"0.0-8.0-1.44","subject":"1ovr9uybm6dym9q","sona":"7363"},{"trial_type":"turing-test","trial_index":185,"time_elapsed":452381,"internal_node_id":"0.0-8.0-2.44","subject":"1ovr9uybm6dym9q","sona":"7363"},{"rt":870,"stimulus":"<p>Welche Sequenz haben Sie als natürlicher empfunden?</p>","key_press":74,"test_part":"response","test_stimulus":{"position":1,"left":"bvh/vr_prediction_models/model(dmp)-dataset(pass-bottle)-npsi(10)-hold(4)/final-lines.txt","right":"bvh/pass-bottle-training4-lines.txt","att_check":false},"trial_type":"html-keyboard-response","trial_index":186,"time_elapsed":453254,"internal_node_id":"0.0-8.0-3.44","subject":"1ovr9uybm6dym9q","sona":"7363"},{"rt":741,"stimulus":"<p>Bereit?</p>","key_press":32,"trial_type":"html-keyboard-response","trial_index":187,"time_elapsed":453998,"internal_node_id":"0.0-8.0-0.45","subject":"1ovr9uybm6dym9q","sona":"7363"},{"rt":null,"stimulus":"<div style=\"font-size:60px;\">+</div>","key_press":null,"trial_type":"html-keyboard-response","trial_index":188,"time_elapsed":456000,"internal_node_id":"0.0-8.0-1.45","subject":"1ovr9uybm6dym9q","sona":"7363"},{"trial_type":"turing-test","trial_index":189,"time_elapsed":462301,"internal_node_id":"0.0-8.0-2.45","subject":"1ovr9uybm6dym9q","sona":"7363"},{"rt":693,"stimulus":"<p>Welche Sequenz haben Sie als natürlicher empfunden?</p>","key_press":74,"test_part":"response","test_stimulus":{"position":1,"left":"bvh/vr_prediction_models/model(vcgpdm)-dataset(pass-bottle)-mode(ELBO)-parts(1)-dyn(30)-lvm(20)-hold(2)/final-lines.txt","right":"bvh/pass-bottle-training2-lines.txt","att_check":false},"trial_type":"html-keyboard-response","trial_index":190,"time_elapsed":462997,"internal_node_id":"0.0-8.0-3.45","subject":"1ovr9uybm6dym9q","sona":"7363"},{"rt":1000.9999999999418,"stimulus":"<p>Bereit?</p>","key_press":32,"trial_type":"html-keyboard-response","trial_index":191,"time_elapsed":464001,"internal_node_id":"0.0-8.0-0.46","subject":"1ovr9uybm6dym9q","sona":"7363"},{"rt":null,"stimulus":"<div style=\"font-size:60px;\">+</div>","key_press":null,"trial_type":"html-keyboard-response","trial_index":192,"time_elapsed":466002,"internal_node_id":"0.0-8.0-1.46","subject":"1ovr9uybm6dym9q","sona":"7363"},{"trial_type":"turing-test","trial_index":193,"time_elapsed":469326,"internal_node_id":"0.0-8.0-2.46","subject":"1ovr9uybm6dym9q","sona":"7363"},{"rt":1050,"stimulus":"<p>Welche Sequenz haben Sie als natürlicher empfunden?</p>","key_press":70,"test_part":"response","test_stimulus":{"position":1,"left":"bvh/vr_prediction_models/model(dmp)-dataset(pass-bottle-hold)-npsi(60)-hold(2)/final-lines.txt","right":"bvh/pass-bottle-hold-training2-lines.txt","att_check":false},"trial_type":"html-keyboard-response","trial_index":194,"time_elapsed":470379,"internal_node_id":"0.0-8.0-3.46","subject":"1ovr9uybm6dym9q","sona":"7363"},{"rt":650,"stimulus":"<p>Bereit?</p>","key_press":32,"trial_type":"html-keyboard-response","trial_index":195,"time_elapsed":471031,"internal_node_id":"0.0-8.0-0.47","subject":"1ovr9uybm6dym9q","sona":"7363"},{"rt":null,"stimulus":"<div style=\"font-size:60px;\">+</div>","key_press":null,"trial_type":"html-keyboard-response","trial_index":196,"time_elapsed":473034,"internal_node_id":"0.0-8.0-1.47","subject":"1ovr9uybm6dym9q","sona":"7363"},{"trial_type":"turing-test","trial_index":197,"time_elapsed":476393,"internal_node_id":"0.0-8.0-2.47","subject":"1ovr9uybm6dym9q","sona":"7363"},{"rt":874,"stimulus":"<p>Welche Sequenz haben Sie als natürlicher empfunden?</p>","key_press":70,"test_part":"response","test_stimulus":{"position":0,"left":"bvh/pass-bottle-hold-training1-lines.txt","right":"bvh/vr_prediction_models/model(vcgpdm)-dataset(pass-bottle-hold)-mode(MAP)-parts(3)-hold(1)/final-lines.txt","att_check":false},"trial_type":"html-keyboard-response","trial_index":198,"time_elapsed":477270,"internal_node_id":"0.0-8.0-3.47","subject":"1ovr9uybm6dym9q","sona":"7363"},{"rt":1739.9999999999418,"stimulus":"<p>Bereit?</p>","key_press":32,"trial_type":"html-keyboard-response","trial_index":199,"time_elapsed":479012,"internal_node_id":"0.0-8.0-0.48","subject":"1ovr9uybm6dym9q","sona":"7363"},{"rt":null,"stimulus":"<div style=\"font-size:60px;\">+</div>","key_press":null,"trial_type":"html-keyboard-response","trial_index":200,"time_elapsed":481015,"internal_node_id":"0.0-8.0-1.48","subject":"1ovr9uybm6dym9q","sona":"7363"},{"trial_type":"turing-test","trial_index":201,"time_elapsed":486857,"internal_node_id":"0.0-8.0-2.48","subject":"1ovr9uybm6dym9q","sona":"7363"},{"rt":358,"stimulus":"<p>Welche Sequenz haben Sie als natürlicher empfunden?</p>","key_press":70,"test_part":"response","test_stimulus":{"position":1,"left":"bvh/vr_prediction_models/model(dmp)-dataset(return-bottle)-npsi(80)-hold(3)/final-lines.txt","right":"bvh/return-bottle-training3-lines.txt","att_check":false},"trial_type":"html-keyboard-response","trial_index":202,"time_elapsed":487218,"internal_node_id":"0.0-8.0-3.48","subject":"1ovr9uybm6dym9q","sona":"7363"},{"rt":753.0000000000582,"stimulus":"<p>Bereit?</p>","key_press":32,"trial_type":"html-keyboard-response","trial_index":203,"time_elapsed":487974,"internal_node_id":"0.0-8.0-0.49","subject":"1ovr9uybm6dym9q","sona":"7363"},{"rt":null,"stimulus":"<div style=\"font-size:60px;\">+</div>","key_press":null,"trial_type":"html-keyboard-response","trial_index":204,"time_elapsed":489977,"internal_node_id":"0.0-8.0-1.49","subject":"1ovr9uybm6dym9q","sona":"7363"},{"trial_type":"turing-test","trial_index":205,"time_elapsed":493696,"internal_node_id":"0.0-8.0-2.49","subject":"1ovr9uybm6dym9q","sona":"7363"},{"rt":1492.9999999999418,"stimulus":"<p>Welche Sequenz haben Sie als natürlicher empfunden?</p>","key_press":70,"test_part":"response","test_stimulus":{"position":0,"left":"bvh/return-bottle-hold-training3-lines.txt","right":"bvh/vr_prediction_models/model(vcgpdm)-dataset(return-bottle-hold)-mode(ELBO)-parts(3)-dyn(10)-lvm(10)-hold(3)/final-lines.txt","att_check":false},"trial_type":"html-keyboard-response","trial_index":206,"time_elapsed":495193,"internal_node_id":"0.0-8.0-3.49","subject":"1ovr9uybm6dym9q","sona":"7363"},{"rt":1000,"stimulus":"<p>Bereit?</p>","key_press":32,"trial_type":"html-keyboard-response","trial_index":207,"time_elapsed":496196,"internal_node_id":"0.0-8.0-0.50","subject":"1ovr9uybm6dym9q","sona":"7363"},{"rt":null,"stimulus":"<div style=\"font-size:60px;\">+</div>","key_press":null,"trial_type":"html-keyboard-response","trial_index":208,"time_elapsed":498199,"internal_node_id":"0.0-8.0-1.50","subject":"1ovr9uybm6dym9q","sona":"7363"},{"trial_type":"turing-test","trial_index":209,"time_elapsed":505087,"internal_node_id":"0.0-8.0-2.50","subject":"1ovr9uybm6dym9q","sona":"7363"},{"rt":1106,"stimulus":"<p>Welche Sequenz haben Sie als natürlicher empfunden?</p>","key_press":74,"test_part":"response","test_stimulus":{"position":0,"left":"bvh/pass-bottle-training0-lines.txt","right":"bvh/vr_prediction_models/model(vcgpdm)-dataset(pass-bottle)-mode(ELBO)-parts(1)-dyn(35)-lvm(30)-hold(0)/final-lines.txt","att_check":false},"trial_type":"html-keyboard-response","trial_index":210,"time_elapsed":506196,"internal_node_id":"0.0-8.0-3.50","subject":"1ovr9uybm6dym9q","sona":"7363"},{"rt":582,"stimulus":"<p>Bereit?</p>","key_press":32,"trial_type":"html-keyboard-response","trial_index":211,"time_elapsed":506780,"internal_node_id":"0.0-8.0-0.51","subject":"1ovr9uybm6dym9q","sona":"7363"},{"rt":null,"stimulus":"<div style=\"font-size:60px;\">+</div>","key_press":null,"trial_type":"html-keyboard-response","trial_index":212,"time_elapsed":508784,"internal_node_id":"0.0-8.0-1.51","subject":"1ovr9uybm6dym9q","sona":"7363"},{"trial_type":"turing-test","trial_index":213,"time_elapsed":512274,"internal_node_id":"0.0-8.0-2.51","subject":"1ovr9uybm6dym9q","sona":"7363"},{"rt":805.0000000000582,"stimulus":"<p>Welche Sequenz haben Sie als natürlicher empfunden?</p>","key_press":74,"test_part":"response","test_stimulus":{"position":1,"left":"bvh/vr_prediction_models/model(dmp)-dataset(return-bottle-hold)-npsi(70)-hold(3)/final-lines.txt","right":"bvh/return-bottle-hold-training3-lines.txt","att_check":false},"trial_type":"html-keyboard-response","trial_index":214,"time_elapsed":513082,"internal_node_id":"0.0-8.0-3.51","subject":"1ovr9uybm6dym9q","sona":"7363"},{"rt":655.0000000001164,"stimulus":"<p>Bereit?</p>","key_press":32,"trial_type":"html-keyboard-response","trial_index":215,"time_elapsed":513740,"internal_node_id":"0.0-8.0-0.52","subject":"1ovr9uybm6dym9q","sona":"7363"},{"rt":null,"stimulus":"<div style=\"font-size:60px;\">+</div>","key_press":null,"trial_type":"html-keyboard-response","trial_index":216,"time_elapsed":515742,"internal_node_id":"0.0-8.0-1.52","subject":"1ovr9uybm6dym9q","sona":"7363"},{"trial_type":"turing-test","trial_index":217,"time_elapsed":522042,"internal_node_id":"0.0-8.0-2.52","subject":"1ovr9uybm6dym9q","sona":"7363"},{"rt":1464.0000000000582,"stimulus":"<p>Welche Sequenz haben Sie als natürlicher empfunden?</p>","key_press":70,"test_part":"response","test_stimulus":{"position":0,"left":"bvh/pass-bottle-training2-lines.txt","right":"bvh/vr_prediction_models/model(vcgpdm)-dataset(pass-bottle)-mode(ELBO)-parts(1)-dyn(10)-lvm(5)-hold(2)/final-lines.txt","att_check":false},"trial_type":"html-keyboard-response","trial_index":218,"time_elapsed":523510,"internal_node_id":"0.0-8.0-3.52","subject":"1ovr9uybm6dym9q","sona":"7363"},{"rt":594,"stimulus":"<p>Bereit?</p>","key_press":32,"trial_type":"html-keyboard-response","trial_index":219,"time_elapsed":524106,"internal_node_id":"0.0-8.0-0.53","subject":"1ovr9uybm6dym9q","sona":"7363"},{"rt":null,"stimulus":"<div style=\"font-size:60px;\">+</div>","key_press":null,"trial_type":"html-keyboard-response","trial_index":220,"time_elapsed":526110,"internal_node_id":"0.0-8.0-1.53","subject":"1ovr9uybm6dym9q","sona":"7363"},{"trial_type":"turing-test","trial_index":221,"time_elapsed":531722,"internal_node_id":"0.0-8.0-2.53","subject":"1ovr9uybm6dym9q","sona":"7363"},{"rt":1091.9999999998836,"stimulus":"<p>Welche Sequenz haben Sie als natürlicher empfunden?</p>","key_press":74,"test_part":"response","test_stimulus":{"position":1,"left":"bvh/vr_prediction_models/model(vcgpdm)-dataset(pass-bottle)-mode(ELBO)-parts(1)-dyn(30)-lvm(20)-hold(1)/final-lines.txt","right":"bvh/pass-bottle-training1-lines.txt","att_check":false},"trial_type":"html-keyboard-response","trial_index":222,"time_elapsed":532817,"internal_node_id":"0.0-8.0-3.53","subject":"1ovr9uybm6dym9q","sona":"7363"},{"rt":525,"stimulus":"<p>Bereit?</p>","key_press":32,"trial_type":"html-keyboard-response","trial_index":223,"time_elapsed":533346,"internal_node_id":"0.0-8.0-0.54","subject":"1ovr9uybm6dym9q","sona":"7363"},{"rt":null,"stimulus":"<div style=\"font-size:60px;\">+</div>","key_press":null,"trial_type":"html-keyboard-response","trial_index":224,"time_elapsed":535348,"internal_node_id":"0.0-8.0-1.54","subject":"1ovr9uybm6dym9q","sona":"7363"},{"trial_type":"turing-test","trial_index":225,"time_elapsed":538865,"internal_node_id":"0.0-8.0-2.54","subject":"1ovr9uybm6dym9q","sona":"7363"},{"rt":748,"stimulus":"<p>Welche Sequenz haben Sie als natürlicher empfunden?</p>","key_press":74,"test_part":"response","test_stimulus":{"position":1,"left":"bvh/vr_prediction_models/model(vcgpdm)-dataset(pass-bottle-hold)-mode(ELBO)-parts(1)-dyn(20)-lvm(30)-hold(0)/final-lines.txt","right":"bvh/pass-bottle-hold-training0-lines.txt","att_check":false},"trial_type":"html-keyboard-response","trial_index":226,"time_elapsed":539616,"internal_node_id":"0.0-8.0-3.54","subject":"1ovr9uybm6dym9q","sona":"7363"},{"rt":721,"stimulus":"<p>Bereit?</p>","key_press":32,"trial_type":"html-keyboard-response","trial_index":227,"time_elapsed":540340,"internal_node_id":"0.0-8.0-0.55","subject":"1ovr9uybm6dym9q","sona":"7363"},{"rt":null,"stimulus":"<div style=\"font-size:60px;\">+</div>","key_press":null,"trial_type":"html-keyboard-response","trial_index":228,"time_elapsed":542343,"internal_node_id":"0.0-8.0-1.55","subject":"1ovr9uybm6dym9q","sona":"7363"},{"trial_type":"turing-test","trial_index":229,"time_elapsed":547984,"internal_node_id":"0.0-8.0-2.55","subject":"1ovr9uybm6dym9q","sona":"7363"},{"rt":757,"stimulus":"<p>Welche Sequenz haben Sie als natürlicher empfunden?</p>","key_press":70,"test_part":"response","test_stimulus":{"position":0,"left":"bvh/return-bottle-training0-lines.txt","right":"bvh/vr_prediction_models/model(vcgpdm)-dataset(return-bottle)-mode(ELBO)-parts(1)-dyn(15)-lvm(35)-hold(0)/final-lines.txt","att_check":false},"trial_type":"html-keyboard-response","trial_index":230,"time_elapsed":548744,"internal_node_id":"0.0-8.0-3.55","subject":"1ovr9uybm6dym9q","sona":"7363"},{"rt":736,"stimulus":"<p>Bereit?</p>","key_press":32,"trial_type":"html-keyboard-response","trial_index":231,"time_elapsed":549483,"internal_node_id":"0.0-8.0-0.56","subject":"1ovr9uybm6dym9q","sona":"7363"},{"rt":null,"stimulus":"<div style=\"font-size:60px;\">+</div>","key_press":null,"trial_type":"html-keyboard-response","trial_index":232,"time_elapsed":551487,"internal_node_id":"0.0-8.0-1.56","subject":"1ovr9uybm6dym9q","sona":"7363"},{"trial_type":"turing-test","trial_index":233,"time_elapsed":556892,"internal_node_id":"0.0-8.0-2.56","subject":"1ovr9uybm6dym9q","sona":"7363"},{"rt":858,"stimulus":"<p>Welche Sequenz haben Sie als natürlicher empfunden?</p>","key_press":74,"test_part":"response","test_stimulus":{"position":1,"left":"bvh/vr_prediction_models/model(tmp)-dataset(pass-bottle)-numprim(6)-hold(1)/final-lines.txt","right":"bvh/pass-bottle-training1-lines.txt","att_check":false},"trial_type":"html-keyboard-response","trial_index":234,"time_elapsed":557754,"internal_node_id":"0.0-8.0-3.56","subject":"1ovr9uybm6dym9q","sona":"7363"},{"rt":559,"stimulus":"<p>Bereit?</p>","key_press":32,"trial_type":"html-keyboard-response","trial_index":235,"time_elapsed":558315,"internal_node_id":"0.0-8.0-0.57","subject":"1ovr9uybm6dym9q","sona":"7363"},{"rt":null,"stimulus":"<div style=\"font-size:60px;\">+</div>","key_press":null,"trial_type":"html-keyboard-response","trial_index":236,"time_elapsed":560320,"internal_node_id":"0.0-8.0-1.57","subject":"1ovr9uybm6dym9q","sona":"7363"},{"trial_type":"turing-test","trial_index":237,"time_elapsed":566248,"internal_node_id":"0.0-8.0-2.57","subject":"1ovr9uybm6dym9q","sona":"7363"},{"rt":628.9999999998836,"stimulus":"<p>Welche Sequenz haben Sie als natürlicher empfunden?</p>","key_press":74,"test_part":"response","test_stimulus":{"position":1,"left":"bvh/vr_prediction_models/model(vcgpdm)-dataset(return-bottle)-mode(ELBO)-parts(3)-dyn(20)-lvm(15)-hold(3)/final-lines.txt","right":"bvh/return-bottle-training3-lines.txt","att_check":false},"trial_type":"html-keyboard-response","trial_index":238,"time_elapsed":566880,"internal_node_id":"0.0-8.0-3.57","subject":"1ovr9uybm6dym9q","sona":"7363"},{"rt":617,"stimulus":"<p>Bereit?</p>","key_press":32,"trial_type":"html-keyboard-response","trial_index":239,"time_elapsed":567499,"internal_node_id":"0.0-8.0-0.58","subject":"1ovr9uybm6dym9q","sona":"7363"},{"rt":null,"stimulus":"<div style=\"font-size:60px;\">+</div>","key_press":null,"trial_type":"html-keyboard-response","trial_index":240,"time_elapsed":569502,"internal_node_id":"0.0-8.0-1.58","subject":"1ovr9uybm6dym9q","sona":"7363"},{"trial_type":"turing-test","trial_index":241,"time_elapsed":576378,"internal_node_id":"0.0-8.0-2.58","subject":"1ovr9uybm6dym9q","sona":"7363"},{"rt":804.9999999998836,"stimulus":"<p>Welche Sequenz haben Sie als natürlicher empfunden?</p>","key_press":74,"test_part":"response","test_stimulus":{"position":1,"left":"bvh/vr_prediction_models/model(vcgpdm)-dataset(pass-bottle)-mode(ELBO)-parts(1)-dyn(20)-lvm(30)-hold(0)/final-lines.txt","right":"bvh/pass-bottle-training0-lines.txt","att_check":false},"trial_type":"html-keyboard-response","trial_index":242,"time_elapsed":577186,"internal_node_id":"0.0-8.0-3.58","subject":"1ovr9uybm6dym9q","sona":"7363"},{"rt":574,"stimulus":"<p>Bereit?</p>","key_press":32,"trial_type":"html-keyboard-response","trial_index":243,"time_elapsed":577763,"internal_node_id":"0.0-8.0-0.59","subject":"1ovr9uybm6dym9q","sona":"7363"},{"rt":null,"stimulus":"<div style=\"font-size:60px;\">+</div>","key_press":null,"trial_type":"html-keyboard-response","trial_index":244,"time_elapsed":579766,"internal_node_id":"0.0-8.0-1.59","subject":"1ovr9uybm6dym9q","sona":"7363"},{"trial_type":"turing-test","trial_index":245,"time_elapsed":585343,"internal_node_id":"0.0-8.0-2.59","subject":"1ovr9uybm6dym9q","sona":"7363"},{"rt":712,"stimulus":"<p>Welche Sequenz haben Sie als natürlicher empfunden?</p>","key_press":70,"test_part":"response","test_stimulus":{"position":0,"left":"bvh/return-bottle-training0-lines.txt","right":"bvh/vr_prediction_models/model(vcgpdm)-dataset(return-bottle)-mode(ELBO)-parts(3)-dyn(25)-lvm(30)-hold(0)/final-lines.txt","att_check":false},"trial_type":"html-keyboard-response","trial_index":246,"time_elapsed":586058,"internal_node_id":"0.0-8.0-3.59","subject":"1ovr9uybm6dym9q","sona":"7363"},{"rt":555,"stimulus":"<p>Bereit?</p>","key_press":32,"trial_type":"html-keyboard-response","trial_index":247,"time_elapsed":586616,"internal_node_id":"0.0-8.0-0.60","subject":"1ovr9uybm6dym9q","sona":"7363"},{"rt":null,"stimulus":"<div style=\"font-size:60px;\">+</div>","key_press":null,"trial_type":"html-keyboard-response","trial_index":248,"time_elapsed":588620,"internal_node_id":"0.0-8.0-1.60","subject":"1ovr9uybm6dym9q","sona":"7363"},{"trial_type":"turing-test","trial_index":249,"time_elapsed":594551,"internal_node_id":"0.0-8.0-2.60","subject":"1ovr9uybm6dym9q","sona":"7363"},{"rt":678,"stimulus":"<p>Welche Sequenz haben Sie als natürlicher empfunden?</p>","key_press":70,"test_part":"response","test_stimulus":{"position":0,"left":"bvh/return-bottle-training3-lines.txt","right":"bvh/vr_prediction_models/model(vcgpdm)-dataset(return-bottle)-mode(ELBO)-parts(1)-dyn(10)-lvm(5)-hold(3)/final-lines.txt","att_check":false},"trial_type":"html-keyboard-response","trial_index":250,"time_elapsed":595233,"internal_node_id":"0.0-8.0-3.60","subject":"1ovr9uybm6dym9q","sona":"7363"},{"rt":584,"stimulus":"<p>Bereit?</p>","key_press":32,"trial_type":"html-keyboard-response","trial_index":251,"time_elapsed":595820,"internal_node_id":"0.0-8.0-0.61","subject":"1ovr9uybm6dym9q","sona":"7363"},{"rt":null,"stimulus":"<div style=\"font-size:60px;\">+</div>","key_press":null,"trial_type":"html-keyboard-response","trial_index":252,"time_elapsed":597823,"internal_node_id":"0.0-8.0-1.61","subject":"1ovr9uybm6dym9q","sona":"7363"},{"trial_type":"turing-test","trial_index":253,"time_elapsed":601228,"internal_node_id":"0.0-8.0-2.61","subject":"1ovr9uybm6dym9q","sona":"7363"},{"rt":1773,"stimulus":"<p>Welche Sequenz haben Sie als natürlicher empfunden?</p>","key_press":70,"test_part":"response","test_stimulus":{"position":0,"left":"bvh/return-bottle-hold-training2-lines.txt","right":"bvh/vr_prediction_models/model(tmp)-dataset(return-bottle-hold)-numprim(10)-hold(2)/final-lines.txt","att_check":false},"trial_type":"html-keyboard-response","trial_index":254,"time_elapsed":603004,"internal_node_id":"0.0-8.0-3.61","subject":"1ovr9uybm6dym9q","sona":"7363"},{"rt":365,"stimulus":"<p>Bereit?</p>","key_press":32,"trial_type":"html-keyboard-response","trial_index":255,"time_elapsed":603373,"internal_node_id":"0.0-8.0-0.62","subject":"1ovr9uybm6dym9q","sona":"7363"},{"rt":null,"stimulus":"<div style=\"font-size:60px;\">+</div>","key_press":null,"trial_type":"html-keyboard-response","trial_index":256,"time_elapsed":605377,"internal_node_id":"0.0-8.0-1.62","subject":"1ovr9uybm6dym9q","sona":"7363"},{"trial_type":"turing-test","trial_index":257,"time_elapsed":608985,"internal_node_id":"0.0-8.0-2.62","subject":"1ovr9uybm6dym9q","sona":"7363"},{"rt":612,"stimulus":"<p>Welche Sequenz haben Sie als natürlicher empfunden?</p>","key_press":74,"test_part":"response","test_stimulus":{"position":1,"left":"bvh/vr_prediction_models/model(vcgpdm)-dataset(return-bottle-hold)-mode(ELBO)-parts(3)-dyn(25)-lvm(25)-hold(2)/final-lines.txt","right":"bvh/return-bottle-hold-training2-lines.txt","att_check":false},"trial_type":"html-keyboard-response","trial_index":258,"time_elapsed":609600,"internal_node_id":"0.0-8.0-3.62","subject":"1ovr9uybm6dym9q","sona":"7363"},{"rt":733,"stimulus":"<p>Bereit?</p>","key_press":32,"trial_type":"html-keyboard-response","trial_index":259,"time_elapsed":610334,"internal_node_id":"0.0-8.0-0.63","subject":"1ovr9uybm6dym9q","sona":"7363"},{"rt":null,"stimulus":"<div style=\"font-size:60px;\">+</div>","key_press":null,"trial_type":"html-keyboard-response","trial_index":260,"time_elapsed":612337,"internal_node_id":"0.0-8.0-1.63","subject":"1ovr9uybm6dym9q","sona":"7363"},{"trial_type":"turing-test","trial_index":261,"time_elapsed":618045,"internal_node_id":"0.0-8.0-2.63","subject":"1ovr9uybm6dym9q","sona":"7363"},{"rt":351,"stimulus":"<p>Welche Sequenz haben Sie als natürlicher empfunden?</p>","key_press":74,"test_part":"response","test_stimulus":{"position":1,"left":"bvh/vr_prediction_models/model(dmp)-dataset(return-bottle)-npsi(40)-hold(0)/final-lines.txt","right":"bvh/return-bottle-training0-lines.txt","att_check":false},"trial_type":"html-keyboard-response","trial_index":262,"time_elapsed":618399,"internal_node_id":"0.0-8.0-3.63","subject":"1ovr9uybm6dym9q","sona":"7363"},{"rt":370,"stimulus":"<p>Bereit?</p>","key_press":32,"trial_type":"html-keyboard-response","trial_index":263,"time_elapsed":618772,"internal_node_id":"0.0-8.0-0.64","subject":"1ovr9uybm6dym9q","sona":"7363"},{"rt":null,"stimulus":"<div style=\"font-size:60px;\">+</div>","key_press":null,"trial_type":"html-keyboard-response","trial_index":264,"time_elapsed":620776,"internal_node_id":"0.0-8.0-1.64","subject":"1ovr9uybm6dym9q","sona":"7363"},{"trial_type":"turing-test","trial_index":265,"time_elapsed":626488,"internal_node_id":"0.0-8.0-2.64","subject":"1ovr9uybm6dym9q","sona":"7363"},{"rt":1565,"stimulus":"<p>Welche Sequenz haben Sie als natürlicher empfunden?</p>","key_press":74,"test_part":"response","test_stimulus":{"position":1,"left":"bvh/vr_prediction_models/model(tmp)-dataset(pass-bottle)-numprim(7)-hold(4)/final-lines.txt","right":"bvh/pass-bottle-training4-lines.txt","att_check":false},"trial_type":"html-keyboard-response","trial_index":266,"time_elapsed":628057,"internal_node_id":"0.0-8.0-3.64","subject":"1ovr9uybm6dym9q","sona":"7363"},{"rt":274,"stimulus":"<p>Bereit?</p>","key_press":32,"trial_type":"html-keyboard-response","trial_index":267,"time_elapsed":628334,"internal_node_id":"0.0-8.0-0.65","subject":"1ovr9uybm6dym9q","sona":"7363"},{"rt":null,"stimulus":"<div style=\"font-size:60px;\">+</div>","key_press":null,"trial_type":"html-keyboard-response","trial_index":268,"time_elapsed":630337,"internal_node_id":"0.0-8.0-1.65","subject":"1ovr9uybm6dym9q","sona":"7363"},{"trial_type":"turing-test","trial_index":269,"time_elapsed":635913,"internal_node_id":"0.0-8.0-2.65","subject":"1ovr9uybm6dym9q","sona":"7363"},{"rt":1418.0000000001164,"stimulus":"<p>Welche Sequenz haben Sie als natürlicher empfunden?</p>","key_press":70,"test_part":"response","test_stimulus":{"position":0,"left":"bvh/return-bottle-training3-lines.txt","right":"bvh/vr_prediction_models/model(dmp)-dataset(return-bottle)-npsi(80)-hold(3)/final-lines.txt","att_check":false},"trial_type":"html-keyboard-response","trial_index":270,"time_elapsed":637335,"internal_node_id":"0.0-8.0-3.65","subject":"1ovr9uybm6dym9q","sona":"7363"},{"rt":1699,"stimulus":"<p>Bereit?</p>","key_press":32,"trial_type":"html-keyboard-response","trial_index":271,"time_elapsed":639037,"internal_node_id":"0.0-8.0-0.66","subject":"1ovr9uybm6dym9q","sona":"7363"},{"rt":null,"stimulus":"<div style=\"font-size:60px;\">+</div>","key_press":null,"trial_type":"html-keyboard-response","trial_index":272,"time_elapsed":641040,"internal_node_id":"0.0-8.0-1.66","subject":"1ovr9uybm6dym9q","sona":"7363"},{"trial_type":"turing-test","trial_index":273,"time_elapsed":646918,"internal_node_id":"0.0-8.0-2.66","subject":"1ovr9uybm6dym9q","sona":"7363"},{"rt":696,"stimulus":"<p>Welche Sequenz haben Sie als natürlicher empfunden?</p>","key_press":70,"test_part":"response","test_stimulus":{"position":0,"left":"bvh/return-bottle-training3-lines.txt","right":"bvh/vr_prediction_models/model(vcgpdm)-dataset(return-bottle)-mode(ELBO)-parts(3)-dyn(20)-lvm(15)-hold(3)/final-lines.txt","att_check":false},"trial_type":"html-keyboard-response","trial_index":274,"time_elapsed":647618,"internal_node_id":"0.0-8.0-3.66","subject":"1ovr9uybm6dym9q","sona":"7363"},{"rt":578,"stimulus":"<p>Bereit?</p>","key_press":32,"trial_type":"html-keyboard-response","trial_index":275,"time_elapsed":648199,"internal_node_id":"0.0-8.0-0.67","subject":"1ovr9uybm6dym9q","sona":"7363"},{"rt":null,"stimulus":"<div style=\"font-size:60px;\">+</div>","key_press":null,"trial_type":"html-keyboard-response","trial_index":276,"time_elapsed":650202,"internal_node_id":"0.0-8.0-1.67","subject":"1ovr9uybm6dym9q","sona":"7363"},{"trial_type":"turing-test","trial_index":277,"time_elapsed":653772,"internal_node_id":"0.0-8.0-2.67","subject":"1ovr9uybm6dym9q","sona":"7363"},{"rt":1246,"stimulus":"<p>Welche Sequenz haben Sie als natürlicher empfunden?</p>","key_press":74,"test_part":"response","test_stimulus":{"position":0,"left":"bvh/return-bottle-hold-training3-lines.txt","right":"bvh/vr_prediction_models/model(tmp)-dataset(return-bottle-hold)-numprim(6)-hold(3)/final-lines.txt","att_check":false},"trial_type":"html-keyboard-response","trial_index":278,"time_elapsed":655020,"internal_node_id":"0.0-8.0-3.67","subject":"1ovr9uybm6dym9q","sona":"7363"},{"rt":672,"stimulus":"<p>Bereit?</p>","key_press":32,"trial_type":"html-keyboard-response","trial_index":279,"time_elapsed":655695,"internal_node_id":"0.0-8.0-0.68","subject":"1ovr9uybm6dym9q","sona":"7363"},{"rt":null,"stimulus":"<div style=\"font-size:60px;\">+</div>","key_press":null,"trial_type":"html-keyboard-response","trial_index":280,"time_elapsed":657697,"internal_node_id":"0.0-8.0-1.68","subject":"1ovr9uybm6dym9q","sona":"7363"},{"trial_type":"turing-test","trial_index":281,"time_elapsed":663776,"internal_node_id":"0.0-8.0-2.68","subject":"1ovr9uybm6dym9q","sona":"7363"},{"rt":866,"stimulus":"<p>Welche Sequenz haben Sie als natürlicher empfunden?</p>","key_press":70,"test_part":"response","test_stimulus":{"position":0,"left":"bvh/pass-bottle-training3-lines.txt","right":"bvh/vr_prediction_models/model(vcgpdm)-dataset(pass-bottle)-mode(ELBO)-parts(1)-dyn(15)-lvm(35)-hold(3)/final-lines.txt","att_check":false},"trial_type":"html-keyboard-response","trial_index":282,"time_elapsed":664646,"internal_node_id":"0.0-8.0-3.68","subject":"1ovr9uybm6dym9q","sona":"7363"},{"rt":400.9999999998836,"stimulus":"<p>Bereit?</p>","key_press":32,"trial_type":"html-keyboard-response","trial_index":283,"time_elapsed":665049,"internal_node_id":"0.0-8.0-0.69","subject":"1ovr9uybm6dym9q","sona":"7363"},{"rt":null,"stimulus":"<div style=\"font-size:60px;\">+</div>","key_press":null,"trial_type":"html-keyboard-response","trial_index":284,"time_elapsed":667052,"internal_node_id":"0.0-8.0-1.69","subject":"1ovr9uybm6dym9q","sona":"7363"},{"trial_type":"turing-test","trial_index":285,"time_elapsed":673713,"internal_node_id":"0.0-8.0-2.69","subject":"1ovr9uybm6dym9q","sona":"7363"},{"rt":1019,"stimulus":"<p>Welche Sequenz haben Sie als natürlicher empfunden?</p>","key_press":74,"test_part":"response","test_stimulus":{"position":0,"left":"bvh/return-bottle-training2-lines.txt","right":"bvh/vr_prediction_models/model(vcgpdm)-dataset(return-bottle)-mode(ELBO)-parts(3)-dyn(10)-lvm(25)-hold(2)/final-lines.txt","att_check":false},"trial_type":"html-keyboard-response","trial_index":286,"time_elapsed":674736,"internal_node_id":"0.0-8.0-3.69","subject":"1ovr9uybm6dym9q","sona":"7363"},{"rt":377,"stimulus":"<p>Bereit?</p>","key_press":32,"trial_type":"html-keyboard-response","trial_index":287,"time_elapsed":675116,"internal_node_id":"0.0-8.0-0.70","subject":"1ovr9uybm6dym9q","sona":"7363"},{"rt":null,"stimulus":"<div style=\"font-size:60px;\">+</div>","key_press":null,"trial_type":"html-keyboard-response","trial_index":288,"time_elapsed":677118,"internal_node_id":"0.0-8.0-1.70","subject":"1ovr9uybm6dym9q","sona":"7363"},{"trial_type":"turing-test","trial_index":289,"time_elapsed":680915,"internal_node_id":"0.0-8.0-2.70","subject":"1ovr9uybm6dym9q","sona":"7363"},{"rt":834.0000000001164,"stimulus":"<p>Welche Sequenz haben Sie als natürlicher empfunden?</p>","key_press":74,"test_part":"response","test_stimulus":{"position":1,"left":"bvh/vr_prediction_models/model(vcgpdm)-dataset(return-bottle-hold)-mode(ELBO)-parts(1)-dyn(20)-lvm(30)-hold(3)/final-lines.txt","right":"bvh/return-bottle-hold-training3-lines.txt","att_check":false},"trial_type":"html-keyboard-response","trial_index":290,"time_elapsed":681753,"internal_node_id":"0.0-8.0-3.70","subject":"1ovr9uybm6dym9q","sona":"7363"},{"rt":384,"stimulus":"<p>Bereit?</p>","key_press":32,"trial_type":"html-keyboard-response","trial_index":291,"time_elapsed":682140,"internal_node_id":"0.0-8.0-0.71","subject":"1ovr9uybm6dym9q","sona":"7363"},{"rt":null,"stimulus":"<div style=\"font-size:60px;\">+</div>","key_press":null,"trial_type":"html-keyboard-response","trial_index":292,"time_elapsed":684143,"internal_node_id":"0.0-8.0-1.71","subject":"1ovr9uybm6dym9q","sona":"7363"},{"trial_type":"turing-test","trial_index":293,"time_elapsed":690937,"internal_node_id":"0.0-8.0-2.71","subject":"1ovr9uybm6dym9q","sona":"7363"},{"rt":715,"stimulus":"<p>Welche Sequenz haben Sie als natürlicher empfunden?</p>","key_press":74,"test_part":"response","test_stimulus":{"position":1,"left":"bvh/vr_prediction_models/model(vcgpdm)-dataset(return-bottle)-mode(ELBO)-parts(1)-dyn(20)-lvm(20)-hold(2)/final-lines.txt","right":"bvh/return-bottle-training2-lines.txt","att_check":false},"trial_type":"html-keyboard-response","trial_index":294,"time_elapsed":691656,"internal_node_id":"0.0-8.0-3.71","subject":"1ovr9uybm6dym9q","sona":"7363"},{"rt":430,"stimulus":"<p>Bereit?</p>","key_press":32,"trial_type":"html-keyboard-response","trial_index":295,"time_elapsed":692088,"internal_node_id":"0.0-8.0-0.72","subject":"1ovr9uybm6dym9q","sona":"7363"},{"rt":null,"stimulus":"<div style=\"font-size:60px;\">+</div>","key_press":null,"trial_type":"html-keyboard-response","trial_index":296,"time_elapsed":694092,"internal_node_id":"0.0-8.0-1.72","subject":"1ovr9uybm6dym9q","sona":"7363"},{"trial_type":"turing-test","trial_index":297,"time_elapsed":697343,"internal_node_id":"0.0-8.0-2.72","subject":"1ovr9uybm6dym9q","sona":"7363"},{"rt":1190,"stimulus":"<p>Welche Sequenz haben Sie als natürlicher empfunden?</p>","key_press":74,"test_part":"response","test_stimulus":{"position":0,"left":"bvh/pass-bottle-hold-training2-lines.txt","right":"bvh/vr_prediction_models/model(tmp)-dataset(pass-bottle-hold)-numprim(11)-hold(2)/final-lines.txt","att_check":false},"trial_type":"html-keyboard-response","trial_index":298,"time_elapsed":698538,"internal_node_id":"0.0-8.0-3.72","subject":"1ovr9uybm6dym9q","sona":"7363"},{"rt":470,"stimulus":"<p>Bereit?</p>","key_press":32,"trial_type":"html-keyboard-response","trial_index":299,"time_elapsed":699012,"internal_node_id":"0.0-8.0-0.73","subject":"1ovr9uybm6dym9q","sona":"7363"},{"rt":null,"stimulus":"<div style=\"font-size:60px;\">+</div>","key_press":null,"trial_type":"html-keyboard-response","trial_index":300,"time_elapsed":701015,"internal_node_id":"0.0-8.0-1.73","subject":"1ovr9uybm6dym9q","sona":"7363"},{"trial_type":"turing-test","trial_index":301,"time_elapsed":704495,"internal_node_id":"0.0-8.0-2.73","subject":"1ovr9uybm6dym9q","sona":"7363"},{"rt":286,"stimulus":"<p>Welche Sequenz haben Sie als natürlicher empfunden?</p>","key_press":74,"test_part":"response","test_stimulus":{"position":0,"left":"bvh/pass-bottle-hold-training0-lines.txt","right":"bvh/vr_prediction_models/model(vcgpdm)-dataset(pass-bottle-hold)-mode(ELBO)-parts(3)-dyn(20)-lvm(15)-hold(0)/final-lines.txt","att_check":false},"trial_type":"html-keyboard-response","trial_index":302,"time_elapsed":704785,"internal_node_id":"0.0-8.0-3.73","subject":"1ovr9uybm6dym9q","sona":"7363"},{"rt":502,"stimulus":"<p>Bereit?</p>","key_press":32,"trial_type":"html-keyboard-response","trial_index":303,"time_elapsed":705291,"internal_node_id":"0.0-8.0-0.74","subject":"1ovr9uybm6dym9q","sona":"7363"},{"rt":null,"stimulus":"<div style=\"font-size:60px;\">+</div>","key_press":null,"trial_type":"html-keyboard-response","trial_index":304,"time_elapsed":707294,"internal_node_id":"0.0-8.0-1.74","subject":"1ovr9uybm6dym9q","sona":"7363"},{"trial_type":"turing-test","trial_index":305,"time_elapsed":712939,"internal_node_id":"0.0-8.0-2.74","subject":"1ovr9uybm6dym9q","sona":"7363"},{"rt":1001,"stimulus":"<p>Welche Sequenz haben Sie als natürlicher empfunden?</p>","key_press":74,"test_part":"response","test_stimulus":{"position":0,"left":"bvh/return-bottle-training3-lines.txt","right":"bvh/vr_prediction_models/model(tmp)-dataset(return-bottle)-numprim(7)-hold(3)/final-lines.txt","att_check":false},"trial_type":"html-keyboard-response","trial_index":306,"time_elapsed":713944,"internal_node_id":"0.0-8.0-3.74","subject":"1ovr9uybm6dym9q","sona":"7363"},{"rt":398,"stimulus":"<p>Bereit?</p>","key_press":32,"trial_type":"html-keyboard-response","trial_index":307,"time_elapsed":714345,"internal_node_id":"0.0-8.0-0.75","subject":"1ovr9uybm6dym9q","sona":"7363"},{"rt":null,"stimulus":"<div style=\"font-size:60px;\">+</div>","key_press":null,"trial_type":"html-keyboard-response","trial_index":308,"time_elapsed":716347,"internal_node_id":"0.0-8.0-1.75","subject":"1ovr9uybm6dym9q","sona":"7363"},{"trial_type":"turing-test","trial_index":309,"time_elapsed":722392,"internal_node_id":"0.0-8.0-2.75","subject":"1ovr9uybm6dym9q","sona":"7363"},{"rt":1484,"stimulus":"<p>Welche Sequenz haben Sie als natürlicher empfunden?</p>","key_press":70,"test_part":"response","test_stimulus":{"position":1,"left":"bvh/vr_prediction_models/model(tmp)-dataset(pass-bottle)-numprim(3)-hold(2)/final-lines.txt","right":"bvh/pass-bottle-training2-lines.txt","att_check":false},"trial_type":"html-keyboard-response","trial_index":310,"time_elapsed":723880,"internal_node_id":"0.0-8.0-3.75","subject":"1ovr9uybm6dym9q","sona":"7363"},{"rt":309,"stimulus":"<p>Bereit?</p>","key_press":32,"trial_type":"html-keyboard-response","trial_index":311,"time_elapsed":724192,"internal_node_id":"0.0-8.0-0.76","subject":"1ovr9uybm6dym9q","sona":"7363"},{"rt":null,"stimulus":"<div style=\"font-size:60px;\">+</div>","key_press":null,"trial_type":"html-keyboard-response","trial_index":312,"time_elapsed":726195,"internal_node_id":"0.0-8.0-1.76","subject":"1ovr9uybm6dym9q","sona":"7363"},{"trial_type":"turing-test","trial_index":313,"time_elapsed":729675,"internal_node_id":"0.0-8.0-2.76","subject":"1ovr9uybm6dym9q","sona":"7363"},{"rt":1200.0000000001164,"stimulus":"<p>Welche Sequenz haben Sie als natürlicher empfunden?</p>","key_press":70,"test_part":"response","test_stimulus":{"position":0,"left":"bvh/pass-bottle-hold-training3-lines.txt","right":"bvh/vr_prediction_models/model(tmp)-dataset(pass-bottle-hold)-numprim(13)-hold(3)/final-lines.txt","att_check":false},"trial_type":"html-keyboard-response","trial_index":314,"time_elapsed":730879,"internal_node_id":"0.0-8.0-3.76","subject":"1ovr9uybm6dym9q","sona":"7363"},{"rt":289.0000000001164,"stimulus":"<p>Bereit?</p>","key_press":32,"trial_type":"html-keyboard-response","trial_index":315,"time_elapsed":731172,"internal_node_id":"0.0-8.0-0.77","subject":"1ovr9uybm6dym9q","sona":"7363"},{"rt":null,"stimulus":"<div style=\"font-size:60px;\">+</div>","key_press":null,"trial_type":"html-keyboard-response","trial_index":316,"time_elapsed":733176,"internal_node_id":"0.0-8.0-1.77","subject":"1ovr9uybm6dym9q","sona":"7363"},{"trial_type":"turing-test","trial_index":317,"time_elapsed":739919,"internal_node_id":"0.0-8.0-2.77","subject":"1ovr9uybm6dym9q","sona":"7363"},{"rt":376.9999999998836,"stimulus":"<p>Welche Sequenz haben Sie als natürlicher empfunden?</p>","key_press":74,"test_part":"response","test_stimulus":{"position":1,"left":"bvh/vr_prediction_models/model(vcgpdm)-dataset(return-bottle)-mode(MAP)-parts(1)-hold(2)/final-lines.txt","right":"bvh/return-bottle-training2-lines.txt","att_check":false},"trial_type":"html-keyboard-response","trial_index":318,"time_elapsed":740299,"internal_node_id":"0.0-8.0-3.77","subject":"1ovr9uybm6dym9q","sona":"7363"},{"rt":584.9999999998836,"stimulus":"<p>Bereit?</p>","key_press":32,"trial_type":"html-keyboard-response","trial_index":319,"time_elapsed":740887,"internal_node_id":"0.0-8.0-0.78","subject":"1ovr9uybm6dym9q","sona":"7363"},{"rt":null,"stimulus":"<div style=\"font-size:60px;\">+</div>","key_press":null,"trial_type":"html-keyboard-response","trial_index":320,"time_elapsed":742890,"internal_node_id":"0.0-8.0-1.78","subject":"1ovr9uybm6dym9q","sona":"7363"},{"trial_type":"turing-test","trial_index":321,"time_elapsed":749545,"internal_node_id":"0.0-8.0-2.78","subject":"1ovr9uybm6dym9q","sona":"7363"},{"rt":796.0000000001164,"stimulus":"<p>Welche Sequenz haben Sie als natürlicher empfunden?</p>","key_press":70,"test_part":"response","test_stimulus":{"position":0,"left":"bvh/return-bottle-training2-lines.txt","right":"bvh/vr_prediction_models/model(vcgpdm)-dataset(return-bottle)-mode(ELBO)-parts(3)-dyn(10)-lvm(10)-hold(2)/final-lines.txt","att_check":false},"trial_type":"html-keyboard-response","trial_index":322,"time_elapsed":750346,"internal_node_id":"0.0-8.0-3.78","subject":"1ovr9uybm6dym9q","sona":"7363"},{"rt":346,"stimulus":"<p>Bereit?</p>","key_press":32,"trial_type":"html-keyboard-response","trial_index":323,"time_elapsed":750695,"internal_node_id":"0.0-8.0-0.79","subject":"1ovr9uybm6dym9q","sona":"7363"},{"rt":null,"stimulus":"<div style=\"font-size:60px;\">+</div>","key_press":null,"trial_type":"html-keyboard-response","trial_index":324,"time_elapsed":752699,"internal_node_id":"0.0-8.0-1.79","subject":"1ovr9uybm6dym9q","sona":"7363"},{"trial_type":"turing-test","trial_index":325,"time_elapsed":755985,"internal_node_id":"0.0-8.0-2.79","subject":"1ovr9uybm6dym9q","sona":"7363"},{"rt":1286,"stimulus":"<p>Welche Sequenz haben Sie als natürlicher empfunden?</p>","key_press":70,"test_part":"response","test_stimulus":{"position":0,"left":"bvh/pass-bottle-hold-training2-lines.txt","right":"bvh/vr_prediction_models/model(dmp)-dataset(pass-bottle-hold)-npsi(70)-hold(2)/final-lines.txt","att_check":false},"trial_type":"html-keyboard-response","trial_index":326,"time_elapsed":757275,"internal_node_id":"0.0-8.0-3.79","subject":"1ovr9uybm6dym9q","sona":"7363"},{"rt":11714.000000000116,"responses":"{\"age\":\" 24\",\"gender\":\"weiblich\"}","trial_type":"survey-text","trial_index":327,"time_elapsed":769010,"internal_node_id":"0.0-10.0-0.0","subject":"1ovr9uybm6dym9q","sona":"7363"},{"rt":153311.00000000012,"responses":"{\"area\":\"auf die vertikale Linie, also die \\\"Wirbelsäule\\\"\",\"Q1\":\"wo sich die Figur um die Y-Achse bewegt hat\",\"Q2\":\"Die \\\"Hände\\\" und die \\\"Wirbelsäule\\\": wo die Objekte nicht steif waren\"}","trial_type":"survey-text","trial_index":328,"time_elapsed":922333,"internal_node_id":"0.0-10.0-1.0","subject":"1ovr9uybm6dym9q","sona":"7363"}]