[{"rt":2449.6600000129547,"stimulus":"<p>Welcome!<br> Please choose your language to start the experiment in the chosen language.</p><p>Willkommen!<br> Bitte wählen Sie eine Sprache, um das Experiment in der ausgewählten Sprache zu starten</p>","button_pressed":"1","trial_type":"html-button-response","trial_index":0,"time_elapsed":2494,"internal_node_id":"0.0-0.0","subject":"x1vvqf6l2f38h7f","sona":"9580"},{"view_history":"[{\"page_index\":0,\"viewing_time\":4564.174999977695},{\"page_index\":1,\"viewing_time\":2985.1699999999255},{\"page_index\":2,\"viewing_time\":1359.3800000089686},{\"page_index\":3,\"viewing_time\":11128.01000001491},{\"page_index\":4,\"viewing_time\":2137.479999975767}]","rt":22175.835000001825,"trial_type":"instructions","trial_index":1,"time_elapsed":24671,"internal_node_id":"0.0-1.0-0.0","subject":"x1vvqf6l2f38h7f","sona":"9580"},{"rt":1737.9500000097323,"stimulus":"<p>Bereit?</p>","key_press":32,"trial_type":"html-keyboard-response","trial_index":2,"time_elapsed":26412,"internal_node_id":"0.0-3.0","subject":"x1vvqf6l2f38h7f","sona":"9580"},{"rt":null,"stimulus":"<div style=\"font-size:60px;\">+</div>","key_press":null,"trial_type":"html-keyboard-response","trial_index":3,"time_elapsed":28438,"internal_node_id":"0.0-4.0","subject":"x1vvqf6l2f38h7f","sona":"9580"},{"trial_type":"training","trial_index":4,"time_elapsed":31711,"internal_node_id":"0.0-5.0","subject":"x1vvqf6l2f38h7f","sona":"9580"},{"rt":2662.8099999797996,"stimulus":"<p>Welche Sequenz haben Sie als natürlicher empfunden?</p>","key_press":70,"trial_type":"html-keyboard-response","trial_index":5,"time_elapsed":34376,"internal_node_id":"0.0-6.0","subject":"x1vvqf6l2f38h7f","sona":"9580"},{"rt":1384077.495000005,"stimulus":"<p>Das Experiment startet nun.</p><p><small>Bitte drücken Sie den Knopf, wenn Sie bereit sind.</small></p>","button_pressed":"0","trial_type":"html-button-response","trial_index":6,"time_elapsed":1418431,"internal_node_id":"0.0-7.0","subject":"x1vvqf6l2f38h7f","sona":"9580"},{"rt":2667.504999990342,"stimulus":"<p>Bereit?</p>","key_press":32,"trial_type":"html-keyboard-response","trial_index":7,"time_elapsed":1421101,"internal_node_id":"0.0-8.0-0.0","subject":"x1vvqf6l2f38h7f","sona":"9580"},{"rt":null,"stimulus":"<div style=\"font-size:60px;\">+</div>","key_press":null,"trial_type":"html-keyboard-response","trial_index":8,"time_elapsed":1423118,"internal_node_id":"0.0-8.0-1.0","subject":"x1vvqf6l2f38h7f","sona":"9580"},{"trial_type":"turing-test","trial_index":9,"time_elapsed":1426263,"internal_node_id":"0.0-8.0-2.0","subject":"x1vvqf6l2f38h7f","sona":"9580"},{"rt":920.2199999999721,"stimulus":"<p>Welche Sequenz haben Sie als natürlicher empfunden?</p>","key_press":70,"test_part":"response","test_stimulus":{"position":0,"left":"bvh/pass-bottle-hold-training1-lines.txt","right":"bvh/vr_prediction_models/model(vcgpdm)-dataset(pass-bottle-hold)-mode(MAP)-parts(3)-hold(1)/final-lines.txt","att_check":false},"trial_type":"html-keyboard-response","trial_index":10,"time_elapsed":1427187,"internal_node_id":"0.0-8.0-3.0","subject":"x1vvqf6l2f38h7f","sona":"9580"},{"rt":543.4799999929965,"stimulus":"<p>Bereit?</p>","key_press":32,"trial_type":"html-keyboard-response","trial_index":11,"time_elapsed":1427733,"internal_node_id":"0.0-8.0-0.1","subject":"x1vvqf6l2f38h7f","sona":"9580"},{"rt":null,"stimulus":"<div style=\"font-size:60px;\">+</div>","key_press":null,"trial_type":"html-keyboard-response","trial_index":12,"time_elapsed":1429744,"internal_node_id":"0.0-8.0-1.1","subject":"x1vvqf6l2f38h7f","sona":"9580"},{"trial_type":"turing-test","trial_index":13,"time_elapsed":1433043,"internal_node_id":"0.0-8.0-2.1","subject":"x1vvqf6l2f38h7f","sona":"9580"},{"rt":287.9900000116322,"stimulus":"<p>Welche Sequenz haben Sie als natürlicher empfunden?</p>","key_press":74,"test_part":"response","test_stimulus":{"position":1,"left":"bvh/vr_prediction_models/model(dmp)-dataset(pass-bottle-hold)-npsi(50)-hold(2)/final-lines.txt","right":"bvh/pass-bottle-hold-training2-lines.txt","att_check":false},"trial_type":"html-keyboard-response","trial_index":14,"time_elapsed":1433333,"internal_node_id":"0.0-8.0-3.1","subject":"x1vvqf6l2f38h7f","sona":"9580"},{"rt":363.3350000018254,"stimulus":"<p>Bereit?</p>","key_press":32,"trial_type":"html-keyboard-response","trial_index":15,"time_elapsed":1433699,"internal_node_id":"0.0-8.0-0.2","subject":"x1vvqf6l2f38h7f","sona":"9580"},{"rt":null,"stimulus":"<div style=\"font-size:60px;\">+</div>","key_press":null,"trial_type":"html-keyboard-response","trial_index":16,"time_elapsed":1435731,"internal_node_id":"0.0-8.0-1.2","subject":"x1vvqf6l2f38h7f","sona":"9580"},{"trial_type":"turing-test","trial_index":17,"time_elapsed":1439273,"internal_node_id":"0.0-8.0-2.2","subject":"x1vvqf6l2f38h7f","sona":"9580"},{"rt":353.86999999172986,"stimulus":"<p>Welche Sequenz haben Sie als natürlicher empfunden?</p>","key_press":70,"test_part":"response","test_stimulus":{"position":0,"left":"bvh/pass-bottle-hold-training4-lines.txt","right":"bvh/vr_prediction_models/model(tmp)-dataset(pass-bottle-hold)-numprim(13)-hold(4)/final-lines.txt","att_check":false},"trial_type":"html-keyboard-response","trial_index":18,"time_elapsed":1439629,"internal_node_id":"0.0-8.0-3.2","subject":"x1vvqf6l2f38h7f","sona":"9580"},{"rt":348.2549999898765,"stimulus":"<p>Bereit?</p>","key_press":32,"trial_type":"html-keyboard-response","trial_index":19,"time_elapsed":1439980,"internal_node_id":"0.0-8.0-0.3","subject":"x1vvqf6l2f38h7f","sona":"9580"},{"rt":null,"stimulus":"<div style=\"font-size:60px;\">+</div>","key_press":null,"trial_type":"html-keyboard-response","trial_index":20,"time_elapsed":1442017,"internal_node_id":"0.0-8.0-1.3","subject":"x1vvqf6l2f38h7f","sona":"9580"},{"trial_type":"turing-test","trial_index":21,"time_elapsed":1445930,"internal_node_id":"0.0-8.0-2.3","subject":"x1vvqf6l2f38h7f","sona":"9580"},{"rt":453.6999999836553,"stimulus":"<p>Welche Sequenz haben Sie als natürlicher empfunden?</p>","key_press":74,"test_part":"response","test_stimulus":{"position":1,"left":"bvh/vr_prediction_models/model(vcgpdm)-dataset(return-bottle-hold)-mode(ELBO)-parts(1)-dyn(10)-lvm(25)-hold(4)/final-lines.txt","right":"bvh/return-bottle-hold-training4-lines.txt","att_check":false},"trial_type":"html-keyboard-response","trial_index":22,"time_elapsed":1446387,"internal_node_id":"0.0-8.0-3.3","subject":"x1vvqf6l2f38h7f","sona":"9580"},{"rt":392.9649999772664,"stimulus":"<p>Bereit?</p>","key_press":32,"trial_type":"html-keyboard-response","trial_index":23,"time_elapsed":1446782,"internal_node_id":"0.0-8.0-0.4","subject":"x1vvqf6l2f38h7f","sona":"9580"},{"rt":null,"stimulus":"<div style=\"font-size:60px;\">+</div>","key_press":null,"trial_type":"html-keyboard-response","trial_index":24,"time_elapsed":1448803,"internal_node_id":"0.0-8.0-1.4","subject":"x1vvqf6l2f38h7f","sona":"9580"},{"trial_type":"turing-test","trial_index":25,"time_elapsed":1454176,"internal_node_id":"0.0-8.0-2.4","subject":"x1vvqf6l2f38h7f","sona":"9580"},{"rt":677.9699999897275,"stimulus":"<p>Welche Sequenz haben Sie als natürlicher empfunden?</p>","key_press":74,"test_part":"response","test_stimulus":{"position":1,"left":"bvh/vr_prediction_models/model(dmp)-dataset(return-bottle)-npsi(100)-hold(0)/final-lines.txt","right":"bvh/return-bottle-training0-lines.txt","att_check":false},"trial_type":"html-keyboard-response","trial_index":26,"time_elapsed":1454857,"internal_node_id":"0.0-8.0-3.4","subject":"x1vvqf6l2f38h7f","sona":"9580"},{"rt":388.26000000699423,"stimulus":"<p>Bereit?</p>","key_press":32,"trial_type":"html-keyboard-response","trial_index":27,"time_elapsed":1455248,"internal_node_id":"0.0-8.0-0.5","subject":"x1vvqf6l2f38h7f","sona":"9580"},{"rt":null,"stimulus":"<div style=\"font-size:60px;\">+</div>","key_press":null,"trial_type":"html-keyboard-response","trial_index":28,"time_elapsed":1457264,"internal_node_id":"0.0-8.0-1.5","subject":"x1vvqf6l2f38h7f","sona":"9580"},{"trial_type":"turing-test","trial_index":29,"time_elapsed":1464329,"internal_node_id":"0.0-8.0-2.5","subject":"x1vvqf6l2f38h7f","sona":"9580"},{"rt":218.4599999745842,"stimulus":"<p>Welche Sequenz haben Sie als natürlicher empfunden?</p>","key_press":70,"test_part":"response","test_stimulus":{"position":1,"left":"bvh/vr_prediction_models/model(vcgpdm)-dataset(pass-bottle)-mode(ELBO)-parts(1)-dyn(10)-lvm(25)-hold(0)/final-lines.txt","right":"bvh/pass-bottle-training0-lines.txt","att_check":false},"trial_type":"html-keyboard-response","trial_index":30,"time_elapsed":1464551,"internal_node_id":"0.0-8.0-3.5","subject":"x1vvqf6l2f38h7f","sona":"9580"},{"rt":847.9149999911897,"stimulus":"<p>Bereit?</p>","key_press":32,"trial_type":"html-keyboard-response","trial_index":31,"time_elapsed":1465401,"internal_node_id":"0.0-8.0-0.6","subject":"x1vvqf6l2f38h7f","sona":"9580"},{"rt":null,"stimulus":"<div style=\"font-size:60px;\">+</div>","key_press":null,"trial_type":"html-keyboard-response","trial_index":32,"time_elapsed":1467418,"internal_node_id":"0.0-8.0-1.6","subject":"x1vvqf6l2f38h7f","sona":"9580"},{"trial_type":"turing-test","trial_index":33,"time_elapsed":1471118,"internal_node_id":"0.0-8.0-2.6","subject":"x1vvqf6l2f38h7f","sona":"9580"},{"rt":346.0000000195578,"stimulus":"<p>Welche Sequenz haben Sie als natürlicher empfunden?</p>","key_press":70,"test_part":"response","test_stimulus":{"position":0,"left":"bvh/return-bottle-hold-training4-lines.txt","right":"bvh/vr_prediction_models/model(tmp)-dataset(return-bottle-hold)-numprim(14)-hold(4)/final-lines.txt","att_check":false},"trial_type":"html-keyboard-response","trial_index":34,"time_elapsed":1471467,"internal_node_id":"0.0-8.0-3.6","subject":"x1vvqf6l2f38h7f","sona":"9580"},{"rt":473.64999999990687,"stimulus":"<p>Bereit?</p>","key_press":32,"trial_type":"html-keyboard-response","trial_index":35,"time_elapsed":1471943,"internal_node_id":"0.0-8.0-0.7","subject":"x1vvqf6l2f38h7f","sona":"9580"},{"rt":null,"stimulus":"<div style=\"font-size:60px;\">+</div>","key_press":null,"trial_type":"html-keyboard-response","trial_index":36,"time_elapsed":1473960,"internal_node_id":"0.0-8.0-1.7","subject":"x1vvqf6l2f38h7f","sona":"9580"},{"trial_type":"turing-test","trial_index":37,"time_elapsed":1477684,"internal_node_id":"0.0-8.0-2.7","subject":"x1vvqf6l2f38h7f","sona":"9580"},{"rt":399.31999999680556,"stimulus":"<p>Welche Sequenz haben Sie als natürlicher empfunden?</p>","key_press":70,"test_part":"response","test_stimulus":{"position":0,"left":"bvh/pass-bottle-hold-training3-lines.txt","right":"bvh/vr_prediction_models/model(vcgpdm)-dataset(pass-bottle-hold)-mode(ELBO)-parts(3)-dyn(30)-lvm(15)-hold(3)/final-lines.txt","att_check":false},"trial_type":"html-keyboard-response","trial_index":38,"time_elapsed":1478086,"internal_node_id":"0.0-8.0-3.7","subject":"x1vvqf6l2f38h7f","sona":"9580"},{"rt":444.04000000213273,"stimulus":"<p>Bereit?</p>","key_press":32,"trial_type":"html-keyboard-response","trial_index":39,"time_elapsed":1478532,"internal_node_id":"0.0-8.0-0.8","subject":"x1vvqf6l2f38h7f","sona":"9580"},{"rt":null,"stimulus":"<div style=\"font-size:60px;\">+</div>","key_press":null,"trial_type":"html-keyboard-response","trial_index":40,"time_elapsed":1480547,"internal_node_id":"0.0-8.0-1.8","subject":"x1vvqf6l2f38h7f","sona":"9580"},{"trial_type":"turing-test","trial_index":41,"time_elapsed":1486256,"internal_node_id":"0.0-8.0-2.8","subject":"x1vvqf6l2f38h7f","sona":"9580"},{"rt":421.75499998847954,"stimulus":"<p>Welche Sequenz haben Sie als natürlicher empfunden?</p>","key_press":70,"test_part":"response","test_stimulus":{"position":0,"left":"bvh/pass-bottle-training4-lines.txt","right":"bvh/vr_prediction_models/model(dmp)-dataset(pass-bottle)-npsi(60)-hold(4)/final-lines.txt","att_check":true},"trial_type":"html-keyboard-response","trial_index":42,"time_elapsed":1486681,"internal_node_id":"0.0-8.0-3.8","subject":"x1vvqf6l2f38h7f","sona":"9580"},{"rt":553.6449999781325,"stimulus":"<p>Bereit?</p>","key_press":32,"trial_type":"html-keyboard-response","trial_index":43,"time_elapsed":1487237,"internal_node_id":"0.0-8.0-0.9","subject":"x1vvqf6l2f38h7f","sona":"9580"},{"rt":null,"stimulus":"<div style=\"font-size:60px;\">+</div>","key_press":null,"trial_type":"html-keyboard-response","trial_index":44,"time_elapsed":1489255,"internal_node_id":"0.0-8.0-1.9","subject":"x1vvqf6l2f38h7f","sona":"9580"},{"trial_type":"turing-test","trial_index":45,"time_elapsed":1495505,"internal_node_id":"0.0-8.0-2.9","subject":"x1vvqf6l2f38h7f","sona":"9580"},{"rt":314.4800000009127,"stimulus":"<p>Welche Sequenz haben Sie als natürlicher empfunden?</p>","key_press":74,"test_part":"response","test_stimulus":{"position":1,"left":"bvh/vr_prediction_models/model(vcgpdm)-dataset(return-bottle)-mode(ELBO)-parts(1)-dyn(30)-lvm(35)-hold(1)/final-lines.txt","right":"bvh/return-bottle-training1-lines.txt","att_check":false},"trial_type":"html-keyboard-response","trial_index":46,"time_elapsed":1495823,"internal_node_id":"0.0-8.0-3.9","subject":"x1vvqf6l2f38h7f","sona":"9580"},{"rt":417.7999999956228,"stimulus":"<p>Bereit?</p>","key_press":32,"trial_type":"html-keyboard-response","trial_index":47,"time_elapsed":1496243,"internal_node_id":"0.0-8.0-0.10","subject":"x1vvqf6l2f38h7f","sona":"9580"},{"rt":null,"stimulus":"<div style=\"font-size:60px;\">+</div>","key_press":null,"trial_type":"html-keyboard-response","trial_index":48,"time_elapsed":1498250,"internal_node_id":"0.0-8.0-1.10","subject":"x1vvqf6l2f38h7f","sona":"9580"},{"trial_type":"turing-test","trial_index":49,"time_elapsed":1503700,"internal_node_id":"0.0-8.0-2.10","subject":"x1vvqf6l2f38h7f","sona":"9580"},{"rt":611.510000017006,"stimulus":"<p>Welche Sequenz haben Sie als natürlicher empfunden?</p>","key_press":74,"test_part":"response","test_stimulus":{"position":1,"left":"bvh/vr_prediction_models/model(dmp)-dataset(pass-bottle)-npsi(90)-hold(1)/final-lines.txt","right":"bvh/pass-bottle-training1-lines.txt","att_check":false},"trial_type":"html-keyboard-response","trial_index":50,"time_elapsed":1504318,"internal_node_id":"0.0-8.0-3.10","subject":"x1vvqf6l2f38h7f","sona":"9580"},{"rt":376.4950000040699,"stimulus":"<p>Bereit?</p>","key_press":32,"trial_type":"html-keyboard-response","trial_index":51,"time_elapsed":1504699,"internal_node_id":"0.0-8.0-0.11","subject":"x1vvqf6l2f38h7f","sona":"9580"},{"rt":null,"stimulus":"<div style=\"font-size:60px;\">+</div>","key_press":null,"trial_type":"html-keyboard-response","trial_index":52,"time_elapsed":1506721,"internal_node_id":"0.0-8.0-1.11","subject":"x1vvqf6l2f38h7f","sona":"9580"}]