[{"rt":6802,"stimulus":"<p>Welcome!<br> Please choose your language to start the experiment in the chosen language.</p><p>Willkommen!<br> Bitte wählen Sie eine Sprache, um das Experiment in der ausgewählten Sprache zu starten</p>","button_pressed":"1","trial_type":"html-button-response","trial_index":0,"time_elapsed":6809,"internal_node_id":"0.0-0.0","subject":"dpzp14f2wzoybmx","sona":"8719"},{"view_history":"[{\"page_index\":0,\"viewing_time\":9765},{\"page_index\":1,\"viewing_time\":3312},{\"page_index\":2,\"viewing_time\":7607},{\"page_index\":3,\"viewing_time\":6689},{\"page_index\":4,\"viewing_time\":2431}]","rt":29805,"trial_type":"instructions","trial_index":1,"time_elapsed":36617,"internal_node_id":"0.0-1.0-0.0","subject":"dpzp14f2wzoybmx","sona":"8719"},{"rt":2754,"stimulus":"<p>Bereit?</p>","key_press":32,"trial_type":"html-keyboard-response","trial_index":2,"time_elapsed":39373,"internal_node_id":"0.0-3.0","subject":"dpzp14f2wzoybmx","sona":"8719"},{"rt":null,"stimulus":"<div style=\"font-size:60px;\">+</div>","key_press":null,"trial_type":"html-keyboard-response","trial_index":3,"time_elapsed":41396,"internal_node_id":"0.0-4.0","subject":"dpzp14f2wzoybmx","sona":"8719"},{"trial_type":"training","trial_index":4,"time_elapsed":45187,"internal_node_id":"0.0-5.0","subject":"dpzp14f2wzoybmx","sona":"8719"},{"rt":1258,"stimulus":"<p>Welche Sequenz haben Sie als natürlicher empfunden?</p>","key_press":70,"trial_type":"html-keyboard-response","trial_index":5,"time_elapsed":46448,"internal_node_id":"0.0-6.0","subject":"dpzp14f2wzoybmx","sona":"8719"},{"rt":3318,"stimulus":"<p>Das Experiment startet nun.</p><p><small>Bitte drücken Sie den Knopf, wenn Sie bereit sind.</small></p>","button_pressed":"0","trial_type":"html-button-response","trial_index":6,"time_elapsed":49768,"internal_node_id":"0.0-7.0","subject":"dpzp14f2wzoybmx","sona":"8719"},{"rt":1935,"stimulus":"<p>Bereit?</p>","key_press":32,"trial_type":"html-keyboard-response","trial_index":7,"time_elapsed":51705,"internal_node_id":"0.0-8.0-0.0","subject":"dpzp14f2wzoybmx","sona":"8719"},{"rt":null,"stimulus":"<div style=\"font-size:60px;\">+</div>","key_press":null,"trial_type":"html-keyboard-response","trial_index":8,"time_elapsed":53722,"internal_node_id":"0.0-8.0-1.0","subject":"dpzp14f2wzoybmx","sona":"8719"},{"trial_type":"turing-test","trial_index":9,"time_elapsed":59656,"internal_node_id":"0.0-8.0-2.0","subject":"dpzp14f2wzoybmx","sona":"8719"},{"rt":709,"stimulus":"<p>Welche Sequenz haben Sie als natürlicher empfunden?</p>","key_press":74,"test_part":"response","test_stimulus":{"position":0,"left":"bvh/pass-bottle-training1-lines.txt","right":"bvh/vr_prediction_models/model(tmp)-dataset(pass-bottle)-numprim(12)-hold(1)/final-lines.txt","att_check":false},"trial_type":"html-keyboard-response","trial_index":10,"time_elapsed":60369,"internal_node_id":"0.0-8.0-3.0","subject":"dpzp14f2wzoybmx","sona":"8719"},{"rt":1396,"stimulus":"<p>Bereit?</p>","key_press":32,"trial_type":"html-keyboard-response","trial_index":11,"time_elapsed":61770,"internal_node_id":"0.0-8.0-0.1","subject":"dpzp14f2wzoybmx","sona":"8719"},{"rt":null,"stimulus":"<div style=\"font-size:60px;\">+</div>","key_press":null,"trial_type":"html-keyboard-response","trial_index":12,"time_elapsed":63793,"internal_node_id":"0.0-8.0-1.1","subject":"dpzp14f2wzoybmx","sona":"8719"},{"trial_type":"turing-test","trial_index":13,"time_elapsed":72003,"internal_node_id":"0.0-8.0-2.1","subject":"dpzp14f2wzoybmx","sona":"8719"},{"rt":2156,"stimulus":"<p>Welche Sequenz haben Sie als natürlicher empfunden?</p>","key_press":74,"test_part":"response","test_stimulus":{"position":1,"left":"bvh/vr_prediction_models/model(vcgpdm)-dataset(pass-bottle)-mode(ELBO)-parts(3)-dyn(20)-lvm(20)-hold(4)/final-lines.txt","right":"bvh/pass-bottle-training4-lines.txt","att_check":false},"trial_type":"html-keyboard-response","trial_index":14,"time_elapsed":74165,"internal_node_id":"0.0-8.0-3.1","subject":"dpzp14f2wzoybmx","sona":"8719"},{"rt":887,"stimulus":"<p>Bereit?</p>","key_press":32,"trial_type":"html-keyboard-response","trial_index":15,"time_elapsed":75055,"internal_node_id":"0.0-8.0-0.2","subject":"dpzp14f2wzoybmx","sona":"8719"},{"rt":null,"stimulus":"<div style=\"font-size:60px;\">+</div>","key_press":null,"trial_type":"html-keyboard-response","trial_index":16,"time_elapsed":77081,"internal_node_id":"0.0-8.0-1.2","subject":"dpzp14f2wzoybmx","sona":"8719"},{"trial_type":"turing-test","trial_index":17,"time_elapsed":84978,"internal_node_id":"0.0-8.0-2.2","subject":"dpzp14f2wzoybmx","sona":"8719"},{"rt":877,"stimulus":"<p>Welche Sequenz haben Sie als natürlicher empfunden?</p>","key_press":74,"test_part":"response","test_stimulus":{"position":0,"left":"bvh/pass-bottle-training2-lines.txt","right":"bvh/vr_prediction_models/model(vcgpdm)-dataset(pass-bottle)-mode(ELBO)-parts(1)-dyn(20)-lvm(30)-hold(2)/final-lines.txt","att_check":false},"trial_type":"html-keyboard-response","trial_index":18,"time_elapsed":85857,"internal_node_id":"0.0-8.0-3.2","subject":"dpzp14f2wzoybmx","sona":"8719"},{"rt":1042,"stimulus":"<p>Bereit?</p>","key_press":32,"trial_type":"html-keyboard-response","trial_index":19,"time_elapsed":86902,"internal_node_id":"0.0-8.0-0.3","subject":"dpzp14f2wzoybmx","sona":"8719"},{"rt":null,"stimulus":"<div style=\"font-size:60px;\">+</div>","key_press":null,"trial_type":"html-keyboard-response","trial_index":20,"time_elapsed":88922,"internal_node_id":"0.0-8.0-1.3","subject":"dpzp14f2wzoybmx","sona":"8719"},{"trial_type":"turing-test","trial_index":21,"time_elapsed":97775,"internal_node_id":"0.0-8.0-2.3","subject":"dpzp14f2wzoybmx","sona":"8719"},{"rt":601,"stimulus":"<p>Welche Sequenz haben Sie als natürlicher empfunden?</p>","key_press":74,"test_part":"response","test_stimulus":{"position":1,"left":"bvh/vr_prediction_models/model(vcgpdm)-dataset(pass-bottle)-mode(ELBO)-parts(3)-dyn(10)-lvm(10)-hold(0)/final-lines.txt","right":"bvh/pass-bottle-training0-lines.txt","att_check":false},"trial_type":"html-keyboard-response","trial_index":22,"time_elapsed":98384,"internal_node_id":"0.0-8.0-3.3","subject":"dpzp14f2wzoybmx","sona":"8719"},{"rt":950,"stimulus":"<p>Bereit?</p>","key_press":32,"trial_type":"html-keyboard-response","trial_index":23,"time_elapsed":99338,"internal_node_id":"0.0-8.0-0.4","subject":"dpzp14f2wzoybmx","sona":"8719"},{"rt":null,"stimulus":"<div style=\"font-size:60px;\">+</div>","key_press":null,"trial_type":"html-keyboard-response","trial_index":24,"time_elapsed":101355,"internal_node_id":"0.0-8.0-1.4","subject":"dpzp14f2wzoybmx","sona":"8719"},{"trial_type":"turing-test","trial_index":25,"time_elapsed":107872,"internal_node_id":"0.0-8.0-2.4","subject":"dpzp14f2wzoybmx","sona":"8719"},{"rt":434,"stimulus":"<p>Welche Sequenz haben Sie als natürlicher empfunden?</p>","key_press":70,"test_part":"response","test_stimulus":{"position":0,"left":"bvh/pass-bottle-training2-lines.txt","right":"bvh/vr_prediction_models/model(tmp)-dataset(pass-bottle)-numprim(3)-hold(2)/final-lines.txt","att_check":false},"trial_type":"html-keyboard-response","trial_index":26,"time_elapsed":108309,"internal_node_id":"0.0-8.0-3.4","subject":"dpzp14f2wzoybmx","sona":"8719"},{"rt":1438,"stimulus":"<p>Bereit?</p>","key_press":32,"trial_type":"html-keyboard-response","trial_index":27,"time_elapsed":109750,"internal_node_id":"0.0-8.0-0.5","subject":"dpzp14f2wzoybmx","sona":"8719"},{"rt":null,"stimulus":"<div style=\"font-size:60px;\">+</div>","key_press":null,"trial_type":"html-keyboard-response","trial_index":28,"time_elapsed":111760,"internal_node_id":"0.0-8.0-1.5","subject":"dpzp14f2wzoybmx","sona":"8719"},{"trial_type":"turing-test","trial_index":29,"time_elapsed":119002,"internal_node_id":"0.0-8.0-2.5","subject":"dpzp14f2wzoybmx","sona":"8719"},{"rt":422,"stimulus":"<p>Welche Sequenz haben Sie als natürlicher empfunden?</p>","key_press":74,"test_part":"response","test_stimulus":{"position":1,"left":"bvh/vr_prediction_models/model(vcgpdm)-dataset(pass-bottle)-mode(MAP)-parts(1)-hold(1)/final-lines.txt","right":"bvh/pass-bottle-training1-lines.txt","att_check":false},"trial_type":"html-keyboard-response","trial_index":30,"time_elapsed":119426,"internal_node_id":"0.0-8.0-3.5","subject":"dpzp14f2wzoybmx","sona":"8719"},{"rt":975,"stimulus":"<p>Bereit?</p>","key_press":32,"trial_type":"html-keyboard-response","trial_index":31,"time_elapsed":120405,"internal_node_id":"0.0-8.0-0.6","subject":"dpzp14f2wzoybmx","sona":"8719"},{"rt":null,"stimulus":"<div style=\"font-size:60px;\">+</div>","key_press":null,"trial_type":"html-keyboard-response","trial_index":32,"time_elapsed":122422,"internal_node_id":"0.0-8.0-1.6","subject":"dpzp14f2wzoybmx","sona":"8719"},{"trial_type":"turing-test","trial_index":33,"time_elapsed":128068,"internal_node_id":"0.0-8.0-2.6","subject":"dpzp14f2wzoybmx","sona":"8719"},{"rt":1558,"stimulus":"<p>Welche Sequenz haben Sie als natürlicher empfunden?</p>","key_press":70,"test_part":"response","test_stimulus":{"position":0,"left":"bvh/return-bottle-hold-training2-lines.txt","right":"bvh/vr_prediction_models/model(vcgpdm)-dataset(return-bottle-hold)-mode(ELBO)-parts(3)-dyn(15)-lvm(30)-hold(2)/final-lines.txt","att_check":false},"trial_type":"html-keyboard-response","trial_index":34,"time_elapsed":129630,"internal_node_id":"0.0-8.0-3.6","subject":"dpzp14f2wzoybmx","sona":"8719"},{"rt":1114,"stimulus":"<p>Bereit?</p>","key_press":32,"trial_type":"html-keyboard-response","trial_index":35,"time_elapsed":130745,"internal_node_id":"0.0-8.0-0.7","subject":"dpzp14f2wzoybmx","sona":"8719"},{"rt":null,"stimulus":"<div style=\"font-size:60px;\">+</div>","key_press":null,"trial_type":"html-keyboard-response","trial_index":36,"time_elapsed":132761,"internal_node_id":"0.0-8.0-1.7","subject":"dpzp14f2wzoybmx","sona":"8719"},{"trial_type":"turing-test","trial_index":37,"time_elapsed":138444,"internal_node_id":"0.0-8.0-2.7","subject":"dpzp14f2wzoybmx","sona":"8719"},{"rt":523,"stimulus":"<p>Welche Sequenz haben Sie als natürlicher empfunden?</p>","key_press":70,"test_part":"response","test_stimulus":{"position":1,"left":"bvh/vr_prediction_models/model(vcgpdm)-dataset(return-bottle-hold)-mode(ELBO)-parts(3)-dyn(10)-lvm(30)-hold(3)/final-lines.txt","right":"bvh/return-bottle-hold-training3-lines.txt","att_check":false},"trial_type":"html-keyboard-response","trial_index":38,"time_elapsed":138972,"internal_node_id":"0.0-8.0-3.7","subject":"dpzp14f2wzoybmx","sona":"8719"},{"rt":764,"stimulus":"<p>Bereit?</p>","key_press":32,"trial_type":"html-keyboard-response","trial_index":39,"time_elapsed":139739,"internal_node_id":"0.0-8.0-0.8","subject":"dpzp14f2wzoybmx","sona":"8719"},{"rt":null,"stimulus":"<div style=\"font-size:60px;\">+</div>","key_press":null,"trial_type":"html-keyboard-response","trial_index":40,"time_elapsed":141749,"internal_node_id":"0.0-8.0-1.8","subject":"dpzp14f2wzoybmx","sona":"8719"},{"trial_type":"turing-test","trial_index":41,"time_elapsed":146121,"internal_node_id":"0.0-8.0-2.8","subject":"dpzp14f2wzoybmx","sona":"8719"},{"rt":763,"stimulus":"<p>Welche Sequenz haben Sie als natürlicher empfunden?</p>","key_press":70,"test_part":"response","test_stimulus":{"position":1,"left":"bvh/vr_prediction_models/model(tmp)-dataset(pass-bottle-hold)-numprim(10)-hold(1)/final-lines.txt","right":"bvh/pass-bottle-hold-training1-lines.txt","att_check":false},"trial_type":"html-keyboard-response","trial_index":42,"time_elapsed":146887,"internal_node_id":"0.0-8.0-3.8","subject":"dpzp14f2wzoybmx","sona":"8719"},{"rt":804,"stimulus":"<p>Bereit?</p>","key_press":32,"trial_type":"html-keyboard-response","trial_index":43,"time_elapsed":147694,"internal_node_id":"0.0-8.0-0.9","subject":"dpzp14f2wzoybmx","sona":"8719"},{"rt":null,"stimulus":"<div style=\"font-size:60px;\">+</div>","key_press":null,"trial_type":"html-keyboard-response","trial_index":44,"time_elapsed":149710,"internal_node_id":"0.0-8.0-1.9","subject":"dpzp14f2wzoybmx","sona":"8719"},{"trial_type":"turing-test","trial_index":45,"time_elapsed":157500,"internal_node_id":"0.0-8.0-2.9","subject":"dpzp14f2wzoybmx","sona":"8719"},{"rt":583,"stimulus":"<p>Welche Sequenz haben Sie als natürlicher empfunden?</p>","key_press":74,"test_part":"response","test_stimulus":{"position":1,"left":"bvh/vr_prediction_models/model(vcgpdm)-dataset(pass-bottle)-mode(ELBO)-parts(3)-dyn(20)-lvm(35)-hold(4)/final-lines.txt","right":"bvh/pass-bottle-training4-lines.txt","att_check":false},"trial_type":"html-keyboard-response","trial_index":46,"time_elapsed":158089,"internal_node_id":"0.0-8.0-3.9","subject":"dpzp14f2wzoybmx","sona":"8719"},{"rt":684,"stimulus":"<p>Bereit?</p>","key_press":32,"trial_type":"html-keyboard-response","trial_index":47,"time_elapsed":158782,"internal_node_id":"0.0-8.0-0.10","subject":"dpzp14f2wzoybmx","sona":"8719"},{"rt":null,"stimulus":"<div style=\"font-size:60px;\">+</div>","key_press":null,"trial_type":"html-keyboard-response","trial_index":48,"time_elapsed":160792,"internal_node_id":"0.0-8.0-1.10","subject":"dpzp14f2wzoybmx","sona":"8719"},{"trial_type":"turing-test","trial_index":49,"time_elapsed":164534,"internal_node_id":"0.0-8.0-2.10","subject":"dpzp14f2wzoybmx","sona":"8719"},{"rt":802,"stimulus":"<p>Welche Sequenz haben Sie als natürlicher empfunden?</p>","key_press":74,"test_part":"response","test_stimulus":{"position":0,"left":"bvh/return-bottle-hold-training2-lines.txt","right":"bvh/vr_prediction_models/model(tmp)-dataset(return-bottle-hold)-numprim(8)-hold(2)/final-lines.txt","att_check":false},"trial_type":"html-keyboard-response","trial_index":50,"time_elapsed":165343,"internal_node_id":"0.0-8.0-3.10","subject":"dpzp14f2wzoybmx","sona":"8719"},{"rt":756,"stimulus":"<p>Bereit?</p>","key_press":32,"trial_type":"html-keyboard-response","trial_index":51,"time_elapsed":166103,"internal_node_id":"0.0-8.0-0.11","subject":"dpzp14f2wzoybmx","sona":"8719"},{"rt":null,"stimulus":"<div style=\"font-size:60px;\">+</div>","key_press":null,"trial_type":"html-keyboard-response","trial_index":52,"time_elapsed":168117,"internal_node_id":"0.0-8.0-1.11","subject":"dpzp14f2wzoybmx","sona":"8719"},{"trial_type":"turing-test","trial_index":53,"time_elapsed":172250,"internal_node_id":"0.0-8.0-2.11","subject":"dpzp14f2wzoybmx","sona":"8719"}]