[{"rt":2467,"stimulus":"<p>Welcome!<br> Please choose your language to start the experiment in the chosen language.</p><p>Willkommen!<br> Bitte wählen Sie eine Sprache, um das Experiment in der ausgewählten Sprache zu starten</p>","button_pressed":"1","trial_type":"html-button-response","trial_index":0,"time_elapsed":2483,"internal_node_id":"0.0-0.0","subject":"72qwc5323gvazn8","sona":"9613"},{"view_history":"[{\"page_index\":0,\"viewing_time\":2821},{\"page_index\":1,\"viewing_time\":3168},{\"page_index\":2,\"viewing_time\":6101},{\"page_index\":3,\"viewing_time\":5870},{\"page_index\":4,\"viewing_time\":2850}]","rt":20812,"trial_type":"instructions","trial_index":1,"time_elapsed":23302,"internal_node_id":"0.0-1.0-0.0","subject":"72qwc5323gvazn8","sona":"9613"},{"rt":1355,"stimulus":"<p>Bereit?</p>","key_press":32,"trial_type":"html-keyboard-response","trial_index":2,"time_elapsed":24664,"internal_node_id":"0.0-3.0","subject":"72qwc5323gvazn8","sona":"9613"},{"rt":null,"stimulus":"<div style=\"font-size:60px;\">+</div>","key_press":null,"trial_type":"html-keyboard-response","trial_index":3,"time_elapsed":26678,"internal_node_id":"0.0-4.0","subject":"72qwc5323gvazn8","sona":"9613"},{"trial_type":"training","trial_index":4,"time_elapsed":30102,"internal_node_id":"0.0-5.0","subject":"72qwc5323gvazn8","sona":"9613"},{"rt":690,"stimulus":"<p>Welche Sequenz haben Sie als natürlicher empfunden?</p>","key_press":70,"trial_type":"html-keyboard-response","trial_index":5,"time_elapsed":30797,"internal_node_id":"0.0-6.0","subject":"72qwc5323gvazn8","sona":"9613"},{"rt":3436,"stimulus":"<p>Das Experiment startet nun.</p><p><small>Bitte drücken Sie den Knopf, wenn Sie bereit sind.</small></p>","button_pressed":"0","trial_type":"html-button-response","trial_index":6,"time_elapsed":34236,"internal_node_id":"0.0-7.0","subject":"72qwc5323gvazn8","sona":"9613"},{"rt":1353,"stimulus":"<p>Bereit?</p>","key_press":32,"trial_type":"html-keyboard-response","trial_index":7,"time_elapsed":35595,"internal_node_id":"0.0-8.0-0.0","subject":"72qwc5323gvazn8","sona":"9613"},{"rt":null,"stimulus":"<div style=\"font-size:60px;\">+</div>","key_press":null,"trial_type":"html-keyboard-response","trial_index":8,"time_elapsed":37633,"internal_node_id":"0.0-8.0-1.0","subject":"72qwc5323gvazn8","sona":"9613"},{"trial_type":"turing-test","trial_index":9,"time_elapsed":43655,"internal_node_id":"0.0-8.0-2.0","subject":"72qwc5323gvazn8","sona":"9613"},{"rt":759,"stimulus":"<p>Welche Sequenz haben Sie als natürlicher empfunden?</p>","key_press":74,"test_part":"response","test_stimulus":{"position":0,"left":"bvh/return-bottle-training3-lines.txt","right":"bvh/vr_prediction_models/model(vcgpdm)-dataset(return-bottle)-mode(ELBO)-parts(3)-dyn(30)-lvm(15)-hold(3)/final-lines.txt","att_check":false},"trial_type":"html-keyboard-response","trial_index":10,"time_elapsed":44422,"internal_node_id":"0.0-8.0-3.0","subject":"72qwc5323gvazn8","sona":"9613"},{"rt":864,"stimulus":"<p>Bereit?</p>","key_press":32,"trial_type":"html-keyboard-response","trial_index":11,"time_elapsed":45289,"internal_node_id":"0.0-8.0-0.1","subject":"72qwc5323gvazn8","sona":"9613"},{"rt":null,"stimulus":"<div style=\"font-size:60px;\">+</div>","key_press":null,"trial_type":"html-keyboard-response","trial_index":12,"time_elapsed":47314,"internal_node_id":"0.0-8.0-1.1","subject":"72qwc5323gvazn8","sona":"9613"},{"trial_type":"turing-test","trial_index":13,"time_elapsed":53652,"internal_node_id":"0.0-8.0-2.1","subject":"72qwc5323gvazn8","sona":"9613"},{"rt":1859,"stimulus":"<p>Welche Sequenz haben Sie als natürlicher empfunden?</p>","key_press":70,"test_part":"response","test_stimulus":{"position":0,"left":"bvh/pass-bottle-training2-lines.txt","right":"bvh/vr_prediction_models/model(vcgpdm)-dataset(pass-bottle)-mode(ELBO)-parts(1)-dyn(25)-lvm(35)-hold(2)/final-lines.txt","att_check":false},"trial_type":"html-keyboard-response","trial_index":14,"time_elapsed":55516,"internal_node_id":"0.0-8.0-3.1","subject":"72qwc5323gvazn8","sona":"9613"},{"rt":354,"stimulus":"<p>Bereit?</p>","key_press":32,"trial_type":"html-keyboard-response","trial_index":15,"time_elapsed":55873,"internal_node_id":"0.0-8.0-0.2","subject":"72qwc5323gvazn8","sona":"9613"},{"rt":null,"stimulus":"<div style=\"font-size:60px;\">+</div>","key_press":null,"trial_type":"html-keyboard-response","trial_index":16,"time_elapsed":57902,"internal_node_id":"0.0-8.0-1.2","subject":"72qwc5323gvazn8","sona":"9613"},{"trial_type":"turing-test","trial_index":17,"time_elapsed":61303,"internal_node_id":"0.0-8.0-2.2","subject":"72qwc5323gvazn8","sona":"9613"},{"rt":1004,"stimulus":"<p>Welche Sequenz haben Sie als natürlicher empfunden?</p>","key_press":74,"test_part":"response","test_stimulus":{"position":0,"left":"bvh/pass-bottle-hold-training2-lines.txt","right":"bvh/vr_prediction_models/model(dmp)-dataset(pass-bottle-hold)-npsi(80)-hold(2)/final-lines.txt","att_check":false},"trial_type":"html-keyboard-response","trial_index":18,"time_elapsed":62313,"internal_node_id":"0.0-8.0-3.2","subject":"72qwc5323gvazn8","sona":"9613"},{"rt":450,"stimulus":"<p>Bereit?</p>","key_press":32,"trial_type":"html-keyboard-response","trial_index":19,"time_elapsed":62765,"internal_node_id":"0.0-8.0-0.3","subject":"72qwc5323gvazn8","sona":"9613"},{"rt":null,"stimulus":"<div style=\"font-size:60px;\">+</div>","key_press":null,"trial_type":"html-keyboard-response","trial_index":20,"time_elapsed":64793,"internal_node_id":"0.0-8.0-1.3","subject":"72qwc5323gvazn8","sona":"9613"},{"trial_type":"turing-test","trial_index":21,"time_elapsed":70622,"internal_node_id":"0.0-8.0-2.3","subject":"72qwc5323gvazn8","sona":"9613"},{"rt":312,"stimulus":"<p>Welche Sequenz haben Sie als natürlicher empfunden?</p>","key_press":70,"test_part":"response","test_stimulus":{"position":0,"left":"bvh/return-bottle-training3-lines.txt","right":"bvh/vr_prediction_models/model(tmp)-dataset(return-bottle)-numprim(5)-hold(3)/final-lines.txt","att_check":false},"trial_type":"html-keyboard-response","trial_index":22,"time_elapsed":70940,"internal_node_id":"0.0-8.0-3.3","subject":"72qwc5323gvazn8","sona":"9613"},{"rt":702,"stimulus":"<p>Bereit?</p>","key_press":32,"trial_type":"html-keyboard-response","trial_index":23,"time_elapsed":71648,"internal_node_id":"0.0-8.0-0.4","subject":"72qwc5323gvazn8","sona":"9613"},{"rt":null,"stimulus":"<div style=\"font-size:60px;\">+</div>","key_press":null,"trial_type":"html-keyboard-response","trial_index":24,"time_elapsed":73667,"internal_node_id":"0.0-8.0-1.4","subject":"72qwc5323gvazn8","sona":"9613"},{"trial_type":"turing-test","trial_index":25,"time_elapsed":77324,"internal_node_id":"0.0-8.0-2.4","subject":"72qwc5323gvazn8","sona":"9613"},{"rt":700,"stimulus":"<p>Welche Sequenz haben Sie als natürlicher empfunden?</p>","key_press":74,"test_part":"response","test_stimulus":{"position":0,"left":"bvh/pass-bottle-hold-training4-lines.txt","right":"bvh/vr_prediction_models/model(tmp)-dataset(pass-bottle-hold)-numprim(3)-hold(4)/final-lines.txt","att_check":false},"trial_type":"html-keyboard-response","trial_index":26,"time_elapsed":78033,"internal_node_id":"0.0-8.0-3.4","subject":"72qwc5323gvazn8","sona":"9613"},{"rt":408,"stimulus":"<p>Bereit?</p>","key_press":32,"trial_type":"html-keyboard-response","trial_index":27,"time_elapsed":78448,"internal_node_id":"0.0-8.0-0.5","subject":"72qwc5323gvazn8","sona":"9613"},{"rt":null,"stimulus":"<div style=\"font-size:60px;\">+</div>","key_press":null,"trial_type":"html-keyboard-response","trial_index":28,"time_elapsed":80464,"internal_node_id":"0.0-8.0-1.5","subject":"72qwc5323gvazn8","sona":"9613"},{"trial_type":"turing-test","trial_index":29,"time_elapsed":84264,"internal_node_id":"0.0-8.0-2.5","subject":"72qwc5323gvazn8","sona":"9613"},{"rt":1282,"stimulus":"<p>Welche Sequenz haben Sie als natürlicher empfunden?</p>","key_press":74,"test_part":"response","test_stimulus":{"position":1,"left":"bvh/vr_prediction_models/model(vcgpdm)-dataset(pass-bottle-hold)-mode(ELBO)-parts(3)-dyn(20)-lvm(20)-hold(4)/final-lines.txt","right":"bvh/pass-bottle-hold-training4-lines.txt","att_check":false},"trial_type":"html-keyboard-response","trial_index":30,"time_elapsed":85556,"internal_node_id":"0.0-8.0-3.5","subject":"72qwc5323gvazn8","sona":"9613"},{"rt":302,"stimulus":"<p>Bereit?</p>","key_press":32,"trial_type":"html-keyboard-response","trial_index":31,"time_elapsed":85862,"internal_node_id":"0.0-8.0-0.6","subject":"72qwc5323gvazn8","sona":"9613"},{"rt":null,"stimulus":"<div style=\"font-size:60px;\">+</div>","key_press":null,"trial_type":"html-keyboard-response","trial_index":32,"time_elapsed":87881,"internal_node_id":"0.0-8.0-1.6","subject":"72qwc5323gvazn8","sona":"9613"},{"trial_type":"turing-test","trial_index":33,"time_elapsed":94005,"internal_node_id":"0.0-8.0-2.6","subject":"72qwc5323gvazn8","sona":"9613"},{"rt":744,"stimulus":"<p>Welche Sequenz haben Sie als natürlicher empfunden?</p>","key_press":70,"test_part":"response","test_stimulus":{"position":0,"left":"bvh/pass-bottle-training2-lines.txt","right":"bvh/vr_prediction_models/model(tmp)-dataset(pass-bottle)-numprim(13)-hold(2)/final-lines.txt","att_check":false},"trial_type":"html-keyboard-response","trial_index":34,"time_elapsed":94756,"internal_node_id":"0.0-8.0-3.6","subject":"72qwc5323gvazn8","sona":"9613"},{"rt":309,"stimulus":"<p>Bereit?</p>","key_press":32,"trial_type":"html-keyboard-response","trial_index":35,"time_elapsed":95070,"internal_node_id":"0.0-8.0-0.7","subject":"72qwc5323gvazn8","sona":"9613"},{"rt":null,"stimulus":"<div style=\"font-size:60px;\">+</div>","key_press":null,"trial_type":"html-keyboard-response","trial_index":36,"time_elapsed":97088,"internal_node_id":"0.0-8.0-1.7","subject":"72qwc5323gvazn8","sona":"9613"},{"trial_type":"turing-test","trial_index":37,"time_elapsed":103590,"internal_node_id":"0.0-8.0-2.7","subject":"72qwc5323gvazn8","sona":"9613"},{"rt":930,"stimulus":"<p>Welche Sequenz haben Sie als natürlicher empfunden?</p>","key_press":70,"test_part":"response","test_stimulus":{"position":0,"left":"bvh/return-bottle-training2-lines.txt","right":"bvh/vr_prediction_models/model(vcgpdm)-dataset(return-bottle)-mode(ELBO)-parts(1)-dyn(20)-lvm(20)-hold(2)/final-lines.txt","att_check":false},"trial_type":"html-keyboard-response","trial_index":38,"time_elapsed":104523,"internal_node_id":"0.0-8.0-3.7","subject":"72qwc5323gvazn8","sona":"9613"},{"rt":370,"stimulus":"<p>Bereit?</p>","key_press":32,"trial_type":"html-keyboard-response","trial_index":39,"time_elapsed":104896,"internal_node_id":"0.0-8.0-0.8","subject":"72qwc5323gvazn8","sona":"9613"},{"rt":null,"stimulus":"<div style=\"font-size:60px;\">+</div>","key_press":null,"trial_type":"html-keyboard-response","trial_index":40,"time_elapsed":106903,"internal_node_id":"0.0-8.0-1.8","subject":"72qwc5323gvazn8","sona":"9613"},{"trial_type":"turing-test","trial_index":41,"time_elapsed":113573,"internal_node_id":"0.0-8.0-2.8","subject":"72qwc5323gvazn8","sona":"9613"},{"rt":466,"stimulus":"<p>Welche Sequenz haben Sie als natürlicher empfunden?</p>","key_press":70,"test_part":"response","test_stimulus":{"position":0,"left":"bvh/return-bottle-training2-lines.txt","right":"bvh/vr_prediction_models/model(dmp)-dataset(return-bottle)-npsi(40)-hold(2)/final-lines.txt","att_check":false},"trial_type":"html-keyboard-response","trial_index":42,"time_elapsed":114042,"internal_node_id":"0.0-8.0-3.8","subject":"72qwc5323gvazn8","sona":"9613"},{"rt":304,"stimulus":"<p>Bereit?</p>","key_press":32,"trial_type":"html-keyboard-response","trial_index":43,"time_elapsed":114349,"internal_node_id":"0.0-8.0-0.9","subject":"72qwc5323gvazn8","sona":"9613"},{"rt":null,"stimulus":"<div style=\"font-size:60px;\">+</div>","key_press":null,"trial_type":"html-keyboard-response","trial_index":44,"time_elapsed":116354,"internal_node_id":"0.0-8.0-1.9","subject":"72qwc5323gvazn8","sona":"9613"},{"trial_type":"turing-test","trial_index":45,"time_elapsed":120090,"internal_node_id":"0.0-8.0-2.9","subject":"72qwc5323gvazn8","sona":"9613"},{"rt":327,"stimulus":"<p>Welche Sequenz haben Sie als natürlicher empfunden?</p>","key_press":74,"test_part":"response","test_stimulus":{"position":1,"left":"bvh/vr_prediction_models/model(tmp)-dataset(return-bottle-hold)-numprim(11)-hold(4)/final-lines.txt","right":"bvh/return-bottle-hold-training4-lines.txt","att_check":false},"trial_type":"html-keyboard-response","trial_index":46,"time_elapsed":120422,"internal_node_id":"0.0-8.0-3.9","subject":"72qwc5323gvazn8","sona":"9613"},{"rt":502,"stimulus":"<p>Bereit?</p>","key_press":32,"trial_type":"html-keyboard-response","trial_index":47,"time_elapsed":120927,"internal_node_id":"0.0-8.0-0.10","subject":"72qwc5323gvazn8","sona":"9613"},{"rt":null,"stimulus":"<div style=\"font-size:60px;\">+</div>","key_press":null,"trial_type":"html-keyboard-response","trial_index":48,"time_elapsed":122937,"internal_node_id":"0.0-8.0-1.10","subject":"72qwc5323gvazn8","sona":"9613"},{"trial_type":"turing-test","trial_index":49,"time_elapsed":128989,"internal_node_id":"0.0-8.0-2.10","subject":"72qwc5323gvazn8","sona":"9613"},{"rt":385,"stimulus":"<p>Welche Sequenz haben Sie als natürlicher empfunden?</p>","key_press":70,"test_part":"response","test_stimulus":{"position":0,"left":"bvh/return-bottle-training3-lines.txt","right":"bvh/vr_prediction_models/model(vcgpdm)-dataset(return-bottle)-mode(ELBO)-parts(1)-dyn(10)-lvm(5)-hold(3)/final-lines.txt","att_check":false},"trial_type":"html-keyboard-response","trial_index":50,"time_elapsed":129381,"internal_node_id":"0.0-8.0-3.10","subject":"72qwc5323gvazn8","sona":"9613"},{"rt":498,"stimulus":"<p>Bereit?</p>","key_press":32,"trial_type":"html-keyboard-response","trial_index":51,"time_elapsed":129887,"internal_node_id":"0.0-8.0-0.11","subject":"72qwc5323gvazn8","sona":"9613"},{"rt":null,"stimulus":"<div style=\"font-size:60px;\">+</div>","key_press":null,"trial_type":"html-keyboard-response","trial_index":52,"time_elapsed":131897,"internal_node_id":"0.0-8.0-1.11","subject":"72qwc5323gvazn8","sona":"9613"},{"trial_type":"turing-test","trial_index":53,"time_elapsed":138359,"internal_node_id":"0.0-8.0-2.11","subject":"72qwc5323gvazn8","sona":"9613"}]