[{"rt":1879,"stimulus":"<p>Welcome!<br> Please choose your language to start the experiment in the chosen language.</p><p>Willkommen!<br> Bitte wählen Sie eine Sprache, um das Experiment in der ausgewählten Sprache zu starten</p>","button_pressed":"1","trial_type":"html-button-response","trial_index":0,"time_elapsed":1926,"internal_node_id":"0.0-0.0","subject":"dsy1wncn7lo2oou","sona":"9613"},{"view_history":"[{\"page_index\":0,\"viewing_time\":4201},{\"page_index\":1,\"viewing_time\":2104},{\"page_index\":2,\"viewing_time\":1448},{\"page_index\":3,\"viewing_time\":2777},{\"page_index\":4,\"viewing_time\":2534}]","rt":13066,"trial_type":"instructions","trial_index":1,"time_elapsed":15001,"internal_node_id":"0.0-1.0-0.0","subject":"dsy1wncn7lo2oou","sona":"9613"},{"rt":1059,"stimulus":"<p>Bereit?</p>","key_press":32,"trial_type":"html-keyboard-response","trial_index":2,"time_elapsed":16066,"internal_node_id":"0.0-3.0","subject":"dsy1wncn7lo2oou","sona":"9613"},{"rt":null,"stimulus":"<div style=\"font-size:60px;\">+</div>","key_press":null,"trial_type":"html-keyboard-response","trial_index":3,"time_elapsed":18070,"internal_node_id":"0.0-4.0","subject":"dsy1wncn7lo2oou","sona":"9613"},{"trial_type":"training","trial_index":4,"time_elapsed":21686,"internal_node_id":"0.0-5.0","subject":"dsy1wncn7lo2oou","sona":"9613"},{"rt":364,"stimulus":"<p>Welche Sequenz haben Sie als natürlicher empfunden?</p>","key_press":70,"trial_type":"html-keyboard-response","trial_index":5,"time_elapsed":22058,"internal_node_id":"0.0-6.0","subject":"dsy1wncn7lo2oou","sona":"9613"},{"rt":2677,"stimulus":"<p>Das Experiment startet nun.</p><p><small>Bitte drücken Sie den Knopf, wenn Sie bereit sind.</small></p>","button_pressed":"0","trial_type":"html-button-response","trial_index":6,"time_elapsed":24739,"internal_node_id":"0.0-7.0","subject":"dsy1wncn7lo2oou","sona":"9613"},{"rt":3318,"stimulus":"<p>Bereit?</p>","key_press":32,"trial_type":"html-keyboard-response","trial_index":7,"time_elapsed":28062,"internal_node_id":"0.0-8.0-0.0","subject":"dsy1wncn7lo2oou","sona":"9613"},{"rt":null,"stimulus":"<div style=\"font-size:60px;\">+</div>","key_press":null,"trial_type":"html-keyboard-response","trial_index":8,"time_elapsed":30066,"internal_node_id":"0.0-8.0-1.0","subject":"dsy1wncn7lo2oou","sona":"9613"},{"trial_type":"turing-test","trial_index":9,"time_elapsed":33510,"internal_node_id":"0.0-8.0-2.0","subject":"dsy1wncn7lo2oou","sona":"9613"},{"rt":518,"stimulus":"<p>Welche Sequenz haben Sie als natürlicher empfunden?</p>","key_press":74,"test_part":"response","test_stimulus":{"position":1,"left":"bvh/vr_prediction_models/model(tmp)-dataset(pass-bottle-hold)-numprim(15)-hold(2)/final-lines.txt","right":"bvh/pass-bottle-hold-training2-lines.txt","att_check":false},"trial_type":"html-keyboard-response","trial_index":10,"time_elapsed":34039,"internal_node_id":"0.0-8.0-3.0","subject":"dsy1wncn7lo2oou","sona":"9613"},{"rt":403,"stimulus":"<p>Bereit?</p>","key_press":32,"trial_type":"html-keyboard-response","trial_index":11,"time_elapsed":34447,"internal_node_id":"0.0-8.0-0.1","subject":"dsy1wncn7lo2oou","sona":"9613"},{"rt":null,"stimulus":"<div style=\"font-size:60px;\">+</div>","key_press":null,"trial_type":"html-keyboard-response","trial_index":12,"time_elapsed":36451,"internal_node_id":"0.0-8.0-1.1","subject":"dsy1wncn7lo2oou","sona":"9613"},{"trial_type":"turing-test","trial_index":13,"time_elapsed":41990,"internal_node_id":"0.0-8.0-2.1","subject":"dsy1wncn7lo2oou","sona":"9613"},{"rt":17174,"stimulus":"<p>Welche Sequenz haben Sie als natürlicher empfunden?</p>","key_press":70,"test_part":"response","test_stimulus":{"position":0,"left":"bvh/return-bottle-training0-lines.txt","right":"bvh/vr_prediction_models/model(dmp)-dataset(return-bottle)-npsi(70)-hold(0)/final-lines.txt","att_check":true},"trial_type":"html-keyboard-response","trial_index":14,"time_elapsed":59165,"internal_node_id":"0.0-8.0-3.1","subject":"dsy1wncn7lo2oou","sona":"9613"},{"rt":322,"stimulus":"<p>Bereit?</p>","key_press":32,"trial_type":"html-keyboard-response","trial_index":15,"time_elapsed":59490,"internal_node_id":"0.0-8.0-0.2","subject":"dsy1wncn7lo2oou","sona":"9613"},{"rt":null,"stimulus":"<div style=\"font-size:60px;\">+</div>","key_press":null,"trial_type":"html-keyboard-response","trial_index":16,"time_elapsed":61492,"internal_node_id":"0.0-8.0-1.2","subject":"dsy1wncn7lo2oou","sona":"9613"},{"trial_type":"turing-test","trial_index":17,"time_elapsed":64830,"internal_node_id":"0.0-8.0-2.2","subject":"dsy1wncn7lo2oou","sona":"9613"},{"rt":531,"stimulus":"<p>Welche Sequenz haben Sie als natürlicher empfunden?</p>","key_press":74,"test_part":"response","test_stimulus":{"position":1,"left":"bvh/vr_prediction_models/model(dmp)-dataset(pass-bottle-hold)-npsi(40)-hold(1)/final-lines.txt","right":"bvh/pass-bottle-hold-training1-lines.txt","att_check":false},"trial_type":"html-keyboard-response","trial_index":18,"time_elapsed":65365,"internal_node_id":"0.0-8.0-3.2","subject":"dsy1wncn7lo2oou","sona":"9613"},{"rt":364,"stimulus":"<p>Bereit?</p>","key_press":32,"trial_type":"html-keyboard-response","trial_index":19,"time_elapsed":65733,"internal_node_id":"0.0-8.0-0.3","subject":"dsy1wncn7lo2oou","sona":"9613"},{"rt":null,"stimulus":"<div style=\"font-size:60px;\">+</div>","key_press":null,"trial_type":"html-keyboard-response","trial_index":20,"time_elapsed":67735,"internal_node_id":"0.0-8.0-1.3","subject":"dsy1wncn7lo2oou","sona":"9613"},{"trial_type":"turing-test","trial_index":21,"time_elapsed":73753,"internal_node_id":"0.0-8.0-2.3","subject":"dsy1wncn7lo2oou","sona":"9613"},{"rt":622,"stimulus":"<p>Welche Sequenz haben Sie als natürlicher empfunden?</p>","key_press":70,"test_part":"response","test_stimulus":{"position":0,"left":"bvh/pass-bottle-training4-lines.txt","right":"bvh/vr_prediction_models/model(vcgpdm)-dataset(pass-bottle)-mode(ELBO)-parts(3)-dyn(25)-lvm(30)-hold(4)/final-lines.txt","att_check":false},"trial_type":"html-keyboard-response","trial_index":22,"time_elapsed":74397,"internal_node_id":"0.0-8.0-3.3","subject":"dsy1wncn7lo2oou","sona":"9613"},{"rt":317,"stimulus":"<p>Bereit?</p>","key_press":32,"trial_type":"html-keyboard-response","trial_index":23,"time_elapsed":74722,"internal_node_id":"0.0-8.0-0.4","subject":"dsy1wncn7lo2oou","sona":"9613"},{"rt":null,"stimulus":"<div style=\"font-size:60px;\">+</div>","key_press":null,"trial_type":"html-keyboard-response","trial_index":24,"time_elapsed":76724,"internal_node_id":"0.0-8.0-1.4","subject":"dsy1wncn7lo2oou","sona":"9613"},{"trial_type":"turing-test","trial_index":25,"time_elapsed":83768,"internal_node_id":"0.0-8.0-2.4","subject":"dsy1wncn7lo2oou","sona":"9613"},{"rt":275,"stimulus":"<p>Welche Sequenz haben Sie als natürlicher empfunden?</p>","key_press":74,"test_part":"response","test_stimulus":{"position":1,"left":"bvh/vr_prediction_models/model(vcgpdm)-dataset(pass-bottle)-mode(ELBO)-parts(3)-dyn(35)-lvm(20)-hold(0)/final-lines.txt","right":"bvh/pass-bottle-training0-lines.txt","att_check":false},"trial_type":"html-keyboard-response","trial_index":26,"time_elapsed":84049,"internal_node_id":"0.0-8.0-3.4","subject":"dsy1wncn7lo2oou","sona":"9613"},{"rt":322,"stimulus":"<p>Bereit?</p>","key_press":32,"trial_type":"html-keyboard-response","trial_index":27,"time_elapsed":84376,"internal_node_id":"0.0-8.0-0.5","subject":"dsy1wncn7lo2oou","sona":"9613"},{"rt":null,"stimulus":"<div style=\"font-size:60px;\">+</div>","key_press":null,"trial_type":"html-keyboard-response","trial_index":28,"time_elapsed":86378,"internal_node_id":"0.0-8.0-1.5","subject":"dsy1wncn7lo2oou","sona":"9613"},{"trial_type":"turing-test","trial_index":29,"time_elapsed":92804,"internal_node_id":"0.0-8.0-2.5","subject":"dsy1wncn7lo2oou","sona":"9613"},{"rt":291,"stimulus":"<p>Welche Sequenz haben Sie als natürlicher empfunden?</p>","key_press":74,"test_part":"response","test_stimulus":{"position":1,"left":"bvh/vr_prediction_models/model(vcgpdm)-dataset(pass-bottle)-mode(ELBO)-parts(1)-dyn(35)-lvm(10)-hold(2)/final-lines.txt","right":"bvh/pass-bottle-training2-lines.txt","att_check":false},"trial_type":"html-keyboard-response","trial_index":30,"time_elapsed":93100,"internal_node_id":"0.0-8.0-3.5","subject":"dsy1wncn7lo2oou","sona":"9613"},{"rt":280,"stimulus":"<p>Bereit?</p>","key_press":32,"trial_type":"html-keyboard-response","trial_index":31,"time_elapsed":93384,"internal_node_id":"0.0-8.0-0.6","subject":"dsy1wncn7lo2oou","sona":"9613"},{"rt":null,"stimulus":"<div style=\"font-size:60px;\">+</div>","key_press":null,"trial_type":"html-keyboard-response","trial_index":32,"time_elapsed":95387,"internal_node_id":"0.0-8.0-1.6","subject":"dsy1wncn7lo2oou","sona":"9613"},{"trial_type":"turing-test","trial_index":33,"time_elapsed":102443,"internal_node_id":"0.0-8.0-2.6","subject":"dsy1wncn7lo2oou","sona":"9613"},{"rt":10824,"stimulus":"<p>Welche Sequenz haben Sie als natürlicher empfunden?</p>","key_press":74,"test_part":"response","test_stimulus":{"position":1,"left":"bvh/vr_prediction_models/model(vcgpdm)-dataset(pass-bottle)-mode(MAP)-parts(3)-hold(0)/final-lines.txt","right":"bvh/pass-bottle-training0-lines.txt","att_check":false},"trial_type":"html-keyboard-response","trial_index":34,"time_elapsed":113273,"internal_node_id":"0.0-8.0-3.6","subject":"dsy1wncn7lo2oou","sona":"9613"},{"rt":1551,"stimulus":"<p>Bereit?</p>","key_press":32,"trial_type":"html-keyboard-response","trial_index":35,"time_elapsed":114828,"internal_node_id":"0.0-8.0-0.7","subject":"dsy1wncn7lo2oou","sona":"9613"},{"rt":null,"stimulus":"<div style=\"font-size:60px;\">+</div>","key_press":null,"trial_type":"html-keyboard-response","trial_index":36,"time_elapsed":116830,"internal_node_id":"0.0-8.0-1.7","subject":"dsy1wncn7lo2oou","sona":"9613"},{"trial_type":"turing-test","trial_index":37,"time_elapsed":120600,"internal_node_id":"0.0-8.0-2.7","subject":"dsy1wncn7lo2oou","sona":"9613"},{"rt":10871,"stimulus":"<p>Welche Sequenz haben Sie als natürlicher empfunden?</p>","key_press":74,"test_part":"response","test_stimulus":{"position":1,"left":"bvh/vr_prediction_models/model(vcgpdm)-dataset(return-bottle-hold)-mode(ELBO)-parts(3)-dyn(25)-lvm(15)-hold(2)/final-lines.txt","right":"bvh/return-bottle-hold-training2-lines.txt","att_check":false},"trial_type":"html-keyboard-response","trial_index":38,"time_elapsed":131479,"internal_node_id":"0.0-8.0-3.7","subject":"dsy1wncn7lo2oou","sona":"9613"},{"rt":808,"stimulus":"<p>Bereit?</p>","key_press":32,"trial_type":"html-keyboard-response","trial_index":39,"time_elapsed":132290,"internal_node_id":"0.0-8.0-0.8","subject":"dsy1wncn7lo2oou","sona":"9613"},{"rt":null,"stimulus":"<div style=\"font-size:60px;\">+</div>","key_press":null,"trial_type":"html-keyboard-response","trial_index":40,"time_elapsed":134292,"internal_node_id":"0.0-8.0-1.8","subject":"dsy1wncn7lo2oou","sona":"9613"},{"trial_type":"turing-test","trial_index":41,"time_elapsed":141028,"internal_node_id":"0.0-8.0-2.8","subject":"dsy1wncn7lo2oou","sona":"9613"},{"rt":5270,"stimulus":"<p>Welche Sequenz haben Sie als natürlicher empfunden?</p>","key_press":74,"test_part":"response","test_stimulus":{"position":0,"left":"bvh/return-bottle-training2-lines.txt","right":"bvh/vr_prediction_models/model(vcgpdm)-dataset(return-bottle)-mode(ELBO)-parts(1)-dyn(25)-lvm(35)-hold(2)/final-lines.txt","att_check":false},"trial_type":"html-keyboard-response","trial_index":42,"time_elapsed":146304,"internal_node_id":"0.0-8.0-3.8","subject":"dsy1wncn7lo2oou","sona":"9613"},{"rt":1637,"stimulus":"<p>Bereit?</p>","key_press":32,"trial_type":"html-keyboard-response","trial_index":43,"time_elapsed":147943,"internal_node_id":"0.0-8.0-0.9","subject":"dsy1wncn7lo2oou","sona":"9613"},{"rt":null,"stimulus":"<div style=\"font-size:60px;\">+</div>","key_press":null,"trial_type":"html-keyboard-response","trial_index":44,"time_elapsed":149945,"internal_node_id":"0.0-8.0-1.9","subject":"dsy1wncn7lo2oou","sona":"9613"},{"trial_type":"turing-test","trial_index":45,"time_elapsed":153510,"internal_node_id":"0.0-8.0-2.9","subject":"dsy1wncn7lo2oou","sona":"9613"},{"rt":1110,"stimulus":"<p>Welche Sequenz haben Sie als natürlicher empfunden?</p>","key_press":70,"test_part":"response","test_stimulus":{"position":1,"left":"bvh/vr_prediction_models/model(vcgpdm)-dataset(pass-bottle-hold)-mode(ELBO)-parts(1)-dyn(10)-lvm(25)-hold(2)/final-lines.txt","right":"bvh/pass-bottle-hold-training2-lines.txt","att_check":false},"trial_type":"html-keyboard-response","trial_index":46,"time_elapsed":154627,"internal_node_id":"0.0-8.0-3.9","subject":"dsy1wncn7lo2oou","sona":"9613"},{"rt":944,"stimulus":"<p>Bereit?</p>","key_press":32,"trial_type":"html-keyboard-response","trial_index":47,"time_elapsed":155577,"internal_node_id":"0.0-8.0-0.10","subject":"dsy1wncn7lo2oou","sona":"9613"},{"rt":null,"stimulus":"<div style=\"font-size:60px;\">+</div>","key_press":null,"trial_type":"html-keyboard-response","trial_index":48,"time_elapsed":157581,"internal_node_id":"0.0-8.0-1.10","subject":"dsy1wncn7lo2oou","sona":"9613"},{"trial_type":"turing-test","trial_index":49,"time_elapsed":163430,"internal_node_id":"0.0-8.0-2.10","subject":"dsy1wncn7lo2oou","sona":"9613"},{"rt":419,"stimulus":"<p>Welche Sequenz haben Sie als natürlicher empfunden?</p>","key_press":74,"test_part":"response","test_stimulus":{"position":1,"left":"bvh/vr_prediction_models/model(dmp)-dataset(return-bottle)-npsi(70)-hold(4)/final-lines.txt","right":"bvh/return-bottle-training4-lines.txt","att_check":false},"trial_type":"html-keyboard-response","trial_index":50,"time_elapsed":163852,"internal_node_id":"0.0-8.0-3.10","subject":"dsy1wncn7lo2oou","sona":"9613"},{"rt":245,"stimulus":"<p>Bereit?</p>","key_press":32,"trial_type":"html-keyboard-response","trial_index":51,"time_elapsed":164104,"internal_node_id":"0.0-8.0-0.11","subject":"dsy1wncn7lo2oou","sona":"9613"},{"rt":null,"stimulus":"<div style=\"font-size:60px;\">+</div>","key_press":null,"trial_type":"html-keyboard-response","trial_index":52,"time_elapsed":166106,"internal_node_id":"0.0-8.0-1.11","subject":"dsy1wncn7lo2oou","sona":"9613"},{"trial_type":"turing-test","trial_index":53,"time_elapsed":172020,"internal_node_id":"0.0-8.0-2.11","subject":"dsy1wncn7lo2oou","sona":"9613"}]