[{"rt":6068.55500000529,"stimulus":"<p>Welcome!<br> Please choose your language to start the experiment in the chosen language.</p><p>Willkommen!<br> Bitte wählen Sie eine Sprache, um das Experiment in der ausgewählten Sprache zu starten</p>","button_pressed":"1","trial_type":"html-button-response","trial_index":0,"time_elapsed":6085,"internal_node_id":"0.0-0.0","subject":"91avkw761tq6btm","sona":"6091"},{"view_history":"[{\"page_index\":0,\"viewing_time\":1250.3300000098534},{\"page_index\":1,\"viewing_time\":2010.9199999715202},{\"page_index\":2,\"viewing_time\":3255.8500000159256},{\"page_index\":3,\"viewing_time\":2099.424999963958},{\"page_index\":4,\"viewing_time\":1745.4150000121444}]","rt":10362.91500000516,"trial_type":"instructions","trial_index":1,"time_elapsed":16449,"internal_node_id":"0.0-1.0-0.0","subject":"91avkw761tq6btm","sona":"6091"},{"rt":1384.1849999735132,"stimulus":"<p>Bereit?</p>","key_press":32,"trial_type":"html-keyboard-response","trial_index":2,"time_elapsed":17835,"internal_node_id":"0.0-3.0","subject":"91avkw761tq6btm","sona":"6091"},{"rt":null,"stimulus":"<div style=\"font-size:60px;\">+</div>","key_press":null,"trial_type":"html-keyboard-response","trial_index":3,"time_elapsed":19839,"internal_node_id":"0.0-4.0","subject":"91avkw761tq6btm","sona":"6091"},{"trial_type":"training","trial_index":4,"time_elapsed":23074,"internal_node_id":"0.0-5.0","subject":"91avkw761tq6btm","sona":"6091"},{"rt":1148.749999993015,"stimulus":"<p>Welche Sequenz haben Sie als natürlicher empfunden?</p>","key_press":70,"trial_type":"html-keyboard-response","trial_index":5,"time_elapsed":24224,"internal_node_id":"0.0-6.0","subject":"91avkw761tq6btm","sona":"6091"},{"rt":4690.370000025723,"stimulus":"<p>Das Experiment startet nun.</p><p><small>Bitte drücken Sie den Knopf, wenn Sie bereit sind.</small></p>","button_pressed":"0","trial_type":"html-button-response","trial_index":6,"time_elapsed":28917,"internal_node_id":"0.0-7.0","subject":"91avkw761tq6btm","sona":"6091"},{"rt":1874.3149999645539,"stimulus":"<p>Bereit?</p>","key_press":32,"trial_type":"html-keyboard-response","trial_index":7,"time_elapsed":30793,"internal_node_id":"0.0-8.0-0.0","subject":"91avkw761tq6btm","sona":"6091"},{"rt":null,"stimulus":"<div style=\"font-size:60px;\">+</div>","key_press":null,"trial_type":"html-keyboard-response","trial_index":8,"time_elapsed":32797,"internal_node_id":"0.0-8.0-1.0","subject":"91avkw761tq6btm","sona":"6091"},{"trial_type":"turing-test","trial_index":9,"time_elapsed":38004,"internal_node_id":"0.0-8.0-2.0","subject":"91avkw761tq6btm","sona":"6091"},{"rt":573.1350000132807,"stimulus":"<p>Welche Sequenz haben Sie als natürlicher empfunden?</p>","key_press":74,"test_part":"response","test_stimulus":{"position":1,"left":"bvh/vr_prediction_models/model(vcgpdm)-dataset(return-bottle-hold)-mode(MAP)-parts(3)-hold(0)/final-lines.txt","right":"bvh/return-bottle-hold-training0-lines.txt","att_check":false},"trial_type":"html-keyboard-response","trial_index":10,"time_elapsed":38582,"internal_node_id":"0.0-8.0-3.0","subject":"91avkw761tq6btm","sona":"6091"},{"rt":908.8650000048801,"stimulus":"<p>Bereit?</p>","key_press":32,"trial_type":"html-keyboard-response","trial_index":11,"time_elapsed":39494,"internal_node_id":"0.0-8.0-0.1","subject":"91avkw761tq6btm","sona":"6091"},{"rt":null,"stimulus":"<div style=\"font-size:60px;\">+</div>","key_press":null,"trial_type":"html-keyboard-response","trial_index":12,"time_elapsed":41497,"internal_node_id":"0.0-8.0-1.1","subject":"91avkw761tq6btm","sona":"6091"},{"trial_type":"turing-test","trial_index":13,"time_elapsed":45135,"internal_node_id":"0.0-8.0-2.1","subject":"91avkw761tq6btm","sona":"6091"},{"rt":3548.5249999910593,"stimulus":"<p>Welche Sequenz haben Sie als natürlicher empfunden?</p>","key_press":74,"test_part":"response","test_stimulus":{"position":1,"left":"bvh/vr_prediction_models/model(dmp)-dataset(return-bottle-hold)-npsi(50)-hold(3)/final-lines.txt","right":"bvh/return-bottle-hold-training3-lines.txt","att_check":false},"trial_type":"html-keyboard-response","trial_index":14,"time_elapsed":48685,"internal_node_id":"0.0-8.0-3.1","subject":"91avkw761tq6btm","sona":"6091"},{"rt":567.090000025928,"stimulus":"<p>Bereit?</p>","key_press":32,"trial_type":"html-keyboard-response","trial_index":15,"time_elapsed":49256,"internal_node_id":"0.0-8.0-0.2","subject":"91avkw761tq6btm","sona":"6091"},{"rt":null,"stimulus":"<div style=\"font-size:60px;\">+</div>","key_press":null,"trial_type":"html-keyboard-response","trial_index":16,"time_elapsed":51258,"internal_node_id":"0.0-8.0-1.2","subject":"91avkw761tq6btm","sona":"6091"},{"trial_type":"turing-test","trial_index":17,"time_elapsed":57450,"internal_node_id":"0.0-8.0-2.2","subject":"91avkw761tq6btm","sona":"6091"},{"rt":1123.0050000012852,"stimulus":"<p>Welche Sequenz haben Sie als natürlicher empfunden?</p>","key_press":70,"test_part":"response","test_stimulus":{"position":0,"left":"bvh/return-bottle-training1-lines.txt","right":"bvh/vr_prediction_models/model(vcgpdm)-dataset(return-bottle)-mode(ELBO)-parts(1)-dyn(30)-lvm(30)-hold(1)/final-lines.txt","att_check":false},"trial_type":"html-keyboard-response","trial_index":18,"time_elapsed":58576,"internal_node_id":"0.0-8.0-3.2","subject":"91avkw761tq6btm","sona":"6091"},{"rt":576.7650000052527,"stimulus":"<p>Bereit?</p>","key_press":32,"trial_type":"html-keyboard-response","trial_index":19,"time_elapsed":59155,"internal_node_id":"0.0-8.0-0.3","subject":"91avkw761tq6btm","sona":"6091"},{"rt":null,"stimulus":"<div style=\"font-size:60px;\">+</div>","key_press":null,"trial_type":"html-keyboard-response","trial_index":20,"time_elapsed":61157,"internal_node_id":"0.0-8.0-1.3","subject":"91avkw761tq6btm","sona":"6091"},{"trial_type":"turing-test","trial_index":21,"time_elapsed":64723,"internal_node_id":"0.0-8.0-2.3","subject":"91avkw761tq6btm","sona":"6091"},{"rt":988.5149999754503,"stimulus":"<p>Welche Sequenz haben Sie als natürlicher empfunden?</p>","key_press":74,"test_part":"response","test_stimulus":{"position":1,"left":"bvh/vr_prediction_models/model(tmp)-dataset(pass-bottle-hold)-numprim(11)-hold(3)/final-lines.txt","right":"bvh/pass-bottle-hold-training3-lines.txt","att_check":false},"trial_type":"html-keyboard-response","trial_index":22,"time_elapsed":65716,"internal_node_id":"0.0-8.0-3.3","subject":"91avkw761tq6btm","sona":"6091"},{"rt":515.8250000094995,"stimulus":"<p>Bereit?</p>","key_press":32,"trial_type":"html-keyboard-response","trial_index":23,"time_elapsed":66236,"internal_node_id":"0.0-8.0-0.4","subject":"91avkw761tq6btm","sona":"6091"},{"rt":null,"stimulus":"<div style=\"font-size:60px;\">+</div>","key_press":null,"trial_type":"html-keyboard-response","trial_index":24,"time_elapsed":68239,"internal_node_id":"0.0-8.0-1.4","subject":"91avkw761tq6btm","sona":"6091"},{"trial_type":"turing-test","trial_index":25,"time_elapsed":71501,"internal_node_id":"0.0-8.0-2.4","subject":"91avkw761tq6btm","sona":"6091"},{"rt":960.3099999949336,"stimulus":"<p>Welche Sequenz haben Sie als natürlicher empfunden?</p>","key_press":70,"test_part":"response","test_stimulus":{"position":0,"left":"bvh/pass-bottle-hold-training1-lines.txt","right":"bvh/vr_prediction_models/model(vcgpdm)-dataset(pass-bottle-hold)-mode(ELBO)-parts(1)-dyn(35)-lvm(10)-hold(1)/final-lines.txt","att_check":false},"trial_type":"html-keyboard-response","trial_index":26,"time_elapsed":72463,"internal_node_id":"0.0-8.0-3.4","subject":"91avkw761tq6btm","sona":"6091"},{"rt":587.7399999881163,"stimulus":"<p>Bereit?</p>","key_press":32,"trial_type":"html-keyboard-response","trial_index":27,"time_elapsed":73054,"internal_node_id":"0.0-8.0-0.5","subject":"91avkw761tq6btm","sona":"6091"},{"rt":null,"stimulus":"<div style=\"font-size:60px;\">+</div>","key_press":null,"trial_type":"html-keyboard-response","trial_index":28,"time_elapsed":75056,"internal_node_id":"0.0-8.0-1.5","subject":"91avkw761tq6btm","sona":"6091"},{"trial_type":"turing-test","trial_index":29,"time_elapsed":80474,"internal_node_id":"0.0-8.0-2.5","subject":"91avkw761tq6btm","sona":"6091"},{"rt":501.56499998411164,"stimulus":"<p>Welche Sequenz haben Sie als natürlicher empfunden?</p>","key_press":70,"test_part":"response","test_stimulus":{"position":0,"left":"bvh/pass-bottle-training1-lines.txt","right":"bvh/vr_prediction_models/model(vcgpdm)-dataset(pass-bottle)-mode(ELBO)-parts(1)-dyn(20)-lvm(30)-hold(1)/final-lines.txt","att_check":false},"trial_type":"html-keyboard-response","trial_index":30,"time_elapsed":80979,"internal_node_id":"0.0-8.0-3.5","subject":"91avkw761tq6btm","sona":"6091"},{"rt":385.37999999243766,"stimulus":"<p>Bereit?</p>","key_press":32,"trial_type":"html-keyboard-response","trial_index":31,"time_elapsed":81368,"internal_node_id":"0.0-8.0-0.6","subject":"91avkw761tq6btm","sona":"6091"},{"rt":null,"stimulus":"<div style=\"font-size:60px;\">+</div>","key_press":null,"trial_type":"html-keyboard-response","trial_index":32,"time_elapsed":83370,"internal_node_id":"0.0-8.0-1.6","subject":"91avkw761tq6btm","sona":"6091"},{"trial_type":"turing-test","trial_index":33,"time_elapsed":86546,"internal_node_id":"0.0-8.0-2.6","subject":"91avkw761tq6btm","sona":"6091"},{"rt":1995.2350000385195,"stimulus":"<p>Welche Sequenz haben Sie als natürlicher empfunden?</p>","key_press":74,"test_part":"response","test_stimulus":{"position":1,"left":"bvh/vr_prediction_models/model(dmp)-dataset(pass-bottle-hold)-npsi(50)-hold(1)/final-lines.txt","right":"bvh/pass-bottle-hold-training1-lines.txt","att_check":false},"trial_type":"html-keyboard-response","trial_index":34,"time_elapsed":88543,"internal_node_id":"0.0-8.0-3.6","subject":"91avkw761tq6btm","sona":"6091"},{"rt":430.02499995054677,"stimulus":"<p>Bereit?</p>","key_press":32,"trial_type":"html-keyboard-response","trial_index":35,"time_elapsed":88974,"internal_node_id":"0.0-8.0-0.7","subject":"91avkw761tq6btm","sona":"6091"},{"rt":null,"stimulus":"<div style=\"font-size:60px;\">+</div>","key_press":null,"trial_type":"html-keyboard-response","trial_index":36,"time_elapsed":90977,"internal_node_id":"0.0-8.0-1.7","subject":"91avkw761tq6btm","sona":"6091"},{"trial_type":"turing-test","trial_index":37,"time_elapsed":96811,"internal_node_id":"0.0-8.0-2.7","subject":"91avkw761tq6btm","sona":"6091"},{"rt":376.1949999607168,"stimulus":"<p>Welche Sequenz haben Sie als natürlicher empfunden?</p>","key_press":70,"test_part":"response","test_stimulus":{"position":1,"left":"bvh/vr_prediction_models/model(vcgpdm)-dataset(return-bottle)-mode(MAP)-parts(1)-hold(4)/final-lines.txt","right":"bvh/return-bottle-training4-lines.txt","att_check":false},"trial_type":"html-keyboard-response","trial_index":38,"time_elapsed":97188,"internal_node_id":"0.0-8.0-3.7","subject":"91avkw761tq6btm","sona":"6091"},{"rt":409.16500001912937,"stimulus":"<p>Bereit?</p>","key_press":32,"trial_type":"html-keyboard-response","trial_index":39,"time_elapsed":97600,"internal_node_id":"0.0-8.0-0.8","subject":"91avkw761tq6btm","sona":"6091"},{"rt":null,"stimulus":"<div style=\"font-size:60px;\">+</div>","key_press":null,"trial_type":"html-keyboard-response","trial_index":40,"time_elapsed":99602,"internal_node_id":"0.0-8.0-1.8","subject":"91avkw761tq6btm","sona":"6091"},{"trial_type":"turing-test","trial_index":41,"time_elapsed":105650,"internal_node_id":"0.0-8.0-2.8","subject":"91avkw761tq6btm","sona":"6091"},{"rt":466.1900000064634,"stimulus":"<p>Welche Sequenz haben Sie als natürlicher empfunden?</p>","key_press":70,"test_part":"response","test_stimulus":{"position":0,"left":"bvh/return-bottle-training1-lines.txt","right":"bvh/vr_prediction_models/model(tmp)-dataset(return-bottle)-numprim(15)-hold(1)/final-lines.txt","att_check":false},"trial_type":"html-keyboard-response","trial_index":42,"time_elapsed":106122,"internal_node_id":"0.0-8.0-3.8","subject":"91avkw761tq6btm","sona":"6091"},{"rt":453.50499998312443,"stimulus":"<p>Bereit?</p>","key_press":32,"trial_type":"html-keyboard-response","trial_index":43,"time_elapsed":106577,"internal_node_id":"0.0-8.0-0.9","subject":"91avkw761tq6btm","sona":"6091"},{"rt":null,"stimulus":"<div style=\"font-size:60px;\">+</div>","key_press":null,"trial_type":"html-keyboard-response","trial_index":44,"time_elapsed":108580,"internal_node_id":"0.0-8.0-1.9","subject":"91avkw761tq6btm","sona":"6091"},{"trial_type":"turing-test","trial_index":45,"time_elapsed":114248,"internal_node_id":"0.0-8.0-2.9","subject":"91avkw761tq6btm","sona":"6091"},{"rt":697.8799999924377,"stimulus":"<p>Welche Sequenz haben Sie als natürlicher empfunden?</p>","key_press":74,"test_part":"response","test_stimulus":{"position":1,"left":"bvh/vr_prediction_models/model(dmp)-dataset(return-bottle)-npsi(10)-hold(4)/final-lines.txt","right":"bvh/return-bottle-training4-lines.txt","att_check":true},"trial_type":"html-keyboard-response","trial_index":46,"time_elapsed":114951,"internal_node_id":"0.0-8.0-3.9","subject":"91avkw761tq6btm","sona":"6091"},{"rt":439.1699999687262,"stimulus":"<p>Bereit?</p>","key_press":32,"trial_type":"html-keyboard-response","trial_index":47,"time_elapsed":115393,"internal_node_id":"0.0-8.0-0.10","subject":"91avkw761tq6btm","sona":"6091"},{"rt":null,"stimulus":"<div style=\"font-size:60px;\">+</div>","key_press":null,"trial_type":"html-keyboard-response","trial_index":48,"time_elapsed":117395,"internal_node_id":"0.0-8.0-1.10","subject":"91avkw761tq6btm","sona":"6091"},{"trial_type":"turing-test","trial_index":49,"time_elapsed":121128,"internal_node_id":"0.0-8.0-2.10","subject":"91avkw761tq6btm","sona":"6091"},{"rt":653.154999949038,"stimulus":"<p>Welche Sequenz haben Sie als natürlicher empfunden?</p>","key_press":70,"test_part":"response","test_stimulus":{"position":1,"left":"bvh/vr_prediction_models/model(vcgpdm)-dataset(return-bottle-hold)-mode(MAP)-parts(1)-hold(3)/final-lines.txt","right":"bvh/return-bottle-hold-training3-lines.txt","att_check":false},"trial_type":"html-keyboard-response","trial_index":50,"time_elapsed":121786,"internal_node_id":"0.0-8.0-3.10","subject":"91avkw761tq6btm","sona":"6091"},{"rt":531.9499999750406,"stimulus":"<p>Bereit?</p>","key_press":32,"trial_type":"html-keyboard-response","trial_index":51,"time_elapsed":122323,"internal_node_id":"0.0-8.0-0.11","subject":"91avkw761tq6btm","sona":"6091"},{"rt":null,"stimulus":"<div style=\"font-size:60px;\">+</div>","key_press":null,"trial_type":"html-keyboard-response","trial_index":52,"time_elapsed":124324,"internal_node_id":"0.0-8.0-1.11","subject":"91avkw761tq6btm","sona":"6091"},{"trial_type":"turing-test","trial_index":53,"time_elapsed":130428,"internal_node_id":"0.0-8.0-2.11","subject":"91avkw761tq6btm","sona":"6091"},{"rt":512.1499999659136,"stimulus":"<p>Welche Sequenz haben Sie als natürlicher empfunden?</p>","key_press":70,"test_part":"response","test_stimulus":{"position":0,"left":"bvh/pass-bottle-training2-lines.txt","right":"bvh/vr_prediction_models/model(dmp)-dataset(pass-bottle)-npsi(60)-hold(2)/final-lines.txt","att_check":false},"trial_type":"html-keyboard-response","trial_index":54,"time_elapsed":130946,"internal_node_id":"0.0-8.0-3.11","subject":"91avkw761tq6btm","sona":"6091"},{"rt":429.5700000366196,"stimulus":"<p>Bereit?</p>","key_press":32,"trial_type":"html-keyboard-response","trial_index":55,"time_elapsed":131379,"internal_node_id":"0.0-8.0-0.12","subject":"91avkw761tq6btm","sona":"6091"},{"rt":null,"stimulus":"<div style=\"font-size:60px;\">+</div>","key_press":null,"trial_type":"html-keyboard-response","trial_index":56,"time_elapsed":133381,"internal_node_id":"0.0-8.0-1.12","subject":"91avkw761tq6btm","sona":"6091"},{"trial_type":"turing-test","trial_index":57,"time_elapsed":138785,"internal_node_id":"0.0-8.0-2.12","subject":"91avkw761tq6btm","sona":"6091"},{"rt":536.7800000240095,"stimulus":"<p>Welche Sequenz haben Sie als natürlicher empfunden?</p>","key_press":70,"test_part":"response","test_stimulus":{"position":0,"left":"bvh/return-bottle-training0-lines.txt","right":"bvh/vr_prediction_models/model(vcgpdm)-dataset(return-bottle)-mode(ELBO)-parts(3)-dyn(20)-lvm(35)-hold(0)/final-lines.txt","att_check":false},"trial_type":"html-keyboard-response","trial_index":58,"time_elapsed":139327,"internal_node_id":"0.0-8.0-3.12","subject":"91avkw761tq6btm","sona":"6091"},{"rt":497.8250000276603,"stimulus":"<p>Bereit?</p>","key_press":32,"trial_type":"html-keyboard-response","trial_index":59,"time_elapsed":139828,"internal_node_id":"0.0-8.0-0.13","subject":"91avkw761tq6btm","sona":"6091"},{"rt":null,"stimulus":"<div style=\"font-size:60px;\">+</div>","key_press":null,"trial_type":"html-keyboard-response","trial_index":60,"time_elapsed":141831,"internal_node_id":"0.0-8.0-1.13","subject":"91avkw761tq6btm","sona":"6091"},{"trial_type":"turing-test","trial_index":61,"time_elapsed":147989,"internal_node_id":"0.0-8.0-2.13","subject":"91avkw761tq6btm","sona":"6091"},{"rt":570.7449999754317,"stimulus":"<p>Welche Sequenz haben Sie als natürlicher empfunden?</p>","key_press":70,"test_part":"response","test_stimulus":{"position":1,"left":"bvh/vr_prediction_models/model(vcgpdm)-dataset(return-bottle)-mode(MAP)-parts(1)-hold(1)/final-lines.txt","right":"bvh/return-bottle-training1-lines.txt","att_check":false},"trial_type":"html-keyboard-response","trial_index":62,"time_elapsed":148565,"internal_node_id":"0.0-8.0-3.13","subject":"91avkw761tq6btm","sona":"6091"},{"rt":376.7900000093505,"stimulus":"<p>Bereit?</p>","key_press":32,"trial_type":"html-keyboard-response","trial_index":63,"time_elapsed":148944,"internal_node_id":"0.0-8.0-0.14","subject":"91avkw761tq6btm","sona":"6091"},{"rt":null,"stimulus":"<div style=\"font-size:60px;\">+</div>","key_press":null,"trial_type":"html-keyboard-response","trial_index":64,"time_elapsed":150947,"internal_node_id":"0.0-8.0-1.14","subject":"91avkw761tq6btm","sona":"6091"},{"trial_type":"turing-test","trial_index":65,"time_elapsed":157774,"internal_node_id":"0.0-8.0-2.14","subject":"91avkw761tq6btm","sona":"6091"},{"rt":400.66500002285466,"stimulus":"<p>Welche Sequenz haben Sie als natürlicher empfunden?</p>","key_press":74,"test_part":"response","test_stimulus":{"position":0,"left":"bvh/pass-bottle-training0-lines.txt","right":"bvh/vr_prediction_models/model(vcgpdm)-dataset(pass-bottle)-mode(ELBO)-parts(1)-dyn(35)-lvm(30)-hold(0)/final-lines.txt","att_check":false},"trial_type":"html-keyboard-response","trial_index":66,"time_elapsed":158180,"internal_node_id":"0.0-8.0-3.14","subject":"91avkw761tq6btm","sona":"6091"},{"rt":364.50499994680285,"stimulus":"<p>Bereit?</p>","key_press":32,"trial_type":"html-keyboard-response","trial_index":67,"time_elapsed":158548,"internal_node_id":"0.0-8.0-0.15","subject":"91avkw761tq6btm","sona":"6091"},{"rt":null,"stimulus":"<div style=\"font-size:60px;\">+</div>","key_press":null,"trial_type":"html-keyboard-response","trial_index":68,"time_elapsed":160551,"internal_node_id":"0.0-8.0-1.15","subject":"91avkw761tq6btm","sona":"6091"},{"trial_type":"turing-test","trial_index":69,"time_elapsed":166358,"internal_node_id":"0.0-8.0-2.15","subject":"91avkw761tq6btm","sona":"6091"},{"rt":797.6899999775924,"stimulus":"<p>Welche Sequenz haben Sie als natürlicher empfunden?</p>","key_press":74,"test_part":"response","test_stimulus":{"position":0,"left":"bvh/pass-bottle-training3-lines.txt","right":"bvh/vr_prediction_models/model(dmp)-dataset(pass-bottle)-npsi(80)-hold(3)/final-lines.txt","att_check":false},"trial_type":"html-keyboard-response","trial_index":70,"time_elapsed":167160,"internal_node_id":"0.0-8.0-3.15","subject":"91avkw761tq6btm","sona":"6091"},{"rt":323.5299999942072,"stimulus":"<p>Bereit?</p>","key_press":32,"trial_type":"html-keyboard-response","trial_index":71,"time_elapsed":167487,"internal_node_id":"0.0-8.0-0.16","subject":"91avkw761tq6btm","sona":"6091"},{"rt":null,"stimulus":"<div style=\"font-size:60px;\">+</div>","key_press":null,"trial_type":"html-keyboard-response","trial_index":72,"time_elapsed":169490,"internal_node_id":"0.0-8.0-1.16","subject":"91avkw761tq6btm","sona":"6091"},{"trial_type":"turing-test","trial_index":73,"time_elapsed":172804,"internal_node_id":"0.0-8.0-2.16","subject":"91avkw761tq6btm","sona":"6091"},{"rt":1281.0750000062399,"stimulus":"<p>Welche Sequenz haben Sie als natürlicher empfunden?</p>","key_press":74,"test_part":"response","test_stimulus":{"position":1,"left":"bvh/vr_prediction_models/model(tmp)-dataset(pass-bottle-hold)-numprim(8)-hold(0)/final-lines.txt","right":"bvh/pass-bottle-hold-training0-lines.txt","att_check":false},"trial_type":"html-keyboard-response","trial_index":74,"time_elapsed":174091,"internal_node_id":"0.0-8.0-3.16","subject":"91avkw761tq6btm","sona":"6091"},{"rt":475.77000001911074,"stimulus":"<p>Bereit?</p>","key_press":32,"trial_type":"html-keyboard-response","trial_index":75,"time_elapsed":174571,"internal_node_id":"0.0-8.0-0.17","subject":"91avkw761tq6btm","sona":"6091"},{"rt":null,"stimulus":"<div style=\"font-size:60px;\">+</div>","key_press":null,"trial_type":"html-keyboard-response","trial_index":76,"time_elapsed":176573,"internal_node_id":"0.0-8.0-1.17","subject":"91avkw761tq6btm","sona":"6091"},{"trial_type":"turing-test","trial_index":77,"time_elapsed":183301,"internal_node_id":"0.0-8.0-2.17","subject":"91avkw761tq6btm","sona":"6091"},{"rt":2412.3299999628216,"stimulus":"<p>Welche Sequenz haben Sie als natürlicher empfunden?</p>","key_press":70,"test_part":"response","test_stimulus":{"position":1,"left":"bvh/vr_prediction_models/model(tmp)-dataset(pass-bottle)-numprim(8)-hold(0)/final-lines.txt","right":"bvh/pass-bottle-training0-lines.txt","att_check":false},"trial_type":"html-keyboard-response","trial_index":78,"time_elapsed":185717,"internal_node_id":"0.0-8.0-3.17","subject":"91avkw761tq6btm","sona":"6091"},{"rt":564.2750000115484,"stimulus":"<p>Bereit?</p>","key_press":32,"trial_type":"html-keyboard-response","trial_index":79,"time_elapsed":186287,"internal_node_id":"0.0-8.0-0.18","subject":"91avkw761tq6btm","sona":"6091"},{"rt":null,"stimulus":"<div style=\"font-size:60px;\">+</div>","key_press":null,"trial_type":"html-keyboard-response","trial_index":80,"time_elapsed":188288,"internal_node_id":"0.0-8.0-1.18","subject":"91avkw761tq6btm","sona":"6091"},{"trial_type":"turing-test","trial_index":81,"time_elapsed":193808,"internal_node_id":"0.0-8.0-2.18","subject":"91avkw761tq6btm","sona":"6091"},{"rt":667.4600000260398,"stimulus":"<p>Welche Sequenz haben Sie als natürlicher empfunden?</p>","key_press":74,"test_part":"response","test_stimulus":{"position":1,"left":"bvh/vr_prediction_models/model(vcgpdm)-dataset(pass-bottle)-mode(ELBO)-parts(1)-dyn(10)-lvm(30)-hold(1)/final-lines.txt","right":"bvh/pass-bottle-training1-lines.txt","att_check":false},"trial_type":"html-keyboard-response","trial_index":82,"time_elapsed":194477,"internal_node_id":"0.0-8.0-3.18","subject":"91avkw761tq6btm","sona":"6091"},{"rt":346.36500000488013,"stimulus":"<p>Bereit?</p>","key_press":32,"trial_type":"html-keyboard-response","trial_index":83,"time_elapsed":194829,"internal_node_id":"0.0-8.0-0.19","subject":"91avkw761tq6btm","sona":"6091"},{"rt":null,"stimulus":"<div style=\"font-size:60px;\">+</div>","key_press":null,"trial_type":"html-keyboard-response","trial_index":84,"time_elapsed":196832,"internal_node_id":"0.0-8.0-1.19","subject":"91avkw761tq6btm","sona":"6091"},{"trial_type":"turing-test","trial_index":85,"time_elapsed":202647,"internal_node_id":"0.0-8.0-2.19","subject":"91avkw761tq6btm","sona":"6091"},{"rt":319.8100000154227,"stimulus":"<p>Welche Sequenz haben Sie als natürlicher empfunden?</p>","key_press":74,"test_part":"response","test_stimulus":{"position":1,"left":"bvh/vr_prediction_models/model(vcgpdm)-dataset(pass-bottle)-mode(ELBO)-parts(1)-dyn(10)-lvm(25)-hold(4)/final-lines.txt","right":"bvh/pass-bottle-training4-lines.txt","att_check":false},"trial_type":"html-keyboard-response","trial_index":86,"time_elapsed":202972,"internal_node_id":"0.0-8.0-3.19","subject":"91avkw761tq6btm","sona":"6091"},{"rt":566.6800000471994,"stimulus":"<p>Bereit?</p>","key_press":32,"trial_type":"html-keyboard-response","trial_index":87,"time_elapsed":203540,"internal_node_id":"0.0-8.0-0.20","subject":"91avkw761tq6btm","sona":"6091"},{"rt":null,"stimulus":"<div style=\"font-size:60px;\">+</div>","key_press":null,"trial_type":"html-keyboard-response","trial_index":88,"time_elapsed":205543,"internal_node_id":"0.0-8.0-1.20","subject":"91avkw761tq6btm","sona":"6091"},{"trial_type":"turing-test","trial_index":89,"time_elapsed":212262,"internal_node_id":"0.0-8.0-2.20","subject":"91avkw761tq6btm","sona":"6091"},{"rt":393.5850000125356,"stimulus":"<p>Welche Sequenz haben Sie als natürlicher empfunden?</p>","key_press":74,"test_part":"response","test_stimulus":{"position":1,"left":"bvh/vr_prediction_models/model(tmp)-dataset(pass-bottle)-numprim(13)-hold(0)/final-lines.txt","right":"bvh/pass-bottle-training0-lines.txt","att_check":false},"trial_type":"html-keyboard-response","trial_index":90,"time_elapsed":212660,"internal_node_id":"0.0-8.0-3.20","subject":"91avkw761tq6btm","sona":"6091"},{"rt":677.4150000419468,"stimulus":"<p>Bereit?</p>","key_press":32,"trial_type":"html-keyboard-response","trial_index":91,"time_elapsed":213338,"internal_node_id":"0.0-8.0-0.21","subject":"91avkw761tq6btm","sona":"6091"},{"rt":null,"stimulus":"<div style=\"font-size:60px;\">+</div>","key_press":null,"trial_type":"html-keyboard-response","trial_index":92,"time_elapsed":215341,"internal_node_id":"0.0-8.0-1.21","subject":"91avkw761tq6btm","sona":"6091"},{"trial_type":"turing-test","trial_index":93,"time_elapsed":221168,"internal_node_id":"0.0-8.0-2.21","subject":"91avkw761tq6btm","sona":"6091"},{"rt":629.7599999816157,"stimulus":"<p>Welche Sequenz haben Sie als natürlicher empfunden?</p>","key_press":74,"test_part":"response","test_stimulus":{"position":1,"left":"bvh/vr_prediction_models/model(vcgpdm)-dataset(pass-bottle)-mode(ELBO)-parts(3)-dyn(20)-lvm(35)-hold(4)/final-lines.txt","right":"bvh/pass-bottle-training4-lines.txt","att_check":false},"trial_type":"html-keyboard-response","trial_index":94,"time_elapsed":221803,"internal_node_id":"0.0-8.0-3.21","subject":"91avkw761tq6btm","sona":"6091"},{"rt":526.3449999620207,"stimulus":"<p>Bereit?</p>","key_press":32,"trial_type":"html-keyboard-response","trial_index":95,"time_elapsed":222333,"internal_node_id":"0.0-8.0-0.22","subject":"91avkw761tq6btm","sona":"6091"},{"rt":null,"stimulus":"<div style=\"font-size:60px;\">+</div>","key_press":null,"trial_type":"html-keyboard-response","trial_index":96,"time_elapsed":224336,"internal_node_id":"0.0-8.0-1.22","subject":"91avkw761tq6btm","sona":"6091"},{"trial_type":"turing-test","trial_index":97,"time_elapsed":231090,"internal_node_id":"0.0-8.0-2.22","subject":"91avkw761tq6btm","sona":"6091"},{"rt":468.4700000216253,"stimulus":"<p>Welche Sequenz haben Sie als natürlicher empfunden?</p>","key_press":74,"test_part":"response","test_stimulus":{"position":1,"left":"bvh/vr_prediction_models/model(tmp)-dataset(pass-bottle)-numprim(10)-hold(0)/final-lines.txt","right":"bvh/pass-bottle-training0-lines.txt","att_check":false},"trial_type":"html-keyboard-response","trial_index":98,"time_elapsed":231560,"internal_node_id":"0.0-8.0-3.22","subject":"91avkw761tq6btm","sona":"6091"},{"rt":397.76500000152737,"stimulus":"<p>Bereit?</p>","key_press":32,"trial_type":"html-keyboard-response","trial_index":99,"time_elapsed":231962,"internal_node_id":"0.0-8.0-0.23","subject":"91avkw761tq6btm","sona":"6091"},{"rt":null,"stimulus":"<div style=\"font-size:60px;\">+</div>","key_press":null,"trial_type":"html-keyboard-response","trial_index":100,"time_elapsed":233965,"internal_node_id":"0.0-8.0-1.23","subject":"91avkw761tq6btm","sona":"6091"},{"trial_type":"turing-test","trial_index":101,"time_elapsed":237648,"internal_node_id":"0.0-8.0-2.23","subject":"91avkw761tq6btm","sona":"6091"},{"rt":566.530000010971,"stimulus":"<p>Welche Sequenz haben Sie als natürlicher empfunden?</p>","key_press":74,"test_part":"response","test_stimulus":{"position":0,"left":"bvh/pass-bottle-hold-training4-lines.txt","right":"bvh/vr_prediction_models/model(vcgpdm)-dataset(pass-bottle-hold)-mode(ELBO)-parts(3)-dyn(10)-lvm(25)-hold(4)/final-lines.txt","att_check":false},"trial_type":"html-keyboard-response","trial_index":102,"time_elapsed":238217,"internal_node_id":"0.0-8.0-3.23","subject":"91avkw761tq6btm","sona":"6091"},{"rt":296.45000002346933,"stimulus":"<p>Bereit?</p>","key_press":32,"trial_type":"html-keyboard-response","trial_index":103,"time_elapsed":238518,"internal_node_id":"0.0-8.0-0.24","subject":"91avkw761tq6btm","sona":"6091"},{"rt":null,"stimulus":"<div style=\"font-size:60px;\">+</div>","key_press":null,"trial_type":"html-keyboard-response","trial_index":104,"time_elapsed":240521,"internal_node_id":"0.0-8.0-1.24","subject":"91avkw761tq6btm","sona":"6091"},{"trial_type":"turing-test","trial_index":105,"time_elapsed":244235,"internal_node_id":"0.0-8.0-2.24","subject":"91avkw761tq6btm","sona":"6091"},{"rt":685.0299999932759,"stimulus":"<p>Welche Sequenz haben Sie als natürlicher empfunden?</p>","key_press":74,"test_part":"response","test_stimulus":{"position":1,"left":"bvh/vr_prediction_models/model(vcgpdm)-dataset(return-bottle-hold)-mode(ELBO)-parts(1)-dyn(30)-lvm(35)-hold(3)/final-lines.txt","right":"bvh/return-bottle-hold-training3-lines.txt","att_check":false},"trial_type":"html-keyboard-response","trial_index":106,"time_elapsed":244926,"internal_node_id":"0.0-8.0-3.24","subject":"91avkw761tq6btm","sona":"6091"},{"rt":636.6600000183098,"stimulus":"<p>Bereit?</p>","key_press":32,"trial_type":"html-keyboard-response","trial_index":107,"time_elapsed":245564,"internal_node_id":"0.0-8.0-0.25","subject":"91avkw761tq6btm","sona":"6091"},{"rt":null,"stimulus":"<div style=\"font-size:60px;\">+</div>","key_press":null,"trial_type":"html-keyboard-response","trial_index":108,"time_elapsed":247566,"internal_node_id":"0.0-8.0-1.25","subject":"91avkw761tq6btm","sona":"6091"},{"trial_type":"turing-test","trial_index":109,"time_elapsed":253180,"internal_node_id":"0.0-8.0-2.25","subject":"91avkw761tq6btm","sona":"6091"},{"rt":1145.8850000053644,"stimulus":"<p>Welche Sequenz haben Sie als natürlicher empfunden?</p>","key_press":70,"test_part":"response","test_stimulus":{"position":1,"left":"bvh/vr_prediction_models/model(vcgpdm)-dataset(pass-bottle)-mode(ELBO)-parts(3)-dyn(30)-lvm(15)-hold(4)/final-lines.txt","right":"bvh/pass-bottle-training4-lines.txt","att_check":false},"trial_type":"html-keyboard-response","trial_index":110,"time_elapsed":254331,"internal_node_id":"0.0-8.0-3.25","subject":"91avkw761tq6btm","sona":"6091"},{"rt":537.5650000059977,"stimulus":"<p>Bereit?</p>","key_press":32,"trial_type":"html-keyboard-response","trial_index":111,"time_elapsed":254873,"internal_node_id":"0.0-8.0-0.26","subject":"91avkw761tq6btm","sona":"6091"},{"rt":null,"stimulus":"<div style=\"font-size:60px;\">+</div>","key_press":null,"trial_type":"html-keyboard-response","trial_index":112,"time_elapsed":256875,"internal_node_id":"0.0-8.0-1.26","subject":"91avkw761tq6btm","sona":"6091"},{"trial_type":"turing-test","trial_index":113,"time_elapsed":262338,"internal_node_id":"0.0-8.0-2.26","subject":"91avkw761tq6btm","sona":"6091"},{"rt":908.2850000122562,"stimulus":"<p>Welche Sequenz haben Sie als natürlicher empfunden?</p>","key_press":74,"test_part":"response","test_stimulus":{"position":1,"left":"bvh/vr_prediction_models/model(dmp)-dataset(pass-bottle)-npsi(40)-hold(1)/final-lines.txt","right":"bvh/pass-bottle-training1-lines.txt","att_check":false},"trial_type":"html-keyboard-response","trial_index":114,"time_elapsed":263249,"internal_node_id":"0.0-8.0-3.26","subject":"91avkw761tq6btm","sona":"6091"},{"rt":452.7299999608658,"stimulus":"<p>Bereit?</p>","key_press":32,"trial_type":"html-keyboard-response","trial_index":115,"time_elapsed":263704,"internal_node_id":"0.0-8.0-0.27","subject":"91avkw761tq6btm","sona":"6091"},{"rt":null,"stimulus":"<div style=\"font-size:60px;\">+</div>","key_press":null,"trial_type":"html-keyboard-response","trial_index":116,"time_elapsed":265708,"internal_node_id":"0.0-8.0-1.27","subject":"91avkw761tq6btm","sona":"6091"},{"trial_type":"turing-test","trial_index":117,"time_elapsed":272340,"internal_node_id":"0.0-8.0-2.27","subject":"91avkw761tq6btm","sona":"6091"},{"rt":220.62999999616295,"stimulus":"<p>Welche Sequenz haben Sie als natürlicher empfunden?</p>","key_press":74,"test_part":"response","test_stimulus":{"position":0,"left":"bvh/return-bottle-training2-lines.txt","right":"bvh/vr_prediction_models/model(vcgpdm)-dataset(return-bottle)-mode(MAP)-parts(1)-hold(2)/final-lines.txt","att_check":false},"trial_type":"html-keyboard-response","trial_index":118,"time_elapsed":272564,"internal_node_id":"0.0-8.0-3.27","subject":"91avkw761tq6btm","sona":"6091"},{"rt":394.88999999593943,"stimulus":"<p>Bereit?</p>","key_press":32,"trial_type":"html-keyboard-response","trial_index":119,"time_elapsed":272963,"internal_node_id":"0.0-8.0-0.28","subject":"91avkw761tq6btm","sona":"6091"},{"rt":null,"stimulus":"<div style=\"font-size:60px;\">+</div>","key_press":null,"trial_type":"html-keyboard-response","trial_index":120,"time_elapsed":274966,"internal_node_id":"0.0-8.0-1.28","subject":"91avkw761tq6btm","sona":"6091"},{"trial_type":"turing-test","trial_index":121,"time_elapsed":281555,"internal_node_id":"0.0-8.0-2.28","subject":"91avkw761tq6btm","sona":"6091"},{"rt":786.4599999738857,"stimulus":"<p>Welche Sequenz haben Sie als natürlicher empfunden?</p>","key_press":70,"test_part":"response","test_stimulus":{"position":1,"left":"bvh/vr_prediction_models/model(dmp)-dataset(return-bottle)-npsi(20)-hold(2)/final-lines.txt","right":"bvh/return-bottle-training2-lines.txt","att_check":false},"trial_type":"html-keyboard-response","trial_index":122,"time_elapsed":282347,"internal_node_id":"0.0-8.0-3.28","subject":"91avkw761tq6btm","sona":"6091"},{"rt":391.39999996405095,"stimulus":"<p>Bereit?</p>","key_press":32,"trial_type":"html-keyboard-response","trial_index":123,"time_elapsed":282743,"internal_node_id":"0.0-8.0-0.29","subject":"91avkw761tq6btm","sona":"6091"},{"rt":null,"stimulus":"<div style=\"font-size:60px;\">+</div>","key_press":null,"trial_type":"html-keyboard-response","trial_index":124,"time_elapsed":284746,"internal_node_id":"0.0-8.0-1.29","subject":"91avkw761tq6btm","sona":"6091"},{"trial_type":"turing-test","trial_index":125,"time_elapsed":288350,"internal_node_id":"0.0-8.0-2.29","subject":"91avkw761tq6btm","sona":"6091"},{"rt":372.1250000526197,"stimulus":"<p>Welche Sequenz haben Sie als natürlicher empfunden?</p>","key_press":70,"test_part":"response","test_stimulus":{"position":0,"left":"bvh/return-bottle-hold-training3-lines.txt","right":"bvh/vr_prediction_models/model(tmp)-dataset(return-bottle-hold)-numprim(14)-hold(3)/final-lines.txt","att_check":false},"trial_type":"html-keyboard-response","trial_index":126,"time_elapsed":288731,"internal_node_id":"0.0-8.0-3.29","subject":"91avkw761tq6btm","sona":"6091"},{"rt":345.02000000793487,"stimulus":"<p>Bereit?</p>","key_press":32,"trial_type":"html-keyboard-response","trial_index":127,"time_elapsed":289080,"internal_node_id":"0.0-8.0-0.30","subject":"91avkw761tq6btm","sona":"6091"},{"rt":null,"stimulus":"<div style=\"font-size:60px;\">+</div>","key_press":null,"trial_type":"html-keyboard-response","trial_index":128,"time_elapsed":291082,"internal_node_id":"0.0-8.0-1.30","subject":"91avkw761tq6btm","sona":"6091"},{"trial_type":"turing-test","trial_index":129,"time_elapsed":297209,"internal_node_id":"0.0-8.0-2.30","subject":"91avkw761tq6btm","sona":"6091"},{"rt":745.2200000407174,"stimulus":"<p>Welche Sequenz haben Sie als natürlicher empfunden?</p>","key_press":70,"test_part":"response","test_stimulus":{"position":0,"left":"bvh/return-bottle-training1-lines.txt","right":"bvh/vr_prediction_models/model(vcgpdm)-dataset(return-bottle)-mode(ELBO)-parts(1)-dyn(30)-lvm(20)-hold(1)/final-lines.txt","att_check":false},"trial_type":"html-keyboard-response","trial_index":130,"time_elapsed":297958,"internal_node_id":"0.0-8.0-3.30","subject":"91avkw761tq6btm","sona":"6091"},{"rt":228.08500000974163,"stimulus":"<p>Bereit?</p>","key_press":32,"trial_type":"html-keyboard-response","trial_index":131,"time_elapsed":298191,"internal_node_id":"0.0-8.0-0.31","subject":"91avkw761tq6btm","sona":"6091"},{"rt":null,"stimulus":"<div style=\"font-size:60px;\">+</div>","key_press":null,"trial_type":"html-keyboard-response","trial_index":132,"time_elapsed":300194,"internal_node_id":"0.0-8.0-1.31","subject":"91avkw761tq6btm","sona":"6091"},{"trial_type":"turing-test","trial_index":133,"time_elapsed":306925,"internal_node_id":"0.0-8.0-2.31","subject":"91avkw761tq6btm","sona":"6091"},{"rt":361.45000002579764,"stimulus":"<p>Welche Sequenz haben Sie als natürlicher empfunden?</p>","key_press":70,"test_part":"response","test_stimulus":{"position":0,"left":"bvh/return-bottle-training2-lines.txt","right":"bvh/vr_prediction_models/model(vcgpdm)-dataset(return-bottle)-mode(ELBO)-parts(3)-dyn(20)-lvm(35)-hold(2)/final-lines.txt","att_check":false},"trial_type":"html-keyboard-response","trial_index":134,"time_elapsed":307293,"internal_node_id":"0.0-8.0-3.31","subject":"91avkw761tq6btm","sona":"6091"},{"rt":330.4449999704957,"stimulus":"<p>Bereit?</p>","key_press":32,"trial_type":"html-keyboard-response","trial_index":135,"time_elapsed":307625,"internal_node_id":"0.0-8.0-0.32","subject":"91avkw761tq6btm","sona":"6091"},{"rt":null,"stimulus":"<div style=\"font-size:60px;\">+</div>","key_press":null,"trial_type":"html-keyboard-response","trial_index":136,"time_elapsed":309628,"internal_node_id":"0.0-8.0-1.32","subject":"91avkw761tq6btm","sona":"6091"},{"trial_type":"turing-test","trial_index":137,"time_elapsed":313323,"internal_node_id":"0.0-8.0-2.32","subject":"91avkw761tq6btm","sona":"6091"},{"rt":224.8849999741651,"stimulus":"<p>Welche Sequenz haben Sie als natürlicher empfunden?</p>","key_press":70,"test_part":"response","test_stimulus":{"position":1,"left":"bvh/vr_prediction_models/model(vcgpdm)-dataset(pass-bottle-hold)-mode(ELBO)-parts(1)-dyn(20)-lvm(5)-hold(4)/final-lines.txt","right":"bvh/pass-bottle-hold-training4-lines.txt","att_check":false},"trial_type":"html-keyboard-response","trial_index":138,"time_elapsed":313553,"internal_node_id":"0.0-8.0-3.32","subject":"91avkw761tq6btm","sona":"6091"},{"rt":376.0699999984354,"stimulus":"<p>Bereit?</p>","key_press":32,"trial_type":"html-keyboard-response","trial_index":139,"time_elapsed":313935,"internal_node_id":"0.0-8.0-0.33","subject":"91avkw761tq6btm","sona":"6091"},{"rt":null,"stimulus":"<div style=\"font-size:60px;\">+</div>","key_press":null,"trial_type":"html-keyboard-response","trial_index":140,"time_elapsed":315937,"internal_node_id":"0.0-8.0-1.33","subject":"91avkw761tq6btm","sona":"6091"},{"trial_type":"turing-test","trial_index":141,"time_elapsed":321749,"internal_node_id":"0.0-8.0-2.33","subject":"91avkw761tq6btm","sona":"6091"},{"rt":394.2749999696389,"stimulus":"<p>Welche Sequenz haben Sie als natürlicher empfunden?</p>","key_press":70,"test_part":"response","test_stimulus":{"position":0,"left":"bvh/pass-bottle-training4-lines.txt","right":"bvh/vr_prediction_models/model(vcgpdm)-dataset(pass-bottle)-mode(ELBO)-parts(3)-dyn(10)-lvm(30)-hold(4)/final-lines.txt","att_check":false},"trial_type":"html-keyboard-response","trial_index":142,"time_elapsed":322148,"internal_node_id":"0.0-8.0-3.33","subject":"91avkw761tq6btm","sona":"6091"},{"rt":353.3700000261888,"stimulus":"<p>Bereit?</p>","key_press":32,"trial_type":"html-keyboard-response","trial_index":143,"time_elapsed":322506,"internal_node_id":"0.0-8.0-0.34","subject":"91avkw761tq6btm","sona":"6091"},{"rt":null,"stimulus":"<div style=\"font-size:60px;\">+</div>","key_press":null,"trial_type":"html-keyboard-response","trial_index":144,"time_elapsed":324510,"internal_node_id":"0.0-8.0-1.34","subject":"91avkw761tq6btm","sona":"6091"},{"trial_type":"turing-test","trial_index":145,"time_elapsed":327956,"internal_node_id":"0.0-8.0-2.34","subject":"91avkw761tq6btm","sona":"6091"},{"rt":1252.3599999840371,"stimulus":"<p>Welche Sequenz haben Sie als natürlicher empfunden?</p>","key_press":70,"test_part":"response","test_stimulus":{"position":0,"left":"bvh/pass-bottle-hold-training0-lines.txt","right":"bvh/vr_prediction_models/model(vcgpdm)-dataset(pass-bottle-hold)-mode(ELBO)-parts(1)-dyn(30)-lvm(20)-hold(0)/final-lines.txt","att_check":false},"trial_type":"html-keyboard-response","trial_index":146,"time_elapsed":329212,"internal_node_id":"0.0-8.0-3.34","subject":"91avkw761tq6btm","sona":"6091"},{"rt":347.0300000044517,"stimulus":"<p>Bereit?</p>","key_press":32,"trial_type":"html-keyboard-response","trial_index":147,"time_elapsed":329561,"internal_node_id":"0.0-8.0-0.35","subject":"91avkw761tq6btm","sona":"6091"},{"rt":null,"stimulus":"<div style=\"font-size:60px;\">+</div>","key_press":null,"trial_type":"html-keyboard-response","trial_index":148,"time_elapsed":331563,"internal_node_id":"0.0-8.0-1.35","subject":"91avkw761tq6btm","sona":"6091"},{"trial_type":"turing-test","trial_index":149,"time_elapsed":335256,"internal_node_id":"0.0-8.0-2.35","subject":"91avkw761tq6btm","sona":"6091"},{"rt":607.6849999953993,"stimulus":"<p>Welche Sequenz haben Sie als natürlicher empfunden?</p>","key_press":74,"test_part":"response","test_stimulus":{"position":1,"left":"bvh/vr_prediction_models/model(tmp)-dataset(return-bottle-hold)-numprim(5)-hold(3)/final-lines.txt","right":"bvh/return-bottle-hold-training3-lines.txt","att_check":false},"trial_type":"html-keyboard-response","trial_index":150,"time_elapsed":335870,"internal_node_id":"0.0-8.0-3.35","subject":"91avkw761tq6btm","sona":"6091"},{"rt":539.4899999955669,"stimulus":"<p>Bereit?</p>","key_press":32,"trial_type":"html-keyboard-response","trial_index":151,"time_elapsed":336411,"internal_node_id":"0.0-8.0-0.36","subject":"91avkw761tq6btm","sona":"6091"},{"rt":null,"stimulus":"<div style=\"font-size:60px;\">+</div>","key_press":null,"trial_type":"html-keyboard-response","trial_index":152,"time_elapsed":338413,"internal_node_id":"0.0-8.0-1.36","subject":"91avkw761tq6btm","sona":"6091"},{"trial_type":"turing-test","trial_index":153,"time_elapsed":344607,"internal_node_id":"0.0-8.0-2.36","subject":"91avkw761tq6btm","sona":"6091"},{"rt":692.1999999904074,"stimulus":"<p>Welche Sequenz haben Sie als natürlicher empfunden?</p>","key_press":70,"test_part":"response","test_stimulus":{"position":0,"left":"bvh/return-bottle-training1-lines.txt","right":"bvh/vr_prediction_models/model(vcgpdm)-dataset(return-bottle)-mode(ELBO)-parts(1)-dyn(10)-lvm(25)-hold(1)/final-lines.txt","att_check":false},"trial_type":"html-keyboard-response","trial_index":154,"time_elapsed":345305,"internal_node_id":"0.0-8.0-3.36","subject":"91avkw761tq6btm","sona":"6091"},{"rt":343.2150000007823,"stimulus":"<p>Bereit?</p>","key_press":32,"trial_type":"html-keyboard-response","trial_index":155,"time_elapsed":345653,"internal_node_id":"0.0-8.0-0.37","subject":"91avkw761tq6btm","sona":"6091"},{"rt":null,"stimulus":"<div style=\"font-size:60px;\">+</div>","key_press":null,"trial_type":"html-keyboard-response","trial_index":156,"time_elapsed":347657,"internal_node_id":"0.0-8.0-1.37","subject":"91avkw761tq6btm","sona":"6091"},{"trial_type":"turing-test","trial_index":157,"time_elapsed":350940,"internal_node_id":"0.0-8.0-2.37","subject":"91avkw761tq6btm","sona":"6091"},{"rt":1168.5750000178814,"stimulus":"<p>Welche Sequenz haben Sie als natürlicher empfunden?</p>","key_press":74,"test_part":"response","test_stimulus":{"position":0,"left":"bvh/pass-bottle-hold-training1-lines.txt","right":"bvh/vr_prediction_models/model(vcgpdm)-dataset(pass-bottle-hold)-mode(ELBO)-parts(3)-dyn(20)-lvm(15)-hold(1)/final-lines.txt","att_check":false},"trial_type":"html-keyboard-response","trial_index":158,"time_elapsed":352115,"internal_node_id":"0.0-8.0-3.37","subject":"91avkw761tq6btm","sona":"6091"},{"rt":451.3250000309199,"stimulus":"<p>Bereit?</p>","key_press":32,"trial_type":"html-keyboard-response","trial_index":159,"time_elapsed":352571,"internal_node_id":"0.0-8.0-0.38","subject":"91avkw761tq6btm","sona":"6091"},{"rt":null,"stimulus":"<div style=\"font-size:60px;\">+</div>","key_press":null,"trial_type":"html-keyboard-response","trial_index":160,"time_elapsed":354574,"internal_node_id":"0.0-8.0-1.38","subject":"91avkw761tq6btm","sona":"6091"},{"trial_type":"turing-test","trial_index":161,"time_elapsed":359879,"internal_node_id":"0.0-8.0-2.38","subject":"91avkw761tq6btm","sona":"6091"},{"rt":683.2600000197999,"stimulus":"<p>Welche Sequenz haben Sie als natürlicher empfunden?</p>","key_press":74,"test_part":"response","test_stimulus":{"position":1,"left":"bvh/vr_prediction_models/model(tmp)-dataset(pass-bottle)-numprim(11)-hold(1)/final-lines.txt","right":"bvh/pass-bottle-training1-lines.txt","att_check":false},"trial_type":"html-keyboard-response","trial_index":162,"time_elapsed":360564,"internal_node_id":"0.0-8.0-3.38","subject":"91avkw761tq6btm","sona":"6091"},{"rt":280.1750000216998,"stimulus":"<p>Bereit?</p>","key_press":32,"trial_type":"html-keyboard-response","trial_index":163,"time_elapsed":360847,"internal_node_id":"0.0-8.0-0.39","subject":"91avkw761tq6btm","sona":"6091"},{"rt":null,"stimulus":"<div style=\"font-size:60px;\">+</div>","key_press":null,"trial_type":"html-keyboard-response","trial_index":164,"time_elapsed":362851,"internal_node_id":"0.0-8.0-1.39","subject":"91avkw761tq6btm","sona":"6091"},{"trial_type":"turing-test","trial_index":165,"time_elapsed":366466,"internal_node_id":"0.0-8.0-2.39","subject":"91avkw761tq6btm","sona":"6091"},{"rt":552.4150000419468,"stimulus":"<p>Welche Sequenz haben Sie als natürlicher empfunden?</p>","key_press":70,"test_part":"response","test_stimulus":{"position":1,"left":"bvh/vr_prediction_models/model(dmp)-dataset(pass-bottle-hold)-npsi(80)-hold(4)/final-lines.txt","right":"bvh/pass-bottle-hold-training4-lines.txt","att_check":false},"trial_type":"html-keyboard-response","trial_index":166,"time_elapsed":367024,"internal_node_id":"0.0-8.0-3.39","subject":"91avkw761tq6btm","sona":"6091"},{"rt":208.38499994715676,"stimulus":"<p>Bereit?</p>","key_press":32,"trial_type":"html-keyboard-response","trial_index":167,"time_elapsed":367239,"internal_node_id":"0.0-8.0-0.40","subject":"91avkw761tq6btm","sona":"6091"},{"rt":null,"stimulus":"<div style=\"font-size:60px;\">+</div>","key_press":null,"trial_type":"html-keyboard-response","trial_index":168,"time_elapsed":369240,"internal_node_id":"0.0-8.0-1.40","subject":"91avkw761tq6btm","sona":"6091"},{"trial_type":"turing-test","trial_index":169,"time_elapsed":372696,"internal_node_id":"0.0-8.0-2.40","subject":"91avkw761tq6btm","sona":"6091"},{"rt":935.0649999687448,"stimulus":"<p>Welche Sequenz haben Sie als natürlicher empfunden?</p>","key_press":70,"test_part":"response","test_stimulus":{"position":0,"left":"bvh/return-bottle-hold-training2-lines.txt","right":"bvh/vr_prediction_models/model(dmp)-dataset(return-bottle-hold)-npsi(10)-hold(2)/final-lines.txt","att_check":true},"trial_type":"html-keyboard-response","trial_index":170,"time_elapsed":373635,"internal_node_id":"0.0-8.0-3.40","subject":"91avkw761tq6btm","sona":"6091"},{"rt":249.1599999484606,"stimulus":"<p>Bereit?</p>","key_press":32,"trial_type":"html-keyboard-response","trial_index":171,"time_elapsed":373890,"internal_node_id":"0.0-8.0-0.41","subject":"91avkw761tq6btm","sona":"6091"},{"rt":null,"stimulus":"<div style=\"font-size:60px;\">+</div>","key_press":null,"trial_type":"html-keyboard-response","trial_index":172,"time_elapsed":375893,"internal_node_id":"0.0-8.0-1.41","subject":"91avkw761tq6btm","sona":"6091"},{"trial_type":"turing-test","trial_index":173,"time_elapsed":379400,"internal_node_id":"0.0-8.0-2.41","subject":"91avkw761tq6btm","sona":"6091"},{"rt":439.2249999800697,"stimulus":"<p>Welche Sequenz haben Sie als natürlicher empfunden?</p>","key_press":70,"test_part":"response","test_stimulus":{"position":0,"left":"bvh/return-bottle-hold-training3-lines.txt","right":"bvh/vr_prediction_models/model(dmp)-dataset(return-bottle-hold)-npsi(90)-hold(3)/final-lines.txt","att_check":false},"trial_type":"html-keyboard-response","trial_index":174,"time_elapsed":379846,"internal_node_id":"0.0-8.0-3.41","subject":"91avkw761tq6btm","sona":"6091"},{"rt":498.1350000016391,"stimulus":"<p>Bereit?</p>","key_press":32,"trial_type":"html-keyboard-response","trial_index":175,"time_elapsed":380350,"internal_node_id":"0.0-8.0-0.42","subject":"91avkw761tq6btm","sona":"6091"},{"rt":null,"stimulus":"<div style=\"font-size:60px;\">+</div>","key_press":null,"trial_type":"html-keyboard-response","trial_index":176,"time_elapsed":382352,"internal_node_id":"0.0-8.0-1.42","subject":"91avkw761tq6btm","sona":"6091"},{"trial_type":"turing-test","trial_index":177,"time_elapsed":388223,"internal_node_id":"0.0-8.0-2.42","subject":"91avkw761tq6btm","sona":"6091"},{"rt":331.54499996453524,"stimulus":"<p>Welche Sequenz haben Sie als natürlicher empfunden?</p>","key_press":74,"test_part":"response","test_stimulus":{"position":1,"left":"bvh/vr_prediction_models/model(vcgpdm)-dataset(pass-bottle)-mode(ELBO)-parts(3)-dyn(15)-lvm(30)-hold(3)/final-lines.txt","right":"bvh/pass-bottle-training3-lines.txt","att_check":false},"trial_type":"html-keyboard-response","trial_index":178,"time_elapsed":388557,"internal_node_id":"0.0-8.0-3.42","subject":"91avkw761tq6btm","sona":"6091"},{"rt":298.7849999917671,"stimulus":"<p>Bereit?</p>","key_press":32,"trial_type":"html-keyboard-response","trial_index":179,"time_elapsed":388858,"internal_node_id":"0.0-8.0-0.43","subject":"91avkw761tq6btm","sona":"6091"},{"rt":null,"stimulus":"<div style=\"font-size:60px;\">+</div>","key_press":null,"trial_type":"html-keyboard-response","trial_index":180,"time_elapsed":390861,"internal_node_id":"0.0-8.0-1.43","subject":"91avkw761tq6btm","sona":"6091"},{"trial_type":"turing-test","trial_index":181,"time_elapsed":396182,"internal_node_id":"0.0-8.0-2.43","subject":"91avkw761tq6btm","sona":"6091"},{"rt":307.78000003192574,"stimulus":"<p>Welche Sequenz haben Sie als natürlicher empfunden?</p>","key_press":74,"test_part":"response","test_stimulus":{"position":1,"left":"bvh/vr_prediction_models/model(vcgpdm)-dataset(pass-bottle)-mode(ELBO)-parts(3)-dyn(15)-lvm(30)-hold(1)/final-lines.txt","right":"bvh/pass-bottle-training1-lines.txt","att_check":false},"trial_type":"html-keyboard-response","trial_index":182,"time_elapsed":396496,"internal_node_id":"0.0-8.0-3.43","subject":"91avkw761tq6btm","sona":"6091"},{"rt":376.1299999896437,"stimulus":"<p>Bereit?</p>","key_press":32,"trial_type":"html-keyboard-response","trial_index":183,"time_elapsed":396877,"internal_node_id":"0.0-8.0-0.44","subject":"91avkw761tq6btm","sona":"6091"},{"rt":null,"stimulus":"<div style=\"font-size:60px;\">+</div>","key_press":null,"trial_type":"html-keyboard-response","trial_index":184,"time_elapsed":398881,"internal_node_id":"0.0-8.0-1.44","subject":"91avkw761tq6btm","sona":"6091"},{"trial_type":"turing-test","trial_index":185,"time_elapsed":404821,"internal_node_id":"0.0-8.0-2.44","subject":"91avkw761tq6btm","sona":"6091"},{"rt":480.5799999739975,"stimulus":"<p>Welche Sequenz haben Sie als natürlicher empfunden?</p>","key_press":74,"test_part":"response","test_stimulus":{"position":1,"left":"bvh/vr_prediction_models/model(vcgpdm)-dataset(return-bottle)-mode(ELBO)-parts(1)-dyn(35)-lvm(30)-hold(1)/final-lines.txt","right":"bvh/return-bottle-training1-lines.txt","att_check":false},"trial_type":"html-keyboard-response","trial_index":186,"time_elapsed":405308,"internal_node_id":"0.0-8.0-3.44","subject":"91avkw761tq6btm","sona":"6091"},{"rt":334.9900000030175,"stimulus":"<p>Bereit?</p>","key_press":32,"trial_type":"html-keyboard-response","trial_index":187,"time_elapsed":405646,"internal_node_id":"0.0-8.0-0.45","subject":"91avkw761tq6btm","sona":"6091"},{"rt":null,"stimulus":"<div style=\"font-size:60px;\">+</div>","key_press":null,"trial_type":"html-keyboard-response","trial_index":188,"time_elapsed":407649,"internal_node_id":"0.0-8.0-1.45","subject":"91avkw761tq6btm","sona":"6091"},{"trial_type":"turing-test","trial_index":189,"time_elapsed":413403,"internal_node_id":"0.0-8.0-2.45","subject":"91avkw761tq6btm","sona":"6091"},{"rt":699.6999999973923,"stimulus":"<p>Welche Sequenz haben Sie als natürlicher empfunden?</p>","key_press":74,"test_part":"response","test_stimulus":{"position":0,"left":"bvh/return-bottle-training3-lines.txt","right":"bvh/vr_prediction_models/model(tmp)-dataset(return-bottle)-numprim(7)-hold(3)/final-lines.txt","att_check":false},"trial_type":"html-keyboard-response","trial_index":190,"time_elapsed":414104,"internal_node_id":"0.0-8.0-3.45","subject":"91avkw761tq6btm","sona":"6091"},{"rt":257.80500000109896,"stimulus":"<p>Bereit?</p>","key_press":32,"trial_type":"html-keyboard-response","trial_index":191,"time_elapsed":414368,"internal_node_id":"0.0-8.0-0.46","subject":"91avkw761tq6btm","sona":"6091"},{"rt":null,"stimulus":"<div style=\"font-size:60px;\">+</div>","key_press":null,"trial_type":"html-keyboard-response","trial_index":192,"time_elapsed":416371,"internal_node_id":"0.0-8.0-1.46","subject":"91avkw761tq6btm","sona":"6091"},{"trial_type":"turing-test","trial_index":193,"time_elapsed":421511,"internal_node_id":"0.0-8.0-2.46","subject":"91avkw761tq6btm","sona":"6091"},{"rt":381.72500004293397,"stimulus":"<p>Welche Sequenz haben Sie als natürlicher empfunden?</p>","key_press":74,"test_part":"response","test_stimulus":{"position":1,"left":"bvh/vr_prediction_models/model(dmp)-dataset(return-bottle-hold)-npsi(40)-hold(0)/final-lines.txt","right":"bvh/return-bottle-hold-training0-lines.txt","att_check":false},"trial_type":"html-keyboard-response","trial_index":194,"time_elapsed":421900,"internal_node_id":"0.0-8.0-3.46","subject":"91avkw761tq6btm","sona":"6091"},{"rt":341.164999990724,"stimulus":"<p>Bereit?</p>","key_press":32,"trial_type":"html-keyboard-response","trial_index":195,"time_elapsed":422247,"internal_node_id":"0.0-8.0-0.47","subject":"91avkw761tq6btm","sona":"6091"},{"rt":null,"stimulus":"<div style=\"font-size:60px;\">+</div>","key_press":null,"trial_type":"html-keyboard-response","trial_index":196,"time_elapsed":424249,"internal_node_id":"0.0-8.0-1.47","subject":"91avkw761tq6btm","sona":"6091"},{"trial_type":"turing-test","trial_index":197,"time_elapsed":429938,"internal_node_id":"0.0-8.0-2.47","subject":"91avkw761tq6btm","sona":"6091"},{"rt":1901.9199999747798,"stimulus":"<p>Welche Sequenz haben Sie als natürlicher empfunden?</p>","key_press":70,"test_part":"response","test_stimulus":{"position":0,"left":"bvh/pass-bottle-training4-lines.txt","right":"bvh/vr_prediction_models/model(dmp)-dataset(pass-bottle)-npsi(30)-hold(4)/final-lines.txt","att_check":true},"trial_type":"html-keyboard-response","trial_index":198,"time_elapsed":431843,"internal_node_id":"0.0-8.0-3.47","subject":"91avkw761tq6btm","sona":"6091"},{"rt":1019.0200000070035,"stimulus":"<p>Bereit?</p>","key_press":32,"trial_type":"html-keyboard-response","trial_index":199,"time_elapsed":432866,"internal_node_id":"0.0-8.0-0.48","subject":"91avkw761tq6btm","sona":"6091"},{"rt":null,"stimulus":"<div style=\"font-size:60px;\">+</div>","key_press":null,"trial_type":"html-keyboard-response","trial_index":200,"time_elapsed":434869,"internal_node_id":"0.0-8.0-1.48","subject":"91avkw761tq6btm","sona":"6091"},{"trial_type":"turing-test","trial_index":201,"time_elapsed":438091,"internal_node_id":"0.0-8.0-2.48","subject":"91avkw761tq6btm","sona":"6091"},{"rt":886.7500000051223,"stimulus":"<p>Welche Sequenz haben Sie als natürlicher empfunden?</p>","key_press":70,"test_part":"response","test_stimulus":{"position":0,"left":"bvh/pass-bottle-hold-training1-lines.txt","right":"bvh/vr_prediction_models/model(tmp)-dataset(pass-bottle-hold)-numprim(8)-hold(1)/final-lines.txt","att_check":false},"trial_type":"html-keyboard-response","trial_index":202,"time_elapsed":438984,"internal_node_id":"0.0-8.0-3.48","subject":"91avkw761tq6btm","sona":"6091"},{"rt":187.0900000212714,"stimulus":"<p>Bereit?</p>","key_press":32,"trial_type":"html-keyboard-response","trial_index":203,"time_elapsed":439176,"internal_node_id":"0.0-8.0-0.49","subject":"91avkw761tq6btm","sona":"6091"},{"rt":null,"stimulus":"<div style=\"font-size:60px;\">+</div>","key_press":null,"trial_type":"html-keyboard-response","trial_index":204,"time_elapsed":441179,"internal_node_id":"0.0-8.0-1.49","subject":"91avkw761tq6btm","sona":"6091"},{"trial_type":"turing-test","trial_index":205,"time_elapsed":447776,"internal_node_id":"0.0-8.0-2.49","subject":"91avkw761tq6btm","sona":"6091"},{"rt":612.5799999572337,"stimulus":"<p>Welche Sequenz haben Sie als natürlicher empfunden?</p>","key_press":74,"test_part":"response","test_stimulus":{"position":0,"left":"bvh/pass-bottle-training0-lines.txt","right":"bvh/vr_prediction_models/model(dmp)-dataset(pass-bottle)-npsi(80)-hold(0)/final-lines.txt","att_check":false},"trial_type":"html-keyboard-response","trial_index":206,"time_elapsed":448401,"internal_node_id":"0.0-8.0-3.49","subject":"91avkw761tq6btm","sona":"6091"},{"rt":827.2899999865331,"stimulus":"<p>Bereit?</p>","key_press":32,"trial_type":"html-keyboard-response","trial_index":207,"time_elapsed":449234,"internal_node_id":"0.0-8.0-0.50","subject":"91avkw761tq6btm","sona":"6091"},{"rt":null,"stimulus":"<div style=\"font-size:60px;\">+</div>","key_press":null,"trial_type":"html-keyboard-response","trial_index":208,"time_elapsed":451237,"internal_node_id":"0.0-8.0-1.50","subject":"91avkw761tq6btm","sona":"6091"},{"trial_type":"turing-test","trial_index":209,"time_elapsed":456967,"internal_node_id":"0.0-8.0-2.50","subject":"91avkw761tq6btm","sona":"6091"},{"rt":2473.839999991469,"stimulus":"<p>Welche Sequenz haben Sie als natürlicher empfunden?</p>","key_press":74,"test_part":"response","test_stimulus":{"position":1,"left":"bvh/vr_prediction_models/model(dmp)-dataset(return-bottle)-npsi(80)-hold(3)/final-lines.txt","right":"bvh/return-bottle-training3-lines.txt","att_check":false},"trial_type":"html-keyboard-response","trial_index":210,"time_elapsed":459443,"internal_node_id":"0.0-8.0-3.50","subject":"91avkw761tq6btm","sona":"6091"},{"rt":292.69999999087304,"stimulus":"<p>Bereit?</p>","key_press":32,"trial_type":"html-keyboard-response","trial_index":211,"time_elapsed":459742,"internal_node_id":"0.0-8.0-0.51","subject":"91avkw761tq6btm","sona":"6091"},{"rt":null,"stimulus":"<div style=\"font-size:60px;\">+</div>","key_press":null,"trial_type":"html-keyboard-response","trial_index":212,"time_elapsed":461745,"internal_node_id":"0.0-8.0-1.51","subject":"91avkw761tq6btm","sona":"6091"},{"trial_type":"turing-test","trial_index":213,"time_elapsed":465200,"internal_node_id":"0.0-8.0-2.51","subject":"91avkw761tq6btm","sona":"6091"},{"rt":446.54500001342967,"stimulus":"<p>Welche Sequenz haben Sie als natürlicher empfunden?</p>","key_press":70,"test_part":"response","test_stimulus":{"position":0,"left":"bvh/pass-bottle-hold-training2-lines.txt","right":"bvh/vr_prediction_models/model(vcgpdm)-dataset(pass-bottle-hold)-mode(ELBO)-parts(3)-dyn(25)-lvm(15)-hold(2)/final-lines.txt","att_check":false},"trial_type":"html-keyboard-response","trial_index":214,"time_elapsed":465648,"internal_node_id":"0.0-8.0-3.51","subject":"91avkw761tq6btm","sona":"6091"},{"rt":213.6049999971874,"stimulus":"<p>Bereit?</p>","key_press":32,"trial_type":"html-keyboard-response","trial_index":215,"time_elapsed":465866,"internal_node_id":"0.0-8.0-0.52","subject":"91avkw761tq6btm","sona":"6091"},{"rt":null,"stimulus":"<div style=\"font-size:60px;\">+</div>","key_press":null,"trial_type":"html-keyboard-response","trial_index":216,"time_elapsed":467870,"internal_node_id":"0.0-8.0-1.52","subject":"91avkw761tq6btm","sona":"6091"},{"trial_type":"turing-test","trial_index":217,"time_elapsed":473667,"internal_node_id":"0.0-8.0-2.52","subject":"91avkw761tq6btm","sona":"6091"},{"rt":494.24999998882413,"stimulus":"<p>Welche Sequenz haben Sie als natürlicher empfunden?</p>","key_press":74,"test_part":"response","test_stimulus":{"position":1,"left":"bvh/vr_prediction_models/model(dmp)-dataset(return-bottle)-npsi(40)-hold(4)/final-lines.txt","right":"bvh/return-bottle-training4-lines.txt","att_check":false},"trial_type":"html-keyboard-response","trial_index":218,"time_elapsed":474167,"internal_node_id":"0.0-8.0-3.52","subject":"91avkw761tq6btm","sona":"6091"},{"rt":310.7900000177324,"stimulus":"<p>Bereit?</p>","key_press":32,"trial_type":"html-keyboard-response","trial_index":219,"time_elapsed":474484,"internal_node_id":"0.0-8.0-0.53","subject":"91avkw761tq6btm","sona":"6091"},{"rt":null,"stimulus":"<div style=\"font-size:60px;\">+</div>","key_press":null,"trial_type":"html-keyboard-response","trial_index":220,"time_elapsed":476487,"internal_node_id":"0.0-8.0-1.53","subject":"91avkw761tq6btm","sona":"6091"},{"trial_type":"turing-test","trial_index":221,"time_elapsed":480240,"internal_node_id":"0.0-8.0-2.53","subject":"91avkw761tq6btm","sona":"6091"},{"rt":297.1850000321865,"stimulus":"<p>Welche Sequenz haben Sie als natürlicher empfunden?</p>","key_press":70,"test_part":"response","test_stimulus":{"position":0,"left":"bvh/return-bottle-hold-training3-lines.txt","right":"bvh/vr_prediction_models/model(vcgpdm)-dataset(return-bottle-hold)-mode(ELBO)-parts(3)-dyn(10)-lvm(25)-hold(3)/final-lines.txt","att_check":false},"trial_type":"html-keyboard-response","trial_index":222,"time_elapsed":480541,"internal_node_id":"0.0-8.0-3.53","subject":"91avkw761tq6btm","sona":"6091"},{"rt":294.5099999778904,"stimulus":"<p>Bereit?</p>","key_press":32,"trial_type":"html-keyboard-response","trial_index":223,"time_elapsed":480842,"internal_node_id":"0.0-8.0-0.54","subject":"91avkw761tq6btm","sona":"6091"},{"rt":null,"stimulus":"<div style=\"font-size:60px;\">+</div>","key_press":null,"trial_type":"html-keyboard-response","trial_index":224,"time_elapsed":482846,"internal_node_id":"0.0-8.0-1.54","subject":"91avkw761tq6btm","sona":"6091"},{"trial_type":"turing-test","trial_index":225,"time_elapsed":488538,"internal_node_id":"0.0-8.0-2.54","subject":"91avkw761tq6btm","sona":"6091"},{"rt":400.4599999752827,"stimulus":"<p>Welche Sequenz haben Sie als natürlicher empfunden?</p>","key_press":70,"test_part":"response","test_stimulus":{"position":0,"left":"bvh/pass-bottle-training3-lines.txt","right":"bvh/vr_prediction_models/model(vcgpdm)-dataset(pass-bottle)-mode(ELBO)-parts(3)-dyn(15)-lvm(30)-hold(3)/final-lines.txt","att_check":false},"trial_type":"html-keyboard-response","trial_index":226,"time_elapsed":488943,"internal_node_id":"0.0-8.0-3.54","subject":"91avkw761tq6btm","sona":"6091"},{"rt":245.56499999016523,"stimulus":"<p>Bereit?</p>","key_press":32,"trial_type":"html-keyboard-response","trial_index":227,"time_elapsed":489197,"internal_node_id":"0.0-8.0-0.55","subject":"91avkw761tq6btm","sona":"6091"},{"rt":null,"stimulus":"<div style=\"font-size:60px;\">+</div>","key_press":null,"trial_type":"html-keyboard-response","trial_index":228,"time_elapsed":491200,"internal_node_id":"0.0-8.0-1.55","subject":"91avkw761tq6btm","sona":"6091"},{"trial_type":"turing-test","trial_index":229,"time_elapsed":496955,"internal_node_id":"0.0-8.0-2.55","subject":"91avkw761tq6btm","sona":"6091"},{"rt":390.91499999631196,"stimulus":"<p>Welche Sequenz haben Sie als natürlicher empfunden?</p>","key_press":70,"test_part":"response","test_stimulus":{"position":1,"left":"bvh/vr_prediction_models/model(dmp)-dataset(return-bottle)-npsi(30)-hold(3)/final-lines.txt","right":"bvh/return-bottle-training3-lines.txt","att_check":false},"trial_type":"html-keyboard-response","trial_index":230,"time_elapsed":497352,"internal_node_id":"0.0-8.0-3.55","subject":"91avkw761tq6btm","sona":"6091"},{"rt":230.83000001497567,"stimulus":"<p>Bereit?</p>","key_press":32,"trial_type":"html-keyboard-response","trial_index":231,"time_elapsed":497589,"internal_node_id":"0.0-8.0-0.56","subject":"91avkw761tq6btm","sona":"6091"},{"rt":null,"stimulus":"<div style=\"font-size:60px;\">+</div>","key_press":null,"trial_type":"html-keyboard-response","trial_index":232,"time_elapsed":499593,"internal_node_id":"0.0-8.0-1.56","subject":"91avkw761tq6btm","sona":"6091"},{"trial_type":"turing-test","trial_index":233,"time_elapsed":502951,"internal_node_id":"0.0-8.0-2.56","subject":"91avkw761tq6btm","sona":"6091"},{"rt":465.15000000363216,"stimulus":"<p>Welche Sequenz haben Sie als natürlicher empfunden?</p>","key_press":74,"test_part":"response","test_stimulus":{"position":0,"left":"bvh/pass-bottle-hold-training0-lines.txt","right":"bvh/vr_prediction_models/model(tmp)-dataset(pass-bottle-hold)-numprim(11)-hold(0)/final-lines.txt","att_check":false},"trial_type":"html-keyboard-response","trial_index":234,"time_elapsed":503418,"internal_node_id":"0.0-8.0-3.56","subject":"91avkw761tq6btm","sona":"6091"},{"rt":239.2600000021048,"stimulus":"<p>Bereit?</p>","key_press":32,"trial_type":"html-keyboard-response","trial_index":235,"time_elapsed":503662,"internal_node_id":"0.0-8.0-0.57","subject":"91avkw761tq6btm","sona":"6091"},{"rt":null,"stimulus":"<div style=\"font-size:60px;\">+</div>","key_press":null,"trial_type":"html-keyboard-response","trial_index":236,"time_elapsed":505665,"internal_node_id":"0.0-8.0-1.57","subject":"91avkw761tq6btm","sona":"6091"},{"trial_type":"turing-test","trial_index":237,"time_elapsed":511032,"internal_node_id":"0.0-8.0-2.57","subject":"91avkw761tq6btm","sona":"6091"},{"rt":284.05499999644235,"stimulus":"<p>Welche Sequenz haben Sie als natürlicher empfunden?</p>","key_press":74,"test_part":"response","test_stimulus":{"position":0,"left":"bvh/return-bottle-hold-training0-lines.txt","right":"bvh/vr_prediction_models/model(vcgpdm)-dataset(return-bottle-hold)-mode(ELBO)-parts(1)-dyn(20)-lvm(20)-hold(0)/final-lines.txt","att_check":false},"trial_type":"html-keyboard-response","trial_index":238,"time_elapsed":511323,"internal_node_id":"0.0-8.0-3.57","subject":"91avkw761tq6btm","sona":"6091"},{"rt":345.8600000012666,"stimulus":"<p>Bereit?</p>","key_press":32,"trial_type":"html-keyboard-response","trial_index":239,"time_elapsed":511675,"internal_node_id":"0.0-8.0-0.58","subject":"91avkw761tq6btm","sona":"6091"},{"rt":null,"stimulus":"<div style=\"font-size:60px;\">+</div>","key_press":null,"trial_type":"html-keyboard-response","trial_index":240,"time_elapsed":513677,"internal_node_id":"0.0-8.0-1.58","subject":"91avkw761tq6btm","sona":"6091"},{"trial_type":"turing-test","trial_index":241,"time_elapsed":519816,"internal_node_id":"0.0-8.0-2.58","subject":"91avkw761tq6btm","sona":"6091"},{"rt":450.32000000355765,"stimulus":"<p>Welche Sequenz haben Sie als natürlicher empfunden?</p>","key_press":74,"test_part":"response","test_stimulus":{"position":0,"left":"bvh/pass-bottle-training2-lines.txt","right":"bvh/vr_prediction_models/model(tmp)-dataset(pass-bottle)-numprim(10)-hold(2)/final-lines.txt","att_check":false},"trial_type":"html-keyboard-response","trial_index":242,"time_elapsed":520272,"internal_node_id":"0.0-8.0-3.58","subject":"91avkw761tq6btm","sona":"6091"},{"rt":303.8899999810383,"stimulus":"<p>Bereit?</p>","key_press":32,"trial_type":"html-keyboard-response","trial_index":243,"time_elapsed":520584,"internal_node_id":"0.0-8.0-0.59","subject":"91avkw761tq6btm","sona":"6091"},{"rt":null,"stimulus":"<div style=\"font-size:60px;\">+</div>","key_press":null,"trial_type":"html-keyboard-response","trial_index":244,"time_elapsed":522588,"internal_node_id":"0.0-8.0-1.59","subject":"91avkw761tq6btm","sona":"6091"},{"trial_type":"turing-test","trial_index":245,"time_elapsed":528078,"internal_node_id":"0.0-8.0-2.59","subject":"91avkw761tq6btm","sona":"6091"},{"rt":317.39500002004206,"stimulus":"<p>Welche Sequenz haben Sie als natürlicher empfunden?</p>","key_press":70,"test_part":"response","test_stimulus":{"position":0,"left":"bvh/return-bottle-training0-lines.txt","right":"bvh/vr_prediction_models/model(vcgpdm)-dataset(return-bottle)-mode(ELBO)-parts(3)-dyn(10)-lvm(10)-hold(0)/final-lines.txt","att_check":false},"trial_type":"html-keyboard-response","trial_index":246,"time_elapsed":528401,"internal_node_id":"0.0-8.0-3.59","subject":"91avkw761tq6btm","sona":"6091"},{"rt":270.98500001011416,"stimulus":"<p>Bereit?</p>","key_press":32,"trial_type":"html-keyboard-response","trial_index":247,"time_elapsed":528679,"internal_node_id":"0.0-8.0-0.60","subject":"91avkw761tq6btm","sona":"6091"},{"rt":null,"stimulus":"<div style=\"font-size:60px;\">+</div>","key_press":null,"trial_type":"html-keyboard-response","trial_index":248,"time_elapsed":530683,"internal_node_id":"0.0-8.0-1.60","subject":"91avkw761tq6btm","sona":"6091"},{"trial_type":"turing-test","trial_index":249,"time_elapsed":536488,"internal_node_id":"0.0-8.0-2.60","subject":"91avkw761tq6btm","sona":"6091"},{"rt":1030.5000000516884,"stimulus":"<p>Welche Sequenz haben Sie als natürlicher empfunden?</p>","key_press":74,"test_part":"response","test_stimulus":{"position":1,"left":"bvh/vr_prediction_models/model(tmp)-dataset(return-bottle)-numprim(6)-hold(4)/final-lines.txt","right":"bvh/return-bottle-training4-lines.txt","att_check":false},"trial_type":"html-keyboard-response","trial_index":250,"time_elapsed":537521,"internal_node_id":"0.0-8.0-3.60","subject":"91avkw761tq6btm","sona":"6091"},{"rt":400.8599999942817,"stimulus":"<p>Bereit?</p>","key_press":32,"trial_type":"html-keyboard-response","trial_index":251,"time_elapsed":537927,"internal_node_id":"0.0-8.0-0.61","subject":"91avkw761tq6btm","sona":"6091"},{"rt":null,"stimulus":"<div style=\"font-size:60px;\">+</div>","key_press":null,"trial_type":"html-keyboard-response","trial_index":252,"time_elapsed":539930,"internal_node_id":"0.0-8.0-1.61","subject":"91avkw761tq6btm","sona":"6091"},{"trial_type":"turing-test","trial_index":253,"time_elapsed":545411,"internal_node_id":"0.0-8.0-2.61","subject":"91avkw761tq6btm","sona":"6091"},{"rt":497.67999997129664,"stimulus":"<p>Welche Sequenz haben Sie als natürlicher empfunden?</p>","key_press":70,"test_part":"response","test_stimulus":{"position":0,"left":"bvh/return-bottle-training0-lines.txt","right":"bvh/vr_prediction_models/model(dmp)-dataset(return-bottle)-npsi(50)-hold(0)/final-lines.txt","att_check":false},"trial_type":"html-keyboard-response","trial_index":254,"time_elapsed":545913,"internal_node_id":"0.0-8.0-3.61","subject":"91avkw761tq6btm","sona":"6091"},{"rt":358.52500004693866,"stimulus":"<p>Bereit?</p>","key_press":32,"trial_type":"html-keyboard-response","trial_index":255,"time_elapsed":546274,"internal_node_id":"0.0-8.0-0.62","subject":"91avkw761tq6btm","sona":"6091"},{"rt":null,"stimulus":"<div style=\"font-size:60px;\">+</div>","key_press":null,"trial_type":"html-keyboard-response","trial_index":256,"time_elapsed":548277,"internal_node_id":"0.0-8.0-1.62","subject":"91avkw761tq6btm","sona":"6091"},{"trial_type":"turing-test","trial_index":257,"time_elapsed":555027,"internal_node_id":"0.0-8.0-2.62","subject":"91avkw761tq6btm","sona":"6091"},{"rt":437.86000000545755,"stimulus":"<p>Welche Sequenz haben Sie als natürlicher empfunden?</p>","key_press":70,"test_part":"response","test_stimulus":{"position":0,"left":"bvh/pass-bottle-training0-lines.txt","right":"bvh/vr_prediction_models/model(tmp)-dataset(pass-bottle)-numprim(7)-hold(0)/final-lines.txt","att_check":false},"trial_type":"html-keyboard-response","trial_index":258,"time_elapsed":555470,"internal_node_id":"0.0-8.0-3.62","subject":"91avkw761tq6btm","sona":"6091"},{"rt":299.36999996425584,"stimulus":"<p>Bereit?</p>","key_press":32,"trial_type":"html-keyboard-response","trial_index":259,"time_elapsed":555775,"internal_node_id":"0.0-8.0-0.63","subject":"91avkw761tq6btm","sona":"6091"},{"rt":null,"stimulus":"<div style=\"font-size:60px;\">+</div>","key_press":null,"trial_type":"html-keyboard-response","trial_index":260,"time_elapsed":557778,"internal_node_id":"0.0-8.0-1.63","subject":"91avkw761tq6btm","sona":"6091"},{"trial_type":"turing-test","trial_index":261,"time_elapsed":563624,"internal_node_id":"0.0-8.0-2.63","subject":"91avkw761tq6btm","sona":"6091"},{"rt":539.905000012368,"stimulus":"<p>Welche Sequenz haben Sie als natürlicher empfunden?</p>","key_press":74,"test_part":"response","test_stimulus":{"position":1,"left":"bvh/vr_prediction_models/model(tmp)-dataset(return-bottle)-numprim(12)-hold(4)/final-lines.txt","right":"bvh/return-bottle-training4-lines.txt","att_check":false},"trial_type":"html-keyboard-response","trial_index":262,"time_elapsed":564169,"internal_node_id":"0.0-8.0-3.63","subject":"91avkw761tq6btm","sona":"6091"},{"rt":287.29000000748783,"stimulus":"<p>Bereit?</p>","key_press":32,"trial_type":"html-keyboard-response","trial_index":263,"time_elapsed":564458,"internal_node_id":"0.0-8.0-0.64","subject":"91avkw761tq6btm","sona":"6091"},{"rt":null,"stimulus":"<div style=\"font-size:60px;\">+</div>","key_press":null,"trial_type":"html-keyboard-response","trial_index":264,"time_elapsed":566461,"internal_node_id":"0.0-8.0-1.64","subject":"91avkw761tq6btm","sona":"6091"},{"trial_type":"turing-test","trial_index":265,"time_elapsed":572380,"internal_node_id":"0.0-8.0-2.64","subject":"91avkw761tq6btm","sona":"6091"},{"rt":421.03500000666827,"stimulus":"<p>Welche Sequenz haben Sie als natürlicher empfunden?</p>","key_press":74,"test_part":"response","test_stimulus":{"position":1,"left":"bvh/vr_prediction_models/model(vcgpdm)-dataset(pass-bottle)-mode(ELBO)-parts(3)-dyn(10)-lvm(25)-hold(4)/final-lines.txt","right":"bvh/pass-bottle-training4-lines.txt","att_check":false},"trial_type":"html-keyboard-response","trial_index":266,"time_elapsed":572807,"internal_node_id":"0.0-8.0-3.64","subject":"91avkw761tq6btm","sona":"6091"},{"rt":531.4099999959581,"stimulus":"<p>Bereit?</p>","key_press":32,"trial_type":"html-keyboard-response","trial_index":267,"time_elapsed":573343,"internal_node_id":"0.0-8.0-0.65","subject":"91avkw761tq6btm","sona":"6091"},{"rt":null,"stimulus":"<div style=\"font-size:60px;\">+</div>","key_press":null,"trial_type":"html-keyboard-response","trial_index":268,"time_elapsed":575347,"internal_node_id":"0.0-8.0-1.65","subject":"91avkw761tq6btm","sona":"6091"},{"trial_type":"turing-test","trial_index":269,"time_elapsed":581304,"internal_node_id":"0.0-8.0-2.65","subject":"91avkw761tq6btm","sona":"6091"},{"rt":328.70999997248873,"stimulus":"<p>Welche Sequenz haben Sie als natürlicher empfunden?</p>","key_press":70,"test_part":"response","test_stimulus":{"position":0,"left":"bvh/pass-bottle-training3-lines.txt","right":"bvh/vr_prediction_models/model(vcgpdm)-dataset(pass-bottle)-mode(ELBO)-parts(1)-dyn(10)-lvm(25)-hold(3)/final-lines.txt","att_check":false},"trial_type":"html-keyboard-response","trial_index":270,"time_elapsed":581639,"internal_node_id":"0.0-8.0-3.65","subject":"91avkw761tq6btm","sona":"6091"},{"rt":283.4399999701418,"stimulus":"<p>Bereit?</p>","key_press":32,"trial_type":"html-keyboard-response","trial_index":271,"time_elapsed":581926,"internal_node_id":"0.0-8.0-0.66","subject":"91avkw761tq6btm","sona":"6091"},{"rt":null,"stimulus":"<div style=\"font-size:60px;\">+</div>","key_press":null,"trial_type":"html-keyboard-response","trial_index":272,"time_elapsed":583929,"internal_node_id":"0.0-8.0-1.66","subject":"91avkw761tq6btm","sona":"6091"},{"trial_type":"turing-test","trial_index":273,"time_elapsed":587512,"internal_node_id":"0.0-8.0-2.66","subject":"91avkw761tq6btm","sona":"6091"},{"rt":516.4249999797903,"stimulus":"<p>Welche Sequenz haben Sie als natürlicher empfunden?</p>","key_press":70,"test_part":"response","test_stimulus":{"position":0,"left":"bvh/pass-bottle-hold-training3-lines.txt","right":"bvh/vr_prediction_models/model(tmp)-dataset(pass-bottle-hold)-numprim(14)-hold(3)/final-lines.txt","att_check":false},"trial_type":"html-keyboard-response","trial_index":274,"time_elapsed":588035,"internal_node_id":"0.0-8.0-3.66","subject":"91avkw761tq6btm","sona":"6091"},{"rt":1467.685000039637,"stimulus":"<p>Bereit?</p>","key_press":32,"trial_type":"html-keyboard-response","trial_index":275,"time_elapsed":589509,"internal_node_id":"0.0-8.0-0.67","subject":"91avkw761tq6btm","sona":"6091"},{"rt":null,"stimulus":"<div style=\"font-size:60px;\">+</div>","key_press":null,"trial_type":"html-keyboard-response","trial_index":276,"time_elapsed":591510,"internal_node_id":"0.0-8.0-1.67","subject":"91avkw761tq6btm","sona":"6091"},{"trial_type":"turing-test","trial_index":277,"time_elapsed":594739,"internal_node_id":"0.0-8.0-2.67","subject":"91avkw761tq6btm","sona":"6091"},{"rt":331.70999999856576,"stimulus":"<p>Welche Sequenz haben Sie als natürlicher empfunden?</p>","key_press":74,"test_part":"response","test_stimulus":{"position":1,"left":"bvh/vr_prediction_models/model(vcgpdm)-dataset(pass-bottle-hold)-mode(ELBO)-parts(1)-dyn(5)-lvm(5)-hold(0)/final-lines.txt","right":"bvh/pass-bottle-hold-training0-lines.txt","att_check":false},"trial_type":"html-keyboard-response","trial_index":278,"time_elapsed":595075,"internal_node_id":"0.0-8.0-3.67","subject":"91avkw761tq6btm","sona":"6091"},{"rt":234.0499999700114,"stimulus":"<p>Bereit?</p>","key_press":32,"trial_type":"html-keyboard-response","trial_index":279,"time_elapsed":595314,"internal_node_id":"0.0-8.0-0.68","subject":"91avkw761tq6btm","sona":"6091"},{"rt":null,"stimulus":"<div style=\"font-size:60px;\">+</div>","key_press":null,"trial_type":"html-keyboard-response","trial_index":280,"time_elapsed":597318,"internal_node_id":"0.0-8.0-1.68","subject":"91avkw761tq6btm","sona":"6091"},{"trial_type":"turing-test","trial_index":281,"time_elapsed":600928,"internal_node_id":"0.0-8.0-2.68","subject":"91avkw761tq6btm","sona":"6091"},{"rt":391.21499995235354,"stimulus":"<p>Welche Sequenz haben Sie als natürlicher empfunden?</p>","key_press":70,"test_part":"response","test_stimulus":{"position":1,"left":"bvh/vr_prediction_models/model(dmp)-dataset(pass-bottle-hold)-npsi(10)-hold(4)/final-lines.txt","right":"bvh/pass-bottle-hold-training4-lines.txt","att_check":false},"trial_type":"html-keyboard-response","trial_index":282,"time_elapsed":601323,"internal_node_id":"0.0-8.0-3.68","subject":"91avkw761tq6btm","sona":"6091"},{"rt":236.55499995220453,"stimulus":"<p>Bereit?</p>","key_press":32,"trial_type":"html-keyboard-response","trial_index":283,"time_elapsed":601565,"internal_node_id":"0.0-8.0-0.69","subject":"91avkw761tq6btm","sona":"6091"},{"rt":null,"stimulus":"<div style=\"font-size:60px;\">+</div>","key_press":null,"trial_type":"html-keyboard-response","trial_index":284,"time_elapsed":603567,"internal_node_id":"0.0-8.0-1.69","subject":"91avkw761tq6btm","sona":"6091"},{"trial_type":"turing-test","trial_index":285,"time_elapsed":609538,"internal_node_id":"0.0-8.0-2.69","subject":"91avkw761tq6btm","sona":"6091"},{"rt":477.16499998932704,"stimulus":"<p>Welche Sequenz haben Sie als natürlicher empfunden?</p>","key_press":74,"test_part":"response","test_stimulus":{"position":1,"left":"bvh/vr_prediction_models/model(tmp)-dataset(pass-bottle)-numprim(3)-hold(2)/final-lines.txt","right":"bvh/pass-bottle-training2-lines.txt","att_check":false},"trial_type":"html-keyboard-response","trial_index":286,"time_elapsed":610020,"internal_node_id":"0.0-8.0-3.69","subject":"91avkw761tq6btm","sona":"6091"},{"rt":463.7900000088848,"stimulus":"<p>Bereit?</p>","key_press":32,"trial_type":"html-keyboard-response","trial_index":287,"time_elapsed":610493,"internal_node_id":"0.0-8.0-0.70","subject":"91avkw761tq6btm","sona":"6091"},{"rt":null,"stimulus":"<div style=\"font-size:60px;\">+</div>","key_press":null,"trial_type":"html-keyboard-response","trial_index":288,"time_elapsed":612496,"internal_node_id":"0.0-8.0-1.70","subject":"91avkw761tq6btm","sona":"6091"},{"trial_type":"turing-test","trial_index":289,"time_elapsed":619092,"internal_node_id":"0.0-8.0-2.70","subject":"91avkw761tq6btm","sona":"6091"},{"rt":2123.719999974128,"stimulus":"<p>Welche Sequenz haben Sie als natürlicher empfunden?</p>","key_press":70,"test_part":"response","test_stimulus":{"position":0,"left":"bvh/pass-bottle-training0-lines.txt","right":"bvh/vr_prediction_models/model(dmp)-dataset(pass-bottle)-npsi(90)-hold(0)/final-lines.txt","att_check":false},"trial_type":"html-keyboard-response","trial_index":290,"time_elapsed":621220,"internal_node_id":"0.0-8.0-3.70","subject":"91avkw761tq6btm","sona":"6091"},{"rt":249.03499998617917,"stimulus":"<p>Bereit?</p>","key_press":32,"trial_type":"html-keyboard-response","trial_index":291,"time_elapsed":621473,"internal_node_id":"0.0-8.0-0.71","subject":"91avkw761tq6btm","sona":"6091"},{"rt":null,"stimulus":"<div style=\"font-size:60px;\">+</div>","key_press":null,"trial_type":"html-keyboard-response","trial_index":292,"time_elapsed":623475,"internal_node_id":"0.0-8.0-1.71","subject":"91avkw761tq6btm","sona":"6091"},{"trial_type":"turing-test","trial_index":293,"time_elapsed":629546,"internal_node_id":"0.0-8.0-2.71","subject":"91avkw761tq6btm","sona":"6091"},{"rt":343.1249999557622,"stimulus":"<p>Welche Sequenz haben Sie als natürlicher empfunden?</p>","key_press":70,"test_part":"response","test_stimulus":{"position":0,"left":"bvh/return-bottle-training1-lines.txt","right":"bvh/vr_prediction_models/model(tmp)-dataset(return-bottle)-numprim(8)-hold(1)/final-lines.txt","att_check":false},"trial_type":"html-keyboard-response","trial_index":294,"time_elapsed":629896,"internal_node_id":"0.0-8.0-3.71","subject":"91avkw761tq6btm","sona":"6091"},{"rt":175.6300000124611,"stimulus":"<p>Bereit?</p>","key_press":32,"trial_type":"html-keyboard-response","trial_index":295,"time_elapsed":630081,"internal_node_id":"0.0-8.0-0.72","subject":"91avkw761tq6btm","sona":"6091"},{"rt":null,"stimulus":"<div style=\"font-size:60px;\">+</div>","key_press":null,"trial_type":"html-keyboard-response","trial_index":296,"time_elapsed":632084,"internal_node_id":"0.0-8.0-1.72","subject":"91avkw761tq6btm","sona":"6091"},{"trial_type":"turing-test","trial_index":297,"time_elapsed":638305,"internal_node_id":"0.0-8.0-2.72","subject":"91avkw761tq6btm","sona":"6091"},{"rt":266.7350000119768,"stimulus":"<p>Welche Sequenz haben Sie als natürlicher empfunden?</p>","key_press":70,"test_part":"response","test_stimulus":{"position":0,"left":"bvh/return-bottle-training1-lines.txt","right":"bvh/vr_prediction_models/model(vcgpdm)-dataset(return-bottle)-mode(ELBO)-parts(1)-dyn(20)-lvm(20)-hold(1)/final-lines.txt","att_check":false},"trial_type":"html-keyboard-response","trial_index":298,"time_elapsed":638575,"internal_node_id":"0.0-8.0-3.72","subject":"91avkw761tq6btm","sona":"6091"},{"rt":485.01000000396743,"stimulus":"<p>Bereit?</p>","key_press":32,"trial_type":"html-keyboard-response","trial_index":299,"time_elapsed":639066,"internal_node_id":"0.0-8.0-0.73","subject":"91avkw761tq6btm","sona":"6091"},{"rt":null,"stimulus":"<div style=\"font-size:60px;\">+</div>","key_press":null,"trial_type":"html-keyboard-response","trial_index":300,"time_elapsed":641069,"internal_node_id":"0.0-8.0-1.73","subject":"91avkw761tq6btm","sona":"6091"},{"trial_type":"turing-test","trial_index":301,"time_elapsed":644551,"internal_node_id":"0.0-8.0-2.73","subject":"91avkw761tq6btm","sona":"6091"},{"rt":530.5999999982305,"stimulus":"<p>Welche Sequenz haben Sie als natürlicher empfunden?</p>","key_press":74,"test_part":"response","test_stimulus":{"position":1,"left":"bvh/vr_prediction_models/model(vcgpdm)-dataset(pass-bottle-hold)-mode(ELBO)-parts(3)-dyn(25)-lvm(30)-hold(0)/final-lines.txt","right":"bvh/pass-bottle-hold-training0-lines.txt","att_check":false},"trial_type":"html-keyboard-response","trial_index":302,"time_elapsed":645087,"internal_node_id":"0.0-8.0-3.73","subject":"91avkw761tq6btm","sona":"6091"},{"rt":256.69000000925735,"stimulus":"<p>Bereit?</p>","key_press":32,"trial_type":"html-keyboard-response","trial_index":303,"time_elapsed":645346,"internal_node_id":"0.0-8.0-0.74","subject":"91avkw761tq6btm","sona":"6091"},{"rt":null,"stimulus":"<div style=\"font-size:60px;\">+</div>","key_press":null,"trial_type":"html-keyboard-response","trial_index":304,"time_elapsed":647349,"internal_node_id":"0.0-8.0-1.74","subject":"91avkw761tq6btm","sona":"6091"},{"trial_type":"turing-test","trial_index":305,"time_elapsed":651053,"internal_node_id":"0.0-8.0-2.74","subject":"91avkw761tq6btm","sona":"6091"},{"rt":395.6950000138022,"stimulus":"<p>Welche Sequenz haben Sie als natürlicher empfunden?</p>","key_press":70,"test_part":"response","test_stimulus":{"position":0,"left":"bvh/pass-bottle-hold-training3-lines.txt","right":"bvh/vr_prediction_models/model(vcgpdm)-dataset(pass-bottle-hold)-mode(ELBO)-parts(3)-dyn(20)-lvm(20)-hold(3)/final-lines.txt","att_check":false},"trial_type":"html-keyboard-response","trial_index":306,"time_elapsed":651454,"internal_node_id":"0.0-8.0-3.74","subject":"91avkw761tq6btm","sona":"6091"},{"rt":183.5549999959767,"stimulus":"<p>Bereit?</p>","key_press":32,"trial_type":"html-keyboard-response","trial_index":307,"time_elapsed":651640,"internal_node_id":"0.0-8.0-0.75","subject":"91avkw761tq6btm","sona":"6091"},{"rt":null,"stimulus":"<div style=\"font-size:60px;\">+</div>","key_press":null,"trial_type":"html-keyboard-response","trial_index":308,"time_elapsed":653644,"internal_node_id":"0.0-8.0-1.75","subject":"91avkw761tq6btm","sona":"6091"},{"trial_type":"turing-test","trial_index":309,"time_elapsed":660262,"internal_node_id":"0.0-8.0-2.75","subject":"91avkw761tq6btm","sona":"6091"},{"rt":314.429999969434,"stimulus":"<p>Welche Sequenz haben Sie als natürlicher empfunden?</p>","key_press":74,"test_part":"response","test_stimulus":{"position":1,"left":"bvh/vr_prediction_models/model(tmp)-dataset(return-bottle)-numprim(14)-hold(2)/final-lines.txt","right":"bvh/return-bottle-training2-lines.txt","att_check":false},"trial_type":"html-keyboard-response","trial_index":310,"time_elapsed":660583,"internal_node_id":"0.0-8.0-3.75","subject":"91avkw761tq6btm","sona":"6091"},{"rt":305.88999995961785,"stimulus":"<p>Bereit?</p>","key_press":32,"trial_type":"html-keyboard-response","trial_index":311,"time_elapsed":660895,"internal_node_id":"0.0-8.0-0.76","subject":"91avkw761tq6btm","sona":"6091"},{"rt":null,"stimulus":"<div style=\"font-size:60px;\">+</div>","key_press":null,"trial_type":"html-keyboard-response","trial_index":312,"time_elapsed":662903,"internal_node_id":"0.0-8.0-1.76","subject":"91avkw761tq6btm","sona":"6091"},{"trial_type":"turing-test","trial_index":313,"time_elapsed":668398,"internal_node_id":"0.0-8.0-2.76","subject":"91avkw761tq6btm","sona":"6091"},{"rt":53.05499996757135,"stimulus":"<p>Welche Sequenz haben Sie als natürlicher empfunden?</p>","key_press":74,"test_part":"response","test_stimulus":{"position":1,"left":"bvh/vr_prediction_models/model(tmp)-dataset(return-bottle)-numprim(9)-hold(0)/final-lines.txt","right":"bvh/return-bottle-training0-lines.txt","att_check":false},"trial_type":"html-keyboard-response","trial_index":314,"time_elapsed":668454,"internal_node_id":"0.0-8.0-3.76","subject":"91avkw761tq6btm","sona":"6091"},{"rt":513.7249999679625,"stimulus":"<p>Bereit?</p>","key_press":32,"trial_type":"html-keyboard-response","trial_index":315,"time_elapsed":668970,"internal_node_id":"0.0-8.0-0.77","subject":"91avkw761tq6btm","sona":"6091"},{"rt":null,"stimulus":"<div style=\"font-size:60px;\">+</div>","key_press":null,"trial_type":"html-keyboard-response","trial_index":316,"time_elapsed":670974,"internal_node_id":"0.0-8.0-1.77","subject":"91avkw761tq6btm","sona":"6091"},{"trial_type":"turing-test","trial_index":317,"time_elapsed":676977,"internal_node_id":"0.0-8.0-2.77","subject":"91avkw761tq6btm","sona":"6091"},{"rt":322.6300000096671,"stimulus":"<p>Welche Sequenz haben Sie als natürlicher empfunden?</p>","key_press":74,"test_part":"response","test_stimulus":{"position":1,"left":"bvh/vr_prediction_models/model(vcgpdm)-dataset(pass-bottle)-mode(ELBO)-parts(3)-dyn(35)-lvm(20)-hold(3)/final-lines.txt","right":"bvh/pass-bottle-training3-lines.txt","att_check":false},"trial_type":"html-keyboard-response","trial_index":318,"time_elapsed":677303,"internal_node_id":"0.0-8.0-3.77","subject":"91avkw761tq6btm","sona":"6091"},{"rt":313.3350000134669,"stimulus":"<p>Bereit?</p>","key_press":32,"trial_type":"html-keyboard-response","trial_index":319,"time_elapsed":677619,"internal_node_id":"0.0-8.0-0.78","subject":"91avkw761tq6btm","sona":"6091"},{"rt":null,"stimulus":"<div style=\"font-size:60px;\">+</div>","key_press":null,"trial_type":"html-keyboard-response","trial_index":320,"time_elapsed":679621,"internal_node_id":"0.0-8.0-1.78","subject":"91avkw761tq6btm","sona":"6091"},{"trial_type":"turing-test","trial_index":321,"time_elapsed":685768,"internal_node_id":"0.0-8.0-2.78","subject":"91avkw761tq6btm","sona":"6091"},{"rt":292.22000000299886,"stimulus":"<p>Welche Sequenz haben Sie als natürlicher empfunden?</p>","key_press":74,"test_part":"response","test_stimulus":{"position":1,"left":"bvh/vr_prediction_models/model(vcgpdm)-dataset(return-bottle)-mode(ELBO)-parts(1)-dyn(35)-lvm(10)-hold(1)/final-lines.txt","right":"bvh/return-bottle-training1-lines.txt","att_check":false},"trial_type":"html-keyboard-response","trial_index":322,"time_elapsed":686065,"internal_node_id":"0.0-8.0-3.78","subject":"91avkw761tq6btm","sona":"6091"},{"rt":315.75499998871237,"stimulus":"<p>Bereit?</p>","key_press":32,"trial_type":"html-keyboard-response","trial_index":323,"time_elapsed":686388,"internal_node_id":"0.0-8.0-0.79","subject":"91avkw761tq6btm","sona":"6091"},{"rt":null,"stimulus":"<div style=\"font-size:60px;\">+</div>","key_press":null,"trial_type":"html-keyboard-response","trial_index":324,"time_elapsed":688390,"internal_node_id":"0.0-8.0-1.79","subject":"91avkw761tq6btm","sona":"6091"},{"trial_type":"turing-test","trial_index":325,"time_elapsed":691779,"internal_node_id":"0.0-8.0-2.79","subject":"91avkw761tq6btm","sona":"6091"},{"rt":545.2750000404194,"stimulus":"<p>Welche Sequenz haben Sie als natürlicher empfunden?</p>","key_press":70,"test_part":"response","test_stimulus":{"position":0,"left":"bvh/pass-bottle-hold-training1-lines.txt","right":"bvh/vr_prediction_models/model(vcgpdm)-dataset(pass-bottle-hold)-mode(ELBO)-parts(1)-dyn(20)-lvm(30)-hold(1)/final-lines.txt","att_check":false},"trial_type":"html-keyboard-response","trial_index":326,"time_elapsed":692329,"internal_node_id":"0.0-8.0-3.79","subject":"91avkw761tq6btm","sona":"6091"},{"rt":12724.719999998342,"responses":"{\"age\":\"25\",\"gender\":\"weiblich\"}","trial_type":"survey-text","trial_index":327,"time_elapsed":705064,"internal_node_id":"0.0-10.0-0.0","subject":"91avkw761tq6btm","sona":"6091"},{"rt":142632.8349999967,"responses":"{\"area\":\"Arme und Beine\",\"Q1\":\"Zu langsam und steife Bewegung\",\"Q2\":\"Die Geschwindigkeit\"}","trial_type":"survey-text","trial_index":328,"time_elapsed":847721,"internal_node_id":"0.0-10.0-1.0","subject":"91avkw761tq6btm","sona":"6091"}]