[{"rt":3641,"stimulus":"<p>Welcome!<br> Please choose your language to start the experiment in the chosen language.</p><p>Willkommen!<br> Bitte wählen Sie eine Sprache, um das Experiment in der ausgewählten Sprache zu starten</p>","button_pressed":"1","trial_type":"html-button-response","trial_index":0,"time_elapsed":3663,"internal_node_id":"0.0-0.0","subject":"efun2f11d8q4mxw","sona":"9403"},{"view_history":"[{\"page_index\":0,\"viewing_time\":13996.000000000004},{\"page_index\":1,\"viewing_time\":3968},{\"page_index\":2,\"viewing_time\":9574.999999999996},{\"page_index\":3,\"viewing_time\":3402},{\"page_index\":4,\"viewing_time\":2406}]","rt":33348,"trial_type":"instructions","trial_index":1,"time_elapsed":37011,"internal_node_id":"0.0-1.0-0.0","subject":"efun2f11d8q4mxw","sona":"9403"},{"rt":1835,"stimulus":"<p>Bereit?</p>","key_press":32,"trial_type":"html-keyboard-response","trial_index":2,"time_elapsed":38849,"internal_node_id":"0.0-3.0","subject":"efun2f11d8q4mxw","sona":"9403"},{"rt":null,"stimulus":"<div style=\"font-size:60px;\">+</div>","key_press":null,"trial_type":"html-keyboard-response","trial_index":3,"time_elapsed":40855,"internal_node_id":"0.0-4.0","subject":"efun2f11d8q4mxw","sona":"9403"},{"trial_type":"training","trial_index":4,"time_elapsed":44346,"internal_node_id":"0.0-5.0","subject":"efun2f11d8q4mxw","sona":"9403"},{"rt":6328.999999999993,"stimulus":"<p>Welche Sequenz haben Sie als natürlicher empfunden?</p>","key_press":74,"trial_type":"html-keyboard-response","trial_index":5,"time_elapsed":50675,"internal_node_id":"0.0-6.0","subject":"efun2f11d8q4mxw","sona":"9403"},{"rt":4407,"stimulus":"<p>Das Experiment startet nun.</p><p><small>Bitte drücken Sie den Knopf, wenn Sie bereit sind.</small></p>","button_pressed":"0","trial_type":"html-button-response","trial_index":6,"time_elapsed":55084,"internal_node_id":"0.0-7.0","subject":"efun2f11d8q4mxw","sona":"9403"},{"rt":1638.9999999999927,"stimulus":"<p>Bereit?</p>","key_press":32,"trial_type":"html-keyboard-response","trial_index":7,"time_elapsed":56724,"internal_node_id":"0.0-8.0-0.0","subject":"efun2f11d8q4mxw","sona":"9403"},{"rt":null,"stimulus":"<div style=\"font-size:60px;\">+</div>","key_press":null,"trial_type":"html-keyboard-response","trial_index":8,"time_elapsed":58732,"internal_node_id":"0.0-8.0-1.0","subject":"efun2f11d8q4mxw","sona":"9403"},{"trial_type":"turing-test","trial_index":9,"time_elapsed":64524,"internal_node_id":"0.0-8.0-2.0","subject":"efun2f11d8q4mxw","sona":"9403"},{"rt":955,"stimulus":"<p>Welche Sequenz haben Sie als natürlicher empfunden?</p>","key_press":70,"test_part":"response","test_stimulus":{"position":1,"left":"bvh/vr_prediction_models/model(tmp)-dataset(pass-bottle)-numprim(4)-hold(4)/final-lines.txt","right":"bvh/pass-bottle-training4-lines.txt","att_check":false},"trial_type":"html-keyboard-response","trial_index":10,"time_elapsed":65482,"internal_node_id":"0.0-8.0-3.0","subject":"efun2f11d8q4mxw","sona":"9403"},{"rt":1765,"stimulus":"<p>Bereit?</p>","key_press":32,"trial_type":"html-keyboard-response","trial_index":11,"time_elapsed":67250,"internal_node_id":"0.0-8.0-0.1","subject":"efun2f11d8q4mxw","sona":"9403"},{"rt":null,"stimulus":"<div style=\"font-size:60px;\">+</div>","key_press":null,"trial_type":"html-keyboard-response","trial_index":12,"time_elapsed":69257,"internal_node_id":"0.0-8.0-1.1","subject":"efun2f11d8q4mxw","sona":"9403"},{"trial_type":"turing-test","trial_index":13,"time_elapsed":72685,"internal_node_id":"0.0-8.0-2.1","subject":"efun2f11d8q4mxw","sona":"9403"},{"rt":5171,"stimulus":"<p>Welche Sequenz haben Sie als natürlicher empfunden?</p>","key_press":70,"test_part":"response","test_stimulus":{"position":0,"left":"bvh/pass-bottle-hold-training0-lines.txt","right":"bvh/vr_prediction_models/model(vcgpdm)-dataset(pass-bottle-hold)-mode(ELBO)-parts(3)-dyn(15)-lvm(30)-hold(0)/final-lines.txt","att_check":false},"trial_type":"html-keyboard-response","trial_index":14,"time_elapsed":77859,"internal_node_id":"0.0-8.0-3.1","subject":"efun2f11d8q4mxw","sona":"9403"},{"rt":1984,"stimulus":"<p>Bereit?</p>","key_press":32,"trial_type":"html-keyboard-response","trial_index":15,"time_elapsed":79845,"internal_node_id":"0.0-8.0-0.2","subject":"efun2f11d8q4mxw","sona":"9403"},{"rt":null,"stimulus":"<div style=\"font-size:60px;\">+</div>","key_press":null,"trial_type":"html-keyboard-response","trial_index":16,"time_elapsed":81853,"internal_node_id":"0.0-8.0-1.2","subject":"efun2f11d8q4mxw","sona":"9403"},{"trial_type":"turing-test","trial_index":17,"time_elapsed":85548,"internal_node_id":"0.0-8.0-2.2","subject":"efun2f11d8q4mxw","sona":"9403"},{"rt":4330.999999999985,"stimulus":"<p>Welche Sequenz haben Sie als natürlicher empfunden?</p>","key_press":74,"test_part":"response","test_stimulus":{"position":1,"left":"bvh/vr_prediction_models/model(vcgpdm)-dataset(pass-bottle-hold)-mode(ELBO)-parts(3)-dyn(30)-lvm(15)-hold(3)/final-lines.txt","right":"bvh/pass-bottle-hold-training3-lines.txt","att_check":false},"trial_type":"html-keyboard-response","trial_index":18,"time_elapsed":89883,"internal_node_id":"0.0-8.0-3.2","subject":"efun2f11d8q4mxw","sona":"9403"},{"rt":1587,"stimulus":"<p>Bereit?</p>","key_press":32,"trial_type":"html-keyboard-response","trial_index":19,"time_elapsed":91473,"internal_node_id":"0.0-8.0-0.3","subject":"efun2f11d8q4mxw","sona":"9403"},{"rt":null,"stimulus":"<div style=\"font-size:60px;\">+</div>","key_press":null,"trial_type":"html-keyboard-response","trial_index":20,"time_elapsed":93478,"internal_node_id":"0.0-8.0-1.3","subject":"efun2f11d8q4mxw","sona":"9403"},{"trial_type":"turing-test","trial_index":21,"time_elapsed":96981,"internal_node_id":"0.0-8.0-2.3","subject":"efun2f11d8q4mxw","sona":"9403"},{"rt":793,"stimulus":"<p>Welche Sequenz haben Sie als natürlicher empfunden?</p>","key_press":74,"test_part":"response","test_stimulus":{"position":1,"left":"bvh/vr_prediction_models/model(dmp)-dataset(pass-bottle-hold)-npsi(100)-hold(3)/final-lines.txt","right":"bvh/pass-bottle-hold-training3-lines.txt","att_check":false},"trial_type":"html-keyboard-response","trial_index":22,"time_elapsed":97777,"internal_node_id":"0.0-8.0-3.3","subject":"efun2f11d8q4mxw","sona":"9403"},{"rt":1156.0000000000146,"stimulus":"<p>Bereit?</p>","key_press":32,"trial_type":"html-keyboard-response","trial_index":23,"time_elapsed":98935,"internal_node_id":"0.0-8.0-0.4","subject":"efun2f11d8q4mxw","sona":"9403"},{"rt":null,"stimulus":"<div style=\"font-size:60px;\">+</div>","key_press":null,"trial_type":"html-keyboard-response","trial_index":24,"time_elapsed":100940,"internal_node_id":"0.0-8.0-1.4","subject":"efun2f11d8q4mxw","sona":"9403"},{"trial_type":"turing-test","trial_index":25,"time_elapsed":104813,"internal_node_id":"0.0-8.0-2.4","subject":"efun2f11d8q4mxw","sona":"9403"},{"rt":795,"stimulus":"<p>Welche Sequenz haben Sie als natürlicher empfunden?</p>","key_press":74,"test_part":"response","test_stimulus":{"position":1,"left":"bvh/vr_prediction_models/model(vcgpdm)-dataset(return-bottle-hold)-mode(ELBO)-parts(3)-dyn(25)-lvm(25)-hold(4)/final-lines.txt","right":"bvh/return-bottle-hold-training4-lines.txt","att_check":false},"trial_type":"html-keyboard-response","trial_index":26,"time_elapsed":105611,"internal_node_id":"0.0-8.0-3.4","subject":"efun2f11d8q4mxw","sona":"9403"},{"rt":1018,"stimulus":"<p>Bereit?</p>","key_press":32,"trial_type":"html-keyboard-response","trial_index":27,"time_elapsed":106632,"internal_node_id":"0.0-8.0-0.5","subject":"efun2f11d8q4mxw","sona":"9403"},{"rt":null,"stimulus":"<div style=\"font-size:60px;\">+</div>","key_press":null,"trial_type":"html-keyboard-response","trial_index":28,"time_elapsed":108635,"internal_node_id":"0.0-8.0-1.5","subject":"efun2f11d8q4mxw","sona":"9403"},{"trial_type":"turing-test","trial_index":29,"time_elapsed":112097,"internal_node_id":"0.0-8.0-2.5","subject":"efun2f11d8q4mxw","sona":"9403"},{"rt":1327,"stimulus":"<p>Welche Sequenz haben Sie als natürlicher empfunden?</p>","key_press":74,"test_part":"response","test_stimulus":{"position":1,"left":"bvh/vr_prediction_models/model(dmp)-dataset(return-bottle-hold)-npsi(100)-hold(2)/final-lines.txt","right":"bvh/return-bottle-hold-training2-lines.txt","att_check":false},"trial_type":"html-keyboard-response","trial_index":30,"time_elapsed":113427,"internal_node_id":"0.0-8.0-3.5","subject":"efun2f11d8q4mxw","sona":"9403"},{"rt":2231,"stimulus":"<p>Bereit?</p>","key_press":32,"trial_type":"html-keyboard-response","trial_index":31,"time_elapsed":115660,"internal_node_id":"0.0-8.0-0.6","subject":"efun2f11d8q4mxw","sona":"9403"},{"rt":null,"stimulus":"<div style=\"font-size:60px;\">+</div>","key_press":null,"trial_type":"html-keyboard-response","trial_index":32,"time_elapsed":117667,"internal_node_id":"0.0-8.0-1.6","subject":"efun2f11d8q4mxw","sona":"9403"},{"trial_type":"turing-test","trial_index":33,"time_elapsed":123855,"internal_node_id":"0.0-8.0-2.6","subject":"efun2f11d8q4mxw","sona":"9403"},{"rt":6381,"stimulus":"<p>Welche Sequenz haben Sie als natürlicher empfunden?</p>","key_press":74,"test_part":"response","test_stimulus":{"position":0,"left":"bvh/return-bottle-training1-lines.txt","right":"bvh/vr_prediction_models/model(vcgpdm)-dataset(return-bottle)-mode(ELBO)-parts(3)-dyn(10)-lvm(30)-hold(1)/final-lines.txt","att_check":false},"trial_type":"html-keyboard-response","trial_index":34,"time_elapsed":130239,"internal_node_id":"0.0-8.0-3.6","subject":"efun2f11d8q4mxw","sona":"9403"},{"rt":974.9999999999854,"stimulus":"<p>Bereit?</p>","key_press":32,"trial_type":"html-keyboard-response","trial_index":35,"time_elapsed":131216,"internal_node_id":"0.0-8.0-0.7","subject":"efun2f11d8q4mxw","sona":"9403"},{"rt":null,"stimulus":"<div style=\"font-size:60px;\">+</div>","key_press":null,"trial_type":"html-keyboard-response","trial_index":36,"time_elapsed":133221,"internal_node_id":"0.0-8.0-1.7","subject":"efun2f11d8q4mxw","sona":"9403"},{"trial_type":"turing-test","trial_index":37,"time_elapsed":138683,"internal_node_id":"0.0-8.0-2.7","subject":"efun2f11d8q4mxw","sona":"9403"},{"rt":4034,"stimulus":"<p>Welche Sequenz haben Sie als natürlicher empfunden?</p>","key_press":70,"test_part":"response","test_stimulus":{"position":0,"left":"bvh/return-bottle-training0-lines.txt","right":"bvh/vr_prediction_models/model(tmp)-dataset(return-bottle)-numprim(14)-hold(0)/final-lines.txt","att_check":false},"trial_type":"html-keyboard-response","trial_index":38,"time_elapsed":142719,"internal_node_id":"0.0-8.0-3.7","subject":"efun2f11d8q4mxw","sona":"9403"},{"rt":4639,"stimulus":"<p>Bereit?</p>","key_press":32,"trial_type":"html-keyboard-response","trial_index":39,"time_elapsed":147360,"internal_node_id":"0.0-8.0-0.8","subject":"efun2f11d8q4mxw","sona":"9403"},{"rt":null,"stimulus":"<div style=\"font-size:60px;\">+</div>","key_press":null,"trial_type":"html-keyboard-response","trial_index":40,"time_elapsed":149366,"internal_node_id":"0.0-8.0-1.8","subject":"efun2f11d8q4mxw","sona":"9403"},{"trial_type":"turing-test","trial_index":41,"time_elapsed":156271,"internal_node_id":"0.0-8.0-2.8","subject":"efun2f11d8q4mxw","sona":"9403"},{"rt":1203,"stimulus":"<p>Welche Sequenz haben Sie als natürlicher empfunden?</p>","key_press":70,"test_part":"response","test_stimulus":{"position":1,"left":"bvh/vr_prediction_models/model(vcgpdm)-dataset(pass-bottle)-mode(ELBO)-parts(3)-dyn(25)-lvm(15)-hold(0)/final-lines.txt","right":"bvh/pass-bottle-training0-lines.txt","att_check":false},"trial_type":"html-keyboard-response","trial_index":42,"time_elapsed":157477,"internal_node_id":"0.0-8.0-3.8","subject":"efun2f11d8q4mxw","sona":"9403"},{"rt":1242,"stimulus":"<p>Bereit?</p>","key_press":32,"trial_type":"html-keyboard-response","trial_index":43,"time_elapsed":158721,"internal_node_id":"0.0-8.0-0.9","subject":"efun2f11d8q4mxw","sona":"9403"},{"rt":null,"stimulus":"<div style=\"font-size:60px;\">+</div>","key_press":null,"trial_type":"html-keyboard-response","trial_index":44,"time_elapsed":160729,"internal_node_id":"0.0-8.0-1.9","subject":"efun2f11d8q4mxw","sona":"9403"},{"trial_type":"turing-test","trial_index":45,"time_elapsed":166679,"internal_node_id":"0.0-8.0-2.9","subject":"efun2f11d8q4mxw","sona":"9403"},{"rt":1517,"stimulus":"<p>Welche Sequenz haben Sie als natürlicher empfunden?</p>","key_press":74,"test_part":"response","test_stimulus":{"position":1,"left":"bvh/vr_prediction_models/model(dmp)-dataset(pass-bottle)-npsi(20)-hold(1)/final-lines.txt","right":"bvh/pass-bottle-training1-lines.txt","att_check":false},"trial_type":"html-keyboard-response","trial_index":46,"time_elapsed":168199,"internal_node_id":"0.0-8.0-3.9","subject":"efun2f11d8q4mxw","sona":"9403"},{"rt":943,"stimulus":"<p>Bereit?</p>","key_press":32,"trial_type":"html-keyboard-response","trial_index":47,"time_elapsed":169144,"internal_node_id":"0.0-8.0-0.10","subject":"efun2f11d8q4mxw","sona":"9403"},{"rt":null,"stimulus":"<div style=\"font-size:60px;\">+</div>","key_press":null,"trial_type":"html-keyboard-response","trial_index":48,"time_elapsed":171150,"internal_node_id":"0.0-8.0-1.10","subject":"efun2f11d8q4mxw","sona":"9403"},{"trial_type":"turing-test","trial_index":49,"time_elapsed":174795,"internal_node_id":"0.0-8.0-2.10","subject":"efun2f11d8q4mxw","sona":"9403"},{"rt":3613,"stimulus":"<p>Welche Sequenz haben Sie als natürlicher empfunden?</p>","key_press":74,"test_part":"response","test_stimulus":{"position":1,"left":"bvh/vr_prediction_models/model(vcgpdm)-dataset(pass-bottle-hold)-mode(ELBO)-parts(3)-dyn(10)-lvm(30)-hold(3)/final-lines.txt","right":"bvh/pass-bottle-hold-training3-lines.txt","att_check":false},"trial_type":"html-keyboard-response","trial_index":50,"time_elapsed":178412,"internal_node_id":"0.0-8.0-3.10","subject":"efun2f11d8q4mxw","sona":"9403"},{"rt":617.0000000000291,"stimulus":"<p>Bereit?</p>","key_press":32,"trial_type":"html-keyboard-response","trial_index":51,"time_elapsed":179032,"internal_node_id":"0.0-8.0-0.11","subject":"efun2f11d8q4mxw","sona":"9403"},{"rt":null,"stimulus":"<div style=\"font-size:60px;\">+</div>","key_press":null,"trial_type":"html-keyboard-response","trial_index":52,"time_elapsed":181034,"internal_node_id":"0.0-8.0-1.11","subject":"efun2f11d8q4mxw","sona":"9403"},{"trial_type":"turing-test","trial_index":53,"time_elapsed":186916,"internal_node_id":"0.0-8.0-2.11","subject":"efun2f11d8q4mxw","sona":"9403"}]