[{"rt":2614,"stimulus":"<p>Welcome!<br> Please choose your language to start the experiment in the chosen language.</p><p>Willkommen!<br> Bitte wählen Sie eine Sprache, um das Experiment in der ausgewählten Sprache zu starten</p>","button_pressed":"1","trial_type":"html-button-response","trial_index":0,"time_elapsed":2626,"internal_node_id":"0.0-0.0","subject":"lvmzafn6uwyzj3u","sona":"7636"},{"view_history":"[{\"page_index\":0,\"viewing_time\":4850},{\"page_index\":1,\"viewing_time\":7411},{\"page_index\":2,\"viewing_time\":5426},{\"page_index\":3,\"viewing_time\":3213},{\"page_index\":4,\"viewing_time\":4892}]","rt":25793,"trial_type":"instructions","trial_index":1,"time_elapsed":28427,"internal_node_id":"0.0-1.0-0.0","subject":"lvmzafn6uwyzj3u","sona":"7636"},{"rt":1050,"stimulus":"<p>Bereit?</p>","key_press":32,"trial_type":"html-keyboard-response","trial_index":2,"time_elapsed":29487,"internal_node_id":"0.0-3.0","subject":"lvmzafn6uwyzj3u","sona":"7636"},{"rt":null,"stimulus":"<div style=\"font-size:60px;\">+</div>","key_press":null,"trial_type":"html-keyboard-response","trial_index":3,"time_elapsed":31509,"internal_node_id":"0.0-4.0","subject":"lvmzafn6uwyzj3u","sona":"7636"},{"trial_type":"training","trial_index":4,"time_elapsed":35295,"internal_node_id":"0.0-5.0","subject":"lvmzafn6uwyzj3u","sona":"7636"},{"rt":676,"stimulus":"<p>Welche Sequenz haben Sie als natürlicher empfunden?</p>","key_press":70,"trial_type":"html-keyboard-response","trial_index":5,"time_elapsed":35975,"internal_node_id":"0.0-6.0","subject":"lvmzafn6uwyzj3u","sona":"7636"},{"rt":2970,"stimulus":"<p>Das Experiment startet nun.</p><p><small>Bitte drücken Sie den Knopf, wenn Sie bereit sind.</small></p>","button_pressed":"0","trial_type":"html-button-response","trial_index":6,"time_elapsed":38949,"internal_node_id":"0.0-7.0","subject":"lvmzafn6uwyzj3u","sona":"7636"},{"rt":3193,"stimulus":"<p>Bereit?</p>","key_press":32,"trial_type":"html-keyboard-response","trial_index":7,"time_elapsed":42149,"internal_node_id":"0.0-8.0-0.0","subject":"lvmzafn6uwyzj3u","sona":"7636"},{"rt":null,"stimulus":"<div style=\"font-size:60px;\">+</div>","key_press":null,"trial_type":"html-keyboard-response","trial_index":8,"time_elapsed":44174,"internal_node_id":"0.0-8.0-1.0","subject":"lvmzafn6uwyzj3u","sona":"7636"},{"trial_type":"turing-test","trial_index":9,"time_elapsed":48181,"internal_node_id":"0.0-8.0-2.0","subject":"lvmzafn6uwyzj3u","sona":"7636"},{"rt":4155,"stimulus":"<p>Welche Sequenz haben Sie als natürlicher empfunden?</p>","key_press":74,"test_part":"response","test_stimulus":{"position":1,"left":"bvh/vr_prediction_models/model(vcgpdm)-dataset(pass-bottle-hold)-mode(ELBO)-parts(3)-dyn(20)-lvm(35)-hold(0)/final-lines.txt","right":"bvh/pass-bottle-hold-training0-lines.txt","att_check":false},"trial_type":"html-keyboard-response","trial_index":10,"time_elapsed":52342,"internal_node_id":"0.0-8.0-3.0","subject":"lvmzafn6uwyzj3u","sona":"7636"},{"rt":1020,"stimulus":"<p>Bereit?</p>","key_press":32,"trial_type":"html-keyboard-response","trial_index":11,"time_elapsed":53368,"internal_node_id":"0.0-8.0-0.1","subject":"lvmzafn6uwyzj3u","sona":"7636"},{"rt":null,"stimulus":"<div style=\"font-size:60px;\">+</div>","key_press":null,"trial_type":"html-keyboard-response","trial_index":12,"time_elapsed":55390,"internal_node_id":"0.0-8.0-1.1","subject":"lvmzafn6uwyzj3u","sona":"7636"},{"trial_type":"turing-test","trial_index":13,"time_elapsed":58942,"internal_node_id":"0.0-8.0-2.1","subject":"lvmzafn6uwyzj3u","sona":"7636"},{"rt":1849,"stimulus":"<p>Welche Sequenz haben Sie als natürlicher empfunden?</p>","key_press":70,"test_part":"response","test_stimulus":{"position":0,"left":"bvh/return-bottle-hold-training1-lines.txt","right":"bvh/vr_prediction_models/model(tmp)-dataset(return-bottle-hold)-numprim(14)-hold(1)/final-lines.txt","att_check":false},"trial_type":"html-keyboard-response","trial_index":14,"time_elapsed":60795,"internal_node_id":"0.0-8.0-3.1","subject":"lvmzafn6uwyzj3u","sona":"7636"},{"rt":1320,"stimulus":"<p>Bereit?</p>","key_press":32,"trial_type":"html-keyboard-response","trial_index":15,"time_elapsed":62120,"internal_node_id":"0.0-8.0-0.2","subject":"lvmzafn6uwyzj3u","sona":"7636"},{"rt":null,"stimulus":"<div style=\"font-size:60px;\">+</div>","key_press":null,"trial_type":"html-keyboard-response","trial_index":16,"time_elapsed":64151,"internal_node_id":"0.0-8.0-1.2","subject":"lvmzafn6uwyzj3u","sona":"7636"},{"trial_type":"turing-test","trial_index":17,"time_elapsed":67631,"internal_node_id":"0.0-8.0-2.2","subject":"lvmzafn6uwyzj3u","sona":"7636"},{"rt":860,"stimulus":"<p>Welche Sequenz haben Sie als natürlicher empfunden?</p>","key_press":74,"test_part":"response","test_stimulus":{"position":1,"left":"bvh/vr_prediction_models/model(tmp)-dataset(return-bottle-hold)-numprim(3)-hold(1)/final-lines.txt","right":"bvh/return-bottle-hold-training1-lines.txt","att_check":false},"trial_type":"html-keyboard-response","trial_index":18,"time_elapsed":68496,"internal_node_id":"0.0-8.0-3.2","subject":"lvmzafn6uwyzj3u","sona":"7636"},{"rt":863,"stimulus":"<p>Bereit?</p>","key_press":32,"trial_type":"html-keyboard-response","trial_index":19,"time_elapsed":69365,"internal_node_id":"0.0-8.0-0.3","subject":"lvmzafn6uwyzj3u","sona":"7636"},{"rt":null,"stimulus":"<div style=\"font-size:60px;\">+</div>","key_press":null,"trial_type":"html-keyboard-response","trial_index":20,"time_elapsed":71380,"internal_node_id":"0.0-8.0-1.3","subject":"lvmzafn6uwyzj3u","sona":"7636"},{"trial_type":"turing-test","trial_index":21,"time_elapsed":74908,"internal_node_id":"0.0-8.0-2.3","subject":"lvmzafn6uwyzj3u","sona":"7636"},{"rt":980,"stimulus":"<p>Welche Sequenz haben Sie als natürlicher empfunden?</p>","key_press":74,"test_part":"response","test_stimulus":{"position":1,"left":"bvh/vr_prediction_models/model(tmp)-dataset(pass-bottle-hold)-numprim(6)-hold(1)/final-lines.txt","right":"bvh/pass-bottle-hold-training1-lines.txt","att_check":false},"trial_type":"html-keyboard-response","trial_index":22,"time_elapsed":75897,"internal_node_id":"0.0-8.0-3.3","subject":"lvmzafn6uwyzj3u","sona":"7636"},{"rt":667,"stimulus":"<p>Bereit?</p>","key_press":32,"trial_type":"html-keyboard-response","trial_index":23,"time_elapsed":76570,"internal_node_id":"0.0-8.0-0.4","subject":"lvmzafn6uwyzj3u","sona":"7636"},{"rt":null,"stimulus":"<div style=\"font-size:60px;\">+</div>","key_press":null,"trial_type":"html-keyboard-response","trial_index":24,"time_elapsed":78599,"internal_node_id":"0.0-8.0-1.4","subject":"lvmzafn6uwyzj3u","sona":"7636"},{"trial_type":"turing-test","trial_index":25,"time_elapsed":85163,"internal_node_id":"0.0-8.0-2.4","subject":"lvmzafn6uwyzj3u","sona":"7636"},{"rt":801,"stimulus":"<p>Welche Sequenz haben Sie als natürlicher empfunden?</p>","key_press":74,"test_part":"response","test_stimulus":{"position":1,"left":"bvh/vr_prediction_models/model(vcgpdm)-dataset(return-bottle)-mode(ELBO)-parts(1)-dyn(20)-lvm(5)-hold(3)/final-lines.txt","right":"bvh/return-bottle-training3-lines.txt","att_check":false},"trial_type":"html-keyboard-response","trial_index":26,"time_elapsed":85969,"internal_node_id":"0.0-8.0-3.4","subject":"lvmzafn6uwyzj3u","sona":"7636"},{"rt":914,"stimulus":"<p>Bereit?</p>","key_press":32,"trial_type":"html-keyboard-response","trial_index":27,"time_elapsed":86888,"internal_node_id":"0.0-8.0-0.5","subject":"lvmzafn6uwyzj3u","sona":"7636"},{"rt":null,"stimulus":"<div style=\"font-size:60px;\">+</div>","key_press":null,"trial_type":"html-keyboard-response","trial_index":28,"time_elapsed":88914,"internal_node_id":"0.0-8.0-1.5","subject":"lvmzafn6uwyzj3u","sona":"7636"},{"trial_type":"turing-test","trial_index":29,"time_elapsed":92343,"internal_node_id":"0.0-8.0-2.5","subject":"lvmzafn6uwyzj3u","sona":"7636"},{"rt":596,"stimulus":"<p>Welche Sequenz haben Sie als natürlicher empfunden?</p>","key_press":74,"test_part":"response","test_stimulus":{"position":1,"left":"bvh/vr_prediction_models/model(dmp)-dataset(pass-bottle-hold)-npsi(10)-hold(1)/final-lines.txt","right":"bvh/pass-bottle-hold-training1-lines.txt","att_check":false},"trial_type":"html-keyboard-response","trial_index":30,"time_elapsed":92946,"internal_node_id":"0.0-8.0-3.5","subject":"lvmzafn6uwyzj3u","sona":"7636"},{"rt":748,"stimulus":"<p>Bereit?</p>","key_press":32,"trial_type":"html-keyboard-response","trial_index":31,"time_elapsed":93699,"internal_node_id":"0.0-8.0-0.6","subject":"lvmzafn6uwyzj3u","sona":"7636"},{"rt":null,"stimulus":"<div style=\"font-size:60px;\">+</div>","key_press":null,"trial_type":"html-keyboard-response","trial_index":32,"time_elapsed":95713,"internal_node_id":"0.0-8.0-1.6","subject":"lvmzafn6uwyzj3u","sona":"7636"},{"trial_type":"turing-test","trial_index":33,"time_elapsed":99644,"internal_node_id":"0.0-8.0-2.6","subject":"lvmzafn6uwyzj3u","sona":"7636"},{"rt":591,"stimulus":"<p>Welche Sequenz haben Sie als natürlicher empfunden?</p>","key_press":74,"test_part":"response","test_stimulus":{"position":1,"left":"bvh/vr_prediction_models/model(vcgpdm)-dataset(return-bottle-hold)-mode(ELBO)-parts(1)-dyn(15)-lvm(35)-hold(1)/final-lines.txt","right":"bvh/return-bottle-hold-training1-lines.txt","att_check":false},"trial_type":"html-keyboard-response","trial_index":34,"time_elapsed":100241,"internal_node_id":"0.0-8.0-3.6","subject":"lvmzafn6uwyzj3u","sona":"7636"},{"rt":518,"stimulus":"<p>Bereit?</p>","key_press":32,"trial_type":"html-keyboard-response","trial_index":35,"time_elapsed":100762,"internal_node_id":"0.0-8.0-0.7","subject":"lvmzafn6uwyzj3u","sona":"7636"},{"rt":null,"stimulus":"<div style=\"font-size:60px;\">+</div>","key_press":null,"trial_type":"html-keyboard-response","trial_index":36,"time_elapsed":102794,"internal_node_id":"0.0-8.0-1.7","subject":"lvmzafn6uwyzj3u","sona":"7636"},{"trial_type":"turing-test","trial_index":37,"time_elapsed":109163,"internal_node_id":"0.0-8.0-2.7","subject":"lvmzafn6uwyzj3u","sona":"7636"},{"rt":416,"stimulus":"<p>Welche Sequenz haben Sie als natürlicher empfunden?</p>","key_press":74,"test_part":"response","test_stimulus":{"position":1,"left":"bvh/vr_prediction_models/model(vcgpdm)-dataset(pass-bottle)-mode(ELBO)-parts(1)-dyn(35)-lvm(30)-hold(4)/final-lines.txt","right":"bvh/pass-bottle-training4-lines.txt","att_check":false},"trial_type":"html-keyboard-response","trial_index":38,"time_elapsed":109584,"internal_node_id":"0.0-8.0-3.7","subject":"lvmzafn6uwyzj3u","sona":"7636"},{"rt":928,"stimulus":"<p>Bereit?</p>","key_press":32,"trial_type":"html-keyboard-response","trial_index":39,"time_elapsed":110516,"internal_node_id":"0.0-8.0-0.8","subject":"lvmzafn6uwyzj3u","sona":"7636"},{"rt":null,"stimulus":"<div style=\"font-size:60px;\">+</div>","key_press":null,"trial_type":"html-keyboard-response","trial_index":40,"time_elapsed":112553,"internal_node_id":"0.0-8.0-1.8","subject":"lvmzafn6uwyzj3u","sona":"7636"},{"trial_type":"turing-test","trial_index":41,"time_elapsed":116149,"internal_node_id":"0.0-8.0-2.8","subject":"lvmzafn6uwyzj3u","sona":"7636"},{"rt":878,"stimulus":"<p>Welche Sequenz haben Sie als natürlicher empfunden?</p>","key_press":74,"test_part":"response","test_stimulus":{"position":1,"left":"bvh/vr_prediction_models/model(dmp)-dataset(return-bottle-hold)-npsi(50)-hold(1)/final-lines.txt","right":"bvh/return-bottle-hold-training1-lines.txt","att_check":false},"trial_type":"html-keyboard-response","trial_index":42,"time_elapsed":117032,"internal_node_id":"0.0-8.0-3.8","subject":"lvmzafn6uwyzj3u","sona":"7636"},{"rt":399,"stimulus":"<p>Bereit?</p>","key_press":32,"trial_type":"html-keyboard-response","trial_index":43,"time_elapsed":117435,"internal_node_id":"0.0-8.0-0.9","subject":"lvmzafn6uwyzj3u","sona":"7636"},{"rt":null,"stimulus":"<div style=\"font-size:60px;\">+</div>","key_press":null,"trial_type":"html-keyboard-response","trial_index":44,"time_elapsed":119469,"internal_node_id":"0.0-8.0-1.9","subject":"lvmzafn6uwyzj3u","sona":"7636"},{"trial_type":"turing-test","trial_index":45,"time_elapsed":125917,"internal_node_id":"0.0-8.0-2.9","subject":"lvmzafn6uwyzj3u","sona":"7636"},{"rt":372,"stimulus":"<p>Welche Sequenz haben Sie als natürlicher empfunden?</p>","key_press":70,"test_part":"response","test_stimulus":{"position":1,"left":"bvh/vr_prediction_models/model(dmp)-dataset(pass-bottle)-npsi(100)-hold(2)/final-lines.txt","right":"bvh/pass-bottle-training2-lines.txt","att_check":false},"trial_type":"html-keyboard-response","trial_index":46,"time_elapsed":126294,"internal_node_id":"0.0-8.0-3.9","subject":"lvmzafn6uwyzj3u","sona":"7636"},{"rt":490,"stimulus":"<p>Bereit?</p>","key_press":32,"trial_type":"html-keyboard-response","trial_index":47,"time_elapsed":126788,"internal_node_id":"0.0-8.0-0.10","subject":"lvmzafn6uwyzj3u","sona":"7636"},{"rt":null,"stimulus":"<div style=\"font-size:60px;\">+</div>","key_press":null,"trial_type":"html-keyboard-response","trial_index":48,"time_elapsed":128827,"internal_node_id":"0.0-8.0-1.10","subject":"lvmzafn6uwyzj3u","sona":"7636"},{"trial_type":"turing-test","trial_index":49,"time_elapsed":136198,"internal_node_id":"0.0-8.0-2.10","subject":"lvmzafn6uwyzj3u","sona":"7636"},{"rt":2497,"stimulus":"<p>Welche Sequenz haben Sie als natürlicher empfunden?</p>","key_press":70,"test_part":"response","test_stimulus":{"position":0,"left":"bvh/return-bottle-training2-lines.txt","right":"bvh/vr_prediction_models/model(vcgpdm)-dataset(return-bottle)-mode(ELBO)-parts(1)-dyn(10)-lvm(30)-hold(2)/final-lines.txt","att_check":false},"trial_type":"html-keyboard-response","trial_index":50,"time_elapsed":138701,"internal_node_id":"0.0-8.0-3.10","subject":"lvmzafn6uwyzj3u","sona":"7636"},{"rt":646,"stimulus":"<p>Bereit?</p>","key_press":32,"trial_type":"html-keyboard-response","trial_index":51,"time_elapsed":139351,"internal_node_id":"0.0-8.0-0.11","subject":"lvmzafn6uwyzj3u","sona":"7636"},{"rt":null,"stimulus":"<div style=\"font-size:60px;\">+</div>","key_press":null,"trial_type":"html-keyboard-response","trial_index":52,"time_elapsed":141378,"internal_node_id":"0.0-8.0-1.11","subject":"lvmzafn6uwyzj3u","sona":"7636"},{"trial_type":"turing-test","trial_index":53,"time_elapsed":147417,"internal_node_id":"0.0-8.0-2.11","subject":"lvmzafn6uwyzj3u","sona":"7636"},{"rt":658,"stimulus":"<p>Welche Sequenz haben Sie als natürlicher empfunden?</p>","key_press":70,"test_part":"response","test_stimulus":{"position":1,"left":"bvh/vr_prediction_models/model(tmp)-dataset(pass-bottle)-numprim(11)-hold(4)/final-lines.txt","right":"bvh/pass-bottle-training4-lines.txt","att_check":false},"trial_type":"html-keyboard-response","trial_index":54,"time_elapsed":148079,"internal_node_id":"0.0-8.0-3.11","subject":"lvmzafn6uwyzj3u","sona":"7636"},{"rt":734,"stimulus":"<p>Bereit?</p>","key_press":32,"trial_type":"html-keyboard-response","trial_index":55,"time_elapsed":148817,"internal_node_id":"0.0-8.0-0.12","subject":"lvmzafn6uwyzj3u","sona":"7636"},{"rt":null,"stimulus":"<div style=\"font-size:60px;\">+</div>","key_press":null,"trial_type":"html-keyboard-response","trial_index":56,"time_elapsed":150843,"internal_node_id":"0.0-8.0-1.12","subject":"lvmzafn6uwyzj3u","sona":"7636"},{"trial_type":"turing-test","trial_index":57,"time_elapsed":157056,"internal_node_id":"0.0-8.0-2.12","subject":"lvmzafn6uwyzj3u","sona":"7636"},{"rt":819,"stimulus":"<p>Welche Sequenz haben Sie als natürlicher empfunden?</p>","key_press":70,"test_part":"response","test_stimulus":{"position":0,"left":"bvh/return-bottle-training0-lines.txt","right":"bvh/vr_prediction_models/model(vcgpdm)-dataset(return-bottle)-mode(ELBO)-parts(1)-dyn(20)-lvm(5)-hold(0)/final-lines.txt","att_check":false},"trial_type":"html-keyboard-response","trial_index":58,"time_elapsed":157882,"internal_node_id":"0.0-8.0-3.12","subject":"lvmzafn6uwyzj3u","sona":"7636"},{"rt":983,"stimulus":"<p>Bereit?</p>","key_press":32,"trial_type":"html-keyboard-response","trial_index":59,"time_elapsed":158871,"internal_node_id":"0.0-8.0-0.13","subject":"lvmzafn6uwyzj3u","sona":"7636"},{"rt":null,"stimulus":"<div style=\"font-size:60px;\">+</div>","key_press":null,"trial_type":"html-keyboard-response","trial_index":60,"time_elapsed":160897,"internal_node_id":"0.0-8.0-1.13","subject":"lvmzafn6uwyzj3u","sona":"7636"},{"trial_type":"turing-test","trial_index":61,"time_elapsed":164866,"internal_node_id":"0.0-8.0-2.13","subject":"lvmzafn6uwyzj3u","sona":"7636"},{"rt":606,"stimulus":"<p>Welche Sequenz haben Sie als natürlicher empfunden?</p>","key_press":74,"test_part":"response","test_stimulus":{"position":0,"left":"bvh/pass-bottle-hold-training3-lines.txt","right":"bvh/vr_prediction_models/model(dmp)-dataset(pass-bottle-hold)-npsi(10)-hold(3)/final-lines.txt","att_check":false},"trial_type":"html-keyboard-response","trial_index":62,"time_elapsed":165478,"internal_node_id":"0.0-8.0-3.13","subject":"lvmzafn6uwyzj3u","sona":"7636"},{"rt":840,"stimulus":"<p>Bereit?</p>","key_press":32,"trial_type":"html-keyboard-response","trial_index":63,"time_elapsed":166321,"internal_node_id":"0.0-8.0-0.14","subject":"lvmzafn6uwyzj3u","sona":"7636"},{"rt":null,"stimulus":"<div style=\"font-size:60px;\">+</div>","key_press":null,"trial_type":"html-keyboard-response","trial_index":64,"time_elapsed":168356,"internal_node_id":"0.0-8.0-1.14","subject":"lvmzafn6uwyzj3u","sona":"7636"},{"trial_type":"turing-test","trial_index":65,"time_elapsed":172214,"internal_node_id":"0.0-8.0-2.14","subject":"lvmzafn6uwyzj3u","sona":"7636"},{"rt":647,"stimulus":"<p>Welche Sequenz haben Sie als natürlicher empfunden?</p>","key_press":70,"test_part":"response","test_stimulus":{"position":1,"left":"bvh/vr_prediction_models/model(vcgpdm)-dataset(pass-bottle-hold)-mode(ELBO)-parts(1)-dyn(10)-lvm(5)-hold(1)/final-lines.txt","right":"bvh/pass-bottle-hold-training1-lines.txt","att_check":false},"trial_type":"html-keyboard-response","trial_index":66,"time_elapsed":172866,"internal_node_id":"0.0-8.0-3.14","subject":"lvmzafn6uwyzj3u","sona":"7636"},{"rt":698,"stimulus":"<p>Bereit?</p>","key_press":32,"trial_type":"html-keyboard-response","trial_index":67,"time_elapsed":173568,"internal_node_id":"0.0-8.0-0.15","subject":"lvmzafn6uwyzj3u","sona":"7636"},{"rt":null,"stimulus":"<div style=\"font-size:60px;\">+</div>","key_press":null,"trial_type":"html-keyboard-response","trial_index":68,"time_elapsed":175594,"internal_node_id":"0.0-8.0-1.15","subject":"lvmzafn6uwyzj3u","sona":"7636"},{"trial_type":"turing-test","trial_index":69,"time_elapsed":181041,"internal_node_id":"0.0-8.0-2.15","subject":"lvmzafn6uwyzj3u","sona":"7636"},{"rt":82,"stimulus":"<p>Welche Sequenz haben Sie als natürlicher empfunden?</p>","key_press":74,"test_part":"response","test_stimulus":{"position":1,"left":"bvh/vr_prediction_models/model(tmp)-dataset(return-bottle-hold)-numprim(3)-hold(0)/final-lines.txt","right":"bvh/return-bottle-hold-training0-lines.txt","att_check":false},"trial_type":"html-keyboard-response","trial_index":70,"time_elapsed":181128,"internal_node_id":"0.0-8.0-3.15","subject":"lvmzafn6uwyzj3u","sona":"7636"},{"rt":1260,"stimulus":"<p>Bereit?</p>","key_press":32,"trial_type":"html-keyboard-response","trial_index":71,"time_elapsed":182392,"internal_node_id":"0.0-8.0-0.16","subject":"lvmzafn6uwyzj3u","sona":"7636"},{"rt":null,"stimulus":"<div style=\"font-size:60px;\">+</div>","key_press":null,"trial_type":"html-keyboard-response","trial_index":72,"time_elapsed":184420,"internal_node_id":"0.0-8.0-1.16","subject":"lvmzafn6uwyzj3u","sona":"7636"},{"trial_type":"turing-test","trial_index":73,"time_elapsed":190285,"internal_node_id":"0.0-8.0-2.16","subject":"lvmzafn6uwyzj3u","sona":"7636"},{"rt":662,"stimulus":"<p>Welche Sequenz haben Sie als natürlicher empfunden?</p>","key_press":74,"test_part":"response","test_stimulus":{"position":0,"left":"bvh/pass-bottle-training4-lines.txt","right":"bvh/vr_prediction_models/model(tmp)-dataset(pass-bottle)-numprim(8)-hold(4)/final-lines.txt","att_check":false},"trial_type":"html-keyboard-response","trial_index":74,"time_elapsed":190951,"internal_node_id":"0.0-8.0-3.16","subject":"lvmzafn6uwyzj3u","sona":"7636"},{"rt":584,"stimulus":"<p>Bereit?</p>","key_press":32,"trial_type":"html-keyboard-response","trial_index":75,"time_elapsed":191540,"internal_node_id":"0.0-8.0-0.17","subject":"lvmzafn6uwyzj3u","sona":"7636"},{"rt":null,"stimulus":"<div style=\"font-size:60px;\">+</div>","key_press":null,"trial_type":"html-keyboard-response","trial_index":76,"time_elapsed":193565,"internal_node_id":"0.0-8.0-1.17","subject":"lvmzafn6uwyzj3u","sona":"7636"},{"trial_type":"turing-test","trial_index":77,"time_elapsed":201195,"internal_node_id":"0.0-8.0-2.17","subject":"lvmzafn6uwyzj3u","sona":"7636"},{"rt":452,"stimulus":"<p>Welche Sequenz haben Sie als natürlicher empfunden?</p>","key_press":74,"test_part":"response","test_stimulus":{"position":1,"left":"bvh/vr_prediction_models/model(vcgpdm)-dataset(pass-bottle)-mode(ELBO)-parts(3)-dyn(20)-lvm(35)-hold(0)/final-lines.txt","right":"bvh/pass-bottle-training0-lines.txt","att_check":false},"trial_type":"html-keyboard-response","trial_index":78,"time_elapsed":201654,"internal_node_id":"0.0-8.0-3.17","subject":"lvmzafn6uwyzj3u","sona":"7636"},{"rt":937,"stimulus":"<p>Bereit?</p>","key_press":32,"trial_type":"html-keyboard-response","trial_index":79,"time_elapsed":202598,"internal_node_id":"0.0-8.0-0.18","subject":"lvmzafn6uwyzj3u","sona":"7636"},{"rt":null,"stimulus":"<div style=\"font-size:60px;\">+</div>","key_press":null,"trial_type":"html-keyboard-response","trial_index":80,"time_elapsed":204636,"internal_node_id":"0.0-8.0-1.18","subject":"lvmzafn6uwyzj3u","sona":"7636"},{"trial_type":"turing-test","trial_index":81,"time_elapsed":210891,"internal_node_id":"0.0-8.0-2.18","subject":"lvmzafn6uwyzj3u","sona":"7636"},{"rt":215,"stimulus":"<p>Welche Sequenz haben Sie als natürlicher empfunden?</p>","key_press":70,"test_part":"response","test_stimulus":{"position":0,"left":"bvh/pass-bottle-training4-lines.txt","right":"bvh/vr_prediction_models/model(tmp)-dataset(pass-bottle)-numprim(4)-hold(4)/final-lines.txt","att_check":false},"trial_type":"html-keyboard-response","trial_index":82,"time_elapsed":211112,"internal_node_id":"0.0-8.0-3.18","subject":"lvmzafn6uwyzj3u","sona":"7636"},{"rt":598,"stimulus":"<p>Bereit?</p>","key_press":32,"trial_type":"html-keyboard-response","trial_index":83,"time_elapsed":211714,"internal_node_id":"0.0-8.0-0.19","subject":"lvmzafn6uwyzj3u","sona":"7636"},{"rt":null,"stimulus":"<div style=\"font-size:60px;\">+</div>","key_press":null,"trial_type":"html-keyboard-response","trial_index":84,"time_elapsed":213732,"internal_node_id":"0.0-8.0-1.19","subject":"lvmzafn6uwyzj3u","sona":"7636"},{"trial_type":"turing-test","trial_index":85,"time_elapsed":217451,"internal_node_id":"0.0-8.0-2.19","subject":"lvmzafn6uwyzj3u","sona":"7636"},{"rt":371,"stimulus":"<p>Welche Sequenz haben Sie als natürlicher empfunden?</p>","key_press":74,"test_part":"response","test_stimulus":{"position":0,"left":"bvh/return-bottle-hold-training2-lines.txt","right":"bvh/vr_prediction_models/model(tmp)-dataset(return-bottle-hold)-numprim(7)-hold(2)/final-lines.txt","att_check":false},"trial_type":"html-keyboard-response","trial_index":86,"time_elapsed":217828,"internal_node_id":"0.0-8.0-3.19","subject":"lvmzafn6uwyzj3u","sona":"7636"},{"rt":502,"stimulus":"<p>Bereit?</p>","key_press":32,"trial_type":"html-keyboard-response","trial_index":87,"time_elapsed":218337,"internal_node_id":"0.0-8.0-0.20","subject":"lvmzafn6uwyzj3u","sona":"7636"},{"rt":null,"stimulus":"<div style=\"font-size:60px;\">+</div>","key_press":null,"trial_type":"html-keyboard-response","trial_index":88,"time_elapsed":220370,"internal_node_id":"0.0-8.0-1.20","subject":"lvmzafn6uwyzj3u","sona":"7636"},{"trial_type":"turing-test","trial_index":89,"time_elapsed":224413,"internal_node_id":"0.0-8.0-2.20","subject":"lvmzafn6uwyzj3u","sona":"7636"},{"rt":147,"stimulus":"<p>Welche Sequenz haben Sie als natürlicher empfunden?</p>","key_press":70,"test_part":"response","test_stimulus":{"position":0,"left":"bvh/return-bottle-hold-training4-lines.txt","right":"bvh/vr_prediction_models/model(tmp)-dataset(return-bottle-hold)-numprim(8)-hold(4)/final-lines.txt","att_check":false},"trial_type":"html-keyboard-response","trial_index":90,"time_elapsed":224568,"internal_node_id":"0.0-8.0-3.20","subject":"lvmzafn6uwyzj3u","sona":"7636"},{"rt":542,"stimulus":"<p>Bereit?</p>","key_press":32,"trial_type":"html-keyboard-response","trial_index":91,"time_elapsed":225117,"internal_node_id":"0.0-8.0-0.21","subject":"lvmzafn6uwyzj3u","sona":"7636"},{"rt":null,"stimulus":"<div style=\"font-size:60px;\">+</div>","key_press":null,"trial_type":"html-keyboard-response","trial_index":92,"time_elapsed":227154,"internal_node_id":"0.0-8.0-1.21","subject":"lvmzafn6uwyzj3u","sona":"7636"},{"trial_type":"turing-test","trial_index":93,"time_elapsed":234721,"internal_node_id":"0.0-8.0-2.21","subject":"lvmzafn6uwyzj3u","sona":"7636"},{"rt":1969,"stimulus":"<p>Welche Sequenz haben Sie als natürlicher empfunden?</p>","key_press":74,"test_part":"response","test_stimulus":{"position":1,"left":"bvh/vr_prediction_models/model(vcgpdm)-dataset(pass-bottle-hold)-mode(ELBO)-parts(1)-dyn(10)-lvm(30)-hold(3)/final-lines.txt","right":"bvh/pass-bottle-hold-training3-lines.txt","att_check":false},"trial_type":"html-keyboard-response","trial_index":94,"time_elapsed":236696,"internal_node_id":"0.0-8.0-3.21","subject":"lvmzafn6uwyzj3u","sona":"7636"},{"rt":652,"stimulus":"<p>Bereit?</p>","key_press":32,"trial_type":"html-keyboard-response","trial_index":95,"time_elapsed":237351,"internal_node_id":"0.0-8.0-0.22","subject":"lvmzafn6uwyzj3u","sona":"7636"},{"rt":null,"stimulus":"<div style=\"font-size:60px;\">+</div>","key_press":null,"trial_type":"html-keyboard-response","trial_index":96,"time_elapsed":239371,"internal_node_id":"0.0-8.0-1.22","subject":"lvmzafn6uwyzj3u","sona":"7636"},{"trial_type":"turing-test","trial_index":97,"time_elapsed":245609,"internal_node_id":"0.0-8.0-2.22","subject":"lvmzafn6uwyzj3u","sona":"7636"},{"rt":262,"stimulus":"<p>Welche Sequenz haben Sie als natürlicher empfunden?</p>","key_press":74,"test_part":"response","test_stimulus":{"position":1,"left":"bvh/vr_prediction_models/model(vcgpdm)-dataset(pass-bottle)-mode(ELBO)-parts(1)-dyn(15)-lvm(35)-hold(4)/final-lines.txt","right":"bvh/pass-bottle-training4-lines.txt","att_check":false},"trial_type":"html-keyboard-response","trial_index":98,"time_elapsed":245882,"internal_node_id":"0.0-8.0-3.22","subject":"lvmzafn6uwyzj3u","sona":"7636"},{"rt":791,"stimulus":"<p>Bereit?</p>","key_press":32,"trial_type":"html-keyboard-response","trial_index":99,"time_elapsed":246683,"internal_node_id":"0.0-8.0-0.23","subject":"lvmzafn6uwyzj3u","sona":"7636"},{"rt":null,"stimulus":"<div style=\"font-size:60px;\">+</div>","key_press":null,"trial_type":"html-keyboard-response","trial_index":100,"time_elapsed":248709,"internal_node_id":"0.0-8.0-1.23","subject":"lvmzafn6uwyzj3u","sona":"7636"},{"trial_type":"turing-test","trial_index":101,"time_elapsed":254942,"internal_node_id":"0.0-8.0-2.23","subject":"lvmzafn6uwyzj3u","sona":"7636"},{"rt":229,"stimulus":"<p>Welche Sequenz haben Sie als natürlicher empfunden?</p>","key_press":74,"test_part":"response","test_stimulus":{"position":0,"left":"bvh/pass-bottle-training4-lines.txt","right":"bvh/vr_prediction_models/model(tmp)-dataset(pass-bottle)-numprim(13)-hold(4)/final-lines.txt","att_check":false},"trial_type":"html-keyboard-response","trial_index":102,"time_elapsed":255177,"internal_node_id":"0.0-8.0-3.23","subject":"lvmzafn6uwyzj3u","sona":"7636"},{"rt":718,"stimulus":"<p>Bereit?</p>","key_press":32,"trial_type":"html-keyboard-response","trial_index":103,"time_elapsed":255902,"internal_node_id":"0.0-8.0-0.24","subject":"lvmzafn6uwyzj3u","sona":"7636"},{"rt":null,"stimulus":"<div style=\"font-size:60px;\">+</div>","key_press":null,"trial_type":"html-keyboard-response","trial_index":104,"time_elapsed":257932,"internal_node_id":"0.0-8.0-1.24","subject":"lvmzafn6uwyzj3u","sona":"7636"},{"trial_type":"turing-test","trial_index":105,"time_elapsed":266764,"internal_node_id":"0.0-8.0-2.24","subject":"lvmzafn6uwyzj3u","sona":"7636"},{"rt":798,"stimulus":"<p>Welche Sequenz haben Sie als natürlicher empfunden?</p>","key_press":74,"test_part":"response","test_stimulus":{"position":1,"left":"bvh/vr_prediction_models/model(vcgpdm)-dataset(pass-bottle-hold)-mode(ELBO)-parts(3)-dyn(20)-lvm(35)-hold(2)/final-lines.txt","right":"bvh/pass-bottle-hold-training2-lines.txt","att_check":false},"trial_type":"html-keyboard-response","trial_index":106,"time_elapsed":267568,"internal_node_id":"0.0-8.0-3.24","subject":"lvmzafn6uwyzj3u","sona":"7636"},{"rt":1103,"stimulus":"<p>Bereit?</p>","key_press":32,"trial_type":"html-keyboard-response","trial_index":107,"time_elapsed":268678,"internal_node_id":"0.0-8.0-0.25","subject":"lvmzafn6uwyzj3u","sona":"7636"},{"rt":null,"stimulus":"<div style=\"font-size:60px;\">+</div>","key_press":null,"trial_type":"html-keyboard-response","trial_index":108,"time_elapsed":270714,"internal_node_id":"0.0-8.0-1.25","subject":"lvmzafn6uwyzj3u","sona":"7636"},{"trial_type":"turing-test","trial_index":109,"time_elapsed":274573,"internal_node_id":"0.0-8.0-2.25","subject":"lvmzafn6uwyzj3u","sona":"7636"},{"rt":445,"stimulus":"<p>Welche Sequenz haben Sie als natürlicher empfunden?</p>","key_press":74,"test_part":"response","test_stimulus":{"position":1,"left":"bvh/vr_prediction_models/model(dmp)-dataset(pass-bottle-hold)-npsi(10)-hold(4)/final-lines.txt","right":"bvh/pass-bottle-hold-training4-lines.txt","att_check":false},"trial_type":"html-keyboard-response","trial_index":110,"time_elapsed":275028,"internal_node_id":"0.0-8.0-3.25","subject":"lvmzafn6uwyzj3u","sona":"7636"},{"rt":479,"stimulus":"<p>Bereit?</p>","key_press":32,"trial_type":"html-keyboard-response","trial_index":111,"time_elapsed":275513,"internal_node_id":"0.0-8.0-0.26","subject":"lvmzafn6uwyzj3u","sona":"7636"},{"rt":null,"stimulus":"<div style=\"font-size:60px;\">+</div>","key_press":null,"trial_type":"html-keyboard-response","trial_index":112,"time_elapsed":277544,"internal_node_id":"0.0-8.0-1.26","subject":"lvmzafn6uwyzj3u","sona":"7636"},{"trial_type":"turing-test","trial_index":113,"time_elapsed":283575,"internal_node_id":"0.0-8.0-2.26","subject":"lvmzafn6uwyzj3u","sona":"7636"},{"rt":2344,"stimulus":"<p>Welche Sequenz haben Sie als natürlicher empfunden?</p>","key_press":74,"test_part":"response","test_stimulus":{"position":0,"left":"bvh/return-bottle-hold-training0-lines.txt","right":"bvh/vr_prediction_models/model(vcgpdm)-dataset(return-bottle-hold)-mode(MAP)-parts(3)-hold(0)/final-lines.txt","att_check":false},"trial_type":"html-keyboard-response","trial_index":114,"time_elapsed":285927,"internal_node_id":"0.0-8.0-3.26","subject":"lvmzafn6uwyzj3u","sona":"7636"},{"rt":493,"stimulus":"<p>Bereit?</p>","key_press":32,"trial_type":"html-keyboard-response","trial_index":115,"time_elapsed":286424,"internal_node_id":"0.0-8.0-0.27","subject":"lvmzafn6uwyzj3u","sona":"7636"},{"rt":null,"stimulus":"<div style=\"font-size:60px;\">+</div>","key_press":null,"trial_type":"html-keyboard-response","trial_index":116,"time_elapsed":288441,"internal_node_id":"0.0-8.0-1.27","subject":"lvmzafn6uwyzj3u","sona":"7636"},{"trial_type":"turing-test","trial_index":117,"time_elapsed":292343,"internal_node_id":"0.0-8.0-2.27","subject":"lvmzafn6uwyzj3u","sona":"7636"},{"rt":478,"stimulus":"<p>Welche Sequenz haben Sie als natürlicher empfunden?</p>","key_press":74,"test_part":"response","test_stimulus":{"position":0,"left":"bvh/return-bottle-hold-training4-lines.txt","right":"bvh/vr_prediction_models/model(tmp)-dataset(return-bottle-hold)-numprim(11)-hold(4)/final-lines.txt","att_check":false},"trial_type":"html-keyboard-response","trial_index":118,"time_elapsed":292829,"internal_node_id":"0.0-8.0-3.27","subject":"lvmzafn6uwyzj3u","sona":"7636"},{"rt":474,"stimulus":"<p>Bereit?</p>","key_press":32,"trial_type":"html-keyboard-response","trial_index":119,"time_elapsed":293312,"internal_node_id":"0.0-8.0-0.28","subject":"lvmzafn6uwyzj3u","sona":"7636"},{"rt":null,"stimulus":"<div style=\"font-size:60px;\">+</div>","key_press":null,"trial_type":"html-keyboard-response","trial_index":120,"time_elapsed":295334,"internal_node_id":"0.0-8.0-1.28","subject":"lvmzafn6uwyzj3u","sona":"7636"},{"trial_type":"turing-test","trial_index":121,"time_elapsed":302699,"internal_node_id":"0.0-8.0-2.28","subject":"lvmzafn6uwyzj3u","sona":"7636"},{"rt":608,"stimulus":"<p>Welche Sequenz haben Sie als natürlicher empfunden?</p>","key_press":70,"test_part":"response","test_stimulus":{"position":0,"left":"bvh/pass-bottle-training0-lines.txt","right":"bvh/vr_prediction_models/model(vcgpdm)-dataset(pass-bottle)-mode(ELBO)-parts(3)-dyn(25)-lvm(15)-hold(0)/final-lines.txt","att_check":false},"trial_type":"html-keyboard-response","trial_index":122,"time_elapsed":303313,"internal_node_id":"0.0-8.0-3.28","subject":"lvmzafn6uwyzj3u","sona":"7636"},{"rt":661,"stimulus":"<p>Bereit?</p>","key_press":32,"trial_type":"html-keyboard-response","trial_index":123,"time_elapsed":303980,"internal_node_id":"0.0-8.0-0.29","subject":"lvmzafn6uwyzj3u","sona":"7636"},{"rt":null,"stimulus":"<div style=\"font-size:60px;\">+</div>","key_press":null,"trial_type":"html-keyboard-response","trial_index":124,"time_elapsed":306019,"internal_node_id":"0.0-8.0-1.29","subject":"lvmzafn6uwyzj3u","sona":"7636"},{"trial_type":"turing-test","trial_index":125,"time_elapsed":312967,"internal_node_id":"0.0-8.0-2.29","subject":"lvmzafn6uwyzj3u","sona":"7636"},{"rt":712,"stimulus":"<p>Welche Sequenz haben Sie als natürlicher empfunden?</p>","key_press":74,"test_part":"response","test_stimulus":{"position":1,"left":"bvh/vr_prediction_models/model(tmp)-dataset(pass-bottle)-numprim(5)-hold(0)/final-lines.txt","right":"bvh/pass-bottle-training0-lines.txt","att_check":false},"trial_type":"html-keyboard-response","trial_index":126,"time_elapsed":313684,"internal_node_id":"0.0-8.0-3.29","subject":"lvmzafn6uwyzj3u","sona":"7636"},{"rt":528,"stimulus":"<p>Bereit?</p>","key_press":32,"trial_type":"html-keyboard-response","trial_index":127,"time_elapsed":314220,"internal_node_id":"0.0-8.0-0.30","subject":"lvmzafn6uwyzj3u","sona":"7636"},{"rt":null,"stimulus":"<div style=\"font-size:60px;\">+</div>","key_press":null,"trial_type":"html-keyboard-response","trial_index":128,"time_elapsed":316247,"internal_node_id":"0.0-8.0-1.30","subject":"lvmzafn6uwyzj3u","sona":"7636"},{"trial_type":"turing-test","trial_index":129,"time_elapsed":319870,"internal_node_id":"0.0-8.0-2.30","subject":"lvmzafn6uwyzj3u","sona":"7636"},{"rt":988,"stimulus":"<p>Welche Sequenz haben Sie als natürlicher empfunden?</p>","key_press":70,"test_part":"response","test_stimulus":{"position":0,"left":"bvh/return-bottle-hold-training2-lines.txt","right":"bvh/vr_prediction_models/model(dmp)-dataset(return-bottle-hold)-npsi(80)-hold(2)/final-lines.txt","att_check":true},"trial_type":"html-keyboard-response","trial_index":130,"time_elapsed":320865,"internal_node_id":"0.0-8.0-3.30","subject":"lvmzafn6uwyzj3u","sona":"7636"},{"rt":501,"stimulus":"<p>Bereit?</p>","key_press":32,"trial_type":"html-keyboard-response","trial_index":131,"time_elapsed":321373,"internal_node_id":"0.0-8.0-0.31","subject":"lvmzafn6uwyzj3u","sona":"7636"},{"rt":null,"stimulus":"<div style=\"font-size:60px;\">+</div>","key_press":null,"trial_type":"html-keyboard-response","trial_index":132,"time_elapsed":323409,"internal_node_id":"0.0-8.0-1.31","subject":"lvmzafn6uwyzj3u","sona":"7636"},{"trial_type":"turing-test","trial_index":133,"time_elapsed":329626,"internal_node_id":"0.0-8.0-2.31","subject":"lvmzafn6uwyzj3u","sona":"7636"},{"rt":817,"stimulus":"<p>Welche Sequenz haben Sie als natürlicher empfunden?</p>","key_press":70,"test_part":"response","test_stimulus":{"position":0,"left":"bvh/pass-bottle-training3-lines.txt","right":"bvh/vr_prediction_models/model(dmp)-dataset(pass-bottle)-npsi(70)-hold(3)/final-lines.txt","att_check":false},"trial_type":"html-keyboard-response","trial_index":134,"time_elapsed":330450,"internal_node_id":"0.0-8.0-3.31","subject":"lvmzafn6uwyzj3u","sona":"7636"},{"rt":766,"stimulus":"<p>Bereit?</p>","key_press":32,"trial_type":"html-keyboard-response","trial_index":135,"time_elapsed":331224,"internal_node_id":"0.0-8.0-0.32","subject":"lvmzafn6uwyzj3u","sona":"7636"},{"rt":null,"stimulus":"<div style=\"font-size:60px;\">+</div>","key_press":null,"trial_type":"html-keyboard-response","trial_index":136,"time_elapsed":333237,"internal_node_id":"0.0-8.0-1.32","subject":"lvmzafn6uwyzj3u","sona":"7636"},{"trial_type":"turing-test","trial_index":137,"time_elapsed":339091,"internal_node_id":"0.0-8.0-2.32","subject":"lvmzafn6uwyzj3u","sona":"7636"},{"rt":469,"stimulus":"<p>Welche Sequenz haben Sie als natürlicher empfunden?</p>","key_press":70,"test_part":"response","test_stimulus":{"position":0,"left":"bvh/return-bottle-training0-lines.txt","right":"bvh/vr_prediction_models/model(vcgpdm)-dataset(return-bottle)-mode(ELBO)-parts(3)-dyn(15)-lvm(30)-hold(0)/final-lines.txt","att_check":false},"trial_type":"html-keyboard-response","trial_index":138,"time_elapsed":339569,"internal_node_id":"0.0-8.0-3.32","subject":"lvmzafn6uwyzj3u","sona":"7636"},{"rt":531,"stimulus":"<p>Bereit?</p>","key_press":32,"trial_type":"html-keyboard-response","trial_index":139,"time_elapsed":340109,"internal_node_id":"0.0-8.0-0.33","subject":"lvmzafn6uwyzj3u","sona":"7636"},{"rt":null,"stimulus":"<div style=\"font-size:60px;\">+</div>","key_press":null,"trial_type":"html-keyboard-response","trial_index":140,"time_elapsed":342126,"internal_node_id":"0.0-8.0-1.33","subject":"lvmzafn6uwyzj3u","sona":"7636"},{"trial_type":"turing-test","trial_index":141,"time_elapsed":349152,"internal_node_id":"0.0-8.0-2.33","subject":"lvmzafn6uwyzj3u","sona":"7636"},{"rt":477,"stimulus":"<p>Welche Sequenz haben Sie als natürlicher empfunden?</p>","key_press":74,"test_part":"response","test_stimulus":{"position":1,"left":"bvh/vr_prediction_models/model(vcgpdm)-dataset(return-bottle)-mode(ELBO)-parts(3)-dyn(20)-lvm(20)-hold(4)/final-lines.txt","right":"bvh/return-bottle-training4-lines.txt","att_check":false},"trial_type":"html-keyboard-response","trial_index":142,"time_elapsed":349637,"internal_node_id":"0.0-8.0-3.33","subject":"lvmzafn6uwyzj3u","sona":"7636"},{"rt":640,"stimulus":"<p>Bereit?</p>","key_press":32,"trial_type":"html-keyboard-response","trial_index":143,"time_elapsed":350287,"internal_node_id":"0.0-8.0-0.34","subject":"lvmzafn6uwyzj3u","sona":"7636"},{"rt":null,"stimulus":"<div style=\"font-size:60px;\">+</div>","key_press":null,"trial_type":"html-keyboard-response","trial_index":144,"time_elapsed":352323,"internal_node_id":"0.0-8.0-1.34","subject":"lvmzafn6uwyzj3u","sona":"7636"},{"trial_type":"turing-test","trial_index":145,"time_elapsed":357090,"internal_node_id":"0.0-8.0-2.34","subject":"lvmzafn6uwyzj3u","sona":"7636"},{"rt":84,"stimulus":"<p>Welche Sequenz haben Sie als natürlicher empfunden?</p>","key_press":74,"test_part":"response","test_stimulus":{"position":0,"left":"bvh/return-bottle-hold-training3-lines.txt","right":"bvh/vr_prediction_models/model(vcgpdm)-dataset(return-bottle-hold)-mode(ELBO)-parts(1)-dyn(10)-lvm(30)-hold(3)/final-lines.txt","att_check":false},"trial_type":"html-keyboard-response","trial_index":146,"time_elapsed":357182,"internal_node_id":"0.0-8.0-3.34","subject":"lvmzafn6uwyzj3u","sona":"7636"},{"rt":854,"stimulus":"<p>Bereit?</p>","key_press":32,"trial_type":"html-keyboard-response","trial_index":147,"time_elapsed":358044,"internal_node_id":"0.0-8.0-0.35","subject":"lvmzafn6uwyzj3u","sona":"7636"},{"rt":null,"stimulus":"<div style=\"font-size:60px;\">+</div>","key_press":null,"trial_type":"html-keyboard-response","trial_index":148,"time_elapsed":360071,"internal_node_id":"0.0-8.0-1.35","subject":"lvmzafn6uwyzj3u","sona":"7636"},{"trial_type":"turing-test","trial_index":149,"time_elapsed":366406,"internal_node_id":"0.0-8.0-2.35","subject":"lvmzafn6uwyzj3u","sona":"7636"},{"rt":171,"stimulus":"<p>Welche Sequenz haben Sie als natürlicher empfunden?</p>","key_press":74,"test_part":"response","test_stimulus":{"position":1,"left":"bvh/vr_prediction_models/model(tmp)-dataset(pass-bottle)-numprim(12)-hold(2)/final-lines.txt","right":"bvh/pass-bottle-training2-lines.txt","att_check":false},"trial_type":"html-keyboard-response","trial_index":150,"time_elapsed":366585,"internal_node_id":"0.0-8.0-3.35","subject":"lvmzafn6uwyzj3u","sona":"7636"},{"rt":671,"stimulus":"<p>Bereit?</p>","key_press":32,"trial_type":"html-keyboard-response","trial_index":151,"time_elapsed":367264,"internal_node_id":"0.0-8.0-0.36","subject":"lvmzafn6uwyzj3u","sona":"7636"},{"rt":null,"stimulus":"<div style=\"font-size:60px;\">+</div>","key_press":null,"trial_type":"html-keyboard-response","trial_index":152,"time_elapsed":369286,"internal_node_id":"0.0-8.0-1.36","subject":"lvmzafn6uwyzj3u","sona":"7636"},{"trial_type":"turing-test","trial_index":153,"time_elapsed":375737,"internal_node_id":"0.0-8.0-2.36","subject":"lvmzafn6uwyzj3u","sona":"7636"},{"rt":324,"stimulus":"<p>Welche Sequenz haben Sie als natürlicher empfunden?</p>","key_press":74,"test_part":"response","test_stimulus":{"position":0,"left":"bvh/pass-bottle-training3-lines.txt","right":"bvh/vr_prediction_models/model(vcgpdm)-dataset(pass-bottle)-mode(ELBO)-parts(3)-dyn(35)-lvm(20)-hold(3)/final-lines.txt","att_check":false},"trial_type":"html-keyboard-response","trial_index":154,"time_elapsed":376069,"internal_node_id":"0.0-8.0-3.36","subject":"lvmzafn6uwyzj3u","sona":"7636"},{"rt":458,"stimulus":"<p>Bereit?</p>","key_press":32,"trial_type":"html-keyboard-response","trial_index":155,"time_elapsed":376536,"internal_node_id":"0.0-8.0-0.37","subject":"lvmzafn6uwyzj3u","sona":"7636"},{"rt":null,"stimulus":"<div style=\"font-size:60px;\">+</div>","key_press":null,"trial_type":"html-keyboard-response","trial_index":156,"time_elapsed":378548,"internal_node_id":"0.0-8.0-1.37","subject":"lvmzafn6uwyzj3u","sona":"7636"},{"trial_type":"turing-test","trial_index":157,"time_elapsed":382508,"internal_node_id":"0.0-8.0-2.37","subject":"lvmzafn6uwyzj3u","sona":"7636"},{"rt":804,"stimulus":"<p>Welche Sequenz haben Sie als natürlicher empfunden?</p>","key_press":70,"test_part":"response","test_stimulus":{"position":0,"left":"bvh/return-bottle-hold-training1-lines.txt","right":"bvh/vr_prediction_models/model(vcgpdm)-dataset(return-bottle-hold)-mode(ELBO)-parts(1)-dyn(30)-lvm(20)-hold(1)/final-lines.txt","att_check":false},"trial_type":"html-keyboard-response","trial_index":158,"time_elapsed":383320,"internal_node_id":"0.0-8.0-3.37","subject":"lvmzafn6uwyzj3u","sona":"7636"},{"rt":530,"stimulus":"<p>Bereit?</p>","key_press":32,"trial_type":"html-keyboard-response","trial_index":159,"time_elapsed":383859,"internal_node_id":"0.0-8.0-0.38","subject":"lvmzafn6uwyzj3u","sona":"7636"},{"rt":null,"stimulus":"<div style=\"font-size:60px;\">+</div>","key_press":null,"trial_type":"html-keyboard-response","trial_index":160,"time_elapsed":385888,"internal_node_id":"0.0-8.0-1.38","subject":"lvmzafn6uwyzj3u","sona":"7636"},{"trial_type":"turing-test","trial_index":161,"time_elapsed":391663,"internal_node_id":"0.0-8.0-2.38","subject":"lvmzafn6uwyzj3u","sona":"7636"},{"rt":664,"stimulus":"<p>Welche Sequenz haben Sie als natürlicher empfunden?</p>","key_press":74,"test_part":"response","test_stimulus":{"position":1,"left":"bvh/vr_prediction_models/model(vcgpdm)-dataset(return-bottle-hold)-mode(ELBO)-parts(3)-dyn(10)-lvm(10)-hold(0)/final-lines.txt","right":"bvh/return-bottle-hold-training0-lines.txt","att_check":false},"trial_type":"html-keyboard-response","trial_index":162,"time_elapsed":392335,"internal_node_id":"0.0-8.0-3.38","subject":"lvmzafn6uwyzj3u","sona":"7636"},{"rt":684,"stimulus":"<p>Bereit?</p>","key_press":32,"trial_type":"html-keyboard-response","trial_index":163,"time_elapsed":393027,"internal_node_id":"0.0-8.0-0.39","subject":"lvmzafn6uwyzj3u","sona":"7636"},{"rt":null,"stimulus":"<div style=\"font-size:60px;\">+</div>","key_press":null,"trial_type":"html-keyboard-response","trial_index":164,"time_elapsed":395042,"internal_node_id":"0.0-8.0-1.39","subject":"lvmzafn6uwyzj3u","sona":"7636"},{"trial_type":"turing-test","trial_index":165,"time_elapsed":401195,"internal_node_id":"0.0-8.0-2.39","subject":"lvmzafn6uwyzj3u","sona":"7636"},{"rt":650,"stimulus":"<p>Welche Sequenz haben Sie als natürlicher empfunden?</p>","key_press":70,"test_part":"response","test_stimulus":{"position":0,"left":"bvh/pass-bottle-training1-lines.txt","right":"bvh/vr_prediction_models/model(vcgpdm)-dataset(pass-bottle)-mode(MAP)-parts(1)-hold(1)/final-lines.txt","att_check":false},"trial_type":"html-keyboard-response","trial_index":166,"time_elapsed":401851,"internal_node_id":"0.0-8.0-3.39","subject":"lvmzafn6uwyzj3u","sona":"7636"},{"rt":621,"stimulus":"<p>Bereit?</p>","key_press":32,"trial_type":"html-keyboard-response","trial_index":167,"time_elapsed":402480,"internal_node_id":"0.0-8.0-0.40","subject":"lvmzafn6uwyzj3u","sona":"7636"},{"rt":null,"stimulus":"<div style=\"font-size:60px;\">+</div>","key_press":null,"trial_type":"html-keyboard-response","trial_index":168,"time_elapsed":404495,"internal_node_id":"0.0-8.0-1.40","subject":"lvmzafn6uwyzj3u","sona":"7636"},{"trial_type":"turing-test","trial_index":169,"time_elapsed":408834,"internal_node_id":"0.0-8.0-2.40","subject":"lvmzafn6uwyzj3u","sona":"7636"},{"rt":56,"stimulus":"<p>Welche Sequenz haben Sie als natürlicher empfunden?</p>","key_press":74,"test_part":"response","test_stimulus":{"position":1,"left":"bvh/vr_prediction_models/model(vcgpdm)-dataset(pass-bottle-hold)-mode(ELBO)-parts(3)-dyn(10)-lvm(30)-hold(4)/final-lines.txt","right":"bvh/pass-bottle-hold-training4-lines.txt","att_check":false},"trial_type":"html-keyboard-response","trial_index":170,"time_elapsed":408894,"internal_node_id":"0.0-8.0-3.40","subject":"lvmzafn6uwyzj3u","sona":"7636"},{"rt":1213,"stimulus":"<p>Bereit?</p>","key_press":32,"trial_type":"html-keyboard-response","trial_index":171,"time_elapsed":410112,"internal_node_id":"0.0-8.0-0.41","subject":"lvmzafn6uwyzj3u","sona":"7636"},{"rt":null,"stimulus":"<div style=\"font-size:60px;\">+</div>","key_press":null,"trial_type":"html-keyboard-response","trial_index":172,"time_elapsed":412125,"internal_node_id":"0.0-8.0-1.41","subject":"lvmzafn6uwyzj3u","sona":"7636"},{"trial_type":"turing-test","trial_index":173,"time_elapsed":416065,"internal_node_id":"0.0-8.0-2.41","subject":"lvmzafn6uwyzj3u","sona":"7636"},{"rt":409,"stimulus":"<p>Welche Sequenz haben Sie als natürlicher empfunden?</p>","key_press":70,"test_part":"response","test_stimulus":{"position":0,"left":"bvh/return-bottle-hold-training3-lines.txt","right":"bvh/vr_prediction_models/model(tmp)-dataset(return-bottle-hold)-numprim(10)-hold(3)/final-lines.txt","att_check":false},"trial_type":"html-keyboard-response","trial_index":174,"time_elapsed":416482,"internal_node_id":"0.0-8.0-3.41","subject":"lvmzafn6uwyzj3u","sona":"7636"},{"rt":480,"stimulus":"<p>Bereit?</p>","key_press":32,"trial_type":"html-keyboard-response","trial_index":175,"time_elapsed":416968,"internal_node_id":"0.0-8.0-0.42","subject":"lvmzafn6uwyzj3u","sona":"7636"},{"rt":null,"stimulus":"<div style=\"font-size:60px;\">+</div>","key_press":null,"trial_type":"html-keyboard-response","trial_index":176,"time_elapsed":418975,"internal_node_id":"0.0-8.0-1.42","subject":"lvmzafn6uwyzj3u","sona":"7636"},{"trial_type":"turing-test","trial_index":177,"time_elapsed":423937,"internal_node_id":"0.0-8.0-2.42","subject":"lvmzafn6uwyzj3u","sona":"7636"},{"rt":488,"stimulus":"<p>Welche Sequenz haben Sie als natürlicher empfunden?</p>","key_press":70,"test_part":"response","test_stimulus":{"position":0,"left":"bvh/return-bottle-hold-training4-lines.txt","right":"bvh/vr_prediction_models/model(vcgpdm)-dataset(return-bottle-hold)-mode(ELBO)-parts(1)-dyn(35)-lvm(10)-hold(4)/final-lines.txt","att_check":false},"trial_type":"html-keyboard-response","trial_index":178,"time_elapsed":424432,"internal_node_id":"0.0-8.0-3.42","subject":"lvmzafn6uwyzj3u","sona":"7636"},{"rt":344,"stimulus":"<p>Bereit?</p>","key_press":32,"trial_type":"html-keyboard-response","trial_index":179,"time_elapsed":424783,"internal_node_id":"0.0-8.0-0.43","subject":"lvmzafn6uwyzj3u","sona":"7636"},{"rt":null,"stimulus":"<div style=\"font-size:60px;\">+</div>","key_press":null,"trial_type":"html-keyboard-response","trial_index":180,"time_elapsed":426797,"internal_node_id":"0.0-8.0-1.43","subject":"lvmzafn6uwyzj3u","sona":"7636"},{"trial_type":"turing-test","trial_index":181,"time_elapsed":431632,"internal_node_id":"0.0-8.0-2.43","subject":"lvmzafn6uwyzj3u","sona":"7636"},{"rt":624,"stimulus":"<p>Welche Sequenz haben Sie als natürlicher empfunden?</p>","key_press":70,"test_part":"response","test_stimulus":{"position":0,"left":"bvh/return-bottle-hold-training3-lines.txt","right":"bvh/vr_prediction_models/model(vcgpdm)-dataset(return-bottle-hold)-mode(ELBO)-parts(1)-dyn(10)-lvm(30)-hold(3)/final-lines.txt","att_check":false},"trial_type":"html-keyboard-response","trial_index":182,"time_elapsed":432263,"internal_node_id":"0.0-8.0-3.43","subject":"lvmzafn6uwyzj3u","sona":"7636"},{"rt":418,"stimulus":"<p>Bereit?</p>","key_press":32,"trial_type":"html-keyboard-response","trial_index":183,"time_elapsed":432689,"internal_node_id":"0.0-8.0-0.44","subject":"lvmzafn6uwyzj3u","sona":"7636"},{"rt":null,"stimulus":"<div style=\"font-size:60px;\">+</div>","key_press":null,"trial_type":"html-keyboard-response","trial_index":184,"time_elapsed":434699,"internal_node_id":"0.0-8.0-1.44","subject":"lvmzafn6uwyzj3u","sona":"7636"},{"trial_type":"turing-test","trial_index":185,"time_elapsed":439128,"internal_node_id":"0.0-8.0-2.44","subject":"lvmzafn6uwyzj3u","sona":"7636"},{"rt":41,"stimulus":"<p>Welche Sequenz haben Sie als natürlicher empfunden?</p>","key_press":74,"test_part":"response","test_stimulus":{"position":0,"left":"bvh/pass-bottle-hold-training4-lines.txt","right":"bvh/vr_prediction_models/model(dmp)-dataset(pass-bottle-hold)-npsi(30)-hold(4)/final-lines.txt","att_check":false},"trial_type":"html-keyboard-response","trial_index":186,"time_elapsed":439176,"internal_node_id":"0.0-8.0-3.44","subject":"lvmzafn6uwyzj3u","sona":"7636"},{"rt":815,"stimulus":"<p>Bereit?</p>","key_press":32,"trial_type":"html-keyboard-response","trial_index":187,"time_elapsed":439997,"internal_node_id":"0.0-8.0-0.45","subject":"lvmzafn6uwyzj3u","sona":"7636"},{"rt":null,"stimulus":"<div style=\"font-size:60px;\">+</div>","key_press":null,"trial_type":"html-keyboard-response","trial_index":188,"time_elapsed":442038,"internal_node_id":"0.0-8.0-1.45","subject":"lvmzafn6uwyzj3u","sona":"7636"},{"trial_type":"turing-test","trial_index":189,"time_elapsed":446457,"internal_node_id":"0.0-8.0-2.45","subject":"lvmzafn6uwyzj3u","sona":"7636"},{"rt":473,"stimulus":"<p>Welche Sequenz haben Sie als natürlicher empfunden?</p>","key_press":74,"test_part":"response","test_stimulus":{"position":0,"left":"bvh/pass-bottle-hold-training2-lines.txt","right":"bvh/vr_prediction_models/model(dmp)-dataset(pass-bottle-hold)-npsi(40)-hold(2)/final-lines.txt","att_check":false},"trial_type":"html-keyboard-response","trial_index":190,"time_elapsed":446937,"internal_node_id":"0.0-8.0-3.45","subject":"lvmzafn6uwyzj3u","sona":"7636"},{"rt":561,"stimulus":"<p>Bereit?</p>","key_press":32,"trial_type":"html-keyboard-response","trial_index":191,"time_elapsed":447507,"internal_node_id":"0.0-8.0-0.46","subject":"lvmzafn6uwyzj3u","sona":"7636"},{"rt":null,"stimulus":"<div style=\"font-size:60px;\">+</div>","key_press":null,"trial_type":"html-keyboard-response","trial_index":192,"time_elapsed":449536,"internal_node_id":"0.0-8.0-1.46","subject":"lvmzafn6uwyzj3u","sona":"7636"},{"trial_type":"turing-test","trial_index":193,"time_elapsed":454514,"internal_node_id":"0.0-8.0-2.46","subject":"lvmzafn6uwyzj3u","sona":"7636"},{"rt":418,"stimulus":"<p>Welche Sequenz haben Sie als natürlicher empfunden?</p>","key_press":70,"test_part":"response","test_stimulus":{"position":0,"left":"bvh/return-bottle-hold-training3-lines.txt","right":"bvh/vr_prediction_models/model(vcgpdm)-dataset(return-bottle-hold)-mode(ELBO)-parts(1)-dyn(35)-lvm(10)-hold(3)/final-lines.txt","att_check":false},"trial_type":"html-keyboard-response","trial_index":194,"time_elapsed":454939,"internal_node_id":"0.0-8.0-3.46","subject":"lvmzafn6uwyzj3u","sona":"7636"},{"rt":501,"stimulus":"<p>Bereit?</p>","key_press":32,"trial_type":"html-keyboard-response","trial_index":195,"time_elapsed":455447,"internal_node_id":"0.0-8.0-0.47","subject":"lvmzafn6uwyzj3u","sona":"7636"},{"rt":null,"stimulus":"<div style=\"font-size:60px;\">+</div>","key_press":null,"trial_type":"html-keyboard-response","trial_index":196,"time_elapsed":457463,"internal_node_id":"0.0-8.0-1.47","subject":"lvmzafn6uwyzj3u","sona":"7636"},{"trial_type":"turing-test","trial_index":197,"time_elapsed":462448,"internal_node_id":"0.0-8.0-2.47","subject":"lvmzafn6uwyzj3u","sona":"7636"},{"rt":443,"stimulus":"<p>Welche Sequenz haben Sie als natürlicher empfunden?</p>","key_press":74,"test_part":"response","test_stimulus":{"position":0,"left":"bvh/return-bottle-hold-training4-lines.txt","right":"bvh/vr_prediction_models/model(vcgpdm)-dataset(return-bottle-hold)-mode(ELBO)-parts(3)-dyn(25)-lvm(30)-hold(4)/final-lines.txt","att_check":false},"trial_type":"html-keyboard-response","trial_index":198,"time_elapsed":462898,"internal_node_id":"0.0-8.0-3.47","subject":"lvmzafn6uwyzj3u","sona":"7636"},{"rt":448,"stimulus":"<p>Bereit?</p>","key_press":32,"trial_type":"html-keyboard-response","trial_index":199,"time_elapsed":463356,"internal_node_id":"0.0-8.0-0.48","subject":"lvmzafn6uwyzj3u","sona":"7636"},{"rt":null,"stimulus":"<div style=\"font-size:60px;\">+</div>","key_press":null,"trial_type":"html-keyboard-response","trial_index":200,"time_elapsed":465378,"internal_node_id":"0.0-8.0-1.48","subject":"lvmzafn6uwyzj3u","sona":"7636"},{"trial_type":"turing-test","trial_index":201,"time_elapsed":471996,"internal_node_id":"0.0-8.0-2.48","subject":"lvmzafn6uwyzj3u","sona":"7636"},{"rt":455,"stimulus":"<p>Welche Sequenz haben Sie als natürlicher empfunden?</p>","key_press":74,"test_part":"response","test_stimulus":{"position":1,"left":"bvh/vr_prediction_models/model(vcgpdm)-dataset(return-bottle-hold)-mode(ELBO)-parts(3)-dyn(15)-lvm(30)-hold(0)/final-lines.txt","right":"bvh/return-bottle-hold-training0-lines.txt","att_check":false},"trial_type":"html-keyboard-response","trial_index":202,"time_elapsed":472463,"internal_node_id":"0.0-8.0-3.48","subject":"lvmzafn6uwyzj3u","sona":"7636"},{"rt":896,"stimulus":"<p>Bereit?</p>","key_press":32,"trial_type":"html-keyboard-response","trial_index":203,"time_elapsed":473367,"internal_node_id":"0.0-8.0-0.49","subject":"lvmzafn6uwyzj3u","sona":"7636"},{"rt":null,"stimulus":"<div style=\"font-size:60px;\">+</div>","key_press":null,"trial_type":"html-keyboard-response","trial_index":204,"time_elapsed":475387,"internal_node_id":"0.0-8.0-1.49","subject":"lvmzafn6uwyzj3u","sona":"7636"},{"trial_type":"turing-test","trial_index":205,"time_elapsed":479315,"internal_node_id":"0.0-8.0-2.49","subject":"lvmzafn6uwyzj3u","sona":"7636"},{"rt":123,"stimulus":"<p>Welche Sequenz haben Sie als natürlicher empfunden?</p>","key_press":70,"test_part":"response","test_stimulus":{"position":0,"left":"bvh/return-bottle-hold-training1-lines.txt","right":"bvh/vr_prediction_models/model(vcgpdm)-dataset(return-bottle-hold)-mode(ELBO)-parts(1)-dyn(30)-lvm(20)-hold(1)/final-lines.txt","att_check":false},"trial_type":"html-keyboard-response","trial_index":206,"time_elapsed":479445,"internal_node_id":"0.0-8.0-3.49","subject":"lvmzafn6uwyzj3u","sona":"7636"},{"rt":1053,"stimulus":"<p>Bereit?</p>","key_press":32,"trial_type":"html-keyboard-response","trial_index":207,"time_elapsed":480504,"internal_node_id":"0.0-8.0-0.50","subject":"lvmzafn6uwyzj3u","sona":"7636"},{"rt":null,"stimulus":"<div style=\"font-size:60px;\">+</div>","key_press":null,"trial_type":"html-keyboard-response","trial_index":208,"time_elapsed":482536,"internal_node_id":"0.0-8.0-1.50","subject":"lvmzafn6uwyzj3u","sona":"7636"},{"trial_type":"turing-test","trial_index":209,"time_elapsed":488697,"internal_node_id":"0.0-8.0-2.50","subject":"lvmzafn6uwyzj3u","sona":"7636"},{"rt":354,"stimulus":"<p>Welche Sequenz haben Sie als natürlicher empfunden?</p>","key_press":74,"test_part":"response","test_stimulus":{"position":0,"left":"bvh/pass-bottle-training1-lines.txt","right":"bvh/vr_prediction_models/model(tmp)-dataset(pass-bottle)-numprim(5)-hold(1)/final-lines.txt","att_check":false},"trial_type":"html-keyboard-response","trial_index":210,"time_elapsed":489057,"internal_node_id":"0.0-8.0-3.50","subject":"lvmzafn6uwyzj3u","sona":"7636"},{"rt":448,"stimulus":"<p>Bereit?</p>","key_press":32,"trial_type":"html-keyboard-response","trial_index":211,"time_elapsed":489512,"internal_node_id":"0.0-8.0-0.51","subject":"lvmzafn6uwyzj3u","sona":"7636"},{"rt":null,"stimulus":"<div style=\"font-size:60px;\">+</div>","key_press":null,"trial_type":"html-keyboard-response","trial_index":212,"time_elapsed":491547,"internal_node_id":"0.0-8.0-1.51","subject":"lvmzafn6uwyzj3u","sona":"7636"},{"trial_type":"turing-test","trial_index":213,"time_elapsed":498495,"internal_node_id":"0.0-8.0-2.51","subject":"lvmzafn6uwyzj3u","sona":"7636"},{"rt":435,"stimulus":"<p>Welche Sequenz haben Sie als natürlicher empfunden?</p>","key_press":70,"test_part":"response","test_stimulus":{"position":1,"left":"bvh/vr_prediction_models/model(tmp)-dataset(return-bottle)-numprim(9)-hold(2)/final-lines.txt","right":"bvh/return-bottle-training2-lines.txt","att_check":false},"trial_type":"html-keyboard-response","trial_index":214,"time_elapsed":498937,"internal_node_id":"0.0-8.0-3.51","subject":"lvmzafn6uwyzj3u","sona":"7636"},{"rt":653,"stimulus":"<p>Bereit?</p>","key_press":32,"trial_type":"html-keyboard-response","trial_index":215,"time_elapsed":499598,"internal_node_id":"0.0-8.0-0.52","subject":"lvmzafn6uwyzj3u","sona":"7636"},{"rt":null,"stimulus":"<div style=\"font-size:60px;\">+</div>","key_press":null,"trial_type":"html-keyboard-response","trial_index":216,"time_elapsed":501626,"internal_node_id":"0.0-8.0-1.52","subject":"lvmzafn6uwyzj3u","sona":"7636"},{"trial_type":"turing-test","trial_index":217,"time_elapsed":507673,"internal_node_id":"0.0-8.0-2.52","subject":"lvmzafn6uwyzj3u","sona":"7636"},{"rt":435,"stimulus":"<p>Welche Sequenz haben Sie als natürlicher empfunden?</p>","key_press":74,"test_part":"response","test_stimulus":{"position":1,"left":"bvh/vr_prediction_models/model(vcgpdm)-dataset(pass-bottle)-mode(ELBO)-parts(1)-dyn(35)-lvm(30)-hold(1)/final-lines.txt","right":"bvh/pass-bottle-training1-lines.txt","att_check":false},"trial_type":"html-keyboard-response","trial_index":218,"time_elapsed":508116,"internal_node_id":"0.0-8.0-3.52","subject":"lvmzafn6uwyzj3u","sona":"7636"},{"rt":533,"stimulus":"<p>Bereit?</p>","key_press":32,"trial_type":"html-keyboard-response","trial_index":219,"time_elapsed":508655,"internal_node_id":"0.0-8.0-0.53","subject":"lvmzafn6uwyzj3u","sona":"7636"},{"rt":null,"stimulus":"<div style=\"font-size:60px;\">+</div>","key_press":null,"trial_type":"html-keyboard-response","trial_index":220,"time_elapsed":510693,"internal_node_id":"0.0-8.0-1.53","subject":"lvmzafn6uwyzj3u","sona":"7636"},{"trial_type":"turing-test","trial_index":221,"time_elapsed":515061,"internal_node_id":"0.0-8.0-2.53","subject":"lvmzafn6uwyzj3u","sona":"7636"},{"rt":111,"stimulus":"<p>Welche Sequenz haben Sie als natürlicher empfunden?</p>","key_press":70,"test_part":"response","test_stimulus":{"position":0,"left":"bvh/return-bottle-hold-training1-lines.txt","right":"bvh/vr_prediction_models/model(tmp)-dataset(return-bottle-hold)-numprim(11)-hold(1)/final-lines.txt","att_check":false},"trial_type":"html-keyboard-response","trial_index":222,"time_elapsed":515182,"internal_node_id":"0.0-8.0-3.53","subject":"lvmzafn6uwyzj3u","sona":"7636"},{"rt":616,"stimulus":"<p>Bereit?</p>","key_press":32,"trial_type":"html-keyboard-response","trial_index":223,"time_elapsed":515806,"internal_node_id":"0.0-8.0-0.54","subject":"lvmzafn6uwyzj3u","sona":"7636"},{"rt":null,"stimulus":"<div style=\"font-size:60px;\">+</div>","key_press":null,"trial_type":"html-keyboard-response","trial_index":224,"time_elapsed":517835,"internal_node_id":"0.0-8.0-1.54","subject":"lvmzafn6uwyzj3u","sona":"7636"},{"trial_type":"turing-test","trial_index":225,"time_elapsed":525193,"internal_node_id":"0.0-8.0-2.54","subject":"lvmzafn6uwyzj3u","sona":"7636"},{"rt":438,"stimulus":"<p>Welche Sequenz haben Sie als natürlicher empfunden?</p>","key_press":70,"test_part":"response","test_stimulus":{"position":0,"left":"bvh/return-bottle-training4-lines.txt","right":"bvh/vr_prediction_models/model(vcgpdm)-dataset(return-bottle)-mode(MAP)-parts(3)-hold(4)/final-lines.txt","att_check":false},"trial_type":"html-keyboard-response","trial_index":226,"time_elapsed":525635,"internal_node_id":"0.0-8.0-3.54","subject":"lvmzafn6uwyzj3u","sona":"7636"},{"rt":480,"stimulus":"<p>Bereit?</p>","key_press":32,"trial_type":"html-keyboard-response","trial_index":227,"time_elapsed":526118,"internal_node_id":"0.0-8.0-0.55","subject":"lvmzafn6uwyzj3u","sona":"7636"},{"rt":null,"stimulus":"<div style=\"font-size:60px;\">+</div>","key_press":null,"trial_type":"html-keyboard-response","trial_index":228,"time_elapsed":528124,"internal_node_id":"0.0-8.0-1.55","subject":"lvmzafn6uwyzj3u","sona":"7636"},{"trial_type":"turing-test","trial_index":229,"time_elapsed":533405,"internal_node_id":"0.0-8.0-2.55","subject":"lvmzafn6uwyzj3u","sona":"7636"},{"rt":384,"stimulus":"<p>Welche Sequenz haben Sie als natürlicher empfunden?</p>","key_press":74,"test_part":"response","test_stimulus":{"position":1,"left":"bvh/vr_prediction_models/model(tmp)-dataset(return-bottle-hold)-numprim(12)-hold(0)/final-lines.txt","right":"bvh/return-bottle-hold-training0-lines.txt","att_check":false},"trial_type":"html-keyboard-response","trial_index":230,"time_elapsed":533795,"internal_node_id":"0.0-8.0-3.55","subject":"lvmzafn6uwyzj3u","sona":"7636"},{"rt":574,"stimulus":"<p>Bereit?</p>","key_press":32,"trial_type":"html-keyboard-response","trial_index":231,"time_elapsed":534377,"internal_node_id":"0.0-8.0-0.56","subject":"lvmzafn6uwyzj3u","sona":"7636"},{"rt":null,"stimulus":"<div style=\"font-size:60px;\">+</div>","key_press":null,"trial_type":"html-keyboard-response","trial_index":232,"time_elapsed":536405,"internal_node_id":"0.0-8.0-1.56","subject":"lvmzafn6uwyzj3u","sona":"7636"},{"trial_type":"turing-test","trial_index":233,"time_elapsed":540194,"internal_node_id":"0.0-8.0-2.56","subject":"lvmzafn6uwyzj3u","sona":"7636"},{"rt":408,"stimulus":"<p>Welche Sequenz haben Sie als natürlicher empfunden?</p>","key_press":70,"test_part":"response","test_stimulus":{"position":1,"left":"bvh/vr_prediction_models/model(tmp)-dataset(return-bottle-hold)-numprim(14)-hold(3)/final-lines.txt","right":"bvh/return-bottle-hold-training3-lines.txt","att_check":false},"trial_type":"html-keyboard-response","trial_index":234,"time_elapsed":540609,"internal_node_id":"0.0-8.0-3.56","subject":"lvmzafn6uwyzj3u","sona":"7636"},{"rt":533,"stimulus":"<p>Bereit?</p>","key_press":32,"trial_type":"html-keyboard-response","trial_index":235,"time_elapsed":541150,"internal_node_id":"0.0-8.0-0.57","subject":"lvmzafn6uwyzj3u","sona":"7636"},{"rt":null,"stimulus":"<div style=\"font-size:60px;\">+</div>","key_press":null,"trial_type":"html-keyboard-response","trial_index":236,"time_elapsed":543184,"internal_node_id":"0.0-8.0-1.57","subject":"lvmzafn6uwyzj3u","sona":"7636"},{"trial_type":"turing-test","trial_index":237,"time_elapsed":547271,"internal_node_id":"0.0-8.0-2.57","subject":"lvmzafn6uwyzj3u","sona":"7636"},{"rt":377,"stimulus":"<p>Welche Sequenz haben Sie als natürlicher empfunden?</p>","key_press":70,"test_part":"response","test_stimulus":{"position":1,"left":"bvh/vr_prediction_models/model(vcgpdm)-dataset(pass-bottle-hold)-mode(ELBO)-parts(3)-dyn(30)-lvm(15)-hold(3)/final-lines.txt","right":"bvh/pass-bottle-hold-training3-lines.txt","att_check":false},"trial_type":"html-keyboard-response","trial_index":238,"time_elapsed":547655,"internal_node_id":"0.0-8.0-3.57","subject":"lvmzafn6uwyzj3u","sona":"7636"},{"rt":511,"stimulus":"<p>Bereit?</p>","key_press":32,"trial_type":"html-keyboard-response","trial_index":239,"time_elapsed":548173,"internal_node_id":"0.0-8.0-0.58","subject":"lvmzafn6uwyzj3u","sona":"7636"},{"rt":null,"stimulus":"<div style=\"font-size:60px;\">+</div>","key_press":null,"trial_type":"html-keyboard-response","trial_index":240,"time_elapsed":550197,"internal_node_id":"0.0-8.0-1.58","subject":"lvmzafn6uwyzj3u","sona":"7636"},{"trial_type":"turing-test","trial_index":241,"time_elapsed":554315,"internal_node_id":"0.0-8.0-2.58","subject":"lvmzafn6uwyzj3u","sona":"7636"},{"rt":153,"stimulus":"<p>Welche Sequenz haben Sie als natürlicher empfunden?</p>","key_press":74,"test_part":"response","test_stimulus":{"position":0,"left":"bvh/pass-bottle-hold-training4-lines.txt","right":"bvh/vr_prediction_models/model(vcgpdm)-dataset(pass-bottle-hold)-mode(ELBO)-parts(3)-dyn(15)-lvm(30)-hold(4)/final-lines.txt","att_check":false},"trial_type":"html-keyboard-response","trial_index":242,"time_elapsed":554475,"internal_node_id":"0.0-8.0-3.58","subject":"lvmzafn6uwyzj3u","sona":"7636"},{"rt":738,"stimulus":"<p>Bereit?</p>","key_press":32,"trial_type":"html-keyboard-response","trial_index":243,"time_elapsed":555220,"internal_node_id":"0.0-8.0-0.59","subject":"lvmzafn6uwyzj3u","sona":"7636"},{"rt":null,"stimulus":"<div style=\"font-size:60px;\">+</div>","key_press":null,"trial_type":"html-keyboard-response","trial_index":244,"time_elapsed":557246,"internal_node_id":"0.0-8.0-1.59","subject":"lvmzafn6uwyzj3u","sona":"7636"},{"trial_type":"turing-test","trial_index":245,"time_elapsed":561139,"internal_node_id":"0.0-8.0-2.59","subject":"lvmzafn6uwyzj3u","sona":"7636"},{"rt":962,"stimulus":"<p>Welche Sequenz haben Sie als natürlicher empfunden?</p>","key_press":70,"test_part":"response","test_stimulus":{"position":1,"left":"bvh/vr_prediction_models/model(vcgpdm)-dataset(return-bottle-hold)-mode(ELBO)-parts(1)-dyn(20)-lvm(20)-hold(1)/final-lines.txt","right":"bvh/return-bottle-hold-training1-lines.txt","att_check":false},"trial_type":"html-keyboard-response","trial_index":246,"time_elapsed":562109,"internal_node_id":"0.0-8.0-3.59","subject":"lvmzafn6uwyzj3u","sona":"7636"},{"rt":432,"stimulus":"<p>Bereit?</p>","key_press":32,"trial_type":"html-keyboard-response","trial_index":247,"time_elapsed":562550,"internal_node_id":"0.0-8.0-0.60","subject":"lvmzafn6uwyzj3u","sona":"7636"},{"rt":null,"stimulus":"<div style=\"font-size:60px;\">+</div>","key_press":null,"trial_type":"html-keyboard-response","trial_index":248,"time_elapsed":564561,"internal_node_id":"0.0-8.0-1.60","subject":"lvmzafn6uwyzj3u","sona":"7636"},{"trial_type":"turing-test","trial_index":249,"time_elapsed":570583,"internal_node_id":"0.0-8.0-2.60","subject":"lvmzafn6uwyzj3u","sona":"7636"},{"rt":409,"stimulus":"<p>Welche Sequenz haben Sie als natürlicher empfunden?</p>","key_press":74,"test_part":"response","test_stimulus":{"position":1,"left":"bvh/vr_prediction_models/model(dmp)-dataset(pass-bottle)-npsi(90)-hold(3)/final-lines.txt","right":"bvh/pass-bottle-training3-lines.txt","att_check":true},"trial_type":"html-keyboard-response","trial_index":250,"time_elapsed":571000,"internal_node_id":"0.0-8.0-3.60","subject":"lvmzafn6uwyzj3u","sona":"7636"},{"rt":511,"stimulus":"<p>Bereit?</p>","key_press":32,"trial_type":"html-keyboard-response","trial_index":251,"time_elapsed":571519,"internal_node_id":"0.0-8.0-0.61","subject":"lvmzafn6uwyzj3u","sona":"7636"},{"rt":null,"stimulus":"<div style=\"font-size:60px;\">+</div>","key_press":null,"trial_type":"html-keyboard-response","trial_index":252,"time_elapsed":573554,"internal_node_id":"0.0-8.0-1.61","subject":"lvmzafn6uwyzj3u","sona":"7636"},{"trial_type":"turing-test","trial_index":253,"time_elapsed":576876,"internal_node_id":"0.0-8.0-2.61","subject":"lvmzafn6uwyzj3u","sona":"7636"},{"rt":398,"stimulus":"<p>Welche Sequenz haben Sie als natürlicher empfunden?</p>","key_press":74,"test_part":"response","test_stimulus":{"position":1,"left":"bvh/vr_prediction_models/model(dmp)-dataset(pass-bottle-hold)-npsi(40)-hold(1)/final-lines.txt","right":"bvh/pass-bottle-hold-training1-lines.txt","att_check":true},"trial_type":"html-keyboard-response","trial_index":254,"time_elapsed":577281,"internal_node_id":"0.0-8.0-3.61","subject":"lvmzafn6uwyzj3u","sona":"7636"},{"rt":416,"stimulus":"<p>Bereit?</p>","key_press":32,"trial_type":"html-keyboard-response","trial_index":255,"time_elapsed":577704,"internal_node_id":"0.0-8.0-0.62","subject":"lvmzafn6uwyzj3u","sona":"7636"},{"rt":null,"stimulus":"<div style=\"font-size:60px;\">+</div>","key_press":null,"trial_type":"html-keyboard-response","trial_index":256,"time_elapsed":579726,"internal_node_id":"0.0-8.0-1.62","subject":"lvmzafn6uwyzj3u","sona":"7636"},{"trial_type":"turing-test","trial_index":257,"time_elapsed":583349,"internal_node_id":"0.0-8.0-2.62","subject":"lvmzafn6uwyzj3u","sona":"7636"},{"rt":273,"stimulus":"<p>Welche Sequenz haben Sie als natürlicher empfunden?</p>","key_press":74,"test_part":"response","test_stimulus":{"position":1,"left":"bvh/vr_prediction_models/model(dmp)-dataset(return-bottle-hold)-npsi(50)-hold(2)/final-lines.txt","right":"bvh/return-bottle-hold-training2-lines.txt","att_check":false},"trial_type":"html-keyboard-response","trial_index":258,"time_elapsed":583630,"internal_node_id":"0.0-8.0-3.62","subject":"lvmzafn6uwyzj3u","sona":"7636"},{"rt":426,"stimulus":"<p>Bereit?</p>","key_press":32,"trial_type":"html-keyboard-response","trial_index":259,"time_elapsed":584064,"internal_node_id":"0.0-8.0-0.63","subject":"lvmzafn6uwyzj3u","sona":"7636"},{"rt":null,"stimulus":"<div style=\"font-size:60px;\">+</div>","key_press":null,"trial_type":"html-keyboard-response","trial_index":260,"time_elapsed":586099,"internal_node_id":"0.0-8.0-1.63","subject":"lvmzafn6uwyzj3u","sona":"7636"},{"trial_type":"turing-test","trial_index":261,"time_elapsed":589950,"internal_node_id":"0.0-8.0-2.63","subject":"lvmzafn6uwyzj3u","sona":"7636"},{"rt":378,"stimulus":"<p>Welche Sequenz haben Sie als natürlicher empfunden?</p>","key_press":70,"test_part":"response","test_stimulus":{"position":0,"left":"bvh/return-bottle-hold-training4-lines.txt","right":"bvh/vr_prediction_models/model(dmp)-dataset(return-bottle-hold)-npsi(30)-hold(4)/final-lines.txt","att_check":false},"trial_type":"html-keyboard-response","trial_index":262,"time_elapsed":590337,"internal_node_id":"0.0-8.0-3.63","subject":"lvmzafn6uwyzj3u","sona":"7636"},{"rt":404,"stimulus":"<p>Bereit?</p>","key_press":32,"trial_type":"html-keyboard-response","trial_index":263,"time_elapsed":590750,"internal_node_id":"0.0-8.0-0.64","subject":"lvmzafn6uwyzj3u","sona":"7636"},{"rt":null,"stimulus":"<div style=\"font-size:60px;\">+</div>","key_press":null,"trial_type":"html-keyboard-response","trial_index":264,"time_elapsed":592761,"internal_node_id":"0.0-8.0-1.64","subject":"lvmzafn6uwyzj3u","sona":"7636"},{"trial_type":"turing-test","trial_index":265,"time_elapsed":598287,"internal_node_id":"0.0-8.0-2.64","subject":"lvmzafn6uwyzj3u","sona":"7636"},{"rt":287,"stimulus":"<p>Welche Sequenz haben Sie als natürlicher empfunden?</p>","key_press":70,"test_part":"response","test_stimulus":{"position":0,"left":"bvh/pass-bottle-training1-lines.txt","right":"bvh/vr_prediction_models/model(vcgpdm)-dataset(pass-bottle)-mode(ELBO)-parts(1)-dyn(35)-lvm(30)-hold(1)/final-lines.txt","att_check":false},"trial_type":"html-keyboard-response","trial_index":266,"time_elapsed":598582,"internal_node_id":"0.0-8.0-3.64","subject":"lvmzafn6uwyzj3u","sona":"7636"},{"rt":414,"stimulus":"<p>Bereit?</p>","key_press":32,"trial_type":"html-keyboard-response","trial_index":267,"time_elapsed":599006,"internal_node_id":"0.0-8.0-0.65","subject":"lvmzafn6uwyzj3u","sona":"7636"},{"rt":null,"stimulus":"<div style=\"font-size:60px;\">+</div>","key_press":null,"trial_type":"html-keyboard-response","trial_index":268,"time_elapsed":601017,"internal_node_id":"0.0-8.0-1.65","subject":"lvmzafn6uwyzj3u","sona":"7636"},{"trial_type":"turing-test","trial_index":269,"time_elapsed":604520,"internal_node_id":"0.0-8.0-2.65","subject":"lvmzafn6uwyzj3u","sona":"7636"},{"rt":272,"stimulus":"<p>Welche Sequenz haben Sie als natürlicher empfunden?</p>","key_press":74,"test_part":"response","test_stimulus":{"position":0,"left":"bvh/return-bottle-hold-training1-lines.txt","right":"bvh/vr_prediction_models/model(tmp)-dataset(return-bottle-hold)-numprim(7)-hold(1)/final-lines.txt","att_check":false},"trial_type":"html-keyboard-response","trial_index":270,"time_elapsed":604799,"internal_node_id":"0.0-8.0-3.65","subject":"lvmzafn6uwyzj3u","sona":"7636"},{"rt":743,"stimulus":"<p>Bereit?</p>","key_press":32,"trial_type":"html-keyboard-response","trial_index":271,"time_elapsed":605551,"internal_node_id":"0.0-8.0-0.66","subject":"lvmzafn6uwyzj3u","sona":"7636"},{"rt":null,"stimulus":"<div style=\"font-size:60px;\">+</div>","key_press":null,"trial_type":"html-keyboard-response","trial_index":272,"time_elapsed":607569,"internal_node_id":"0.0-8.0-1.66","subject":"lvmzafn6uwyzj3u","sona":"7636"},{"trial_type":"turing-test","trial_index":273,"time_elapsed":613604,"internal_node_id":"0.0-8.0-2.66","subject":"lvmzafn6uwyzj3u","sona":"7636"},{"rt":103,"stimulus":"<p>Welche Sequenz haben Sie als natürlicher empfunden?</p>","key_press":74,"test_part":"response","test_stimulus":{"position":1,"left":"bvh/vr_prediction_models/model(vcgpdm)-dataset(return-bottle)-mode(ELBO)-parts(3)-dyn(20)-lvm(20)-hold(0)/final-lines.txt","right":"bvh/return-bottle-training0-lines.txt","att_check":false},"trial_type":"html-keyboard-response","trial_index":274,"time_elapsed":613716,"internal_node_id":"0.0-8.0-3.66","subject":"lvmzafn6uwyzj3u","sona":"7636"},{"rt":645,"stimulus":"<p>Bereit?</p>","key_press":32,"trial_type":"html-keyboard-response","trial_index":275,"time_elapsed":614369,"internal_node_id":"0.0-8.0-0.67","subject":"lvmzafn6uwyzj3u","sona":"7636"},{"rt":null,"stimulus":"<div style=\"font-size:60px;\">+</div>","key_press":null,"trial_type":"html-keyboard-response","trial_index":276,"time_elapsed":616395,"internal_node_id":"0.0-8.0-1.67","subject":"lvmzafn6uwyzj3u","sona":"7636"},{"trial_type":"turing-test","trial_index":277,"time_elapsed":620513,"internal_node_id":"0.0-8.0-2.67","subject":"lvmzafn6uwyzj3u","sona":"7636"},{"rt":575,"stimulus":"<p>Welche Sequenz haben Sie als natürlicher empfunden?</p>","key_press":70,"test_part":"response","test_stimulus":{"position":1,"left":"bvh/vr_prediction_models/model(vcgpdm)-dataset(pass-bottle-hold)-mode(ELBO)-parts(1)-dyn(25)-lvm(35)-hold(2)/final-lines.txt","right":"bvh/pass-bottle-hold-training2-lines.txt","att_check":false},"trial_type":"html-keyboard-response","trial_index":278,"time_elapsed":621097,"internal_node_id":"0.0-8.0-3.67","subject":"lvmzafn6uwyzj3u","sona":"7636"},{"rt":373,"stimulus":"<p>Bereit?</p>","key_press":32,"trial_type":"html-keyboard-response","trial_index":279,"time_elapsed":621479,"internal_node_id":"0.0-8.0-0.68","subject":"lvmzafn6uwyzj3u","sona":"7636"},{"rt":null,"stimulus":"<div style=\"font-size:60px;\">+</div>","key_press":null,"trial_type":"html-keyboard-response","trial_index":280,"time_elapsed":623503,"internal_node_id":"0.0-8.0-1.68","subject":"lvmzafn6uwyzj3u","sona":"7636"},{"trial_type":"turing-test","trial_index":281,"time_elapsed":630230,"internal_node_id":"0.0-8.0-2.68","subject":"lvmzafn6uwyzj3u","sona":"7636"},{"rt":637,"stimulus":"<p>Welche Sequenz haben Sie als natürlicher empfunden?</p>","key_press":70,"test_part":"response","test_stimulus":{"position":0,"left":"bvh/return-bottle-training1-lines.txt","right":"bvh/vr_prediction_models/model(vcgpdm)-dataset(return-bottle)-mode(ELBO)-parts(3)-dyn(10)-lvm(10)-hold(1)/final-lines.txt","att_check":false},"trial_type":"html-keyboard-response","trial_index":282,"time_elapsed":630875,"internal_node_id":"0.0-8.0-3.68","subject":"lvmzafn6uwyzj3u","sona":"7636"},{"rt":471,"stimulus":"<p>Bereit?</p>","key_press":32,"trial_type":"html-keyboard-response","trial_index":283,"time_elapsed":631355,"internal_node_id":"0.0-8.0-0.69","subject":"lvmzafn6uwyzj3u","sona":"7636"},{"rt":null,"stimulus":"<div style=\"font-size:60px;\">+</div>","key_press":null,"trial_type":"html-keyboard-response","trial_index":284,"time_elapsed":633370,"internal_node_id":"0.0-8.0-1.69","subject":"lvmzafn6uwyzj3u","sona":"7636"},{"trial_type":"turing-test","trial_index":285,"time_elapsed":640263,"internal_node_id":"0.0-8.0-2.69","subject":"lvmzafn6uwyzj3u","sona":"7636"},{"rt":408,"stimulus":"<p>Welche Sequenz haben Sie als natürlicher empfunden?</p>","key_press":70,"test_part":"response","test_stimulus":{"position":0,"left":"bvh/pass-bottle-training0-lines.txt","right":"bvh/vr_prediction_models/model(tmp)-dataset(pass-bottle)-numprim(10)-hold(0)/final-lines.txt","att_check":false},"trial_type":"html-keyboard-response","trial_index":286,"time_elapsed":640680,"internal_node_id":"0.0-8.0-3.69","subject":"lvmzafn6uwyzj3u","sona":"7636"},{"rt":430,"stimulus":"<p>Bereit?</p>","key_press":32,"trial_type":"html-keyboard-response","trial_index":287,"time_elapsed":641118,"internal_node_id":"0.0-8.0-0.70","subject":"lvmzafn6uwyzj3u","sona":"7636"},{"rt":null,"stimulus":"<div style=\"font-size:60px;\">+</div>","key_press":null,"trial_type":"html-keyboard-response","trial_index":288,"time_elapsed":643154,"internal_node_id":"0.0-8.0-1.70","subject":"lvmzafn6uwyzj3u","sona":"7636"},{"trial_type":"turing-test","trial_index":289,"time_elapsed":650385,"internal_node_id":"0.0-8.0-2.70","subject":"lvmzafn6uwyzj3u","sona":"7636"},{"rt":410,"stimulus":"<p>Welche Sequenz haben Sie als natürlicher empfunden?</p>","key_press":74,"test_part":"response","test_stimulus":{"position":1,"left":"bvh/vr_prediction_models/model(dmp)-dataset(pass-bottle)-npsi(80)-hold(3)/final-lines.txt","right":"bvh/pass-bottle-training3-lines.txt","att_check":false},"trial_type":"html-keyboard-response","trial_index":290,"time_elapsed":650803,"internal_node_id":"0.0-8.0-3.70","subject":"lvmzafn6uwyzj3u","sona":"7636"},{"rt":667,"stimulus":"<p>Bereit?</p>","key_press":32,"trial_type":"html-keyboard-response","trial_index":291,"time_elapsed":651479,"internal_node_id":"0.0-8.0-0.71","subject":"lvmzafn6uwyzj3u","sona":"7636"},{"rt":null,"stimulus":"<div style=\"font-size:60px;\">+</div>","key_press":null,"trial_type":"html-keyboard-response","trial_index":292,"time_elapsed":653505,"internal_node_id":"0.0-8.0-1.71","subject":"lvmzafn6uwyzj3u","sona":"7636"},{"trial_type":"turing-test","trial_index":293,"time_elapsed":657185,"internal_node_id":"0.0-8.0-2.71","subject":"lvmzafn6uwyzj3u","sona":"7636"},{"rt":335,"stimulus":"<p>Welche Sequenz haben Sie als natürlicher empfunden?</p>","key_press":74,"test_part":"response","test_stimulus":{"position":0,"left":"bvh/pass-bottle-hold-training3-lines.txt","right":"bvh/vr_prediction_models/model(tmp)-dataset(pass-bottle-hold)-numprim(13)-hold(3)/final-lines.txt","att_check":false},"trial_type":"html-keyboard-response","trial_index":294,"time_elapsed":657529,"internal_node_id":"0.0-8.0-3.71","subject":"lvmzafn6uwyzj3u","sona":"7636"},{"rt":489,"stimulus":"<p>Bereit?</p>","key_press":32,"trial_type":"html-keyboard-response","trial_index":295,"time_elapsed":658027,"internal_node_id":"0.0-8.0-0.72","subject":"lvmzafn6uwyzj3u","sona":"7636"},{"rt":null,"stimulus":"<div style=\"font-size:60px;\">+</div>","key_press":null,"trial_type":"html-keyboard-response","trial_index":296,"time_elapsed":660055,"internal_node_id":"0.0-8.0-1.72","subject":"lvmzafn6uwyzj3u","sona":"7636"},{"trial_type":"turing-test","trial_index":297,"time_elapsed":666102,"internal_node_id":"0.0-8.0-2.72","subject":"lvmzafn6uwyzj3u","sona":"7636"},{"rt":579,"stimulus":"<p>Welche Sequenz haben Sie als natürlicher empfunden?</p>","key_press":70,"test_part":"response","test_stimulus":{"position":0,"left":"bvh/pass-bottle-training3-lines.txt","right":"bvh/vr_prediction_models/model(tmp)-dataset(pass-bottle)-numprim(12)-hold(3)/final-lines.txt","att_check":false},"trial_type":"html-keyboard-response","trial_index":298,"time_elapsed":666690,"internal_node_id":"0.0-8.0-3.72","subject":"lvmzafn6uwyzj3u","sona":"7636"},{"rt":443,"stimulus":"<p>Bereit?</p>","key_press":32,"trial_type":"html-keyboard-response","trial_index":299,"time_elapsed":667142,"internal_node_id":"0.0-8.0-0.73","subject":"lvmzafn6uwyzj3u","sona":"7636"},{"rt":null,"stimulus":"<div style=\"font-size:60px;\">+</div>","key_press":null,"trial_type":"html-keyboard-response","trial_index":300,"time_elapsed":669162,"internal_node_id":"0.0-8.0-1.73","subject":"lvmzafn6uwyzj3u","sona":"7636"},{"trial_type":"turing-test","trial_index":301,"time_elapsed":674837,"internal_node_id":"0.0-8.0-2.73","subject":"lvmzafn6uwyzj3u","sona":"7636"},{"rt":413,"stimulus":"<p>Welche Sequenz haben Sie als natürlicher empfunden?</p>","key_press":70,"test_part":"response","test_stimulus":{"position":1,"left":"bvh/vr_prediction_models/model(tmp)-dataset(pass-bottle)-numprim(15)-hold(1)/final-lines.txt","right":"bvh/pass-bottle-training1-lines.txt","att_check":false},"trial_type":"html-keyboard-response","trial_index":302,"time_elapsed":675258,"internal_node_id":"0.0-8.0-3.73","subject":"lvmzafn6uwyzj3u","sona":"7636"},{"rt":705,"stimulus":"<p>Bereit?</p>","key_press":32,"trial_type":"html-keyboard-response","trial_index":303,"time_elapsed":675971,"internal_node_id":"0.0-8.0-0.74","subject":"lvmzafn6uwyzj3u","sona":"7636"},{"rt":null,"stimulus":"<div style=\"font-size:60px;\">+</div>","key_press":null,"trial_type":"html-keyboard-response","trial_index":304,"time_elapsed":677994,"internal_node_id":"0.0-8.0-1.74","subject":"lvmzafn6uwyzj3u","sona":"7636"},{"trial_type":"turing-test","trial_index":305,"time_elapsed":684714,"internal_node_id":"0.0-8.0-2.74","subject":"lvmzafn6uwyzj3u","sona":"7636"},{"rt":361,"stimulus":"<p>Welche Sequenz haben Sie als natürlicher empfunden?</p>","key_press":74,"test_part":"response","test_stimulus":{"position":1,"left":"bvh/vr_prediction_models/model(tmp)-dataset(pass-bottle)-numprim(10)-hold(0)/final-lines.txt","right":"bvh/pass-bottle-training0-lines.txt","att_check":false},"trial_type":"html-keyboard-response","trial_index":306,"time_elapsed":685084,"internal_node_id":"0.0-8.0-3.74","subject":"lvmzafn6uwyzj3u","sona":"7636"},{"rt":404,"stimulus":"<p>Bereit?</p>","key_press":32,"trial_type":"html-keyboard-response","trial_index":307,"time_elapsed":685496,"internal_node_id":"0.0-8.0-0.75","subject":"lvmzafn6uwyzj3u","sona":"7636"},{"rt":null,"stimulus":"<div style=\"font-size:60px;\">+</div>","key_press":null,"trial_type":"html-keyboard-response","trial_index":308,"time_elapsed":687502,"internal_node_id":"0.0-8.0-1.75","subject":"lvmzafn6uwyzj3u","sona":"7636"},{"trial_type":"turing-test","trial_index":309,"time_elapsed":695601,"internal_node_id":"0.0-8.0-2.75","subject":"lvmzafn6uwyzj3u","sona":"7636"},{"rt":470,"stimulus":"<p>Welche Sequenz haben Sie als natürlicher empfunden?</p>","key_press":74,"test_part":"response","test_stimulus":{"position":0,"left":"bvh/return-bottle-training2-lines.txt","right":"bvh/vr_prediction_models/model(vcgpdm)-dataset(return-bottle)-mode(ELBO)-parts(1)-dyn(10)-lvm(25)-hold(2)/final-lines.txt","att_check":false},"trial_type":"html-keyboard-response","trial_index":310,"time_elapsed":696081,"internal_node_id":"0.0-8.0-3.75","subject":"lvmzafn6uwyzj3u","sona":"7636"},{"rt":500,"stimulus":"<p>Bereit?</p>","key_press":32,"trial_type":"html-keyboard-response","trial_index":311,"time_elapsed":696588,"internal_node_id":"0.0-8.0-0.76","subject":"lvmzafn6uwyzj3u","sona":"7636"},{"rt":null,"stimulus":"<div style=\"font-size:60px;\">+</div>","key_press":null,"trial_type":"html-keyboard-response","trial_index":312,"time_elapsed":698611,"internal_node_id":"0.0-8.0-1.76","subject":"lvmzafn6uwyzj3u","sona":"7636"},{"trial_type":"turing-test","trial_index":313,"time_elapsed":703234,"internal_node_id":"0.0-8.0-2.76","subject":"lvmzafn6uwyzj3u","sona":"7636"},{"rt":421,"stimulus":"<p>Welche Sequenz haben Sie als natürlicher empfunden?</p>","key_press":74,"test_part":"response","test_stimulus":{"position":1,"left":"bvh/vr_prediction_models/model(dmp)-dataset(pass-bottle-hold)-npsi(80)-hold(4)/final-lines.txt","right":"bvh/pass-bottle-hold-training4-lines.txt","att_check":false},"trial_type":"html-keyboard-response","trial_index":314,"time_elapsed":703665,"internal_node_id":"0.0-8.0-3.76","subject":"lvmzafn6uwyzj3u","sona":"7636"},{"rt":746,"stimulus":"<p>Bereit?</p>","key_press":32,"trial_type":"html-keyboard-response","trial_index":315,"time_elapsed":704420,"internal_node_id":"0.0-8.0-0.77","subject":"lvmzafn6uwyzj3u","sona":"7636"},{"rt":null,"stimulus":"<div style=\"font-size:60px;\">+</div>","key_press":null,"trial_type":"html-keyboard-response","trial_index":316,"time_elapsed":706444,"internal_node_id":"0.0-8.0-1.77","subject":"lvmzafn6uwyzj3u","sona":"7636"},{"trial_type":"turing-test","trial_index":317,"time_elapsed":710881,"internal_node_id":"0.0-8.0-2.77","subject":"lvmzafn6uwyzj3u","sona":"7636"},{"rt":711,"stimulus":"<p>Welche Sequenz haben Sie als natürlicher empfunden?</p>","key_press":70,"test_part":"response","test_stimulus":{"position":0,"left":"bvh/return-bottle-hold-training3-lines.txt","right":"bvh/vr_prediction_models/model(vcgpdm)-dataset(return-bottle-hold)-mode(ELBO)-parts(3)-dyn(30)-lvm(15)-hold(3)/final-lines.txt","att_check":false},"trial_type":"html-keyboard-response","trial_index":318,"time_elapsed":711601,"internal_node_id":"0.0-8.0-3.77","subject":"lvmzafn6uwyzj3u","sona":"7636"},{"rt":465,"stimulus":"<p>Bereit?</p>","key_press":32,"trial_type":"html-keyboard-response","trial_index":319,"time_elapsed":712072,"internal_node_id":"0.0-8.0-0.78","subject":"lvmzafn6uwyzj3u","sona":"7636"},{"rt":null,"stimulus":"<div style=\"font-size:60px;\">+</div>","key_press":null,"trial_type":"html-keyboard-response","trial_index":320,"time_elapsed":714082,"internal_node_id":"0.0-8.0-1.78","subject":"lvmzafn6uwyzj3u","sona":"7636"},{"trial_type":"turing-test","trial_index":321,"time_elapsed":720798,"internal_node_id":"0.0-8.0-2.78","subject":"lvmzafn6uwyzj3u","sona":"7636"},{"rt":354,"stimulus":"<p>Welche Sequenz haben Sie als natürlicher empfunden?</p>","key_press":74,"test_part":"response","test_stimulus":{"position":0,"left":"bvh/return-bottle-training2-lines.txt","right":"bvh/vr_prediction_models/model(tmp)-dataset(return-bottle)-numprim(4)-hold(2)/final-lines.txt","att_check":false},"trial_type":"html-keyboard-response","trial_index":322,"time_elapsed":721162,"internal_node_id":"0.0-8.0-3.78","subject":"lvmzafn6uwyzj3u","sona":"7636"},{"rt":570,"stimulus":"<p>Bereit?</p>","key_press":32,"trial_type":"html-keyboard-response","trial_index":323,"time_elapsed":721742,"internal_node_id":"0.0-8.0-0.79","subject":"lvmzafn6uwyzj3u","sona":"7636"},{"rt":null,"stimulus":"<div style=\"font-size:60px;\">+</div>","key_press":null,"trial_type":"html-keyboard-response","trial_index":324,"time_elapsed":723767,"internal_node_id":"0.0-8.0-1.79","subject":"lvmzafn6uwyzj3u","sona":"7636"},{"trial_type":"turing-test","trial_index":325,"time_elapsed":731489,"internal_node_id":"0.0-8.0-2.79","subject":"lvmzafn6uwyzj3u","sona":"7636"},{"rt":295,"stimulus":"<p>Welche Sequenz haben Sie als natürlicher empfunden?</p>","key_press":74,"test_part":"response","test_stimulus":{"position":1,"left":"bvh/vr_prediction_models/model(vcgpdm)-dataset(return-bottle)-mode(ELBO)-parts(3)-dyn(25)-lvm(30)-hold(1)/final-lines.txt","right":"bvh/return-bottle-training1-lines.txt","att_check":false},"trial_type":"html-keyboard-response","trial_index":326,"time_elapsed":731794,"internal_node_id":"0.0-8.0-3.79","subject":"lvmzafn6uwyzj3u","sona":"7636"},{"rt":7795,"responses":"{\"age\":\"23\",\"gender\":\"weiblich\"}","trial_type":"survey-text","trial_index":327,"time_elapsed":739627,"internal_node_id":"0.0-10.0-0.0","subject":"lvmzafn6uwyzj3u","sona":"7636"},{"rt":51150,"responses":"{\"area\":\"Wirbelsäule, Arme, Oberschenkel\",\"Q1\":\"langsamer, Drehung, zu viel Bewegung in den Beinen, zu ruckartig\",\"Q2\":\"Drehung der gesamten Figur\"}","trial_type":"survey-text","trial_index":328,"time_elapsed":790809,"internal_node_id":"0.0-10.0-1.0","subject":"lvmzafn6uwyzj3u","sona":"7636"}]