[{"rt":11037,"stimulus":"<p>Welcome!<br> Please choose your language to start the experiment in the chosen language.</p><p>Willkommen!<br> Bitte wählen Sie eine Sprache, um das Experiment in der ausgewählten Sprache zu starten</p>","button_pressed":"1","trial_type":"html-button-response","trial_index":0,"time_elapsed":11053,"internal_node_id":"0.0-0.0","subject":"fnutntehgm5e4rc","sona":"9613"},{"view_history":"[{\"page_index\":0,\"viewing_time\":6105},{\"page_index\":1,\"viewing_time\":5608},{\"page_index\":2,\"viewing_time\":6123},{\"page_index\":3,\"viewing_time\":12589},{\"page_index\":4,\"viewing_time\":3525}]","rt":33951,"trial_type":"instructions","trial_index":1,"time_elapsed":45013,"internal_node_id":"0.0-1.0-0.0","subject":"fnutntehgm5e4rc","sona":"9613"},{"rt":2026,"stimulus":"<p>Bereit?</p>","key_press":32,"trial_type":"html-keyboard-response","trial_index":2,"time_elapsed":47047,"internal_node_id":"0.0-3.0","subject":"fnutntehgm5e4rc","sona":"9613"},{"rt":null,"stimulus":"<div style=\"font-size:60px;\">+</div>","key_press":null,"trial_type":"html-keyboard-response","trial_index":3,"time_elapsed":49050,"internal_node_id":"0.0-4.0","subject":"fnutntehgm5e4rc","sona":"9613"},{"trial_type":"training","trial_index":4,"time_elapsed":52757,"internal_node_id":"0.0-5.0","subject":"fnutntehgm5e4rc","sona":"9613"},{"rt":3390,"stimulus":"<p>Welche Sequenz haben Sie als natürlicher empfunden?</p>","key_press":70,"trial_type":"html-keyboard-response","trial_index":5,"time_elapsed":56152,"internal_node_id":"0.0-6.0","subject":"fnutntehgm5e4rc","sona":"9613"},{"rt":4523,"stimulus":"<p>Das Experiment startet nun.</p><p><small>Bitte drücken Sie den Knopf, wenn Sie bereit sind.</small></p>","button_pressed":"0","trial_type":"html-button-response","trial_index":6,"time_elapsed":60677,"internal_node_id":"0.0-7.0","subject":"fnutntehgm5e4rc","sona":"9613"},{"rt":2264,"stimulus":"<p>Bereit?</p>","key_press":32,"trial_type":"html-keyboard-response","trial_index":7,"time_elapsed":62947,"internal_node_id":"0.0-8.0-0.0","subject":"fnutntehgm5e4rc","sona":"9613"},{"rt":null,"stimulus":"<div style=\"font-size:60px;\">+</div>","key_press":null,"trial_type":"html-keyboard-response","trial_index":8,"time_elapsed":64950,"internal_node_id":"0.0-8.0-1.0","subject":"fnutntehgm5e4rc","sona":"9613"},{"trial_type":"turing-test","trial_index":9,"time_elapsed":71035,"internal_node_id":"0.0-8.0-2.0","subject":"fnutntehgm5e4rc","sona":"9613"},{"rt":2352,"stimulus":"<p>Welche Sequenz haben Sie als natürlicher empfunden?</p>","key_press":74,"test_part":"response","test_stimulus":{"position":0,"left":"bvh/return-bottle-training3-lines.txt","right":"bvh/vr_prediction_models/model(vcgpdm)-dataset(return-bottle)-mode(ELBO)-parts(3)-dyn(20)-lvm(35)-hold(3)/final-lines.txt","att_check":false},"trial_type":"html-keyboard-response","trial_index":10,"time_elapsed":73395,"internal_node_id":"0.0-8.0-3.0","subject":"fnutntehgm5e4rc","sona":"9613"},{"rt":1736,"stimulus":"<p>Bereit?</p>","key_press":32,"trial_type":"html-keyboard-response","trial_index":11,"time_elapsed":75138,"internal_node_id":"0.0-8.0-0.1","subject":"fnutntehgm5e4rc","sona":"9613"},{"rt":null,"stimulus":"<div style=\"font-size:60px;\">+</div>","key_press":null,"trial_type":"html-keyboard-response","trial_index":12,"time_elapsed":77140,"internal_node_id":"0.0-8.0-1.1","subject":"fnutntehgm5e4rc","sona":"9613"},{"trial_type":"turing-test","trial_index":13,"time_elapsed":80913,"internal_node_id":"0.0-8.0-2.1","subject":"fnutntehgm5e4rc","sona":"9613"},{"rt":1702,"stimulus":"<p>Welche Sequenz haben Sie als natürlicher empfunden?</p>","key_press":74,"test_part":"response","test_stimulus":{"position":1,"left":"bvh/vr_prediction_models/model(tmp)-dataset(return-bottle-hold)-numprim(3)-hold(3)/final-lines.txt","right":"bvh/return-bottle-hold-training3-lines.txt","att_check":false},"trial_type":"html-keyboard-response","trial_index":14,"time_elapsed":82621,"internal_node_id":"0.0-8.0-3.1","subject":"fnutntehgm5e4rc","sona":"9613"},{"rt":998,"stimulus":"<p>Bereit?</p>","key_press":32,"trial_type":"html-keyboard-response","trial_index":15,"time_elapsed":83622,"internal_node_id":"0.0-8.0-0.2","subject":"fnutntehgm5e4rc","sona":"9613"},{"rt":null,"stimulus":"<div style=\"font-size:60px;\">+</div>","key_press":null,"trial_type":"html-keyboard-response","trial_index":16,"time_elapsed":85625,"internal_node_id":"0.0-8.0-1.2","subject":"fnutntehgm5e4rc","sona":"9613"},{"trial_type":"turing-test","trial_index":17,"time_elapsed":91218,"internal_node_id":"0.0-8.0-2.2","subject":"fnutntehgm5e4rc","sona":"9613"},{"rt":1459,"stimulus":"<p>Welche Sequenz haben Sie als natürlicher empfunden?</p>","key_press":74,"test_part":"response","test_stimulus":{"position":1,"left":"bvh/vr_prediction_models/model(tmp)-dataset(pass-bottle)-numprim(14)-hold(1)/final-lines.txt","right":"bvh/pass-bottle-training1-lines.txt","att_check":false},"trial_type":"html-keyboard-response","trial_index":18,"time_elapsed":92682,"internal_node_id":"0.0-8.0-3.2","subject":"fnutntehgm5e4rc","sona":"9613"},{"rt":700,"stimulus":"<p>Bereit?</p>","key_press":32,"trial_type":"html-keyboard-response","trial_index":19,"time_elapsed":93385,"internal_node_id":"0.0-8.0-0.3","subject":"fnutntehgm5e4rc","sona":"9613"},{"rt":null,"stimulus":"<div style=\"font-size:60px;\">+</div>","key_press":null,"trial_type":"html-keyboard-response","trial_index":20,"time_elapsed":95389,"internal_node_id":"0.0-8.0-1.3","subject":"fnutntehgm5e4rc","sona":"9613"},{"trial_type":"turing-test","trial_index":21,"time_elapsed":98968,"internal_node_id":"0.0-8.0-2.3","subject":"fnutntehgm5e4rc","sona":"9613"},{"rt":819,"stimulus":"<p>Welche Sequenz haben Sie als natürlicher empfunden?</p>","key_press":70,"test_part":"response","test_stimulus":{"position":1,"left":"bvh/vr_prediction_models/model(vcgpdm)-dataset(pass-bottle-hold)-mode(ELBO)-parts(1)-dyn(20)-lvm(30)-hold(1)/final-lines.txt","right":"bvh/pass-bottle-hold-training1-lines.txt","att_check":false},"trial_type":"html-keyboard-response","trial_index":22,"time_elapsed":99791,"internal_node_id":"0.0-8.0-3.3","subject":"fnutntehgm5e4rc","sona":"9613"},{"rt":2585,"stimulus":"<p>Bereit?</p>","key_press":32,"trial_type":"html-keyboard-response","trial_index":23,"time_elapsed":102382,"internal_node_id":"0.0-8.0-0.4","subject":"fnutntehgm5e4rc","sona":"9613"},{"rt":null,"stimulus":"<div style=\"font-size:60px;\">+</div>","key_press":null,"trial_type":"html-keyboard-response","trial_index":24,"time_elapsed":104384,"internal_node_id":"0.0-8.0-1.4","subject":"fnutntehgm5e4rc","sona":"9613"},{"trial_type":"turing-test","trial_index":25,"time_elapsed":111338,"internal_node_id":"0.0-8.0-2.4","subject":"fnutntehgm5e4rc","sona":"9613"},{"rt":687,"stimulus":"<p>Welche Sequenz haben Sie als natürlicher empfunden?</p>","key_press":70,"test_part":"response","test_stimulus":{"position":0,"left":"bvh/return-bottle-training2-lines.txt","right":"bvh/vr_prediction_models/model(vcgpdm)-dataset(return-bottle)-mode(ELBO)-parts(1)-dyn(35)-lvm(30)-hold(2)/final-lines.txt","att_check":false},"trial_type":"html-keyboard-response","trial_index":26,"time_elapsed":112030,"internal_node_id":"0.0-8.0-3.4","subject":"fnutntehgm5e4rc","sona":"9613"},{"rt":1024,"stimulus":"<p>Bereit?</p>","key_press":32,"trial_type":"html-keyboard-response","trial_index":27,"time_elapsed":113057,"internal_node_id":"0.0-8.0-0.5","subject":"fnutntehgm5e4rc","sona":"9613"},{"rt":null,"stimulus":"<div style=\"font-size:60px;\">+</div>","key_press":null,"trial_type":"html-keyboard-response","trial_index":28,"time_elapsed":115059,"internal_node_id":"0.0-8.0-1.5","subject":"fnutntehgm5e4rc","sona":"9613"},{"trial_type":"turing-test","trial_index":29,"time_elapsed":118535,"internal_node_id":"0.0-8.0-2.5","subject":"fnutntehgm5e4rc","sona":"9613"},{"rt":1094,"stimulus":"<p>Welche Sequenz haben Sie als natürlicher empfunden?</p>","key_press":74,"test_part":"response","test_stimulus":{"position":1,"left":"bvh/vr_prediction_models/model(dmp)-dataset(pass-bottle-hold)-npsi(10)-hold(2)/final-lines.txt","right":"bvh/pass-bottle-hold-training2-lines.txt","att_check":false},"trial_type":"html-keyboard-response","trial_index":30,"time_elapsed":119635,"internal_node_id":"0.0-8.0-3.5","subject":"fnutntehgm5e4rc","sona":"9613"},{"rt":550,"stimulus":"<p>Bereit?</p>","key_press":32,"trial_type":"html-keyboard-response","trial_index":31,"time_elapsed":120189,"internal_node_id":"0.0-8.0-0.6","subject":"fnutntehgm5e4rc","sona":"9613"},{"rt":null,"stimulus":"<div style=\"font-size:60px;\">+</div>","key_press":null,"trial_type":"html-keyboard-response","trial_index":32,"time_elapsed":122193,"internal_node_id":"0.0-8.0-1.6","subject":"fnutntehgm5e4rc","sona":"9613"},{"trial_type":"turing-test","trial_index":33,"time_elapsed":128459,"internal_node_id":"0.0-8.0-2.6","subject":"fnutntehgm5e4rc","sona":"9613"},{"rt":479,"stimulus":"<p>Welche Sequenz haben Sie als natürlicher empfunden?</p>","key_press":74,"test_part":"response","test_stimulus":{"position":1,"left":"bvh/vr_prediction_models/model(tmp)-dataset(return-bottle)-numprim(6)-hold(1)/final-lines.txt","right":"bvh/return-bottle-training1-lines.txt","att_check":false},"trial_type":"html-keyboard-response","trial_index":34,"time_elapsed":128945,"internal_node_id":"0.0-8.0-3.6","subject":"fnutntehgm5e4rc","sona":"9613"},{"rt":509,"stimulus":"<p>Bereit?</p>","key_press":32,"trial_type":"html-keyboard-response","trial_index":35,"time_elapsed":129460,"internal_node_id":"0.0-8.0-0.7","subject":"fnutntehgm5e4rc","sona":"9613"},{"rt":null,"stimulus":"<div style=\"font-size:60px;\">+</div>","key_press":null,"trial_type":"html-keyboard-response","trial_index":36,"time_elapsed":131463,"internal_node_id":"0.0-8.0-1.7","subject":"fnutntehgm5e4rc","sona":"9613"},{"trial_type":"turing-test","trial_index":37,"time_elapsed":137757,"internal_node_id":"0.0-8.0-2.7","subject":"fnutntehgm5e4rc","sona":"9613"},{"rt":406,"stimulus":"<p>Welche Sequenz haben Sie als natürlicher empfunden?</p>","key_press":74,"test_part":"response","test_stimulus":{"position":0,"left":"bvh/pass-bottle-training2-lines.txt","right":"bvh/vr_prediction_models/model(tmp)-dataset(pass-bottle)-numprim(13)-hold(2)/final-lines.txt","att_check":false},"trial_type":"html-keyboard-response","trial_index":38,"time_elapsed":138169,"internal_node_id":"0.0-8.0-3.7","subject":"fnutntehgm5e4rc","sona":"9613"},{"rt":422,"stimulus":"<p>Bereit?</p>","key_press":32,"trial_type":"html-keyboard-response","trial_index":39,"time_elapsed":138597,"internal_node_id":"0.0-8.0-0.8","subject":"fnutntehgm5e4rc","sona":"9613"},{"rt":null,"stimulus":"<div style=\"font-size:60px;\">+</div>","key_press":null,"trial_type":"html-keyboard-response","trial_index":40,"time_elapsed":140600,"internal_node_id":"0.0-8.0-1.8","subject":"fnutntehgm5e4rc","sona":"9613"},{"trial_type":"turing-test","trial_index":41,"time_elapsed":146606,"internal_node_id":"0.0-8.0-2.8","subject":"fnutntehgm5e4rc","sona":"9613"},{"rt":371,"stimulus":"<p>Welche Sequenz haben Sie als natürlicher empfunden?</p>","key_press":74,"test_part":"response","test_stimulus":{"position":1,"left":"bvh/vr_prediction_models/model(dmp)-dataset(pass-bottle)-npsi(70)-hold(3)/final-lines.txt","right":"bvh/pass-bottle-training3-lines.txt","att_check":false},"trial_type":"html-keyboard-response","trial_index":42,"time_elapsed":146980,"internal_node_id":"0.0-8.0-3.8","subject":"fnutntehgm5e4rc","sona":"9613"},{"rt":515,"stimulus":"<p>Bereit?</p>","key_press":32,"trial_type":"html-keyboard-response","trial_index":43,"time_elapsed":147502,"internal_node_id":"0.0-8.0-0.9","subject":"fnutntehgm5e4rc","sona":"9613"},{"rt":null,"stimulus":"<div style=\"font-size:60px;\">+</div>","key_press":null,"trial_type":"html-keyboard-response","trial_index":44,"time_elapsed":149506,"internal_node_id":"0.0-8.0-1.9","subject":"fnutntehgm5e4rc","sona":"9613"},{"trial_type":"turing-test","trial_index":45,"time_elapsed":155502,"internal_node_id":"0.0-8.0-2.9","subject":"fnutntehgm5e4rc","sona":"9613"},{"rt":479,"stimulus":"<p>Welche Sequenz haben Sie als natürlicher empfunden?</p>","key_press":74,"test_part":"response","test_stimulus":{"position":1,"left":"bvh/vr_prediction_models/model(vcgpdm)-dataset(pass-bottle)-mode(ELBO)-parts(3)-dyn(20)-lvm(35)-hold(4)/final-lines.txt","right":"bvh/pass-bottle-training4-lines.txt","att_check":false},"trial_type":"html-keyboard-response","trial_index":46,"time_elapsed":155993,"internal_node_id":"0.0-8.0-3.9","subject":"fnutntehgm5e4rc","sona":"9613"},{"rt":541,"stimulus":"<p>Bereit?</p>","key_press":32,"trial_type":"html-keyboard-response","trial_index":47,"time_elapsed":156539,"internal_node_id":"0.0-8.0-0.10","subject":"fnutntehgm5e4rc","sona":"9613"},{"rt":null,"stimulus":"<div style=\"font-size:60px;\">+</div>","key_press":null,"trial_type":"html-keyboard-response","trial_index":48,"time_elapsed":158542,"internal_node_id":"0.0-8.0-1.10","subject":"fnutntehgm5e4rc","sona":"9613"},{"trial_type":"turing-test","trial_index":49,"time_elapsed":162028,"internal_node_id":"0.0-8.0-2.10","subject":"fnutntehgm5e4rc","sona":"9613"},{"rt":783,"stimulus":"<p>Welche Sequenz haben Sie als natürlicher empfunden?</p>","key_press":70,"test_part":"response","test_stimulus":{"position":0,"left":"bvh/return-bottle-hold-training1-lines.txt","right":"bvh/vr_prediction_models/model(tmp)-dataset(return-bottle-hold)-numprim(3)-hold(1)/final-lines.txt","att_check":false},"trial_type":"html-keyboard-response","trial_index":50,"time_elapsed":162819,"internal_node_id":"0.0-8.0-3.10","subject":"fnutntehgm5e4rc","sona":"9613"},{"rt":552,"stimulus":"<p>Bereit?</p>","key_press":32,"trial_type":"html-keyboard-response","trial_index":51,"time_elapsed":163375,"internal_node_id":"0.0-8.0-0.11","subject":"fnutntehgm5e4rc","sona":"9613"},{"rt":null,"stimulus":"<div style=\"font-size:60px;\">+</div>","key_press":null,"trial_type":"html-keyboard-response","trial_index":52,"time_elapsed":165377,"internal_node_id":"0.0-8.0-1.11","subject":"fnutntehgm5e4rc","sona":"9613"},{"trial_type":"turing-test","trial_index":53,"time_elapsed":168680,"internal_node_id":"0.0-8.0-2.11","subject":"fnutntehgm5e4rc","sona":"9613"}]