[{"rt":134025,"stimulus":"<p>Welcome!<br> Please choose your language to start the experiment in the chosen language.</p><p>Willkommen!<br> Bitte wählen Sie eine Sprache um das Experiment in der ausgewählten Sprache zu starten</p>","button_pressed":"1","trial_type":"html-button-response","trial_index":0,"time_elapsed":134092,"internal_node_id":"0.0-0.0","subject":"vd7l2um09l9oygd","sona":"THNS"},{"view_history":"[{\"page_index\":0,\"viewing_time\":15821},{\"page_index\":1,\"viewing_time\":111259},{\"page_index\":2,\"viewing_time\":436236},{\"page_index\":3,\"viewing_time\":269110},{\"page_index\":4,\"viewing_time\":11089}]","rt":843515,"trial_type":"instructions","trial_index":1,"time_elapsed":977611,"internal_node_id":"0.0-1.0-0.0","subject":"vd7l2um09l9oygd","sona":"THNS"},{"rt":2583,"stimulus":"<p>Bereit?</p>","key_press":32,"trial_type":"html-keyboard-response","trial_index":2,"time_elapsed":980197,"internal_node_id":"0.0-3.0","subject":"vd7l2um09l9oygd","sona":"THNS"},{"rt":null,"stimulus":"<div style=\"font-size:60px;\">+</div>","key_press":null,"trial_type":"html-keyboard-response","trial_index":3,"time_elapsed":982200,"internal_node_id":"0.0-4.0","subject":"vd7l2um09l9oygd","sona":"THNS"},{"trial_type":"training","trial_index":4,"time_elapsed":986839,"internal_node_id":"0.0-5.0","subject":"vd7l2um09l9oygd","sona":"THNS"},{"rt":2236,"stimulus":"<p>Welche Sequenz haben Sie als natürlicher empfunden?</p>","key_press":70,"trial_type":"html-keyboard-response","trial_index":5,"time_elapsed":989076,"internal_node_id":"0.0-6.0","subject":"vd7l2um09l9oygd","sona":"THNS"},{"rt":11796,"stimulus":"<p>Das Experiment startet nun.</p><p><small>Bitte drücken Sie den Knopf, wenn Sie bereit sind.</small></p>","button_pressed":"0","trial_type":"html-button-response","trial_index":6,"time_elapsed":1000875,"internal_node_id":"0.0-7.0","subject":"vd7l2um09l9oygd","sona":"THNS"},{"rt":2638,"stimulus":"<p>Bereit?</p>","key_press":32,"trial_type":"html-keyboard-response","trial_index":7,"time_elapsed":1003516,"internal_node_id":"0.0-8.0-0.0","subject":"vd7l2um09l9oygd","sona":"THNS"},{"rt":null,"stimulus":"<div style=\"font-size:60px;\">+</div>","key_press":null,"trial_type":"html-keyboard-response","trial_index":8,"time_elapsed":1005519,"internal_node_id":"0.0-8.0-1.0","subject":"vd7l2um09l9oygd","sona":"THNS"},{"trial_type":"turing-test","trial_index":9,"time_elapsed":1008945,"internal_node_id":"0.0-8.0-2.0","subject":"vd7l2um09l9oygd","sona":"THNS"},{"rt":3810,"stimulus":"<p>Welche Sequenz haben Sie als natürlicher empfunden?</p>","key_press":70,"test_part":"response","test_stimulus":{"position":0,"left":"bvh/pass-bottle-hold-training3-lines.txt","right":"bvh/vr_prediction_models/model(dmp)-dataset(pass-bottle-hold)-npsi(20)-hold(3)/final-lines.txt","att_check":true},"trial_type":"html-keyboard-response","trial_index":10,"time_elapsed":1012757,"internal_node_id":"0.0-8.0-3.0","subject":"vd7l2um09l9oygd","sona":"THNS"},{"rt":1004,"stimulus":"<p>Bereit?</p>","key_press":32,"trial_type":"html-keyboard-response","trial_index":11,"time_elapsed":1013764,"internal_node_id":"0.0-8.0-0.1","subject":"vd7l2um09l9oygd","sona":"THNS"},{"rt":null,"stimulus":"<div style=\"font-size:60px;\">+</div>","key_press":null,"trial_type":"html-keyboard-response","trial_index":12,"time_elapsed":1015766,"internal_node_id":"0.0-8.0-1.1","subject":"vd7l2um09l9oygd","sona":"THNS"},{"trial_type":"turing-test","trial_index":13,"time_elapsed":1018860,"internal_node_id":"0.0-8.0-2.1","subject":"vd7l2um09l9oygd","sona":"THNS"},{"rt":1428,"stimulus":"<p>Welche Sequenz haben Sie als natürlicher empfunden?</p>","key_press":74,"test_part":"response","test_stimulus":{"position":0,"left":"bvh/pass-bottle-hold-training1-lines.txt","right":"bvh/vr_prediction_models/model(dmp)-dataset(pass-bottle-hold)-npsi(90)-hold(1)/final-lines.txt","att_check":true},"trial_type":"html-keyboard-response","trial_index":14,"time_elapsed":1020292,"internal_node_id":"0.0-8.0-3.1","subject":"vd7l2um09l9oygd","sona":"THNS"},{"rt":975,"stimulus":"<p>Bereit?</p>","key_press":32,"trial_type":"html-keyboard-response","trial_index":15,"time_elapsed":1021268,"internal_node_id":"0.0-8.0-0.2","subject":"vd7l2um09l9oygd","sona":"THNS"},{"rt":null,"stimulus":"<div style=\"font-size:60px;\">+</div>","key_press":null,"trial_type":"html-keyboard-response","trial_index":16,"time_elapsed":1023270,"internal_node_id":"0.0-8.0-1.2","subject":"vd7l2um09l9oygd","sona":"THNS"},{"trial_type":"turing-test","trial_index":17,"time_elapsed":1026551,"internal_node_id":"0.0-8.0-2.2","subject":"vd7l2um09l9oygd","sona":"THNS"},{"rt":868,"stimulus":"<p>Welche Sequenz haben Sie als natürlicher empfunden?</p>","key_press":74,"test_part":"response","test_stimulus":{"position":1,"left":"bvh/vr_prediction_models/model(vcgpdm)-dataset(pass-bottle-hold)-mode(MAP)-parts(1)-hold(0)/final-lines.txt","right":"bvh/pass-bottle-hold-training0-lines.txt","att_check":false},"trial_type":"html-keyboard-response","trial_index":18,"time_elapsed":1027421,"internal_node_id":"0.0-8.0-3.2","subject":"vd7l2um09l9oygd","sona":"THNS"},{"rt":709,"stimulus":"<p>Bereit?</p>","key_press":32,"trial_type":"html-keyboard-response","trial_index":19,"time_elapsed":1028132,"internal_node_id":"0.0-8.0-0.3","subject":"vd7l2um09l9oygd","sona":"THNS"},{"rt":null,"stimulus":"<div style=\"font-size:60px;\">+</div>","key_press":null,"trial_type":"html-keyboard-response","trial_index":20,"time_elapsed":1030134,"internal_node_id":"0.0-8.0-1.3","subject":"vd7l2um09l9oygd","sona":"THNS"},{"trial_type":"turing-test","trial_index":21,"time_elapsed":1035734,"internal_node_id":"0.0-8.0-2.3","subject":"vd7l2um09l9oygd","sona":"THNS"},{"rt":2250,"stimulus":"<p>Welche Sequenz haben Sie als natürlicher empfunden?</p>","key_press":70,"test_part":"response","test_stimulus":{"position":0,"left":"bvh/pass-bottle-training4-lines.txt","right":"bvh/vr_prediction_models/model(tmp)-dataset(pass-bottle)-numprim(15)-hold(4)/final-lines.txt","att_check":false},"trial_type":"html-keyboard-response","trial_index":22,"time_elapsed":1037989,"internal_node_id":"0.0-8.0-3.3","subject":"vd7l2um09l9oygd","sona":"THNS"},{"rt":1013,"stimulus":"<p>Bereit?</p>","key_press":32,"trial_type":"html-keyboard-response","trial_index":23,"time_elapsed":1039004,"internal_node_id":"0.0-8.0-0.4","subject":"vd7l2um09l9oygd","sona":"THNS"},{"rt":null,"stimulus":"<div style=\"font-size:60px;\">+</div>","key_press":null,"trial_type":"html-keyboard-response","trial_index":24,"time_elapsed":1041005,"internal_node_id":"0.0-8.0-1.4","subject":"vd7l2um09l9oygd","sona":"THNS"},{"trial_type":"turing-test","trial_index":25,"time_elapsed":1046033,"internal_node_id":"0.0-8.0-2.4","subject":"vd7l2um09l9oygd","sona":"THNS"},{"rt":1017,"stimulus":"<p>Welche Sequenz haben Sie als natürlicher empfunden?</p>","key_press":74,"test_part":"response","test_stimulus":{"position":0,"left":"bvh/return-bottle-hold-training0-lines.txt","right":"bvh/vr_prediction_models/model(vcgpdm)-dataset(return-bottle-hold)-mode(ELBO)-parts(1)-dyn(20)-lvm(20)-hold(0)/final-lines.txt","att_check":false},"trial_type":"html-keyboard-response","trial_index":26,"time_elapsed":1047053,"internal_node_id":"0.0-8.0-3.4","subject":"vd7l2um09l9oygd","sona":"THNS"},{"rt":623,"stimulus":"<p>Bereit?</p>","key_press":32,"trial_type":"html-keyboard-response","trial_index":27,"time_elapsed":1047701,"internal_node_id":"0.0-8.0-0.5","subject":"vd7l2um09l9oygd","sona":"THNS"},{"rt":null,"stimulus":"<div style=\"font-size:60px;\">+</div>","key_press":null,"trial_type":"html-keyboard-response","trial_index":28,"time_elapsed":1049702,"internal_node_id":"0.0-8.0-1.5","subject":"vd7l2um09l9oygd","sona":"THNS"},{"trial_type":"turing-test","trial_index":29,"time_elapsed":1055692,"internal_node_id":"0.0-8.0-2.5","subject":"vd7l2um09l9oygd","sona":"THNS"},{"rt":1309,"stimulus":"<p>Welche Sequenz haben Sie als natürlicher empfunden?</p>","key_press":70,"test_part":"response","test_stimulus":{"position":0,"left":"bvh/return-bottle-training1-lines.txt","right":"bvh/vr_prediction_models/model(tmp)-dataset(return-bottle)-numprim(8)-hold(1)/final-lines.txt","att_check":false},"trial_type":"html-keyboard-response","trial_index":30,"time_elapsed":1057005,"internal_node_id":"0.0-8.0-3.5","subject":"vd7l2um09l9oygd","sona":"THNS"},{"rt":630,"stimulus":"<p>Bereit?</p>","key_press":32,"trial_type":"html-keyboard-response","trial_index":31,"time_elapsed":1057637,"internal_node_id":"0.0-8.0-0.6","subject":"vd7l2um09l9oygd","sona":"THNS"},{"rt":null,"stimulus":"<div style=\"font-size:60px;\">+</div>","key_press":null,"trial_type":"html-keyboard-response","trial_index":32,"time_elapsed":1059638,"internal_node_id":"0.0-8.0-1.6","subject":"vd7l2um09l9oygd","sona":"THNS"},{"trial_type":"turing-test","trial_index":33,"time_elapsed":1062981,"internal_node_id":"0.0-8.0-2.6","subject":"vd7l2um09l9oygd","sona":"THNS"},{"rt":678,"stimulus":"<p>Welche Sequenz haben Sie als natürlicher empfunden?</p>","key_press":70,"test_part":"response","test_stimulus":{"position":0,"left":"bvh/return-bottle-hold-training2-lines.txt","right":"bvh/vr_prediction_models/model(dmp)-dataset(return-bottle-hold)-npsi(20)-hold(2)/final-lines.txt","att_check":true},"trial_type":"html-keyboard-response","trial_index":34,"time_elapsed":1063661,"internal_node_id":"0.0-8.0-3.6","subject":"vd7l2um09l9oygd","sona":"THNS"},{"rt":733,"stimulus":"<p>Bereit?</p>","key_press":32,"trial_type":"html-keyboard-response","trial_index":35,"time_elapsed":1064397,"internal_node_id":"0.0-8.0-0.7","subject":"vd7l2um09l9oygd","sona":"THNS"},{"rt":null,"stimulus":"<div style=\"font-size:60px;\">+</div>","key_press":null,"trial_type":"html-keyboard-response","trial_index":36,"time_elapsed":1066399,"internal_node_id":"0.0-8.0-1.7","subject":"vd7l2um09l9oygd","sona":"THNS"},{"trial_type":"turing-test","trial_index":37,"time_elapsed":1071515,"internal_node_id":"0.0-8.0-2.7","subject":"vd7l2um09l9oygd","sona":"THNS"},{"rt":951,"stimulus":"<p>Welche Sequenz haben Sie als natürlicher empfunden?</p>","key_press":70,"test_part":"response","test_stimulus":{"position":0,"left":"bvh/return-bottle-hold-training0-lines.txt","right":"bvh/vr_prediction_models/model(vcgpdm)-dataset(return-bottle-hold)-mode(ELBO)-parts(1)-dyn(20)-lvm(5)-hold(0)/final-lines.txt","att_check":false},"trial_type":"html-keyboard-response","trial_index":38,"time_elapsed":1072469,"internal_node_id":"0.0-8.0-3.7","subject":"vd7l2um09l9oygd","sona":"THNS"},{"rt":436,"stimulus":"<p>Bereit?</p>","key_press":32,"trial_type":"html-keyboard-response","trial_index":39,"time_elapsed":1072907,"internal_node_id":"0.0-8.0-0.8","subject":"vd7l2um09l9oygd","sona":"THNS"},{"rt":null,"stimulus":"<div style=\"font-size:60px;\">+</div>","key_press":null,"trial_type":"html-keyboard-response","trial_index":40,"time_elapsed":1074908,"internal_node_id":"0.0-8.0-1.8","subject":"vd7l2um09l9oygd","sona":"THNS"},{"trial_type":"turing-test","trial_index":41,"time_elapsed":1078597,"internal_node_id":"0.0-8.0-2.8","subject":"vd7l2um09l9oygd","sona":"THNS"},{"rt":436,"stimulus":"<p>Welche Sequenz haben Sie als natürlicher empfunden?</p>","key_press":74,"test_part":"response","test_stimulus":{"position":1,"left":"bvh/vr_prediction_models/model(dmp)-dataset(return-bottle-hold)-npsi(100)-hold(4)/final-lines.txt","right":"bvh/return-bottle-hold-training4-lines.txt","att_check":false},"trial_type":"html-keyboard-response","trial_index":42,"time_elapsed":1079035,"internal_node_id":"0.0-8.0-3.8","subject":"vd7l2um09l9oygd","sona":"THNS"},{"rt":631,"stimulus":"<p>Bereit?</p>","key_press":32,"trial_type":"html-keyboard-response","trial_index":43,"time_elapsed":1079669,"internal_node_id":"0.0-8.0-0.9","subject":"vd7l2um09l9oygd","sona":"THNS"},{"rt":null,"stimulus":"<div style=\"font-size:60px;\">+</div>","key_press":null,"trial_type":"html-keyboard-response","trial_index":44,"time_elapsed":1081670,"internal_node_id":"0.0-8.0-1.9","subject":"vd7l2um09l9oygd","sona":"THNS"},{"trial_type":"turing-test","trial_index":45,"time_elapsed":1087025,"internal_node_id":"0.0-8.0-2.9","subject":"vd7l2um09l9oygd","sona":"THNS"},{"rt":2144,"stimulus":"<p>Welche Sequenz haben Sie als natürlicher empfunden?</p>","key_press":74,"test_part":"response","test_stimulus":{"position":1,"left":"bvh/vr_prediction_models/model(vcgpdm)-dataset(pass-bottle)-mode(ELBO)-parts(3)-dyn(20)-lvm(35)-hold(1)/final-lines.txt","right":"bvh/pass-bottle-training1-lines.txt","att_check":false},"trial_type":"html-keyboard-response","trial_index":46,"time_elapsed":1089174,"internal_node_id":"0.0-8.0-3.9","subject":"vd7l2um09l9oygd","sona":"THNS"},{"rt":805,"stimulus":"<p>Bereit?</p>","key_press":32,"trial_type":"html-keyboard-response","trial_index":47,"time_elapsed":1089981,"internal_node_id":"0.0-8.0-0.10","subject":"vd7l2um09l9oygd","sona":"THNS"},{"rt":null,"stimulus":"<div style=\"font-size:60px;\">+</div>","key_press":null,"trial_type":"html-keyboard-response","trial_index":48,"time_elapsed":1091982,"internal_node_id":"0.0-8.0-1.10","subject":"vd7l2um09l9oygd","sona":"THNS"},{"trial_type":"turing-test","trial_index":49,"time_elapsed":1095448,"internal_node_id":"0.0-8.0-2.10","subject":"vd7l2um09l9oygd","sona":"THNS"},{"rt":755,"stimulus":"<p>Welche Sequenz haben Sie als natürlicher empfunden?</p>","key_press":74,"test_part":"response","test_stimulus":{"position":0,"left":"bvh/return-bottle-hold-training2-lines.txt","right":"bvh/vr_prediction_models/model(vcgpdm)-dataset(return-bottle-hold)-mode(ELBO)-parts(3)-dyn(25)-lvm(25)-hold(2)/final-lines.txt","att_check":false},"trial_type":"html-keyboard-response","trial_index":50,"time_elapsed":1096205,"internal_node_id":"0.0-8.0-3.10","subject":"vd7l2um09l9oygd","sona":"THNS"},{"rt":500,"stimulus":"<p>Bereit?</p>","key_press":32,"trial_type":"html-keyboard-response","trial_index":51,"time_elapsed":1096709,"internal_node_id":"0.0-8.0-0.11","subject":"vd7l2um09l9oygd","sona":"THNS"},{"rt":null,"stimulus":"<div style=\"font-size:60px;\">+</div>","key_press":null,"trial_type":"html-keyboard-response","trial_index":52,"time_elapsed":1098711,"internal_node_id":"0.0-8.0-1.11","subject":"vd7l2um09l9oygd","sona":"THNS"},{"trial_type":"turing-test","trial_index":53,"time_elapsed":1104481,"internal_node_id":"0.0-8.0-2.11","subject":"vd7l2um09l9oygd","sona":"THNS"},{"rt":3841,"stimulus":"<p>Welche Sequenz haben Sie als natürlicher empfunden?</p>","key_press":70,"test_part":"response","test_stimulus":{"position":0,"left":"bvh/pass-bottle-training3-lines.txt","right":"bvh/vr_prediction_models/model(vcgpdm)-dataset(pass-bottle)-mode(ELBO)-parts(3)-dyn(25)-lvm(25)-hold(3)/final-lines.txt","att_check":false},"trial_type":"html-keyboard-response","trial_index":54,"time_elapsed":1108325,"internal_node_id":"0.0-8.0-3.11","subject":"vd7l2um09l9oygd","sona":"THNS"},{"rt":350,"stimulus":"<p>Bereit?</p>","key_press":32,"trial_type":"html-keyboard-response","trial_index":55,"time_elapsed":1108677,"internal_node_id":"0.0-8.0-0.12","subject":"vd7l2um09l9oygd","sona":"THNS"},{"rt":null,"stimulus":"<div style=\"font-size:60px;\">+</div>","key_press":null,"trial_type":"html-keyboard-response","trial_index":56,"time_elapsed":1110679,"internal_node_id":"0.0-8.0-1.12","subject":"vd7l2um09l9oygd","sona":"THNS"},{"trial_type":"turing-test","trial_index":57,"time_elapsed":1115986,"internal_node_id":"0.0-8.0-2.12","subject":"vd7l2um09l9oygd","sona":"THNS"},{"rt":665,"stimulus":"<p>Welche Sequenz haben Sie als natürlicher empfunden?</p>","key_press":74,"test_part":"response","test_stimulus":{"position":0,"left":"bvh/pass-bottle-training1-lines.txt","right":"bvh/vr_prediction_models/model(tmp)-dataset(pass-bottle)-numprim(15)-hold(1)/final-lines.txt","att_check":false},"trial_type":"html-keyboard-response","trial_index":58,"time_elapsed":1116654,"internal_node_id":"0.0-8.0-3.12","subject":"vd7l2um09l9oygd","sona":"THNS"},{"rt":485,"stimulus":"<p>Bereit?</p>","key_press":32,"trial_type":"html-keyboard-response","trial_index":59,"time_elapsed":1117141,"internal_node_id":"0.0-8.0-0.13","subject":"vd7l2um09l9oygd","sona":"THNS"},{"rt":null,"stimulus":"<div style=\"font-size:60px;\">+</div>","key_press":null,"trial_type":"html-keyboard-response","trial_index":60,"time_elapsed":1119142,"internal_node_id":"0.0-8.0-1.13","subject":"vd7l2um09l9oygd","sona":"THNS"},{"trial_type":"turing-test","trial_index":61,"time_elapsed":1125579,"internal_node_id":"0.0-8.0-2.13","subject":"vd7l2um09l9oygd","sona":"THNS"},{"rt":543,"stimulus":"<p>Welche Sequenz haben Sie als natürlicher empfunden?</p>","key_press":70,"test_part":"response","test_stimulus":{"position":0,"left":"bvh/return-bottle-training2-lines.txt","right":"bvh/vr_prediction_models/model(dmp)-dataset(return-bottle)-npsi(10)-hold(2)/final-lines.txt","att_check":true},"trial_type":"html-keyboard-response","trial_index":62,"time_elapsed":1126123,"internal_node_id":"0.0-8.0-3.13","subject":"vd7l2um09l9oygd","sona":"THNS"},{"rt":360,"stimulus":"<p>Bereit?</p>","key_press":32,"trial_type":"html-keyboard-response","trial_index":63,"time_elapsed":1126485,"internal_node_id":"0.0-8.0-0.14","subject":"vd7l2um09l9oygd","sona":"THNS"},{"rt":null,"stimulus":"<div style=\"font-size:60px;\">+</div>","key_press":null,"trial_type":"html-keyboard-response","trial_index":64,"time_elapsed":1128486,"internal_node_id":"0.0-8.0-1.14","subject":"vd7l2um09l9oygd","sona":"THNS"},{"trial_type":"turing-test","trial_index":65,"time_elapsed":1132239,"internal_node_id":"0.0-8.0-2.14","subject":"vd7l2um09l9oygd","sona":"THNS"},{"rt":1156,"stimulus":"<p>Welche Sequenz haben Sie als natürlicher empfunden?</p>","key_press":70,"test_part":"response","test_stimulus":{"position":1,"left":"bvh/vr_prediction_models/model(vcgpdm)-dataset(pass-bottle-hold)-mode(ELBO)-parts(1)-dyn(30)-lvm(35)-hold(3)/final-lines.txt","right":"bvh/pass-bottle-hold-training3-lines.txt","att_check":false},"trial_type":"html-keyboard-response","trial_index":66,"time_elapsed":1133395,"internal_node_id":"0.0-8.0-3.14","subject":"vd7l2um09l9oygd","sona":"THNS"},{"rt":407,"stimulus":"<p>Bereit?</p>","key_press":32,"trial_type":"html-keyboard-response","trial_index":67,"time_elapsed":1133804,"internal_node_id":"0.0-8.0-0.15","subject":"vd7l2um09l9oygd","sona":"THNS"},{"rt":null,"stimulus":"<div style=\"font-size:60px;\">+</div>","key_press":null,"trial_type":"html-keyboard-response","trial_index":68,"time_elapsed":1135804,"internal_node_id":"0.0-8.0-1.15","subject":"vd7l2um09l9oygd","sona":"THNS"},{"trial_type":"turing-test","trial_index":69,"time_elapsed":1142932,"internal_node_id":"0.0-8.0-2.15","subject":"vd7l2um09l9oygd","sona":"THNS"},{"rt":3157,"stimulus":"<p>Welche Sequenz haben Sie als natürlicher empfunden?</p>","key_press":74,"test_part":"response","test_stimulus":{"position":1,"left":"bvh/vr_prediction_models/model(tmp)-dataset(pass-bottle)-numprim(9)-hold(2)/final-lines.txt","right":"bvh/pass-bottle-training2-lines.txt","att_check":false},"trial_type":"html-keyboard-response","trial_index":70,"time_elapsed":1146090,"internal_node_id":"0.0-8.0-3.15","subject":"vd7l2um09l9oygd","sona":"THNS"},{"rt":1481,"stimulus":"<p>Bereit?</p>","key_press":32,"trial_type":"html-keyboard-response","trial_index":71,"time_elapsed":1147573,"internal_node_id":"0.0-8.0-0.16","subject":"vd7l2um09l9oygd","sona":"THNS"},{"rt":null,"stimulus":"<div style=\"font-size:60px;\">+</div>","key_press":null,"trial_type":"html-keyboard-response","trial_index":72,"time_elapsed":1149579,"internal_node_id":"0.0-8.0-1.16","subject":"vd7l2um09l9oygd","sona":"THNS"},{"trial_type":"turing-test","trial_index":73,"time_elapsed":1156323,"internal_node_id":"0.0-8.0-2.16","subject":"vd7l2um09l9oygd","sona":"THNS"},{"rt":682,"stimulus":"<p>Welche Sequenz haben Sie als natürlicher empfunden?</p>","key_press":74,"test_part":"response","test_stimulus":{"position":1,"left":"bvh/vr_prediction_models/model(vcgpdm)-dataset(return-bottle)-mode(ELBO)-parts(1)-dyn(10)-lvm(5)-hold(2)/final-lines.txt","right":"bvh/return-bottle-training2-lines.txt","att_check":false},"trial_type":"html-keyboard-response","trial_index":74,"time_elapsed":1157037,"internal_node_id":"0.0-8.0-3.16","subject":"vd7l2um09l9oygd","sona":"THNS"},{"rt":529,"stimulus":"<p>Bereit?</p>","key_press":32,"trial_type":"html-keyboard-response","trial_index":75,"time_elapsed":1157596,"internal_node_id":"0.0-8.0-0.17","subject":"vd7l2um09l9oygd","sona":"THNS"},{"rt":null,"stimulus":"<div style=\"font-size:60px;\">+</div>","key_press":null,"trial_type":"html-keyboard-response","trial_index":76,"time_elapsed":1159597,"internal_node_id":"0.0-8.0-1.17","subject":"vd7l2um09l9oygd","sona":"THNS"},{"trial_type":"turing-test","trial_index":77,"time_elapsed":1162917,"internal_node_id":"0.0-8.0-2.17","subject":"vd7l2um09l9oygd","sona":"THNS"},{"rt":3934,"stimulus":"<p>Welche Sequenz haben Sie als natürlicher empfunden?</p>","key_press":74,"test_part":"response","test_stimulus":{"position":0,"left":"bvh/pass-bottle-hold-training0-lines.txt","right":"bvh/vr_prediction_models/model(dmp)-dataset(pass-bottle-hold)-npsi(20)-hold(0)/final-lines.txt","att_check":false},"trial_type":"html-keyboard-response","trial_index":78,"time_elapsed":1166854,"internal_node_id":"0.0-8.0-3.17","subject":"vd7l2um09l9oygd","sona":"THNS"},{"rt":1204,"stimulus":"<p>Bereit?</p>","key_press":32,"trial_type":"html-keyboard-response","trial_index":79,"time_elapsed":1168062,"internal_node_id":"0.0-8.0-0.18","subject":"vd7l2um09l9oygd","sona":"THNS"},{"rt":null,"stimulus":"<div style=\"font-size:60px;\">+</div>","key_press":null,"trial_type":"html-keyboard-response","trial_index":80,"time_elapsed":1170084,"internal_node_id":"0.0-8.0-1.18","subject":"vd7l2um09l9oygd","sona":"THNS"},{"trial_type":"turing-test","trial_index":81,"time_elapsed":1175465,"internal_node_id":"0.0-8.0-2.18","subject":"vd7l2um09l9oygd","sona":"THNS"},{"rt":2106,"stimulus":"<p>Welche Sequenz haben Sie als natürlicher empfunden?</p>","key_press":70,"test_part":"response","test_stimulus":{"position":1,"left":"bvh/vr_prediction_models/model(tmp)-dataset(return-bottle)-numprim(15)-hold(0)/final-lines.txt","right":"bvh/return-bottle-training0-lines.txt","att_check":false},"trial_type":"html-keyboard-response","trial_index":82,"time_elapsed":1177598,"internal_node_id":"0.0-8.0-3.18","subject":"vd7l2um09l9oygd","sona":"THNS"},{"rt":532,"stimulus":"<p>Bereit?</p>","key_press":32,"trial_type":"html-keyboard-response","trial_index":83,"time_elapsed":1178133,"internal_node_id":"0.0-8.0-0.19","subject":"vd7l2um09l9oygd","sona":"THNS"},{"rt":null,"stimulus":"<div style=\"font-size:60px;\">+</div>","key_press":null,"trial_type":"html-keyboard-response","trial_index":84,"time_elapsed":1180134,"internal_node_id":"0.0-8.0-1.19","subject":"vd7l2um09l9oygd","sona":"THNS"},{"trial_type":"turing-test","trial_index":85,"time_elapsed":1183456,"internal_node_id":"0.0-8.0-2.19","subject":"vd7l2um09l9oygd","sona":"THNS"},{"rt":1739,"stimulus":"<p>Welche Sequenz haben Sie als natürlicher empfunden?</p>","key_press":74,"test_part":"response","test_stimulus":{"position":0,"left":"bvh/pass-bottle-hold-training0-lines.txt","right":"bvh/vr_prediction_models/model(tmp)-dataset(pass-bottle-hold)-numprim(6)-hold(0)/final-lines.txt","att_check":false},"trial_type":"html-keyboard-response","trial_index":86,"time_elapsed":1185198,"internal_node_id":"0.0-8.0-3.19","subject":"vd7l2um09l9oygd","sona":"THNS"},{"rt":469,"stimulus":"<p>Bereit?</p>","key_press":32,"trial_type":"html-keyboard-response","trial_index":87,"time_elapsed":1185670,"internal_node_id":"0.0-8.0-0.20","subject":"vd7l2um09l9oygd","sona":"THNS"},{"rt":null,"stimulus":"<div style=\"font-size:60px;\">+</div>","key_press":null,"trial_type":"html-keyboard-response","trial_index":88,"time_elapsed":1187672,"internal_node_id":"0.0-8.0-1.20","subject":"vd7l2um09l9oygd","sona":"THNS"},{"trial_type":"turing-test","trial_index":89,"time_elapsed":1192731,"internal_node_id":"0.0-8.0-2.20","subject":"vd7l2um09l9oygd","sona":"THNS"},{"rt":591,"stimulus":"<p>Welche Sequenz haben Sie als natürlicher empfunden?</p>","key_press":74,"test_part":"response","test_stimulus":{"position":1,"left":"bvh/vr_prediction_models/model(dmp)-dataset(return-bottle-hold)-npsi(20)-hold(0)/final-lines.txt","right":"bvh/return-bottle-hold-training0-lines.txt","att_check":false},"trial_type":"html-keyboard-response","trial_index":90,"time_elapsed":1193325,"internal_node_id":"0.0-8.0-3.20","subject":"vd7l2um09l9oygd","sona":"THNS"},{"rt":469,"stimulus":"<p>Bereit?</p>","key_press":32,"trial_type":"html-keyboard-response","trial_index":91,"time_elapsed":1193798,"internal_node_id":"0.0-8.0-0.21","subject":"vd7l2um09l9oygd","sona":"THNS"},{"rt":null,"stimulus":"<div style=\"font-size:60px;\">+</div>","key_press":null,"trial_type":"html-keyboard-response","trial_index":92,"time_elapsed":1195799,"internal_node_id":"0.0-8.0-1.21","subject":"vd7l2um09l9oygd","sona":"THNS"},{"trial_type":"turing-test","trial_index":93,"time_elapsed":1199303,"internal_node_id":"0.0-8.0-2.21","subject":"vd7l2um09l9oygd","sona":"THNS"},{"rt":2899,"stimulus":"<p>Welche Sequenz haben Sie als natürlicher empfunden?</p>","key_press":70,"test_part":"response","test_stimulus":{"position":0,"left":"bvh/pass-bottle-hold-training2-lines.txt","right":"bvh/vr_prediction_models/model(vcgpdm)-dataset(pass-bottle-hold)-mode(ELBO)-parts(3)-dyn(25)-lvm(15)-hold(2)/final-lines.txt","att_check":false},"trial_type":"html-keyboard-response","trial_index":94,"time_elapsed":1202206,"internal_node_id":"0.0-8.0-3.21","subject":"vd7l2um09l9oygd","sona":"THNS"},{"rt":460,"stimulus":"<p>Bereit?</p>","key_press":32,"trial_type":"html-keyboard-response","trial_index":95,"time_elapsed":1202669,"internal_node_id":"0.0-8.0-0.22","subject":"vd7l2um09l9oygd","sona":"THNS"},{"rt":null,"stimulus":"<div style=\"font-size:60px;\">+</div>","key_press":null,"trial_type":"html-keyboard-response","trial_index":96,"time_elapsed":1204671,"internal_node_id":"0.0-8.0-1.22","subject":"vd7l2um09l9oygd","sona":"THNS"},{"trial_type":"turing-test","trial_index":97,"time_elapsed":1210393,"internal_node_id":"0.0-8.0-2.22","subject":"vd7l2um09l9oygd","sona":"THNS"},{"rt":1505,"stimulus":"<p>Welche Sequenz haben Sie als natürlicher empfunden?</p>","key_press":74,"test_part":"response","test_stimulus":{"position":1,"left":"bvh/vr_prediction_models/model(vcgpdm)-dataset(return-bottle)-mode(ELBO)-parts(1)-dyn(10)-lvm(5)-hold(4)/final-lines.txt","right":"bvh/return-bottle-training4-lines.txt","att_check":false},"trial_type":"html-keyboard-response","trial_index":98,"time_elapsed":1211902,"internal_node_id":"0.0-8.0-3.22","subject":"vd7l2um09l9oygd","sona":"THNS"},{"rt":804,"stimulus":"<p>Bereit?</p>","key_press":32,"trial_type":"html-keyboard-response","trial_index":99,"time_elapsed":1212710,"internal_node_id":"0.0-8.0-0.23","subject":"vd7l2um09l9oygd","sona":"THNS"},{"rt":null,"stimulus":"<div style=\"font-size:60px;\">+</div>","key_press":null,"trial_type":"html-keyboard-response","trial_index":100,"time_elapsed":1214711,"internal_node_id":"0.0-8.0-1.23","subject":"vd7l2um09l9oygd","sona":"THNS"},{"trial_type":"turing-test","trial_index":101,"time_elapsed":1222440,"internal_node_id":"0.0-8.0-2.23","subject":"vd7l2um09l9oygd","sona":"THNS"},{"rt":3012,"stimulus":"<p>Welche Sequenz haben Sie als natürlicher empfunden?</p>","key_press":70,"test_part":"response","test_stimulus":{"position":0,"left":"bvh/return-bottle-training4-lines.txt","right":"bvh/vr_prediction_models/model(dmp)-dataset(return-bottle)-npsi(50)-hold(4)/final-lines.txt","att_check":false},"trial_type":"html-keyboard-response","trial_index":102,"time_elapsed":1225452,"internal_node_id":"0.0-8.0-3.23","subject":"vd7l2um09l9oygd","sona":"THNS"},{"rt":737,"stimulus":"<p>Bereit?</p>","key_press":32,"trial_type":"html-keyboard-response","trial_index":103,"time_elapsed":1226190,"internal_node_id":"0.0-8.0-0.24","subject":"vd7l2um09l9oygd","sona":"THNS"},{"rt":null,"stimulus":"<div style=\"font-size:60px;\">+</div>","key_press":null,"trial_type":"html-keyboard-response","trial_index":104,"time_elapsed":1228192,"internal_node_id":"0.0-8.0-1.24","subject":"vd7l2um09l9oygd","sona":"THNS"},{"trial_type":"turing-test","trial_index":105,"time_elapsed":1231497,"internal_node_id":"0.0-8.0-2.24","subject":"vd7l2um09l9oygd","sona":"THNS"},{"rt":2504,"stimulus":"<p>Welche Sequenz haben Sie als natürlicher empfunden?</p>","key_press":74,"test_part":"response","test_stimulus":{"position":0,"left":"bvh/pass-bottle-hold-training0-lines.txt","right":"bvh/vr_prediction_models/model(vcgpdm)-dataset(pass-bottle-hold)-mode(ELBO)-parts(3)-dyn(20)-lvm(35)-hold(0)/final-lines.txt","att_check":false},"trial_type":"html-keyboard-response","trial_index":106,"time_elapsed":1234005,"internal_node_id":"0.0-8.0-3.24","subject":"vd7l2um09l9oygd","sona":"THNS"},{"rt":400,"stimulus":"<p>Bereit?</p>","key_press":32,"trial_type":"html-keyboard-response","trial_index":107,"time_elapsed":1234406,"internal_node_id":"0.0-8.0-0.25","subject":"vd7l2um09l9oygd","sona":"THNS"},{"rt":null,"stimulus":"<div style=\"font-size:60px;\">+</div>","key_press":null,"trial_type":"html-keyboard-response","trial_index":108,"time_elapsed":1236407,"internal_node_id":"0.0-8.0-1.25","subject":"vd7l2um09l9oygd","sona":"THNS"},{"trial_type":"turing-test","trial_index":109,"time_elapsed":1239839,"internal_node_id":"0.0-8.0-2.25","subject":"vd7l2um09l9oygd","sona":"THNS"},{"rt":1169,"stimulus":"<p>Welche Sequenz haben Sie als natürlicher empfunden?</p>","key_press":74,"test_part":"response","test_stimulus":{"position":1,"left":"bvh/vr_prediction_models/model(vcgpdm)-dataset(return-bottle-hold)-mode(ELBO)-parts(1)-dyn(30)-lvm(30)-hold(2)/final-lines.txt","right":"bvh/return-bottle-hold-training2-lines.txt","att_check":false},"trial_type":"html-keyboard-response","trial_index":110,"time_elapsed":1241012,"internal_node_id":"0.0-8.0-3.25","subject":"vd7l2um09l9oygd","sona":"THNS"},{"rt":560,"stimulus":"<p>Bereit?</p>","key_press":32,"trial_type":"html-keyboard-response","trial_index":111,"time_elapsed":1241574,"internal_node_id":"0.0-8.0-0.26","subject":"vd7l2um09l9oygd","sona":"THNS"},{"rt":null,"stimulus":"<div style=\"font-size:60px;\">+</div>","key_press":null,"trial_type":"html-keyboard-response","trial_index":112,"time_elapsed":1243575,"internal_node_id":"0.0-8.0-1.26","subject":"vd7l2um09l9oygd","sona":"THNS"},{"trial_type":"turing-test","trial_index":113,"time_elapsed":1249472,"internal_node_id":"0.0-8.0-2.26","subject":"vd7l2um09l9oygd","sona":"THNS"},{"rt":962,"stimulus":"<p>Welche Sequenz haben Sie als natürlicher empfunden?</p>","key_press":74,"test_part":"response","test_stimulus":{"position":1,"left":"bvh/vr_prediction_models/model(vcgpdm)-dataset(pass-bottle)-mode(ELBO)-parts(1)-dyn(30)-lvm(30)-hold(3)/final-lines.txt","right":"bvh/pass-bottle-training3-lines.txt","att_check":false},"trial_type":"html-keyboard-response","trial_index":114,"time_elapsed":1250438,"internal_node_id":"0.0-8.0-3.26","subject":"vd7l2um09l9oygd","sona":"THNS"},{"rt":412,"stimulus":"<p>Bereit?</p>","key_press":32,"trial_type":"html-keyboard-response","trial_index":115,"time_elapsed":1250854,"internal_node_id":"0.0-8.0-0.27","subject":"vd7l2um09l9oygd","sona":"THNS"},{"rt":null,"stimulus":"<div style=\"font-size:60px;\">+</div>","key_press":null,"trial_type":"html-keyboard-response","trial_index":116,"time_elapsed":1252855,"internal_node_id":"0.0-8.0-1.27","subject":"vd7l2um09l9oygd","sona":"THNS"},{"trial_type":"turing-test","trial_index":117,"time_elapsed":1257931,"internal_node_id":"0.0-8.0-2.27","subject":"vd7l2um09l9oygd","sona":"THNS"},{"rt":824,"stimulus":"<p>Welche Sequenz haben Sie als natürlicher empfunden?</p>","key_press":70,"test_part":"response","test_stimulus":{"position":0,"left":"bvh/return-bottle-hold-training0-lines.txt","right":"bvh/vr_prediction_models/model(dmp)-dataset(return-bottle-hold)-npsi(30)-hold(0)/final-lines.txt","att_check":true},"trial_type":"html-keyboard-response","trial_index":118,"time_elapsed":1258759,"internal_node_id":"0.0-8.0-3.27","subject":"vd7l2um09l9oygd","sona":"THNS"},{"rt":386,"stimulus":"<p>Bereit?</p>","key_press":32,"trial_type":"html-keyboard-response","trial_index":119,"time_elapsed":1259150,"internal_node_id":"0.0-8.0-0.28","subject":"vd7l2um09l9oygd","sona":"THNS"},{"rt":null,"stimulus":"<div style=\"font-size:60px;\">+</div>","key_press":null,"trial_type":"html-keyboard-response","trial_index":120,"time_elapsed":1261152,"internal_node_id":"0.0-8.0-1.28","subject":"vd7l2um09l9oygd","sona":"THNS"},{"trial_type":"turing-test","trial_index":121,"time_elapsed":1266976,"internal_node_id":"0.0-8.0-2.28","subject":"vd7l2um09l9oygd","sona":"THNS"},{"rt":1404,"stimulus":"<p>Welche Sequenz haben Sie als natürlicher empfunden?</p>","key_press":70,"test_part":"response","test_stimulus":{"position":1,"left":"bvh/vr_prediction_models/model(vcgpdm)-dataset(return-bottle)-mode(MAP)-parts(1)-hold(4)/final-lines.txt","right":"bvh/return-bottle-training4-lines.txt","att_check":false},"trial_type":"html-keyboard-response","trial_index":122,"time_elapsed":1268382,"internal_node_id":"0.0-8.0-3.28","subject":"vd7l2um09l9oygd","sona":"THNS"},{"rt":443,"stimulus":"<p>Bereit?</p>","key_press":32,"trial_type":"html-keyboard-response","trial_index":123,"time_elapsed":1268831,"internal_node_id":"0.0-8.0-0.29","subject":"vd7l2um09l9oygd","sona":"THNS"},{"rt":null,"stimulus":"<div style=\"font-size:60px;\">+</div>","key_press":null,"trial_type":"html-keyboard-response","trial_index":124,"time_elapsed":1270832,"internal_node_id":"0.0-8.0-1.29","subject":"vd7l2um09l9oygd","sona":"THNS"},{"trial_type":"turing-test","trial_index":125,"time_elapsed":1274118,"internal_node_id":"0.0-8.0-2.29","subject":"vd7l2um09l9oygd","sona":"THNS"},{"rt":1020,"stimulus":"<p>Welche Sequenz haben Sie als natürlicher empfunden?</p>","key_press":70,"test_part":"response","test_stimulus":{"position":0,"left":"bvh/pass-bottle-hold-training1-lines.txt","right":"bvh/vr_prediction_models/model(vcgpdm)-dataset(pass-bottle-hold)-mode(ELBO)-parts(1)-dyn(35)-lvm(10)-hold(1)/final-lines.txt","att_check":false},"trial_type":"html-keyboard-response","trial_index":126,"time_elapsed":1275143,"internal_node_id":"0.0-8.0-3.29","subject":"vd7l2um09l9oygd","sona":"THNS"},{"rt":372,"stimulus":"<p>Bereit?</p>","key_press":32,"trial_type":"html-keyboard-response","trial_index":127,"time_elapsed":1275518,"internal_node_id":"0.0-8.0-0.30","subject":"vd7l2um09l9oygd","sona":"THNS"},{"rt":null,"stimulus":"<div style=\"font-size:60px;\">+</div>","key_press":null,"trial_type":"html-keyboard-response","trial_index":128,"time_elapsed":1277520,"internal_node_id":"0.0-8.0-1.30","subject":"vd7l2um09l9oygd","sona":"THNS"},{"trial_type":"turing-test","trial_index":129,"time_elapsed":1284277,"internal_node_id":"0.0-8.0-2.30","subject":"vd7l2um09l9oygd","sona":"THNS"},{"rt":1462,"stimulus":"<p>Welche Sequenz haben Sie als natürlicher empfunden?</p>","key_press":70,"test_part":"response","test_stimulus":{"position":0,"left":"bvh/return-bottle-training2-lines.txt","right":"bvh/vr_prediction_models/model(vcgpdm)-dataset(return-bottle)-mode(ELBO)-parts(3)-dyn(35)-lvm(20)-hold(2)/final-lines.txt","att_check":false},"trial_type":"html-keyboard-response","trial_index":130,"time_elapsed":1285743,"internal_node_id":"0.0-8.0-3.30","subject":"vd7l2um09l9oygd","sona":"THNS"},{"rt":554,"stimulus":"<p>Bereit?</p>","key_press":32,"trial_type":"html-keyboard-response","trial_index":131,"time_elapsed":1286302,"internal_node_id":"0.0-8.0-0.31","subject":"vd7l2um09l9oygd","sona":"THNS"},{"rt":null,"stimulus":"<div style=\"font-size:60px;\">+</div>","key_press":null,"trial_type":"html-keyboard-response","trial_index":132,"time_elapsed":1288303,"internal_node_id":"0.0-8.0-1.31","subject":"vd7l2um09l9oygd","sona":"THNS"},{"trial_type":"turing-test","trial_index":133,"time_elapsed":1293428,"internal_node_id":"0.0-8.0-2.31","subject":"vd7l2um09l9oygd","sona":"THNS"},{"rt":5669,"stimulus":"<p>Welche Sequenz haben Sie als natürlicher empfunden?</p>","key_press":70,"test_part":"response","test_stimulus":{"position":1,"left":"bvh/vr_prediction_models/model(vcgpdm)-dataset(return-bottle-hold)-mode(ELBO)-parts(1)-dyn(30)-lvm(20)-hold(0)/final-lines.txt","right":"bvh/return-bottle-hold-training0-lines.txt","att_check":false},"trial_type":"html-keyboard-response","trial_index":134,"time_elapsed":1299103,"internal_node_id":"0.0-8.0-3.31","subject":"vd7l2um09l9oygd","sona":"THNS"},{"rt":24652,"stimulus":"<p>Bereit?</p>","key_press":32,"trial_type":"html-keyboard-response","trial_index":135,"time_elapsed":1323759,"internal_node_id":"0.0-8.0-0.32","subject":"vd7l2um09l9oygd","sona":"THNS"},{"rt":null,"stimulus":"<div style=\"font-size:60px;\">+</div>","key_press":null,"trial_type":"html-keyboard-response","trial_index":136,"time_elapsed":1325759,"internal_node_id":"0.0-8.0-1.32","subject":"vd7l2um09l9oygd","sona":"THNS"},{"trial_type":"turing-test","trial_index":137,"time_elapsed":1329280,"internal_node_id":"0.0-8.0-2.32","subject":"vd7l2um09l9oygd","sona":"THNS"},{"rt":706,"stimulus":"<p>Welche Sequenz haben Sie als natürlicher empfunden?</p>","key_press":70,"test_part":"response","test_stimulus":{"position":0,"left":"bvh/return-bottle-hold-training3-lines.txt","right":"bvh/vr_prediction_models/model(dmp)-dataset(return-bottle-hold)-npsi(40)-hold(3)/final-lines.txt","att_check":false},"trial_type":"html-keyboard-response","trial_index":138,"time_elapsed":1329991,"internal_node_id":"0.0-8.0-3.32","subject":"vd7l2um09l9oygd","sona":"THNS"},{"rt":453,"stimulus":"<p>Bereit?</p>","key_press":32,"trial_type":"html-keyboard-response","trial_index":139,"time_elapsed":1330447,"internal_node_id":"0.0-8.0-0.33","subject":"vd7l2um09l9oygd","sona":"THNS"},{"rt":null,"stimulus":"<div style=\"font-size:60px;\">+</div>","key_press":null,"trial_type":"html-keyboard-response","trial_index":140,"time_elapsed":1332448,"internal_node_id":"0.0-8.0-1.33","subject":"vd7l2um09l9oygd","sona":"THNS"},{"trial_type":"turing-test","trial_index":141,"time_elapsed":1338519,"internal_node_id":"0.0-8.0-2.33","subject":"vd7l2um09l9oygd","sona":"THNS"},{"rt":3844,"stimulus":"<p>Welche Sequenz haben Sie als natürlicher empfunden?</p>","key_press":70,"test_part":"response","test_stimulus":{"position":1,"left":"bvh/vr_prediction_models/model(tmp)-dataset(return-bottle)-numprim(7)-hold(1)/final-lines.txt","right":"bvh/return-bottle-training1-lines.txt","att_check":false},"trial_type":"html-keyboard-response","trial_index":142,"time_elapsed":1342367,"internal_node_id":"0.0-8.0-3.33","subject":"vd7l2um09l9oygd","sona":"THNS"},{"rt":397,"stimulus":"<p>Bereit?</p>","key_press":32,"trial_type":"html-keyboard-response","trial_index":143,"time_elapsed":1342767,"internal_node_id":"0.0-8.0-0.34","subject":"vd7l2um09l9oygd","sona":"THNS"},{"rt":null,"stimulus":"<div style=\"font-size:60px;\">+</div>","key_press":null,"trial_type":"html-keyboard-response","trial_index":144,"time_elapsed":1344768,"internal_node_id":"0.0-8.0-1.34","subject":"vd7l2um09l9oygd","sona":"THNS"},{"trial_type":"turing-test","trial_index":145,"time_elapsed":1348172,"internal_node_id":"0.0-8.0-2.34","subject":"vd7l2um09l9oygd","sona":"THNS"},{"rt":3279,"stimulus":"<p>Welche Sequenz haben Sie als natürlicher empfunden?</p>","key_press":74,"test_part":"response","test_stimulus":{"position":1,"left":"bvh/vr_prediction_models/model(vcgpdm)-dataset(return-bottle-hold)-mode(ELBO)-parts(3)-dyn(15)-lvm(30)-hold(2)/final-lines.txt","right":"bvh/return-bottle-hold-training2-lines.txt","att_check":false},"trial_type":"html-keyboard-response","trial_index":146,"time_elapsed":1351455,"internal_node_id":"0.0-8.0-3.34","subject":"vd7l2um09l9oygd","sona":"THNS"},{"rt":564,"stimulus":"<p>Bereit?</p>","key_press":32,"trial_type":"html-keyboard-response","trial_index":147,"time_elapsed":1352023,"internal_node_id":"0.0-8.0-0.35","subject":"vd7l2um09l9oygd","sona":"THNS"},{"rt":null,"stimulus":"<div style=\"font-size:60px;\">+</div>","key_press":null,"trial_type":"html-keyboard-response","trial_index":148,"time_elapsed":1354025,"internal_node_id":"0.0-8.0-1.35","subject":"vd7l2um09l9oygd","sona":"THNS"},{"trial_type":"turing-test","trial_index":149,"time_elapsed":1360550,"internal_node_id":"0.0-8.0-2.35","subject":"vd7l2um09l9oygd","sona":"THNS"},{"rt":2829,"stimulus":"<p>Welche Sequenz haben Sie als natürlicher empfunden?</p>","key_press":74,"test_part":"response","test_stimulus":{"position":0,"left":"bvh/return-bottle-training2-lines.txt","right":"bvh/vr_prediction_models/model(vcgpdm)-dataset(return-bottle)-mode(ELBO)-parts(3)-dyn(15)-lvm(30)-hold(2)/final-lines.txt","att_check":false},"trial_type":"html-keyboard-response","trial_index":150,"time_elapsed":1363384,"internal_node_id":"0.0-8.0-3.35","subject":"vd7l2um09l9oygd","sona":"THNS"},{"rt":641,"stimulus":"<p>Bereit?</p>","key_press":32,"trial_type":"html-keyboard-response","trial_index":151,"time_elapsed":1364031,"internal_node_id":"0.0-8.0-0.36","subject":"vd7l2um09l9oygd","sona":"THNS"},{"rt":null,"stimulus":"<div style=\"font-size:60px;\">+</div>","key_press":null,"trial_type":"html-keyboard-response","trial_index":152,"time_elapsed":1366033,"internal_node_id":"0.0-8.0-1.36","subject":"vd7l2um09l9oygd","sona":"THNS"},{"trial_type":"turing-test","trial_index":153,"time_elapsed":1372647,"internal_node_id":"0.0-8.0-2.36","subject":"vd7l2um09l9oygd","sona":"THNS"},{"rt":2076,"stimulus":"<p>Welche Sequenz haben Sie als natürlicher empfunden?</p>","key_press":70,"test_part":"response","test_stimulus":{"position":0,"left":"bvh/return-bottle-training2-lines.txt","right":"bvh/vr_prediction_models/model(dmp)-dataset(return-bottle)-npsi(100)-hold(2)/final-lines.txt","att_check":true},"trial_type":"html-keyboard-response","trial_index":154,"time_elapsed":1374727,"internal_node_id":"0.0-8.0-3.36","subject":"vd7l2um09l9oygd","sona":"THNS"},{"rt":611,"stimulus":"<p>Bereit?</p>","key_press":32,"trial_type":"html-keyboard-response","trial_index":155,"time_elapsed":1375343,"internal_node_id":"0.0-8.0-0.37","subject":"vd7l2um09l9oygd","sona":"THNS"},{"rt":null,"stimulus":"<div style=\"font-size:60px;\">+</div>","key_press":null,"trial_type":"html-keyboard-response","trial_index":156,"time_elapsed":1377344,"internal_node_id":"0.0-8.0-1.37","subject":"vd7l2um09l9oygd","sona":"THNS"},{"trial_type":"turing-test","trial_index":157,"time_elapsed":1380934,"internal_node_id":"0.0-8.0-2.37","subject":"vd7l2um09l9oygd","sona":"THNS"},{"rt":23716,"stimulus":"<p>Welche Sequenz haben Sie als natürlicher empfunden?</p>","key_press":70,"test_part":"response","test_stimulus":{"position":1,"left":"bvh/vr_prediction_models/model(dmp)-dataset(return-bottle-hold)-npsi(50)-hold(3)/final-lines.txt","right":"bvh/return-bottle-hold-training3-lines.txt","att_check":false},"trial_type":"html-keyboard-response","trial_index":158,"time_elapsed":1404655,"internal_node_id":"0.0-8.0-3.37","subject":"vd7l2um09l9oygd","sona":"THNS"},{"rt":518,"stimulus":"<p>Bereit?</p>","key_press":32,"trial_type":"html-keyboard-response","trial_index":159,"time_elapsed":1405175,"internal_node_id":"0.0-8.0-0.38","subject":"vd7l2um09l9oygd","sona":"THNS"},{"rt":null,"stimulus":"<div style=\"font-size:60px;\">+</div>","key_press":null,"trial_type":"html-keyboard-response","trial_index":160,"time_elapsed":1407177,"internal_node_id":"0.0-8.0-1.38","subject":"vd7l2um09l9oygd","sona":"THNS"},{"trial_type":"turing-test","trial_index":161,"time_elapsed":1412851,"internal_node_id":"0.0-8.0-2.38","subject":"vd7l2um09l9oygd","sona":"THNS"},{"rt":1366,"stimulus":"<p>Welche Sequenz haben Sie als natürlicher empfunden?</p>","key_press":74,"test_part":"response","test_stimulus":{"position":0,"left":"bvh/return-bottle-training3-lines.txt","right":"bvh/vr_prediction_models/model(vcgpdm)-dataset(return-bottle)-mode(ELBO)-parts(1)-dyn(20)-lvm(30)-hold(3)/final-lines.txt","att_check":false},"trial_type":"html-keyboard-response","trial_index":162,"time_elapsed":1414223,"internal_node_id":"0.0-8.0-3.38","subject":"vd7l2um09l9oygd","sona":"THNS"},{"rt":852,"stimulus":"<p>Bereit?</p>","key_press":32,"trial_type":"html-keyboard-response","trial_index":163,"time_elapsed":1415080,"internal_node_id":"0.0-8.0-0.39","subject":"vd7l2um09l9oygd","sona":"THNS"},{"rt":null,"stimulus":"<div style=\"font-size:60px;\">+</div>","key_press":null,"trial_type":"html-keyboard-response","trial_index":164,"time_elapsed":1417126,"internal_node_id":"0.0-8.0-1.39","subject":"vd7l2um09l9oygd","sona":"THNS"},{"trial_type":"turing-test","trial_index":165,"time_elapsed":1420393,"internal_node_id":"0.0-8.0-2.39","subject":"vd7l2um09l9oygd","sona":"THNS"},{"rt":1171,"stimulus":"<p>Welche Sequenz haben Sie als natürlicher empfunden?</p>","key_press":74,"test_part":"response","test_stimulus":{"position":1,"left":"bvh/vr_prediction_models/model(dmp)-dataset(return-bottle-hold)-npsi(20)-hold(1)/final-lines.txt","right":"bvh/return-bottle-hold-training1-lines.txt","att_check":false},"trial_type":"html-keyboard-response","trial_index":166,"time_elapsed":1421568,"internal_node_id":"0.0-8.0-3.39","subject":"vd7l2um09l9oygd","sona":"THNS"},{"rt":604,"stimulus":"<p>Bereit?</p>","key_press":32,"trial_type":"html-keyboard-response","trial_index":167,"time_elapsed":1422176,"internal_node_id":"0.0-8.0-0.40","subject":"vd7l2um09l9oygd","sona":"THNS"},{"rt":null,"stimulus":"<div style=\"font-size:60px;\">+</div>","key_press":null,"trial_type":"html-keyboard-response","trial_index":168,"time_elapsed":1424177,"internal_node_id":"0.0-8.0-1.40","subject":"vd7l2um09l9oygd","sona":"THNS"},{"trial_type":"turing-test","trial_index":169,"time_elapsed":1427890,"internal_node_id":"0.0-8.0-2.40","subject":"vd7l2um09l9oygd","sona":"THNS"},{"rt":2026,"stimulus":"<p>Welche Sequenz haben Sie als natürlicher empfunden?</p>","key_press":74,"test_part":"response","test_stimulus":{"position":1,"left":"bvh/vr_prediction_models/model(vcgpdm)-dataset(return-bottle-hold)-mode(MAP)-parts(3)-hold(4)/final-lines.txt","right":"bvh/return-bottle-hold-training4-lines.txt","att_check":false},"trial_type":"html-keyboard-response","trial_index":170,"time_elapsed":1429921,"internal_node_id":"0.0-8.0-3.40","subject":"vd7l2um09l9oygd","sona":"THNS"},{"rt":859,"stimulus":"<p>Bereit?</p>","key_press":32,"trial_type":"html-keyboard-response","trial_index":171,"time_elapsed":1430784,"internal_node_id":"0.0-8.0-0.41","subject":"vd7l2um09l9oygd","sona":"THNS"},{"rt":null,"stimulus":"<div style=\"font-size:60px;\">+</div>","key_press":null,"trial_type":"html-keyboard-response","trial_index":172,"time_elapsed":1432784,"internal_node_id":"0.0-8.0-1.41","subject":"vd7l2um09l9oygd","sona":"THNS"},{"trial_type":"turing-test","trial_index":173,"time_elapsed":1438534,"internal_node_id":"0.0-8.0-2.41","subject":"vd7l2um09l9oygd","sona":"THNS"},{"rt":1174,"stimulus":"<p>Welche Sequenz haben Sie als natürlicher empfunden?</p>","key_press":74,"test_part":"response","test_stimulus":{"position":1,"left":"bvh/vr_prediction_models/model(vcgpdm)-dataset(pass-bottle)-mode(ELBO)-parts(1)-dyn(10)-lvm(5)-hold(3)/final-lines.txt","right":"bvh/pass-bottle-training3-lines.txt","att_check":false},"trial_type":"html-keyboard-response","trial_index":174,"time_elapsed":1439712,"internal_node_id":"0.0-8.0-3.41","subject":"vd7l2um09l9oygd","sona":"THNS"},{"rt":931,"stimulus":"<p>Bereit?</p>","key_press":32,"trial_type":"html-keyboard-response","trial_index":175,"time_elapsed":1440646,"internal_node_id":"0.0-8.0-0.42","subject":"vd7l2um09l9oygd","sona":"THNS"},{"rt":null,"stimulus":"<div style=\"font-size:60px;\">+</div>","key_press":null,"trial_type":"html-keyboard-response","trial_index":176,"time_elapsed":1442647,"internal_node_id":"0.0-8.0-1.42","subject":"vd7l2um09l9oygd","sona":"THNS"},{"trial_type":"turing-test","trial_index":177,"time_elapsed":1448814,"internal_node_id":"0.0-8.0-2.42","subject":"vd7l2um09l9oygd","sona":"THNS"},{"rt":1211,"stimulus":"<p>Welche Sequenz haben Sie als natürlicher empfunden?</p>","key_press":70,"test_part":"response","test_stimulus":{"position":0,"left":"bvh/pass-bottle-training2-lines.txt","right":"bvh/vr_prediction_models/model(vcgpdm)-dataset(pass-bottle)-mode(ELBO)-parts(1)-dyn(10)-lvm(25)-hold(2)/final-lines.txt","att_check":false},"trial_type":"html-keyboard-response","trial_index":178,"time_elapsed":1450031,"internal_node_id":"0.0-8.0-3.42","subject":"vd7l2um09l9oygd","sona":"THNS"},{"rt":163140,"stimulus":"<p>Bereit?</p>","key_press":32,"trial_type":"html-keyboard-response","trial_index":179,"time_elapsed":1613177,"internal_node_id":"0.0-8.0-0.43","subject":"vd7l2um09l9oygd","sona":"THNS"},{"rt":null,"stimulus":"<div style=\"font-size:60px;\">+</div>","key_press":null,"trial_type":"html-keyboard-response","trial_index":180,"time_elapsed":1615198,"internal_node_id":"0.0-8.0-1.43","subject":"vd7l2um09l9oygd","sona":"THNS"},{"trial_type":"turing-test","trial_index":181,"time_elapsed":1618670,"internal_node_id":"0.0-8.0-2.43","subject":"vd7l2um09l9oygd","sona":"THNS"},{"rt":1599,"stimulus":"<p>Welche Sequenz haben Sie als natürlicher empfunden?</p>","key_press":74,"test_part":"response","test_stimulus":{"position":1,"left":"bvh/vr_prediction_models/model(tmp)-dataset(pass-bottle-hold)-numprim(6)-hold(4)/final-lines.txt","right":"bvh/pass-bottle-hold-training4-lines.txt","att_check":false},"trial_type":"html-keyboard-response","trial_index":182,"time_elapsed":1620273,"internal_node_id":"0.0-8.0-3.43","subject":"vd7l2um09l9oygd","sona":"THNS"},{"rt":1042,"stimulus":"<p>Bereit?</p>","key_press":32,"trial_type":"html-keyboard-response","trial_index":183,"time_elapsed":1621321,"internal_node_id":"0.0-8.0-0.44","subject":"vd7l2um09l9oygd","sona":"THNS"},{"rt":null,"stimulus":"<div style=\"font-size:60px;\">+</div>","key_press":null,"trial_type":"html-keyboard-response","trial_index":184,"time_elapsed":1623324,"internal_node_id":"0.0-8.0-1.44","subject":"vd7l2um09l9oygd","sona":"THNS"},{"trial_type":"turing-test","trial_index":185,"time_elapsed":1628628,"internal_node_id":"0.0-8.0-2.44","subject":"vd7l2um09l9oygd","sona":"THNS"},{"rt":905,"stimulus":"<p>Welche Sequenz haben Sie als natürlicher empfunden?</p>","key_press":74,"test_part":"response","test_stimulus":{"position":0,"left":"bvh/return-bottle-training0-lines.txt","right":"bvh/vr_prediction_models/model(tmp)-dataset(return-bottle)-numprim(3)-hold(0)/final-lines.txt","att_check":false},"trial_type":"html-keyboard-response","trial_index":186,"time_elapsed":1629539,"internal_node_id":"0.0-8.0-3.44","subject":"vd7l2um09l9oygd","sona":"THNS"},{"rt":56498,"stimulus":"<p>Bereit?</p>","key_press":32,"trial_type":"html-keyboard-response","trial_index":187,"time_elapsed":1686042,"internal_node_id":"0.0-8.0-0.45","subject":"vd7l2um09l9oygd","sona":"THNS"},{"rt":null,"stimulus":"<div style=\"font-size:60px;\">+</div>","key_press":null,"trial_type":"html-keyboard-response","trial_index":188,"time_elapsed":1688044,"internal_node_id":"0.0-8.0-1.45","subject":"vd7l2um09l9oygd","sona":"THNS"},{"trial_type":"turing-test","trial_index":189,"time_elapsed":1691544,"internal_node_id":"0.0-8.0-2.45","subject":"vd7l2um09l9oygd","sona":"THNS"},{"rt":52621,"stimulus":"<p>Welche Sequenz haben Sie als natürlicher empfunden?</p>","key_press":74,"test_part":"response","test_stimulus":{"position":0,"left":"bvh/pass-bottle-hold-training4-lines.txt","right":"bvh/vr_prediction_models/model(tmp)-dataset(pass-bottle-hold)-numprim(11)-hold(4)/final-lines.txt","att_check":false},"trial_type":"html-keyboard-response","trial_index":190,"time_elapsed":1744171,"internal_node_id":"0.0-8.0-3.45","subject":"vd7l2um09l9oygd","sona":"THNS"},{"rt":843,"stimulus":"<p>Bereit?</p>","key_press":32,"trial_type":"html-keyboard-response","trial_index":191,"time_elapsed":1745018,"internal_node_id":"0.0-8.0-0.46","subject":"vd7l2um09l9oygd","sona":"THNS"},{"rt":null,"stimulus":"<div style=\"font-size:60px;\">+</div>","key_press":null,"trial_type":"html-keyboard-response","trial_index":192,"time_elapsed":1747020,"internal_node_id":"0.0-8.0-1.46","subject":"vd7l2um09l9oygd","sona":"THNS"},{"trial_type":"turing-test","trial_index":193,"time_elapsed":1750495,"internal_node_id":"0.0-8.0-2.46","subject":"vd7l2um09l9oygd","sona":"THNS"},{"rt":2999,"stimulus":"<p>Welche Sequenz haben Sie als natürlicher empfunden?</p>","key_press":74,"test_part":"response","test_stimulus":{"position":0,"left":"bvh/return-bottle-hold-training2-lines.txt","right":"bvh/vr_prediction_models/model(vcgpdm)-dataset(return-bottle-hold)-mode(ELBO)-parts(3)-dyn(30)-lvm(15)-hold(2)/final-lines.txt","att_check":false},"trial_type":"html-keyboard-response","trial_index":194,"time_elapsed":1753499,"internal_node_id":"0.0-8.0-3.46","subject":"vd7l2um09l9oygd","sona":"THNS"},{"rt":763,"stimulus":"<p>Bereit?</p>","key_press":32,"trial_type":"html-keyboard-response","trial_index":195,"time_elapsed":1754266,"internal_node_id":"0.0-8.0-0.47","subject":"vd7l2um09l9oygd","sona":"THNS"},{"rt":null,"stimulus":"<div style=\"font-size:60px;\">+</div>","key_press":null,"trial_type":"html-keyboard-response","trial_index":196,"time_elapsed":1756268,"internal_node_id":"0.0-8.0-1.47","subject":"vd7l2um09l9oygd","sona":"THNS"},{"trial_type":"turing-test","trial_index":197,"time_elapsed":1761671,"internal_node_id":"0.0-8.0-2.47","subject":"vd7l2um09l9oygd","sona":"THNS"},{"rt":577,"stimulus":"<p>Welche Sequenz haben Sie als natürlicher empfunden?</p>","key_press":70,"test_part":"response","test_stimulus":{"position":0,"left":"bvh/pass-bottle-training1-lines.txt","right":"bvh/vr_prediction_models/model(dmp)-dataset(pass-bottle)-npsi(10)-hold(1)/final-lines.txt","att_check":false},"trial_type":"html-keyboard-response","trial_index":198,"time_elapsed":1762253,"internal_node_id":"0.0-8.0-3.47","subject":"vd7l2um09l9oygd","sona":"THNS"},{"rt":653857,"stimulus":"<p>Bereit?</p>","key_press":32,"trial_type":"html-keyboard-response","trial_index":199,"time_elapsed":2416115,"internal_node_id":"0.0-8.0-0.48","subject":"vd7l2um09l9oygd","sona":"THNS"},{"rt":null,"stimulus":"<div style=\"font-size:60px;\">+</div>","key_press":null,"trial_type":"html-keyboard-response","trial_index":200,"time_elapsed":2418162,"internal_node_id":"0.0-8.0-1.48","subject":"vd7l2um09l9oygd","sona":"THNS"},{"trial_type":"turing-test","trial_index":201,"time_elapsed":2424237,"internal_node_id":"0.0-8.0-2.48","subject":"vd7l2um09l9oygd","sona":"THNS"},{"rt":3668,"stimulus":"<p>Welche Sequenz haben Sie als natürlicher empfunden?</p>","key_press":74,"test_part":"response","test_stimulus":{"position":1,"left":"bvh/vr_prediction_models/model(vcgpdm)-dataset(pass-bottle)-mode(ELBO)-parts(3)-dyn(25)-lvm(25)-hold(2)/final-lines.txt","right":"bvh/pass-bottle-training2-lines.txt","att_check":false},"trial_type":"html-keyboard-response","trial_index":202,"time_elapsed":2427911,"internal_node_id":"0.0-8.0-3.48","subject":"vd7l2um09l9oygd","sona":"THNS"},{"rt":4152,"stimulus":"<p>Bereit?</p>","key_press":32,"trial_type":"html-keyboard-response","trial_index":203,"time_elapsed":2432071,"internal_node_id":"0.0-8.0-0.49","subject":"vd7l2um09l9oygd","sona":"THNS"},{"rt":null,"stimulus":"<div style=\"font-size:60px;\">+</div>","key_press":null,"trial_type":"html-keyboard-response","trial_index":204,"time_elapsed":2434074,"internal_node_id":"0.0-8.0-1.49","subject":"vd7l2um09l9oygd","sona":"THNS"},{"trial_type":"turing-test","trial_index":205,"time_elapsed":2440572,"internal_node_id":"0.0-8.0-2.49","subject":"vd7l2um09l9oygd","sona":"THNS"},{"rt":2423,"stimulus":"<p>Welche Sequenz haben Sie als natürlicher empfunden?</p>","key_press":74,"test_part":"response","test_stimulus":{"position":1,"left":"bvh/vr_prediction_models/model(vcgpdm)-dataset(return-bottle)-mode(MAP)-parts(3)-hold(2)/final-lines.txt","right":"bvh/return-bottle-training2-lines.txt","att_check":false},"trial_type":"html-keyboard-response","trial_index":206,"time_elapsed":2443000,"internal_node_id":"0.0-8.0-3.49","subject":"vd7l2um09l9oygd","sona":"THNS"},{"rt":9491,"stimulus":"<p>Bereit?</p>","key_press":32,"trial_type":"html-keyboard-response","trial_index":207,"time_elapsed":2452496,"internal_node_id":"0.0-8.0-0.50","subject":"vd7l2um09l9oygd","sona":"THNS"},{"rt":null,"stimulus":"<div style=\"font-size:60px;\">+</div>","key_press":null,"trial_type":"html-keyboard-response","trial_index":208,"time_elapsed":2454498,"internal_node_id":"0.0-8.0-1.50","subject":"vd7l2um09l9oygd","sona":"THNS"},{"trial_type":"turing-test","trial_index":209,"time_elapsed":2459833,"internal_node_id":"0.0-8.0-2.50","subject":"vd7l2um09l9oygd","sona":"THNS"},{"rt":6026,"stimulus":"<p>Welche Sequenz haben Sie als natürlicher empfunden?</p>","key_press":70,"test_part":"response","test_stimulus":{"position":0,"left":"bvh/return-bottle-training0-lines.txt","right":"bvh/vr_prediction_models/model(vcgpdm)-dataset(return-bottle)-mode(ELBO)-parts(1)-dyn(10)-lvm(25)-hold(0)/final-lines.txt","att_check":false},"trial_type":"html-keyboard-response","trial_index":210,"time_elapsed":2465864,"internal_node_id":"0.0-8.0-3.50","subject":"vd7l2um09l9oygd","sona":"THNS"},{"rt":4794,"stimulus":"<p>Bereit?</p>","key_press":32,"trial_type":"html-keyboard-response","trial_index":211,"time_elapsed":2470664,"internal_node_id":"0.0-8.0-0.51","subject":"vd7l2um09l9oygd","sona":"THNS"},{"rt":null,"stimulus":"<div style=\"font-size:60px;\">+</div>","key_press":null,"trial_type":"html-keyboard-response","trial_index":212,"time_elapsed":2472665,"internal_node_id":"0.0-8.0-1.51","subject":"vd7l2um09l9oygd","sona":"THNS"},{"trial_type":"turing-test","trial_index":213,"time_elapsed":2479270,"internal_node_id":"0.0-8.0-2.51","subject":"vd7l2um09l9oygd","sona":"THNS"},{"rt":3839,"stimulus":"<p>Welche Sequenz haben Sie als natürlicher empfunden?</p>","key_press":70,"test_part":"response","test_stimulus":{"position":0,"left":"bvh/pass-bottle-training0-lines.txt","right":"bvh/vr_prediction_models/model(dmp)-dataset(pass-bottle)-npsi(80)-hold(0)/final-lines.txt","att_check":true},"trial_type":"html-keyboard-response","trial_index":214,"time_elapsed":2483113,"internal_node_id":"0.0-8.0-3.51","subject":"vd7l2um09l9oygd","sona":"THNS"},{"rt":1594,"stimulus":"<p>Bereit?</p>","key_press":32,"trial_type":"html-keyboard-response","trial_index":215,"time_elapsed":2484712,"internal_node_id":"0.0-8.0-0.52","subject":"vd7l2um09l9oygd","sona":"THNS"},{"rt":null,"stimulus":"<div style=\"font-size:60px;\">+</div>","key_press":null,"trial_type":"html-keyboard-response","trial_index":216,"time_elapsed":2486714,"internal_node_id":"0.0-8.0-1.52","subject":"vd7l2um09l9oygd","sona":"THNS"},{"trial_type":"turing-test","trial_index":217,"time_elapsed":2492684,"internal_node_id":"0.0-8.0-2.52","subject":"vd7l2um09l9oygd","sona":"THNS"},{"rt":19214,"stimulus":"<p>Welche Sequenz haben Sie als natürlicher empfunden?</p>","key_press":74,"test_part":"response","test_stimulus":{"position":1,"left":"bvh/vr_prediction_models/model(vcgpdm)-dataset(pass-bottle)-mode(ELBO)-parts(1)-dyn(10)-lvm(25)-hold(2)/final-lines.txt","right":"bvh/pass-bottle-training2-lines.txt","att_check":false},"trial_type":"html-keyboard-response","trial_index":218,"time_elapsed":2511903,"internal_node_id":"0.0-8.0-3.52","subject":"vd7l2um09l9oygd","sona":"THNS"},{"rt":1112,"stimulus":"<p>Bereit?</p>","key_press":32,"trial_type":"html-keyboard-response","trial_index":219,"time_elapsed":2513016,"internal_node_id":"0.0-8.0-0.53","subject":"vd7l2um09l9oygd","sona":"THNS"},{"rt":null,"stimulus":"<div style=\"font-size:60px;\">+</div>","key_press":null,"trial_type":"html-keyboard-response","trial_index":220,"time_elapsed":2515018,"internal_node_id":"0.0-8.0-1.53","subject":"vd7l2um09l9oygd","sona":"THNS"},{"trial_type":"turing-test","trial_index":221,"time_elapsed":2518528,"internal_node_id":"0.0-8.0-2.53","subject":"vd7l2um09l9oygd","sona":"THNS"},{"rt":4693,"stimulus":"<p>Welche Sequenz haben Sie als natürlicher empfunden?</p>","key_press":70,"test_part":"response","test_stimulus":{"position":0,"left":"bvh/return-bottle-hold-training3-lines.txt","right":"bvh/vr_prediction_models/model(tmp)-dataset(return-bottle-hold)-numprim(14)-hold(3)/final-lines.txt","att_check":false},"trial_type":"html-keyboard-response","trial_index":222,"time_elapsed":2523225,"internal_node_id":"0.0-8.0-3.53","subject":"vd7l2um09l9oygd","sona":"THNS"},{"rt":94724,"stimulus":"<p>Bereit?</p>","key_press":32,"trial_type":"html-keyboard-response","trial_index":223,"time_elapsed":2617953,"internal_node_id":"0.0-8.0-0.54","subject":"vd7l2um09l9oygd","sona":"THNS"},{"rt":null,"stimulus":"<div style=\"font-size:60px;\">+</div>","key_press":null,"trial_type":"html-keyboard-response","trial_index":224,"time_elapsed":2619955,"internal_node_id":"0.0-8.0-1.54","subject":"vd7l2um09l9oygd","sona":"THNS"},{"trial_type":"turing-test","trial_index":225,"time_elapsed":2623415,"internal_node_id":"0.0-8.0-2.54","subject":"vd7l2um09l9oygd","sona":"THNS"},{"rt":1117,"stimulus":"<p>Welche Sequenz haben Sie als natürlicher empfunden?</p>","key_press":74,"test_part":"response","test_stimulus":{"position":0,"left":"bvh/return-bottle-hold-training2-lines.txt","right":"bvh/vr_prediction_models/model(tmp)-dataset(return-bottle-hold)-numprim(10)-hold(2)/final-lines.txt","att_check":false},"trial_type":"html-keyboard-response","trial_index":226,"time_elapsed":2624538,"internal_node_id":"0.0-8.0-3.54","subject":"vd7l2um09l9oygd","sona":"THNS"},{"rt":603,"stimulus":"<p>Bereit?</p>","key_press":32,"trial_type":"html-keyboard-response","trial_index":227,"time_elapsed":2625145,"internal_node_id":"0.0-8.0-0.55","subject":"vd7l2um09l9oygd","sona":"THNS"},{"rt":null,"stimulus":"<div style=\"font-size:60px;\">+</div>","key_press":null,"trial_type":"html-keyboard-response","trial_index":228,"time_elapsed":2627147,"internal_node_id":"0.0-8.0-1.55","subject":"vd7l2um09l9oygd","sona":"THNS"},{"trial_type":"turing-test","trial_index":229,"time_elapsed":2633142,"internal_node_id":"0.0-8.0-2.55","subject":"vd7l2um09l9oygd","sona":"THNS"},{"rt":575,"stimulus":"<p>Welche Sequenz haben Sie als natürlicher empfunden?</p>","key_press":74,"test_part":"response","test_stimulus":{"position":1,"left":"bvh/vr_prediction_models/model(dmp)-dataset(pass-bottle)-npsi(70)-hold(2)/final-lines.txt","right":"bvh/pass-bottle-training2-lines.txt","att_check":true},"trial_type":"html-keyboard-response","trial_index":230,"time_elapsed":2633721,"internal_node_id":"0.0-8.0-3.55","subject":"vd7l2um09l9oygd","sona":"THNS"},{"rt":1058,"stimulus":"<p>Bereit?</p>","key_press":32,"trial_type":"html-keyboard-response","trial_index":231,"time_elapsed":2634785,"internal_node_id":"0.0-8.0-0.56","subject":"vd7l2um09l9oygd","sona":"THNS"},{"rt":null,"stimulus":"<div style=\"font-size:60px;\">+</div>","key_press":null,"trial_type":"html-keyboard-response","trial_index":232,"time_elapsed":2636786,"internal_node_id":"0.0-8.0-1.56","subject":"vd7l2um09l9oygd","sona":"THNS"},{"trial_type":"turing-test","trial_index":233,"time_elapsed":2642790,"internal_node_id":"0.0-8.0-2.56","subject":"vd7l2um09l9oygd","sona":"THNS"},{"rt":1583,"stimulus":"<p>Welche Sequenz haben Sie als natürlicher empfunden?</p>","key_press":70,"test_part":"response","test_stimulus":{"position":0,"left":"bvh/pass-bottle-training2-lines.txt","right":"bvh/vr_prediction_models/model(tmp)-dataset(pass-bottle)-numprim(10)-hold(2)/final-lines.txt","att_check":false},"trial_type":"html-keyboard-response","trial_index":234,"time_elapsed":2644377,"internal_node_id":"0.0-8.0-3.56","subject":"vd7l2um09l9oygd","sona":"THNS"},{"rt":515,"stimulus":"<p>Bereit?</p>","key_press":32,"trial_type":"html-keyboard-response","trial_index":235,"time_elapsed":2644897,"internal_node_id":"0.0-8.0-0.57","subject":"vd7l2um09l9oygd","sona":"THNS"},{"rt":null,"stimulus":"<div style=\"font-size:60px;\">+</div>","key_press":null,"trial_type":"html-keyboard-response","trial_index":236,"time_elapsed":2646898,"internal_node_id":"0.0-8.0-1.57","subject":"vd7l2um09l9oygd","sona":"THNS"},{"trial_type":"turing-test","trial_index":237,"time_elapsed":2650300,"internal_node_id":"0.0-8.0-2.57","subject":"vd7l2um09l9oygd","sona":"THNS"},{"rt":3609,"stimulus":"<p>Welche Sequenz haben Sie als natürlicher empfunden?</p>","key_press":70,"test_part":"response","test_stimulus":{"position":0,"left":"bvh/return-bottle-hold-training2-lines.txt","right":"bvh/vr_prediction_models/model(vcgpdm)-dataset(return-bottle-hold)-mode(ELBO)-parts(3)-dyn(25)-lvm(25)-hold(2)/final-lines.txt","att_check":false},"trial_type":"html-keyboard-response","trial_index":238,"time_elapsed":2653913,"internal_node_id":"0.0-8.0-3.57","subject":"vd7l2um09l9oygd","sona":"THNS"},{"rt":429,"stimulus":"<p>Bereit?</p>","key_press":32,"trial_type":"html-keyboard-response","trial_index":239,"time_elapsed":2654345,"internal_node_id":"0.0-8.0-0.58","subject":"vd7l2um09l9oygd","sona":"THNS"},{"rt":null,"stimulus":"<div style=\"font-size:60px;\">+</div>","key_press":null,"trial_type":"html-keyboard-response","trial_index":240,"time_elapsed":2656347,"internal_node_id":"0.0-8.0-1.58","subject":"vd7l2um09l9oygd","sona":"THNS"},{"trial_type":"turing-test","trial_index":241,"time_elapsed":2662105,"internal_node_id":"0.0-8.0-2.58","subject":"vd7l2um09l9oygd","sona":"THNS"},{"rt":739,"stimulus":"<p>Welche Sequenz haben Sie als natürlicher empfunden?</p>","key_press":74,"test_part":"response","test_stimulus":{"position":1,"left":"bvh/vr_prediction_models/model(vcgpdm)-dataset(pass-bottle)-mode(ELBO)-parts(3)-dyn(25)-lvm(30)-hold(3)/final-lines.txt","right":"bvh/pass-bottle-training3-lines.txt","att_check":false},"trial_type":"html-keyboard-response","trial_index":242,"time_elapsed":2662849,"internal_node_id":"0.0-8.0-3.58","subject":"vd7l2um09l9oygd","sona":"THNS"},{"rt":654,"stimulus":"<p>Bereit?</p>","key_press":32,"trial_type":"html-keyboard-response","trial_index":243,"time_elapsed":2663505,"internal_node_id":"0.0-8.0-0.59","subject":"vd7l2um09l9oygd","sona":"THNS"},{"rt":null,"stimulus":"<div style=\"font-size:60px;\">+</div>","key_press":null,"trial_type":"html-keyboard-response","trial_index":244,"time_elapsed":2665508,"internal_node_id":"0.0-8.0-1.59","subject":"vd7l2um09l9oygd","sona":"THNS"},{"trial_type":"turing-test","trial_index":245,"time_elapsed":2668757,"internal_node_id":"0.0-8.0-2.59","subject":"vd7l2um09l9oygd","sona":"THNS"},{"rt":3679,"stimulus":"<p>Welche Sequenz haben Sie als natürlicher empfunden?</p>","key_press":74,"test_part":"response","test_stimulus":{"position":1,"left":"bvh/vr_prediction_models/model(dmp)-dataset(pass-bottle-hold)-npsi(80)-hold(0)/final-lines.txt","right":"bvh/pass-bottle-hold-training0-lines.txt","att_check":false},"trial_type":"html-keyboard-response","trial_index":246,"time_elapsed":2672441,"internal_node_id":"0.0-8.0-3.59","subject":"vd7l2um09l9oygd","sona":"THNS"},{"rt":515,"stimulus":"<p>Bereit?</p>","key_press":32,"trial_type":"html-keyboard-response","trial_index":247,"time_elapsed":2672961,"internal_node_id":"0.0-8.0-0.60","subject":"vd7l2um09l9oygd","sona":"THNS"},{"rt":null,"stimulus":"<div style=\"font-size:60px;\">+</div>","key_press":null,"trial_type":"html-keyboard-response","trial_index":248,"time_elapsed":2674963,"internal_node_id":"0.0-8.0-1.60","subject":"vd7l2um09l9oygd","sona":"THNS"},{"trial_type":"turing-test","trial_index":249,"time_elapsed":2678233,"internal_node_id":"0.0-8.0-2.60","subject":"vd7l2um09l9oygd","sona":"THNS"},{"rt":3652,"stimulus":"<p>Welche Sequenz haben Sie als natürlicher empfunden?</p>","key_press":70,"test_part":"response","test_stimulus":{"position":0,"left":"bvh/return-bottle-hold-training1-lines.txt","right":"bvh/vr_prediction_models/model(vcgpdm)-dataset(return-bottle-hold)-mode(ELBO)-parts(1)-dyn(15)-lvm(35)-hold(1)/final-lines.txt","att_check":false},"trial_type":"html-keyboard-response","trial_index":250,"time_elapsed":2681889,"internal_node_id":"0.0-8.0-3.60","subject":"vd7l2um09l9oygd","sona":"THNS"},{"rt":461,"stimulus":"<p>Bereit?</p>","key_press":32,"trial_type":"html-keyboard-response","trial_index":251,"time_elapsed":2682353,"internal_node_id":"0.0-8.0-0.61","subject":"vd7l2um09l9oygd","sona":"THNS"},{"rt":null,"stimulus":"<div style=\"font-size:60px;\">+</div>","key_press":null,"trial_type":"html-keyboard-response","trial_index":252,"time_elapsed":2684355,"internal_node_id":"0.0-8.0-1.61","subject":"vd7l2um09l9oygd","sona":"THNS"},{"trial_type":"turing-test","trial_index":253,"time_elapsed":2687999,"internal_node_id":"0.0-8.0-2.61","subject":"vd7l2um09l9oygd","sona":"THNS"},{"rt":1933,"stimulus":"<p>Welche Sequenz haben Sie als natürlicher empfunden?</p>","key_press":74,"test_part":"response","test_stimulus":{"position":1,"left":"bvh/vr_prediction_models/model(vcgpdm)-dataset(return-bottle-hold)-mode(ELBO)-parts(3)-dyn(25)-lvm(25)-hold(4)/final-lines.txt","right":"bvh/return-bottle-hold-training4-lines.txt","att_check":false},"trial_type":"html-keyboard-response","trial_index":254,"time_elapsed":2689938,"internal_node_id":"0.0-8.0-3.61","subject":"vd7l2um09l9oygd","sona":"THNS"},{"rt":740,"stimulus":"<p>Bereit?</p>","key_press":32,"trial_type":"html-keyboard-response","trial_index":255,"time_elapsed":2690681,"internal_node_id":"0.0-8.0-0.62","subject":"vd7l2um09l9oygd","sona":"THNS"},{"rt":null,"stimulus":"<div style=\"font-size:60px;\">+</div>","key_press":null,"trial_type":"html-keyboard-response","trial_index":256,"time_elapsed":2692682,"internal_node_id":"0.0-8.0-1.62","subject":"vd7l2um09l9oygd","sona":"THNS"},{"trial_type":"turing-test","trial_index":257,"time_elapsed":2698300,"internal_node_id":"0.0-8.0-2.62","subject":"vd7l2um09l9oygd","sona":"THNS"},{"rt":2153,"stimulus":"<p>Welche Sequenz haben Sie als natürlicher empfunden?</p>","key_press":74,"test_part":"response","test_stimulus":{"position":1,"left":"bvh/vr_prediction_models/model(tmp)-dataset(pass-bottle)-numprim(9)-hold(4)/final-lines.txt","right":"bvh/pass-bottle-training4-lines.txt","att_check":false},"trial_type":"html-keyboard-response","trial_index":258,"time_elapsed":2700458,"internal_node_id":"0.0-8.0-3.62","subject":"vd7l2um09l9oygd","sona":"THNS"},{"rt":754,"stimulus":"<p>Bereit?</p>","key_press":32,"trial_type":"html-keyboard-response","trial_index":259,"time_elapsed":2701217,"internal_node_id":"0.0-8.0-0.63","subject":"vd7l2um09l9oygd","sona":"THNS"},{"rt":null,"stimulus":"<div style=\"font-size:60px;\">+</div>","key_press":null,"trial_type":"html-keyboard-response","trial_index":260,"time_elapsed":2703218,"internal_node_id":"0.0-8.0-1.63","subject":"vd7l2um09l9oygd","sona":"THNS"},{"trial_type":"turing-test","trial_index":261,"time_elapsed":2708557,"internal_node_id":"0.0-8.0-2.63","subject":"vd7l2um09l9oygd","sona":"THNS"},{"rt":1048,"stimulus":"<p>Welche Sequenz haben Sie als natürlicher empfunden?</p>","key_press":74,"test_part":"response","test_stimulus":{"position":0,"left":"bvh/pass-bottle-training1-lines.txt","right":"bvh/vr_prediction_models/model(tmp)-dataset(pass-bottle)-numprim(7)-hold(1)/final-lines.txt","att_check":false},"trial_type":"html-keyboard-response","trial_index":262,"time_elapsed":2709610,"internal_node_id":"0.0-8.0-3.63","subject":"vd7l2um09l9oygd","sona":"THNS"},{"rt":764,"stimulus":"<p>Bereit?</p>","key_press":32,"trial_type":"html-keyboard-response","trial_index":263,"time_elapsed":2710377,"internal_node_id":"0.0-8.0-0.64","subject":"vd7l2um09l9oygd","sona":"THNS"},{"rt":null,"stimulus":"<div style=\"font-size:60px;\">+</div>","key_press":null,"trial_type":"html-keyboard-response","trial_index":264,"time_elapsed":2712380,"internal_node_id":"0.0-8.0-1.64","subject":"vd7l2um09l9oygd","sona":"THNS"},{"trial_type":"turing-test","trial_index":265,"time_elapsed":2718038,"internal_node_id":"0.0-8.0-2.64","subject":"vd7l2um09l9oygd","sona":"THNS"},{"rt":813,"stimulus":"<p>Welche Sequenz haben Sie als natürlicher empfunden?</p>","key_press":70,"test_part":"response","test_stimulus":{"position":0,"left":"bvh/return-bottle-training4-lines.txt","right":"bvh/vr_prediction_models/model(dmp)-dataset(return-bottle)-npsi(20)-hold(4)/final-lines.txt","att_check":false},"trial_type":"html-keyboard-response","trial_index":266,"time_elapsed":2718856,"internal_node_id":"0.0-8.0-3.64","subject":"vd7l2um09l9oygd","sona":"THNS"},{"rt":352,"stimulus":"<p>Bereit?</p>","key_press":32,"trial_type":"html-keyboard-response","trial_index":267,"time_elapsed":2719210,"internal_node_id":"0.0-8.0-0.65","subject":"vd7l2um09l9oygd","sona":"THNS"},{"rt":null,"stimulus":"<div style=\"font-size:60px;\">+</div>","key_press":null,"trial_type":"html-keyboard-response","trial_index":268,"time_elapsed":2721212,"internal_node_id":"0.0-8.0-1.65","subject":"vd7l2um09l9oygd","sona":"THNS"},{"trial_type":"turing-test","trial_index":269,"time_elapsed":2727900,"internal_node_id":"0.0-8.0-2.65","subject":"vd7l2um09l9oygd","sona":"THNS"},{"rt":634,"stimulus":"<p>Welche Sequenz haben Sie als natürlicher empfunden?</p>","key_press":74,"test_part":"response","test_stimulus":{"position":1,"left":"bvh/vr_prediction_models/model(vcgpdm)-dataset(pass-bottle)-mode(ELBO)-parts(1)-dyn(30)-lvm(35)-hold(0)/final-lines.txt","right":"bvh/pass-bottle-training0-lines.txt","att_check":false},"trial_type":"html-keyboard-response","trial_index":270,"time_elapsed":2728539,"internal_node_id":"0.0-8.0-3.65","subject":"vd7l2um09l9oygd","sona":"THNS"},{"rt":666,"stimulus":"<p>Bereit?</p>","key_press":32,"trial_type":"html-keyboard-response","trial_index":271,"time_elapsed":2729209,"internal_node_id":"0.0-8.0-0.66","subject":"vd7l2um09l9oygd","sona":"THNS"},{"rt":null,"stimulus":"<div style=\"font-size:60px;\">+</div>","key_press":null,"trial_type":"html-keyboard-response","trial_index":272,"time_elapsed":2731212,"internal_node_id":"0.0-8.0-1.66","subject":"vd7l2um09l9oygd","sona":"THNS"},{"trial_type":"turing-test","trial_index":273,"time_elapsed":2734925,"internal_node_id":"0.0-8.0-2.66","subject":"vd7l2um09l9oygd","sona":"THNS"},{"rt":15880,"stimulus":"<p>Welche Sequenz haben Sie als natürlicher empfunden?</p>","key_press":70,"test_part":"response","test_stimulus":{"position":0,"left":"bvh/return-bottle-hold-training4-lines.txt","right":"bvh/vr_prediction_models/model(tmp)-dataset(return-bottle-hold)-numprim(7)-hold(4)/final-lines.txt","att_check":false},"trial_type":"html-keyboard-response","trial_index":274,"time_elapsed":2750810,"internal_node_id":"0.0-8.0-3.66","subject":"vd7l2um09l9oygd","sona":"THNS"},{"rt":539,"stimulus":"<p>Bereit?</p>","key_press":32,"trial_type":"html-keyboard-response","trial_index":275,"time_elapsed":2751355,"internal_node_id":"0.0-8.0-0.67","subject":"vd7l2um09l9oygd","sona":"THNS"},{"rt":null,"stimulus":"<div style=\"font-size:60px;\">+</div>","key_press":null,"trial_type":"html-keyboard-response","trial_index":276,"time_elapsed":2753356,"internal_node_id":"0.0-8.0-1.67","subject":"vd7l2um09l9oygd","sona":"THNS"},{"trial_type":"turing-test","trial_index":277,"time_elapsed":2756800,"internal_node_id":"0.0-8.0-2.67","subject":"vd7l2um09l9oygd","sona":"THNS"},{"rt":1794,"stimulus":"<p>Welche Sequenz haben Sie als natürlicher empfunden?</p>","key_press":70,"test_part":"response","test_stimulus":{"position":0,"left":"bvh/pass-bottle-hold-training3-lines.txt","right":"bvh/vr_prediction_models/model(tmp)-dataset(pass-bottle-hold)-numprim(12)-hold(3)/final-lines.txt","att_check":false},"trial_type":"html-keyboard-response","trial_index":278,"time_elapsed":2758602,"internal_node_id":"0.0-8.0-3.67","subject":"vd7l2um09l9oygd","sona":"THNS"},{"rt":635,"stimulus":"<p>Bereit?</p>","key_press":32,"trial_type":"html-keyboard-response","trial_index":279,"time_elapsed":2759242,"internal_node_id":"0.0-8.0-0.68","subject":"vd7l2um09l9oygd","sona":"THNS"},{"rt":null,"stimulus":"<div style=\"font-size:60px;\">+</div>","key_press":null,"trial_type":"html-keyboard-response","trial_index":280,"time_elapsed":2761243,"internal_node_id":"0.0-8.0-1.68","subject":"vd7l2um09l9oygd","sona":"THNS"},{"trial_type":"turing-test","trial_index":281,"time_elapsed":2767277,"internal_node_id":"0.0-8.0-2.68","subject":"vd7l2um09l9oygd","sona":"THNS"},{"rt":921,"stimulus":"<p>Welche Sequenz haben Sie als natürlicher empfunden?</p>","key_press":74,"test_part":"response","test_stimulus":{"position":1,"left":"bvh/vr_prediction_models/model(vcgpdm)-dataset(return-bottle)-mode(ELBO)-parts(3)-dyn(15)-lvm(30)-hold(1)/final-lines.txt","right":"bvh/return-bottle-training1-lines.txt","att_check":false},"trial_type":"html-keyboard-response","trial_index":282,"time_elapsed":2768202,"internal_node_id":"0.0-8.0-3.68","subject":"vd7l2um09l9oygd","sona":"THNS"},{"rt":671,"stimulus":"<p>Bereit?</p>","key_press":32,"trial_type":"html-keyboard-response","trial_index":283,"time_elapsed":2768880,"internal_node_id":"0.0-8.0-0.69","subject":"vd7l2um09l9oygd","sona":"THNS"},{"rt":null,"stimulus":"<div style=\"font-size:60px;\">+</div>","key_press":null,"trial_type":"html-keyboard-response","trial_index":284,"time_elapsed":2770883,"internal_node_id":"0.0-8.0-1.69","subject":"vd7l2um09l9oygd","sona":"THNS"},{"trial_type":"turing-test","trial_index":285,"time_elapsed":2774503,"internal_node_id":"0.0-8.0-2.69","subject":"vd7l2um09l9oygd","sona":"THNS"},{"rt":1228,"stimulus":"<p>Welche Sequenz haben Sie als natürlicher empfunden?</p>","key_press":74,"test_part":"response","test_stimulus":{"position":1,"left":"bvh/vr_prediction_models/model(tmp)-dataset(return-bottle-hold)-numprim(3)-hold(3)/final-lines.txt","right":"bvh/return-bottle-hold-training3-lines.txt","att_check":false},"trial_type":"html-keyboard-response","trial_index":286,"time_elapsed":2775737,"internal_node_id":"0.0-8.0-3.69","subject":"vd7l2um09l9oygd","sona":"THNS"},{"rt":57872,"stimulus":"<p>Bereit?</p>","key_press":32,"trial_type":"html-keyboard-response","trial_index":287,"time_elapsed":2833611,"internal_node_id":"0.0-8.0-0.70","subject":"vd7l2um09l9oygd","sona":"THNS"},{"rt":null,"stimulus":"<div style=\"font-size:60px;\">+</div>","key_press":null,"trial_type":"html-keyboard-response","trial_index":288,"time_elapsed":2835613,"internal_node_id":"0.0-8.0-1.70","subject":"vd7l2um09l9oygd","sona":"THNS"},{"trial_type":"turing-test","trial_index":289,"time_elapsed":2839091,"internal_node_id":"0.0-8.0-2.70","subject":"vd7l2um09l9oygd","sona":"THNS"},{"rt":1521,"stimulus":"<p>Welche Sequenz haben Sie als natürlicher empfunden?</p>","key_press":70,"test_part":"response","test_stimulus":{"position":0,"left":"bvh/pass-bottle-hold-training3-lines.txt","right":"bvh/vr_prediction_models/model(vcgpdm)-dataset(pass-bottle-hold)-mode(ELBO)-parts(1)-dyn(30)-lvm(35)-hold(3)/final-lines.txt","att_check":false},"trial_type":"html-keyboard-response","trial_index":290,"time_elapsed":2840618,"internal_node_id":"0.0-8.0-3.70","subject":"vd7l2um09l9oygd","sona":"THNS"},{"rt":333,"stimulus":"<p>Bereit?</p>","key_press":32,"trial_type":"html-keyboard-response","trial_index":291,"time_elapsed":2840954,"internal_node_id":"0.0-8.0-0.71","subject":"vd7l2um09l9oygd","sona":"THNS"},{"rt":null,"stimulus":"<div style=\"font-size:60px;\">+</div>","key_press":null,"trial_type":"html-keyboard-response","trial_index":292,"time_elapsed":2842956,"internal_node_id":"0.0-8.0-1.71","subject":"vd7l2um09l9oygd","sona":"THNS"},{"trial_type":"turing-test","trial_index":293,"time_elapsed":2846153,"internal_node_id":"0.0-8.0-2.71","subject":"vd7l2um09l9oygd","sona":"THNS"},{"rt":2036,"stimulus":"<p>Welche Sequenz haben Sie als natürlicher empfunden?</p>","key_press":74,"test_part":"response","test_stimulus":{"position":0,"left":"bvh/pass-bottle-hold-training1-lines.txt","right":"bvh/vr_prediction_models/model(tmp)-dataset(pass-bottle-hold)-numprim(5)-hold(1)/final-lines.txt","att_check":false},"trial_type":"html-keyboard-response","trial_index":294,"time_elapsed":2848195,"internal_node_id":"0.0-8.0-3.71","subject":"vd7l2um09l9oygd","sona":"THNS"},{"rt":403,"stimulus":"<p>Bereit?</p>","key_press":32,"trial_type":"html-keyboard-response","trial_index":295,"time_elapsed":2848602,"internal_node_id":"0.0-8.0-0.72","subject":"vd7l2um09l9oygd","sona":"THNS"},{"rt":null,"stimulus":"<div style=\"font-size:60px;\">+</div>","key_press":null,"trial_type":"html-keyboard-response","trial_index":296,"time_elapsed":2850605,"internal_node_id":"0.0-8.0-1.72","subject":"vd7l2um09l9oygd","sona":"THNS"},{"trial_type":"turing-test","trial_index":297,"time_elapsed":2856300,"internal_node_id":"0.0-8.0-2.72","subject":"vd7l2um09l9oygd","sona":"THNS"},{"rt":424,"stimulus":"<p>Welche Sequenz haben Sie als natürlicher empfunden?</p>","key_press":70,"test_part":"response","test_stimulus":{"position":0,"left":"bvh/pass-bottle-training3-lines.txt","right":"bvh/vr_prediction_models/model(dmp)-dataset(pass-bottle)-npsi(40)-hold(3)/final-lines.txt","att_check":false},"trial_type":"html-keyboard-response","trial_index":298,"time_elapsed":2856728,"internal_node_id":"0.0-8.0-3.72","subject":"vd7l2um09l9oygd","sona":"THNS"},{"rt":302,"stimulus":"<p>Bereit?</p>","key_press":32,"trial_type":"html-keyboard-response","trial_index":299,"time_elapsed":2857035,"internal_node_id":"0.0-8.0-0.73","subject":"vd7l2um09l9oygd","sona":"THNS"},{"rt":null,"stimulus":"<div style=\"font-size:60px;\">+</div>","key_press":null,"trial_type":"html-keyboard-response","trial_index":300,"time_elapsed":2859036,"internal_node_id":"0.0-8.0-1.73","subject":"vd7l2um09l9oygd","sona":"THNS"},{"trial_type":"turing-test","trial_index":301,"time_elapsed":2864801,"internal_node_id":"0.0-8.0-2.73","subject":"vd7l2um09l9oygd","sona":"THNS"},{"rt":460,"stimulus":"<p>Welche Sequenz haben Sie als natürlicher empfunden?</p>","key_press":70,"test_part":"response","test_stimulus":{"position":0,"left":"bvh/return-bottle-training4-lines.txt","right":"bvh/vr_prediction_models/model(vcgpdm)-dataset(return-bottle)-mode(ELBO)-parts(3)-dyn(35)-lvm(20)-hold(4)/final-lines.txt","att_check":false},"trial_type":"html-keyboard-response","trial_index":302,"time_elapsed":2865267,"internal_node_id":"0.0-8.0-3.73","subject":"vd7l2um09l9oygd","sona":"THNS"},{"rt":410,"stimulus":"<p>Bereit?</p>","key_press":32,"trial_type":"html-keyboard-response","trial_index":303,"time_elapsed":2865683,"internal_node_id":"0.0-8.0-0.74","subject":"vd7l2um09l9oygd","sona":"THNS"},{"rt":null,"stimulus":"<div style=\"font-size:60px;\">+</div>","key_press":null,"trial_type":"html-keyboard-response","trial_index":304,"time_elapsed":2867684,"internal_node_id":"0.0-8.0-1.74","subject":"vd7l2um09l9oygd","sona":"THNS"},{"trial_type":"turing-test","trial_index":305,"time_elapsed":2871298,"internal_node_id":"0.0-8.0-2.74","subject":"vd7l2um09l9oygd","sona":"THNS"},{"rt":810,"stimulus":"<p>Welche Sequenz haben Sie als natürlicher empfunden?</p>","key_press":70,"test_part":"response","test_stimulus":{"position":0,"left":"bvh/return-bottle-hold-training3-lines.txt","right":"bvh/vr_prediction_models/model(vcgpdm)-dataset(return-bottle-hold)-mode(ELBO)-parts(3)-dyn(30)-lvm(15)-hold(3)/final-lines.txt","att_check":false},"trial_type":"html-keyboard-response","trial_index":306,"time_elapsed":2872114,"internal_node_id":"0.0-8.0-3.74","subject":"vd7l2um09l9oygd","sona":"THNS"},{"rt":292,"stimulus":"<p>Bereit?</p>","key_press":32,"trial_type":"html-keyboard-response","trial_index":307,"time_elapsed":2872411,"internal_node_id":"0.0-8.0-0.75","subject":"vd7l2um09l9oygd","sona":"THNS"},{"rt":null,"stimulus":"<div style=\"font-size:60px;\">+</div>","key_press":null,"trial_type":"html-keyboard-response","trial_index":308,"time_elapsed":2874435,"internal_node_id":"0.0-8.0-1.75","subject":"vd7l2um09l9oygd","sona":"THNS"},{"trial_type":"turing-test","trial_index":309,"time_elapsed":2877583,"internal_node_id":"0.0-8.0-2.75","subject":"vd7l2um09l9oygd","sona":"THNS"},{"rt":1590,"stimulus":"<p>Welche Sequenz haben Sie als natürlicher empfunden?</p>","key_press":70,"test_part":"response","test_stimulus":{"position":1,"left":"bvh/vr_prediction_models/model(vcgpdm)-dataset(pass-bottle-hold)-mode(ELBO)-parts(3)-dyn(30)-lvm(15)-hold(1)/final-lines.txt","right":"bvh/pass-bottle-hold-training1-lines.txt","att_check":false},"trial_type":"html-keyboard-response","trial_index":310,"time_elapsed":2879179,"internal_node_id":"0.0-8.0-3.75","subject":"vd7l2um09l9oygd","sona":"THNS"},{"rt":392,"stimulus":"<p>Bereit?</p>","key_press":32,"trial_type":"html-keyboard-response","trial_index":311,"time_elapsed":2879579,"internal_node_id":"0.0-8.0-0.76","subject":"vd7l2um09l9oygd","sona":"THNS"},{"rt":null,"stimulus":"<div style=\"font-size:60px;\">+</div>","key_press":null,"trial_type":"html-keyboard-response","trial_index":312,"time_elapsed":2881581,"internal_node_id":"0.0-8.0-1.76","subject":"vd7l2um09l9oygd","sona":"THNS"},{"trial_type":"turing-test","trial_index":313,"time_elapsed":2884968,"internal_node_id":"0.0-8.0-2.76","subject":"vd7l2um09l9oygd","sona":"THNS"},{"rt":915,"stimulus":"<p>Welche Sequenz haben Sie als natürlicher empfunden?</p>","key_press":74,"test_part":"response","test_stimulus":{"position":1,"left":"bvh/vr_prediction_models/model(vcgpdm)-dataset(return-bottle-hold)-mode(ELBO)-parts(3)-dyn(15)-lvm(30)-hold(2)/final-lines.txt","right":"bvh/return-bottle-hold-training2-lines.txt","att_check":false},"trial_type":"html-keyboard-response","trial_index":314,"time_elapsed":2885889,"internal_node_id":"0.0-8.0-3.76","subject":"vd7l2um09l9oygd","sona":"THNS"},{"rt":536,"stimulus":"<p>Bereit?</p>","key_press":32,"trial_type":"html-keyboard-response","trial_index":315,"time_elapsed":2886427,"internal_node_id":"0.0-8.0-0.77","subject":"vd7l2um09l9oygd","sona":"THNS"},{"rt":null,"stimulus":"<div style=\"font-size:60px;\">+</div>","key_press":null,"trial_type":"html-keyboard-response","trial_index":316,"time_elapsed":2888429,"internal_node_id":"0.0-8.0-1.77","subject":"vd7l2um09l9oygd","sona":"THNS"},{"trial_type":"turing-test","trial_index":317,"time_elapsed":2892352,"internal_node_id":"0.0-8.0-2.77","subject":"vd7l2um09l9oygd","sona":"THNS"},{"rt":692,"stimulus":"<p>Welche Sequenz haben Sie als natürlicher empfunden?</p>","key_press":70,"test_part":"response","test_stimulus":{"position":0,"left":"bvh/return-bottle-hold-training4-lines.txt","right":"bvh/vr_prediction_models/model(dmp)-dataset(return-bottle-hold)-npsi(60)-hold(4)/final-lines.txt","att_check":true},"trial_type":"html-keyboard-response","trial_index":318,"time_elapsed":2893051,"internal_node_id":"0.0-8.0-3.77","subject":"vd7l2um09l9oygd","sona":"THNS"},{"rt":378,"stimulus":"<p>Bereit?</p>","key_press":32,"trial_type":"html-keyboard-response","trial_index":319,"time_elapsed":2893434,"internal_node_id":"0.0-8.0-0.78","subject":"vd7l2um09l9oygd","sona":"THNS"},{"rt":null,"stimulus":"<div style=\"font-size:60px;\">+</div>","key_press":null,"trial_type":"html-keyboard-response","trial_index":320,"time_elapsed":2895436,"internal_node_id":"0.0-8.0-1.78","subject":"vd7l2um09l9oygd","sona":"THNS"},{"trial_type":"turing-test","trial_index":321,"time_elapsed":2901539,"internal_node_id":"0.0-8.0-2.78","subject":"vd7l2um09l9oygd","sona":"THNS"},{"rt":1138,"stimulus":"<p>Welche Sequenz haben Sie als natürlicher empfunden?</p>","key_press":70,"test_part":"response","test_stimulus":{"position":1,"left":"bvh/vr_prediction_models/model(vcgpdm)-dataset(return-bottle)-mode(ELBO)-parts(1)-dyn(15)-lvm(35)-hold(1)/final-lines.txt","right":"bvh/return-bottle-training1-lines.txt","att_check":false},"trial_type":"html-keyboard-response","trial_index":322,"time_elapsed":2902684,"internal_node_id":"0.0-8.0-3.78","subject":"vd7l2um09l9oygd","sona":"THNS"},{"rt":457,"stimulus":"<p>Bereit?</p>","key_press":32,"trial_type":"html-keyboard-response","trial_index":323,"time_elapsed":2903147,"internal_node_id":"0.0-8.0-0.79","subject":"vd7l2um09l9oygd","sona":"THNS"},{"rt":null,"stimulus":"<div style=\"font-size:60px;\">+</div>","key_press":null,"trial_type":"html-keyboard-response","trial_index":324,"time_elapsed":2905149,"internal_node_id":"0.0-8.0-1.79","subject":"vd7l2um09l9oygd","sona":"THNS"},{"trial_type":"turing-test","trial_index":325,"time_elapsed":2908724,"internal_node_id":"0.0-8.0-2.79","subject":"vd7l2um09l9oygd","sona":"THNS"},{"rt":1353,"stimulus":"<p>Welche Sequenz haben Sie als natürlicher empfunden?</p>","key_press":70,"test_part":"response","test_stimulus":{"position":0,"left":"bvh/pass-bottle-hold-training3-lines.txt","right":"bvh/vr_prediction_models/model(vcgpdm)-dataset(pass-bottle-hold)-mode(ELBO)-parts(1)-dyn(20)-lvm(30)-hold(3)/final-lines.txt","att_check":false},"trial_type":"html-keyboard-response","trial_index":326,"time_elapsed":2910083,"internal_node_id":"0.0-8.0-3.79","subject":"vd7l2um09l9oygd","sona":"THNS"},{"rt":355,"stimulus":"<p>Bereit?</p>","key_press":32,"trial_type":"html-keyboard-response","trial_index":327,"time_elapsed":2910443,"internal_node_id":"0.0-8.0-0.80","subject":"vd7l2um09l9oygd","sona":"THNS"},{"rt":null,"stimulus":"<div style=\"font-size:60px;\">+</div>","key_press":null,"trial_type":"html-keyboard-response","trial_index":328,"time_elapsed":2912445,"internal_node_id":"0.0-8.0-1.80","subject":"vd7l2um09l9oygd","sona":"THNS"},{"trial_type":"turing-test","trial_index":329,"time_elapsed":2915766,"internal_node_id":"0.0-8.0-2.80","subject":"vd7l2um09l9oygd","sona":"THNS"},{"rt":2607,"stimulus":"<p>Welche Sequenz haben Sie als natürlicher empfunden?</p>","key_press":74,"test_part":"response","test_stimulus":{"position":1,"left":"bvh/vr_prediction_models/model(vcgpdm)-dataset(pass-bottle-hold)-mode(ELBO)-parts(1)-dyn(15)-lvm(35)-hold(2)/final-lines.txt","right":"bvh/pass-bottle-hold-training2-lines.txt","att_check":false},"trial_type":"html-keyboard-response","trial_index":330,"time_elapsed":2918380,"internal_node_id":"0.0-8.0-3.80","subject":"vd7l2um09l9oygd","sona":"THNS"},{"rt":409,"stimulus":"<p>Bereit?</p>","key_press":32,"trial_type":"html-keyboard-response","trial_index":331,"time_elapsed":2918796,"internal_node_id":"0.0-8.0-0.81","subject":"vd7l2um09l9oygd","sona":"THNS"},{"rt":null,"stimulus":"<div style=\"font-size:60px;\">+</div>","key_press":null,"trial_type":"html-keyboard-response","trial_index":332,"time_elapsed":2920797,"internal_node_id":"0.0-8.0-1.81","subject":"vd7l2um09l9oygd","sona":"THNS"},{"trial_type":"turing-test","trial_index":333,"time_elapsed":2924191,"internal_node_id":"0.0-8.0-2.81","subject":"vd7l2um09l9oygd","sona":"THNS"},{"rt":2608,"stimulus":"<p>Welche Sequenz haben Sie als natürlicher empfunden?</p>","key_press":70,"test_part":"response","test_stimulus":{"position":0,"left":"bvh/return-bottle-hold-training2-lines.txt","right":"bvh/vr_prediction_models/model(vcgpdm)-dataset(return-bottle-hold)-mode(ELBO)-parts(1)-dyn(20)-lvm(5)-hold(2)/final-lines.txt","att_check":false},"trial_type":"html-keyboard-response","trial_index":334,"time_elapsed":2926802,"internal_node_id":"0.0-8.0-3.81","subject":"vd7l2um09l9oygd","sona":"THNS"},{"rt":336,"stimulus":"<p>Bereit?</p>","key_press":32,"trial_type":"html-keyboard-response","trial_index":335,"time_elapsed":2927139,"internal_node_id":"0.0-8.0-0.82","subject":"vd7l2um09l9oygd","sona":"THNS"},{"rt":null,"stimulus":"<div style=\"font-size:60px;\">+</div>","key_press":null,"trial_type":"html-keyboard-response","trial_index":336,"time_elapsed":2929141,"internal_node_id":"0.0-8.0-1.82","subject":"vd7l2um09l9oygd","sona":"THNS"},{"trial_type":"turing-test","trial_index":337,"time_elapsed":2932458,"internal_node_id":"0.0-8.0-2.82","subject":"vd7l2um09l9oygd","sona":"THNS"},{"rt":794,"stimulus":"<p>Welche Sequenz haben Sie als natürlicher empfunden?</p>","key_press":70,"test_part":"response","test_stimulus":{"position":0,"left":"bvh/return-bottle-hold-training1-lines.txt","right":"bvh/vr_prediction_models/model(vcgpdm)-dataset(return-bottle-hold)-mode(ELBO)-parts(3)-dyn(15)-lvm(30)-hold(1)/final-lines.txt","att_check":false},"trial_type":"html-keyboard-response","trial_index":338,"time_elapsed":2933260,"internal_node_id":"0.0-8.0-3.82","subject":"vd7l2um09l9oygd","sona":"THNS"},{"rt":448,"stimulus":"<p>Bereit?</p>","key_press":32,"trial_type":"html-keyboard-response","trial_index":339,"time_elapsed":2933716,"internal_node_id":"0.0-8.0-0.83","subject":"vd7l2um09l9oygd","sona":"THNS"},{"rt":null,"stimulus":"<div style=\"font-size:60px;\">+</div>","key_press":null,"trial_type":"html-keyboard-response","trial_index":340,"time_elapsed":2935719,"internal_node_id":"0.0-8.0-1.83","subject":"vd7l2um09l9oygd","sona":"THNS"},{"trial_type":"turing-test","trial_index":341,"time_elapsed":2941083,"internal_node_id":"0.0-8.0-2.83","subject":"vd7l2um09l9oygd","sona":"THNS"},{"rt":994,"stimulus":"<p>Welche Sequenz haben Sie als natürlicher empfunden?</p>","key_press":74,"test_part":"response","test_stimulus":{"position":1,"left":"bvh/vr_prediction_models/model(vcgpdm)-dataset(pass-bottle)-mode(ELBO)-parts(1)-dyn(35)-lvm(30)-hold(1)/final-lines.txt","right":"bvh/pass-bottle-training1-lines.txt","att_check":false},"trial_type":"html-keyboard-response","trial_index":342,"time_elapsed":2942084,"internal_node_id":"0.0-8.0-3.83","subject":"vd7l2um09l9oygd","sona":"THNS"},{"rt":377,"stimulus":"<p>Bereit?</p>","key_press":32,"trial_type":"html-keyboard-response","trial_index":343,"time_elapsed":2942468,"internal_node_id":"0.0-8.0-0.84","subject":"vd7l2um09l9oygd","sona":"THNS"},{"rt":null,"stimulus":"<div style=\"font-size:60px;\">+</div>","key_press":null,"trial_type":"html-keyboard-response","trial_index":344,"time_elapsed":2944469,"internal_node_id":"0.0-8.0-1.84","subject":"vd7l2um09l9oygd","sona":"THNS"},{"trial_type":"turing-test","trial_index":345,"time_elapsed":2948058,"internal_node_id":"0.0-8.0-2.84","subject":"vd7l2um09l9oygd","sona":"THNS"},{"rt":686,"stimulus":"<p>Welche Sequenz haben Sie als natürlicher empfunden?</p>","key_press":74,"test_part":"response","test_stimulus":{"position":1,"left":"bvh/vr_prediction_models/model(dmp)-dataset(return-bottle-hold)-npsi(20)-hold(4)/final-lines.txt","right":"bvh/return-bottle-hold-training4-lines.txt","att_check":false},"trial_type":"html-keyboard-response","trial_index":346,"time_elapsed":2948748,"internal_node_id":"0.0-8.0-3.84","subject":"vd7l2um09l9oygd","sona":"THNS"},{"rt":471,"stimulus":"<p>Bereit?</p>","key_press":32,"trial_type":"html-keyboard-response","trial_index":347,"time_elapsed":2949228,"internal_node_id":"0.0-8.0-0.85","subject":"vd7l2um09l9oygd","sona":"THNS"},{"rt":null,"stimulus":"<div style=\"font-size:60px;\">+</div>","key_press":null,"trial_type":"html-keyboard-response","trial_index":348,"time_elapsed":2951231,"internal_node_id":"0.0-8.0-1.85","subject":"vd7l2um09l9oygd","sona":"THNS"},{"trial_type":"turing-test","trial_index":349,"time_elapsed":2954869,"internal_node_id":"0.0-8.0-2.85","subject":"vd7l2um09l9oygd","sona":"THNS"},{"rt":687,"stimulus":"<p>Welche Sequenz haben Sie als natürlicher empfunden?</p>","key_press":74,"test_part":"response","test_stimulus":{"position":1,"left":"bvh/vr_prediction_models/model(vcgpdm)-dataset(return-bottle-hold)-mode(ELBO)-parts(3)-dyn(20)-lvm(35)-hold(4)/final-lines.txt","right":"bvh/return-bottle-hold-training4-lines.txt","att_check":false},"trial_type":"html-keyboard-response","trial_index":350,"time_elapsed":2955564,"internal_node_id":"0.0-8.0-3.85","subject":"vd7l2um09l9oygd","sona":"THNS"},{"rt":457,"stimulus":"<p>Bereit?</p>","key_press":32,"trial_type":"html-keyboard-response","trial_index":351,"time_elapsed":2956027,"internal_node_id":"0.0-8.0-0.86","subject":"vd7l2um09l9oygd","sona":"THNS"},{"rt":null,"stimulus":"<div style=\"font-size:60px;\">+</div>","key_press":null,"trial_type":"html-keyboard-response","trial_index":352,"time_elapsed":2958030,"internal_node_id":"0.0-8.0-1.86","subject":"vd7l2um09l9oygd","sona":"THNS"},{"trial_type":"turing-test","trial_index":353,"time_elapsed":2963416,"internal_node_id":"0.0-8.0-2.86","subject":"vd7l2um09l9oygd","sona":"THNS"},{"rt":1338,"stimulus":"<p>Welche Sequenz haben Sie als natürlicher empfunden?</p>","key_press":74,"test_part":"response","test_stimulus":{"position":1,"left":"bvh/vr_prediction_models/model(vcgpdm)-dataset(return-bottle)-mode(ELBO)-parts(1)-dyn(35)-lvm(10)-hold(0)/final-lines.txt","right":"bvh/return-bottle-training0-lines.txt","att_check":false},"trial_type":"html-keyboard-response","trial_index":354,"time_elapsed":2964756,"internal_node_id":"0.0-8.0-3.86","subject":"vd7l2um09l9oygd","sona":"THNS"},{"rt":594,"stimulus":"<p>Bereit?</p>","key_press":32,"trial_type":"html-keyboard-response","trial_index":355,"time_elapsed":2965356,"internal_node_id":"0.0-8.0-0.87","subject":"vd7l2um09l9oygd","sona":"THNS"},{"rt":null,"stimulus":"<div style=\"font-size:60px;\">+</div>","key_press":null,"trial_type":"html-keyboard-response","trial_index":356,"time_elapsed":2967358,"internal_node_id":"0.0-8.0-1.87","subject":"vd7l2um09l9oygd","sona":"THNS"},{"trial_type":"turing-test","trial_index":357,"time_elapsed":2973950,"internal_node_id":"0.0-8.0-2.87","subject":"vd7l2um09l9oygd","sona":"THNS"},{"rt":2992,"stimulus":"<p>Welche Sequenz haben Sie als natürlicher empfunden?</p>","key_press":74,"test_part":"response","test_stimulus":{"position":0,"left":"bvh/return-bottle-training2-lines.txt","right":"bvh/vr_prediction_models/model(vcgpdm)-dataset(return-bottle)-mode(ELBO)-parts(1)-dyn(20)-lvm(20)-hold(2)/final-lines.txt","att_check":false},"trial_type":"html-keyboard-response","trial_index":358,"time_elapsed":2976948,"internal_node_id":"0.0-8.0-3.87","subject":"vd7l2um09l9oygd","sona":"THNS"},{"rt":612,"stimulus":"<p>Bereit?</p>","key_press":32,"trial_type":"html-keyboard-response","trial_index":359,"time_elapsed":2977564,"internal_node_id":"0.0-8.0-0.88","subject":"vd7l2um09l9oygd","sona":"THNS"},{"rt":null,"stimulus":"<div style=\"font-size:60px;\">+</div>","key_press":null,"trial_type":"html-keyboard-response","trial_index":360,"time_elapsed":2979565,"internal_node_id":"0.0-8.0-1.88","subject":"vd7l2um09l9oygd","sona":"THNS"},{"trial_type":"turing-test","trial_index":361,"time_elapsed":2982900,"internal_node_id":"0.0-8.0-2.88","subject":"vd7l2um09l9oygd","sona":"THNS"},{"rt":723,"stimulus":"<p>Welche Sequenz haben Sie als natürlicher empfunden?</p>","key_press":74,"test_part":"response","test_stimulus":{"position":1,"left":"bvh/vr_prediction_models/model(vcgpdm)-dataset(pass-bottle-hold)-mode(MAP)-parts(1)-hold(0)/final-lines.txt","right":"bvh/pass-bottle-hold-training0-lines.txt","att_check":false},"trial_type":"html-keyboard-response","trial_index":362,"time_elapsed":2983628,"internal_node_id":"0.0-8.0-3.88","subject":"vd7l2um09l9oygd","sona":"THNS"},{"rt":449,"stimulus":"<p>Bereit?</p>","key_press":32,"trial_type":"html-keyboard-response","trial_index":363,"time_elapsed":2984084,"internal_node_id":"0.0-8.0-0.89","subject":"vd7l2um09l9oygd","sona":"THNS"},{"rt":null,"stimulus":"<div style=\"font-size:60px;\">+</div>","key_press":null,"trial_type":"html-keyboard-response","trial_index":364,"time_elapsed":2986085,"internal_node_id":"0.0-8.0-1.89","subject":"vd7l2um09l9oygd","sona":"THNS"},{"trial_type":"turing-test","trial_index":365,"time_elapsed":2992808,"internal_node_id":"0.0-8.0-2.89","subject":"vd7l2um09l9oygd","sona":"THNS"},{"rt":1301,"stimulus":"<p>Welche Sequenz haben Sie als natürlicher empfunden?</p>","key_press":70,"test_part":"response","test_stimulus":{"position":0,"left":"bvh/pass-bottle-training0-lines.txt","right":"bvh/vr_prediction_models/model(vcgpdm)-dataset(pass-bottle)-mode(ELBO)-parts(3)-dyn(35)-lvm(20)-hold(0)/final-lines.txt","att_check":false},"trial_type":"html-keyboard-response","trial_index":366,"time_elapsed":2994116,"internal_node_id":"0.0-8.0-3.89","subject":"vd7l2um09l9oygd","sona":"THNS"},{"rt":497,"stimulus":"<p>Bereit?</p>","key_press":32,"trial_type":"html-keyboard-response","trial_index":367,"time_elapsed":2994619,"internal_node_id":"0.0-8.0-0.90","subject":"vd7l2um09l9oygd","sona":"THNS"},{"rt":null,"stimulus":"<div style=\"font-size:60px;\">+</div>","key_press":null,"trial_type":"html-keyboard-response","trial_index":368,"time_elapsed":2996621,"internal_node_id":"0.0-8.0-1.90","subject":"vd7l2um09l9oygd","sona":"THNS"},{"trial_type":"turing-test","trial_index":369,"time_elapsed":2999852,"internal_node_