[{"rt":3917.0049999956973,"stimulus":"<p>Welcome!<br> Please choose your language to start the experiment in the chosen language.</p><p>Willkommen!<br> Bitte wählen Sie eine Sprache, um das Experiment in der ausgewählten Sprache zu starten</p>","button_pressed":"1","trial_type":"html-button-response","trial_index":0,"time_elapsed":3966,"internal_node_id":"0.0-0.0","subject":"9lqergm8g4731vw","sona":"9559"},{"view_history":"[{\"page_index\":0,\"viewing_time\":7227.160000009462},{\"page_index\":1,\"viewing_time\":7095.980000041891},{\"page_index\":2,\"viewing_time\":16050.349999975879},{\"page_index\":3,\"viewing_time\":12255.179999978282},{\"page_index\":4,\"viewing_time\":6130.000000004657}]","rt":48759.97000001371,"trial_type":"instructions","trial_index":1,"time_elapsed":52729,"internal_node_id":"0.0-1.0-0.0","subject":"9lqergm8g4731vw","sona":"9559"},{"rt":1964.9549999739975,"stimulus":"<p>Bereit?</p>","key_press":32,"trial_type":"html-keyboard-response","trial_index":2,"time_elapsed":54696,"internal_node_id":"0.0-3.0","subject":"9lqergm8g4731vw","sona":"9559"},{"rt":null,"stimulus":"<div style=\"font-size:60px;\">+</div>","key_press":null,"trial_type":"html-keyboard-response","trial_index":3,"time_elapsed":56698,"internal_node_id":"0.0-4.0","subject":"9lqergm8g4731vw","sona":"9559"},{"trial_type":"training","trial_index":4,"time_elapsed":60306,"internal_node_id":"0.0-5.0","subject":"9lqergm8g4731vw","sona":"9559"},{"rt":854.86000002129,"stimulus":"<p>Welche Sequenz haben Sie als natürlicher empfunden?</p>","key_press":70,"trial_type":"html-keyboard-response","trial_index":5,"time_elapsed":61163,"internal_node_id":"0.0-6.0","subject":"9lqergm8g4731vw","sona":"9559"},{"rt":3159.025000000838,"stimulus":"<p>Das Experiment startet nun.</p><p><small>Bitte drücken Sie den Knopf, wenn Sie bereit sind.</small></p>","button_pressed":"0","trial_type":"html-button-response","trial_index":6,"time_elapsed":64324,"internal_node_id":"0.0-7.0","subject":"9lqergm8g4731vw","sona":"9559"},{"rt":2054.409999982454,"stimulus":"<p>Bereit?</p>","key_press":32,"trial_type":"html-keyboard-response","trial_index":7,"time_elapsed":66380,"internal_node_id":"0.0-8.0-0.0","subject":"9lqergm8g4731vw","sona":"9559"},{"rt":null,"stimulus":"<div style=\"font-size:60px;\">+</div>","key_press":null,"trial_type":"html-keyboard-response","trial_index":8,"time_elapsed":68383,"internal_node_id":"0.0-8.0-1.0","subject":"9lqergm8g4731vw","sona":"9559"},{"trial_type":"turing-test","trial_index":9,"time_elapsed":71751,"internal_node_id":"0.0-8.0-2.0","subject":"9lqergm8g4731vw","sona":"9559"},{"rt":4706.349999993108,"stimulus":"<p>Welche Sequenz haben Sie als natürlicher empfunden?</p>","key_press":70,"test_part":"response","test_stimulus":{"position":1,"left":"bvh/vr_prediction_models/model(dmp)-dataset(pass-bottle-hold)-npsi(70)-hold(1)/final-lines.txt","right":"bvh/pass-bottle-hold-training1-lines.txt","att_check":false},"trial_type":"html-keyboard-response","trial_index":10,"time_elapsed":76463,"internal_node_id":"0.0-8.0-3.0","subject":"9lqergm8g4731vw","sona":"9559"},{"rt":1113.9700000057928,"stimulus":"<p>Bereit?</p>","key_press":32,"trial_type":"html-keyboard-response","trial_index":11,"time_elapsed":77582,"internal_node_id":"0.0-8.0-0.1","subject":"9lqergm8g4731vw","sona":"9559"},{"rt":null,"stimulus":"<div style=\"font-size:60px;\">+</div>","key_press":null,"trial_type":"html-keyboard-response","trial_index":12,"time_elapsed":79584,"internal_node_id":"0.0-8.0-1.1","subject":"9lqergm8g4731vw","sona":"9559"},{"trial_type":"turing-test","trial_index":13,"time_elapsed":85712,"internal_node_id":"0.0-8.0-2.1","subject":"9lqergm8g4731vw","sona":"9559"},{"rt":1647.6699999766424,"stimulus":"<p>Welche Sequenz haben Sie als natürlicher empfunden?</p>","key_press":74,"test_part":"response","test_stimulus":{"position":1,"left":"bvh/vr_prediction_models/model(dmp)-dataset(pass-bottle)-npsi(70)-hold(3)/final-lines.txt","right":"bvh/pass-bottle-training3-lines.txt","att_check":false},"trial_type":"html-keyboard-response","trial_index":14,"time_elapsed":87365,"internal_node_id":"0.0-8.0-3.1","subject":"9lqergm8g4731vw","sona":"9559"},{"rt":1600.9150000172667,"stimulus":"<p>Bereit?</p>","key_press":32,"trial_type":"html-keyboard-response","trial_index":15,"time_elapsed":88969,"internal_node_id":"0.0-8.0-0.2","subject":"9lqergm8g4731vw","sona":"9559"},{"rt":null,"stimulus":"<div style=\"font-size:60px;\">+</div>","key_press":null,"trial_type":"html-keyboard-response","trial_index":16,"time_elapsed":90972,"internal_node_id":"0.0-8.0-1.2","subject":"9lqergm8g4731vw","sona":"9559"},{"trial_type":"turing-test","trial_index":17,"time_elapsed":94893,"internal_node_id":"0.0-8.0-2.2","subject":"9lqergm8g4731vw","sona":"9559"},{"rt":779.6450000023469,"stimulus":"<p>Welche Sequenz haben Sie als natürlicher empfunden?</p>","key_press":74,"test_part":"response","test_stimulus":{"position":1,"left":"bvh/vr_prediction_models/model(tmp)-dataset(return-bottle-hold)-numprim(3)-hold(3)/final-lines.txt","right":"bvh/return-bottle-hold-training3-lines.txt","att_check":false},"trial_type":"html-keyboard-response","trial_index":18,"time_elapsed":95678,"internal_node_id":"0.0-8.0-3.2","subject":"9lqergm8g4731vw","sona":"9559"},{"rt":763.619999983348,"stimulus":"<p>Bereit?</p>","key_press":32,"trial_type":"html-keyboard-response","trial_index":19,"time_elapsed":96444,"internal_node_id":"0.0-8.0-0.3","subject":"9lqergm8g4731vw","sona":"9559"},{"rt":null,"stimulus":"<div style=\"font-size:60px;\">+</div>","key_press":null,"trial_type":"html-keyboard-response","trial_index":20,"time_elapsed":98447,"internal_node_id":"0.0-8.0-1.3","subject":"9lqergm8g4731vw","sona":"9559"},{"trial_type":"turing-test","trial_index":21,"time_elapsed":105462,"internal_node_id":"0.0-8.0-2.3","subject":"9lqergm8g4731vw","sona":"9559"},{"rt":541.91000002902,"stimulus":"<p>Welche Sequenz haben Sie als natürlicher empfunden?</p>","key_press":70,"test_part":"response","test_stimulus":{"position":0,"left":"bvh/return-bottle-training1-lines.txt","right":"bvh/vr_prediction_models/model(vcgpdm)-dataset(return-bottle)-mode(ELBO)-parts(3)-dyn(20)-lvm(15)-hold(1)/final-lines.txt","att_check":false},"trial_type":"html-keyboard-response","trial_index":22,"time_elapsed":106010,"internal_node_id":"0.0-8.0-3.3","subject":"9lqergm8g4731vw","sona":"9559"},{"rt":613.5800000047311,"stimulus":"<p>Bereit?</p>","key_press":32,"trial_type":"html-keyboard-response","trial_index":23,"time_elapsed":106627,"internal_node_id":"0.0-8.0-0.4","subject":"9lqergm8g4731vw","sona":"9559"},{"rt":null,"stimulus":"<div style=\"font-size:60px;\">+</div>","key_press":null,"trial_type":"html-keyboard-response","trial_index":24,"time_elapsed":108630,"internal_node_id":"0.0-8.0-1.4","subject":"9lqergm8g4731vw","sona":"9559"},{"trial_type":"turing-test","trial_index":25,"time_elapsed":113941,"internal_node_id":"0.0-8.0-2.4","subject":"9lqergm8g4731vw","sona":"9559"},{"rt":1129.9349999753758,"stimulus":"<p>Welche Sequenz haben Sie als natürlicher empfunden?</p>","key_press":70,"test_part":"response","test_stimulus":{"position":0,"left":"bvh/return-bottle-hold-training0-lines.txt","right":"bvh/vr_prediction_models/model(dmp)-dataset(return-bottle-hold)-npsi(10)-hold(0)/final-lines.txt","att_check":true},"trial_type":"html-keyboard-response","trial_index":26,"time_elapsed":115076,"internal_node_id":"0.0-8.0-3.4","subject":"9lqergm8g4731vw","sona":"9559"},{"rt":826.2499999837019,"stimulus":"<p>Bereit?</p>","key_press":32,"trial_type":"html-keyboard-response","trial_index":27,"time_elapsed":115905,"internal_node_id":"0.0-8.0-0.5","subject":"9lqergm8g4731vw","sona":"9559"},{"rt":null,"stimulus":"<div style=\"font-size:60px;\">+</div>","key_press":null,"trial_type":"html-keyboard-response","trial_index":28,"time_elapsed":117911,"internal_node_id":"0.0-8.0-1.5","subject":"9lqergm8g4731vw","sona":"9559"},{"trial_type":"turing-test","trial_index":29,"time_elapsed":123788,"internal_node_id":"0.0-8.0-2.5","subject":"9lqergm8g4731vw","sona":"9559"},{"rt":1001.9250000477768,"stimulus":"<p>Welche Sequenz haben Sie als natürlicher empfunden?</p>","key_press":74,"test_part":"response","test_stimulus":{"position":1,"left":"bvh/vr_prediction_models/model(vcgpdm)-dataset(return-bottle)-mode(ELBO)-parts(3)-dyn(10)-lvm(25)-hold(0)/final-lines.txt","right":"bvh/return-bottle-training0-lines.txt","att_check":false},"trial_type":"html-keyboard-response","trial_index":30,"time_elapsed":124795,"internal_node_id":"0.0-8.0-3.5","subject":"9lqergm8g4731vw","sona":"9559"},{"rt":438.77500004600734,"stimulus":"<p>Bereit?</p>","key_press":32,"trial_type":"html-keyboard-response","trial_index":31,"time_elapsed":125238,"internal_node_id":"0.0-8.0-0.6","subject":"9lqergm8g4731vw","sona":"9559"},{"rt":null,"stimulus":"<div style=\"font-size:60px;\">+</div>","key_press":null,"trial_type":"html-keyboard-response","trial_index":32,"time_elapsed":127241,"internal_node_id":"0.0-8.0-1.6","subject":"9lqergm8g4731vw","sona":"9559"},{"trial_type":"turing-test","trial_index":33,"time_elapsed":132716,"internal_node_id":"0.0-8.0-2.6","subject":"9lqergm8g4731vw","sona":"9559"},{"rt":494.6099999942817,"stimulus":"<p>Welche Sequenz haben Sie als natürlicher empfunden?</p>","key_press":70,"test_part":"response","test_stimulus":{"position":0,"left":"bvh/return-bottle-hold-training0-lines.txt","right":"bvh/vr_prediction_models/model(vcgpdm)-dataset(return-bottle-hold)-mode(ELBO)-parts(3)-dyn(25)-lvm(15)-hold(0)/final-lines.txt","att_check":false},"trial_type":"html-keyboard-response","trial_index":34,"time_elapsed":133216,"internal_node_id":"0.0-8.0-3.6","subject":"9lqergm8g4731vw","sona":"9559"},{"rt":799.715000030119,"stimulus":"<p>Bereit?</p>","key_press":32,"trial_type":"html-keyboard-response","trial_index":35,"time_elapsed":134019,"internal_node_id":"0.0-8.0-0.7","subject":"9lqergm8g4731vw","sona":"9559"},{"rt":null,"stimulus":"<div style=\"font-size:60px;\">+</div>","key_press":null,"trial_type":"html-keyboard-response","trial_index":36,"time_elapsed":136022,"internal_node_id":"0.0-8.0-1.7","subject":"9lqergm8g4731vw","sona":"9559"},{"trial_type":"turing-test","trial_index":37,"time_elapsed":142219,"internal_node_id":"0.0-8.0-2.7","subject":"9lqergm8g4731vw","sona":"9559"},{"rt":732.6349999639206,"stimulus":"<p>Welche Sequenz haben Sie als natürlicher empfunden?</p>","key_press":70,"test_part":"response","test_stimulus":{"position":0,"left":"bvh/return-bottle-training3-lines.txt","right":"bvh/vr_prediction_models/model(vcgpdm)-dataset(return-bottle)-mode(ELBO)-parts(1)-dyn(30)-lvm(30)-hold(3)/final-lines.txt","att_check":false},"trial_type":"html-keyboard-response","trial_index":38,"time_elapsed":142958,"internal_node_id":"0.0-8.0-3.7","subject":"9lqergm8g4731vw","sona":"9559"},{"rt":480.3749999846332,"stimulus":"<p>Bereit?</p>","key_press":32,"trial_type":"html-keyboard-response","trial_index":39,"time_elapsed":143441,"internal_node_id":"0.0-8.0-0.8","subject":"9lqergm8g4731vw","sona":"9559"},{"rt":null,"stimulus":"<div style=\"font-size:60px;\">+</div>","key_press":null,"trial_type":"html-keyboard-response","trial_index":40,"time_elapsed":145443,"internal_node_id":"0.0-8.0-1.8","subject":"9lqergm8g4731vw","sona":"9559"},{"trial_type":"turing-test","trial_index":41,"time_elapsed":151589,"internal_node_id":"0.0-8.0-2.8","subject":"9lqergm8g4731vw","sona":"9559"},{"rt":463.78500002902,"stimulus":"<p>Welche Sequenz haben Sie als natürlicher empfunden?</p>","key_press":70,"test_part":"response","test_stimulus":{"position":0,"left":"bvh/pass-bottle-training3-lines.txt","right":"bvh/vr_prediction_models/model(vcgpdm)-dataset(pass-bottle)-mode(ELBO)-parts(1)-dyn(30)-lvm(35)-hold(3)/final-lines.txt","att_check":false},"trial_type":"html-keyboard-response","trial_index":42,"time_elapsed":152058,"internal_node_id":"0.0-8.0-3.8","subject":"9lqergm8g4731vw","sona":"9559"},{"rt":434.03000000398606,"stimulus":"<p>Bereit?</p>","key_press":32,"trial_type":"html-keyboard-response","trial_index":43,"time_elapsed":152495,"internal_node_id":"0.0-8.0-0.9","subject":"9lqergm8g4731vw","sona":"9559"},{"rt":null,"stimulus":"<div style=\"font-size:60px;\">+</div>","key_press":null,"trial_type":"html-keyboard-response","trial_index":44,"time_elapsed":154498,"internal_node_id":"0.0-8.0-1.9","subject":"9lqergm8g4731vw","sona":"9559"},{"trial_type":"turing-test","trial_index":45,"time_elapsed":160387,"internal_node_id":"0.0-8.0-2.9","subject":"9lqergm8g4731vw","sona":"9559"},{"rt":532.0200000423938,"stimulus":"<p>Welche Sequenz haben Sie als natürlicher empfunden?</p>","key_press":70,"test_part":"response","test_stimulus":{"position":0,"left":"bvh/return-bottle-training3-lines.txt","right":"bvh/vr_prediction_models/model(dmp)-dataset(return-bottle)-npsi(70)-hold(3)/final-lines.txt","att_check":false},"trial_type":"html-keyboard-response","trial_index":46,"time_elapsed":160924,"internal_node_id":"0.0-8.0-3.9","subject":"9lqergm8g4731vw","sona":"9559"},{"rt":489.36000000685453,"stimulus":"<p>Bereit?</p>","key_press":32,"trial_type":"html-keyboard-response","trial_index":47,"time_elapsed":161417,"internal_node_id":"0.0-8.0-0.10","subject":"9lqergm8g4731vw","sona":"9559"},{"rt":null,"stimulus":"<div style=\"font-size:60px;\">+</div>","key_press":null,"trial_type":"html-keyboard-response","trial_index":48,"time_elapsed":163418,"internal_node_id":"0.0-8.0-1.10","subject":"9lqergm8g4731vw","sona":"9559"},{"trial_type":"turing-test","trial_index":49,"time_elapsed":170671,"internal_node_id":"0.0-8.0-2.10","subject":"9lqergm8g4731vw","sona":"9559"},{"rt":405.7899999897927,"stimulus":"<p>Welche Sequenz haben Sie als natürlicher empfunden?</p>","key_press":70,"test_part":"response","test_stimulus":{"position":0,"left":"bvh/return-bottle-training2-lines.txt","right":"bvh/vr_prediction_models/model(vcgpdm)-dataset(return-bottle)-mode(ELBO)-parts(1)-dyn(30)-lvm(20)-hold(2)/final-lines.txt","att_check":false},"trial_type":"html-keyboard-response","trial_index":50,"time_elapsed":171082,"internal_node_id":"0.0-8.0-3.10","subject":"9lqergm8g4731vw","sona":"9559"},{"rt":434.7999999881722,"stimulus":"<p>Bereit?</p>","key_press":32,"trial_type":"html-keyboard-response","trial_index":51,"time_elapsed":171520,"internal_node_id":"0.0-8.0-0.11","subject":"9lqergm8g4731vw","sona":"9559"},{"rt":null,"stimulus":"<div style=\"font-size:60px;\">+</div>","key_press":null,"trial_type":"html-keyboard-response","trial_index":52,"time_elapsed":173521,"internal_node_id":"0.0-8.0-1.11","subject":"9lqergm8g4731vw","sona":"9559"}]