[{"rt":1811,"stimulus":"<p>Welcome!<br> Please choose your language to start the experiment in the chosen language.</p><p>Willkommen!<br> Bitte wählen Sie eine Sprache, um das Experiment in der ausgewählten Sprache zu starten</p>","button_pressed":"1","trial_type":"html-button-response","trial_index":0,"time_elapsed":1826,"internal_node_id":"0.0-0.0","subject":"ow8nzt48wrs0nst","sona":"9505"},{"view_history":"[{\"page_index\":0,\"viewing_time\":666},{\"page_index\":1,\"viewing_time\":1235},{\"page_index\":2,\"viewing_time\":2167},{\"page_index\":3,\"viewing_time\":2069},{\"page_index\":4,\"viewing_time\":1494}]","rt":7632,"trial_type":"instructions","trial_index":1,"time_elapsed":9464,"internal_node_id":"0.0-1.0-0.0","subject":"ow8nzt48wrs0nst","sona":"9505"},{"rt":1890,"stimulus":"<p>Bereit?</p>","key_press":32,"trial_type":"html-keyboard-response","trial_index":2,"time_elapsed":11360,"internal_node_id":"0.0-3.0","subject":"ow8nzt48wrs0nst","sona":"9505"},{"rt":null,"stimulus":"<div style=\"font-size:60px;\">+</div>","key_press":null,"trial_type":"html-keyboard-response","trial_index":3,"time_elapsed":13379,"internal_node_id":"0.0-4.0","subject":"ow8nzt48wrs0nst","sona":"9505"},{"trial_type":"training","trial_index":4,"time_elapsed":16917,"internal_node_id":"0.0-5.0","subject":"ow8nzt48wrs0nst","sona":"9505"},{"rt":20853,"stimulus":"<p>Welche Sequenz haben Sie als natürlicher empfunden?</p>","key_press":74,"trial_type":"html-keyboard-response","trial_index":5,"time_elapsed":37772,"internal_node_id":"0.0-6.0","subject":"ow8nzt48wrs0nst","sona":"9505"},{"rt":3261,"stimulus":"<p>Das Experiment startet nun.</p><p><small>Bitte drücken Sie den Knopf, wenn Sie bereit sind.</small></p>","button_pressed":"0","trial_type":"html-button-response","trial_index":6,"time_elapsed":41033,"internal_node_id":"0.0-7.0","subject":"ow8nzt48wrs0nst","sona":"9505"},{"rt":910,"stimulus":"<p>Bereit?</p>","key_press":32,"trial_type":"html-keyboard-response","trial_index":7,"time_elapsed":41948,"internal_node_id":"0.0-8.0-0.0","subject":"ow8nzt48wrs0nst","sona":"9505"},{"rt":null,"stimulus":"<div style=\"font-size:60px;\">+</div>","key_press":null,"trial_type":"html-keyboard-response","trial_index":8,"time_elapsed":43987,"internal_node_id":"0.0-8.0-1.0","subject":"ow8nzt48wrs0nst","sona":"9505"},{"trial_type":"turing-test","trial_index":9,"time_elapsed":47613,"internal_node_id":"0.0-8.0-2.0","subject":"ow8nzt48wrs0nst","sona":"9505"},{"rt":29331,"stimulus":"<p>Welche Sequenz haben Sie als natürlicher empfunden?</p>","key_press":74,"test_part":"response","test_stimulus":{"position":1,"left":"bvh/vr_prediction_models/model(dmp)-dataset(pass-bottle-hold)-npsi(30)-hold(4)/final-lines.txt","right":"bvh/pass-bottle-hold-training4-lines.txt","att_check":false},"trial_type":"html-keyboard-response","trial_index":10,"time_elapsed":76947,"internal_node_id":"0.0-8.0-3.0","subject":"ow8nzt48wrs0nst","sona":"9505"},{"rt":1118,"stimulus":"<p>Bereit?</p>","key_press":32,"trial_type":"html-keyboard-response","trial_index":11,"time_elapsed":78072,"internal_node_id":"0.0-8.0-0.1","subject":"ow8nzt48wrs0nst","sona":"9505"},{"rt":null,"stimulus":"<div style=\"font-size:60px;\">+</div>","key_press":null,"trial_type":"html-keyboard-response","trial_index":12,"time_elapsed":80098,"internal_node_id":"0.0-8.0-1.1","subject":"ow8nzt48wrs0nst","sona":"9505"},{"trial_type":"turing-test","trial_index":13,"time_elapsed":86110,"internal_node_id":"0.0-8.0-2.1","subject":"ow8nzt48wrs0nst","sona":"9505"}]