[{"rt":7936,"stimulus":"<p>Welcome!<br> Please choose your language to start the experiment in the chosen language.</p><p>Willkommen!<br> Bitte wählen Sie eine Sprache um das Experiment in der ausgewählten Sprache zu starten</p>","button_pressed":"0","trial_type":"html-button-response","trial_index":0,"time_elapsed":7945,"internal_node_id":"0.0-0.0","subject":"beww7o6mx9bttmu"},{"view_history":"[{\"page_index\":0,\"viewing_time\":954},{\"page_index\":1,\"viewing_time\":1146},{\"page_index\":2,\"viewing_time\":1869},{\"page_index\":3,\"viewing_time\":920}]","rt":4889,"trial_type":"instructions","trial_index":1,"time_elapsed":12836,"internal_node_id":"0.0-2.0-0.0","subject":"beww7o6mx9bttmu"},{"rt":785,"stimulus":"<p>Ready?</p>","button_pressed":"0","trial_type":"html-button-response","trial_index":2,"time_elapsed":13623,"internal_node_id":"0.0-3.0","subject":"beww7o6mx9bttmu"},{"rt":null,"stimulus":"<div style=\"font-size:60px;\">+</div>","key_press":null,"trial_type":"html-keyboard-response","trial_index":3,"time_elapsed":15625,"internal_node_id":"0.0-4.0","subject":"beww7o6mx9bttmu"},{"trial_type":"training","trial_index":4,"time_elapsed":18975,"internal_node_id":"0.0-5.0","subject":"beww7o6mx9bttmu"},{"rt":1159,"stimulus":"<p>Which sequence did you perceive as more natural?</p>","button_pressed":"0","trial_type":"html-button-response","trial_index":5,"time_elapsed":20135,"internal_node_id":"0.0-6.0","subject":"beww7o6mx9bttmu"},{"rt":899,"stimulus":"<p>The experiment starts now.</p><p>Please click the button if you are ready.</p>","button_pressed":"0","trial_type":"html-button-response","trial_index":6,"time_elapsed":21037,"internal_node_id":"0.0-7.0","subject":"beww7o6mx9bttmu"},{"rt":873,"stimulus":"<p>Ready?</p>","button_pressed":"0","trial_type":"html-button-response","trial_index":7,"time_elapsed":21910,"internal_node_id":"0.0-8.0-0.0","subject":"beww7o6mx9bttmu"},{"rt":null,"stimulus":"<div style=\"font-size:60px;\">+</div>","key_press":null,"trial_type":"html-keyboard-response","trial_index":8,"time_elapsed":23912,"internal_node_id":"0.0-8.0-1.0","subject":"beww7o6mx9bttmu"},{"trial_type":"turing-test","trial_index":9,"time_elapsed":29298,"internal_node_id":"0.0-8.0-2.0","subject":"beww7o6mx9bttmu"},{"rt":731024,"stimulus":"<p>Which sequence did you perceive as more natural?</p>","button_pressed":"0","test_part":"response","test_stimulus":{"position":1,"left":"bvh/vr_prediction_models/model(vcgpdm)-dataset(pass-bottle-hold)-mode(ELBO)-parts(1)-dyn(10)-lvm(25)-hold(0)/final-lines.txt","right":"bvh/pass-bottle-hold-training0-lines.txt","att_check":false},"trial_type":"html-button-response","trial_index":10,"time_elapsed":760325,"internal_node_id":"0.0-8.0-3.0","subject":"beww7o6mx9bttmu"},{"rt":616,"stimulus":"<p>Ready?</p>","button_pressed":"0","trial_type":"html-button-response","trial_index":11,"time_elapsed":760944,"internal_node_id":"0.0-8.0-0.1","subject":"beww7o6mx9bttmu"},{"rt":null,"stimulus":"<div style=\"font-size:60px;\">+</div>","key_press":null,"trial_type":"html-keyboard-response","trial_index":12,"time_elapsed":762946,"internal_node_id":"0.0-8.0-1.1","subject":"beww7o6mx9bttmu"},{"trial_type":"turing-test","trial_index":13,"time_elapsed":792443,"internal_node_id":"0.0-8.0-2.1","subject":"beww7o6mx9bttmu"}]