[{"rt":2297.0900000073016,"stimulus":"<p>Welcome!<br> Please choose your language to start the experiment in the chosen language.</p><p>Willkommen!<br> Bitte wählen Sie eine Sprache, um das Experiment in der ausgewählten Sprache zu starten</p>","button_pressed":"1","trial_type":"html-button-response","trial_index":0,"time_elapsed":2337,"internal_node_id":"0.0-0.0","subject":"99zrw9eanzkj2gj","sona":"7549"},{"view_history":"[{\"page_index\":0,\"viewing_time\":1216.2200000602752},{\"page_index\":1,\"viewing_time\":1912.3199998866767},{\"page_index\":2,\"viewing_time\":1578.5700001288205},{\"page_index\":3,\"viewing_time\":1777.5599998421967},{\"page_index\":4,\"viewing_time\":2237.734999973327}]","rt":8723.440000088885,"trial_type":"instructions","trial_index":1,"time_elapsed":11062,"internal_node_id":"0.0-1.0-0.0","subject":"99zrw9eanzkj2gj","sona":"7549"},{"rt":1368.6150000430644,"stimulus":"<p>Bereit?</p>","key_press":32,"trial_type":"html-keyboard-response","trial_index":2,"time_elapsed":12433,"internal_node_id":"0.0-3.0","subject":"99zrw9eanzkj2gj","sona":"7549"},{"rt":null,"stimulus":"<div style=\"font-size:60px;\">+</div>","key_press":null,"trial_type":"html-keyboard-response","trial_index":3,"time_elapsed":14436,"internal_node_id":"0.0-4.0","subject":"99zrw9eanzkj2gj","sona":"7549"},{"trial_type":"training","trial_index":4,"time_elapsed":17684,"internal_node_id":"0.0-5.0","subject":"99zrw9eanzkj2gj","sona":"7549"},{"rt":623.7950001377612,"stimulus":"<p>Welche Sequenz haben Sie als natürlicher empfunden?</p>","key_press":70,"trial_type":"html-keyboard-response","trial_index":5,"time_elapsed":18309,"internal_node_id":"0.0-6.0","subject":"99zrw9eanzkj2gj","sona":"7549"},{"rt":2122.5800001993775,"stimulus":"<p>Das Experiment startet nun.</p><p><small>Bitte drücken Sie den Knopf, wenn Sie bereit sind.</small></p>","button_pressed":"0","trial_type":"html-button-response","trial_index":6,"time_elapsed":20434,"internal_node_id":"0.0-7.0","subject":"99zrw9eanzkj2gj","sona":"7549"},{"rt":1225.8800000417978,"stimulus":"<p>Bereit?</p>","key_press":32,"trial_type":"html-keyboard-response","trial_index":7,"time_elapsed":21661,"internal_node_id":"0.0-8.0-0.0","subject":"99zrw9eanzkj2gj","sona":"7549"},{"rt":null,"stimulus":"<div style=\"font-size:60px;\">+</div>","key_press":null,"trial_type":"html-keyboard-response","trial_index":8,"time_elapsed":23666,"internal_node_id":"0.0-8.0-1.0","subject":"99zrw9eanzkj2gj","sona":"7549"},{"trial_type":"turing-test","trial_index":9,"time_elapsed":27546,"internal_node_id":"0.0-8.0-2.0","subject":"99zrw9eanzkj2gj","sona":"7549"},{"rt":853.1249999068677,"stimulus":"<p>Welche Sequenz haben Sie als natürlicher empfunden?</p>","key_press":70,"test_part":"response","test_stimulus":{"position":0,"left":"bvh/pass-bottle-hold-training4-lines.txt","right":"bvh/vr_prediction_models/model(vcgpdm)-dataset(pass-bottle-hold)-mode(ELBO)-parts(3)-dyn(25)-lvm(15)-hold(4)/final-lines.txt","att_check":false},"trial_type":"html-keyboard-response","trial_index":10,"time_elapsed":28403,"internal_node_id":"0.0-8.0-3.0","subject":"99zrw9eanzkj2gj","sona":"7549"},{"rt":389.0750000718981,"stimulus":"<p>Bereit?</p>","key_press":32,"trial_type":"html-keyboard-response","trial_index":11,"time_elapsed":28795,"internal_node_id":"0.0-8.0-0.1","subject":"99zrw9eanzkj2gj","sona":"7549"},{"rt":null,"stimulus":"<div style=\"font-size:60px;\">+</div>","key_press":null,"trial_type":"html-keyboard-response","trial_index":12,"time_elapsed":30799,"internal_node_id":"0.0-8.0-1.1","subject":"99zrw9eanzkj2gj","sona":"7549"},{"trial_type":"turing-test","trial_index":13,"time_elapsed":34273,"internal_node_id":"0.0-8.0-2.1","subject":"99zrw9eanzkj2gj","sona":"7549"},{"rt":2182.4500001966953,"stimulus":"<p>Welche Sequenz haben Sie als natürlicher empfunden?</p>","key_press":74,"test_part":"response","test_stimulus":{"position":1,"left":"bvh/vr_prediction_models/model(vcgpdm)-dataset(pass-bottle-hold)-mode(ELBO)-parts(3)-dyn(25)-lvm(30)-hold(0)/final-lines.txt","right":"bvh/pass-bottle-hold-training0-lines.txt","att_check":false},"trial_type":"html-keyboard-response","trial_index":14,"time_elapsed":36460,"internal_node_id":"0.0-8.0-3.1","subject":"99zrw9eanzkj2gj","sona":"7549"},{"rt":355.35000008530915,"stimulus":"<p>Bereit?</p>","key_press":32,"trial_type":"html-keyboard-response","trial_index":15,"time_elapsed":36818,"internal_node_id":"0.0-8.0-0.2","subject":"99zrw9eanzkj2gj","sona":"7549"},{"rt":null,"stimulus":"<div style=\"font-size:60px;\">+</div>","key_press":null,"trial_type":"html-keyboard-response","trial_index":16,"time_elapsed":38822,"internal_node_id":"0.0-8.0-1.2","subject":"99zrw9eanzkj2gj","sona":"7549"},{"trial_type":"turing-test","trial_index":17,"time_elapsed":45356,"internal_node_id":"0.0-8.0-2.2","subject":"99zrw9eanzkj2gj","sona":"7549"},{"rt":514.0249999240041,"stimulus":"<p>Welche Sequenz haben Sie als natürlicher empfunden?</p>","key_press":70,"test_part":"response","test_stimulus":{"position":0,"left":"bvh/return-bottle-training2-lines.txt","right":"bvh/vr_prediction_models/model(dmp)-dataset(return-bottle)-npsi(40)-hold(2)/final-lines.txt","att_check":false},"trial_type":"html-keyboard-response","trial_index":18,"time_elapsed":45873,"internal_node_id":"0.0-8.0-3.2","subject":"99zrw9eanzkj2gj","sona":"7549"},{"rt":285.17499985173345,"stimulus":"<p>Bereit?</p>","key_press":32,"trial_type":"html-keyboard-response","trial_index":19,"time_elapsed":46161,"internal_node_id":"0.0-8.0-0.3","subject":"99zrw9eanzkj2gj","sona":"7549"},{"rt":null,"stimulus":"<div style=\"font-size:60px;\">+</div>","key_press":null,"trial_type":"html-keyboard-response","trial_index":20,"time_elapsed":48165,"internal_node_id":"0.0-8.0-1.3","subject":"99zrw9eanzkj2gj","sona":"7549"},{"trial_type":"turing-test","trial_index":21,"time_elapsed":51475,"internal_node_id":"0.0-8.0-2.3","subject":"99zrw9eanzkj2gj","sona":"7549"},{"rt":2011.604999890551,"stimulus":"<p>Welche Sequenz haben Sie als natürlicher empfunden?</p>","key_press":74,"test_part":"response","test_stimulus":{"position":1,"left":"bvh/vr_prediction_models/model(tmp)-dataset(pass-bottle-hold)-numprim(6)-hold(2)/final-lines.txt","right":"bvh/pass-bottle-hold-training2-lines.txt","att_check":false},"trial_type":"html-keyboard-response","trial_index":22,"time_elapsed":53490,"internal_node_id":"0.0-8.0-3.3","subject":"99zrw9eanzkj2gj","sona":"7549"},{"rt":283.3500001579523,"stimulus":"<p>Bereit?</p>","key_press":32,"trial_type":"html-keyboard-response","trial_index":23,"time_elapsed":53776,"internal_node_id":"0.0-8.0-0.4","subject":"99zrw9eanzkj2gj","sona":"7549"},{"rt":null,"stimulus":"<div style=\"font-size:60px;\">+</div>","key_press":null,"trial_type":"html-keyboard-response","trial_index":24,"time_elapsed":55780,"internal_node_id":"0.0-8.0-1.4","subject":"99zrw9eanzkj2gj","sona":"7549"},{"trial_type":"turing-test","trial_index":25,"time_elapsed":59020,"internal_node_id":"0.0-8.0-2.4","subject":"99zrw9eanzkj2gj","sona":"7549"},{"rt":4729.575000004843,"stimulus":"<p>Welche Sequenz haben Sie als natürlicher empfunden?</p>","key_press":70,"test_part":"response","test_stimulus":{"position":0,"left":"bvh/pass-bottle-hold-training2-lines.txt","right":"bvh/vr_prediction_models/model(tmp)-dataset(pass-bottle-hold)-numprim(6)-hold(2)/final-lines.txt","att_check":false},"trial_type":"html-keyboard-response","trial_index":26,"time_elapsed":63752,"internal_node_id":"0.0-8.0-3.4","subject":"99zrw9eanzkj2gj","sona":"7549"},{"rt":379.9300000537187,"stimulus":"<p>Bereit?</p>","key_press":32,"trial_type":"html-keyboard-response","trial_index":27,"time_elapsed":64135,"internal_node_id":"0.0-8.0-0.5","subject":"99zrw9eanzkj2gj","sona":"7549"},{"rt":null,"stimulus":"<div style=\"font-size:60px;\">+</div>","key_press":null,"trial_type":"html-keyboard-response","trial_index":28,"time_elapsed":66140,"internal_node_id":"0.0-8.0-1.5","subject":"99zrw9eanzkj2gj","sona":"7549"},{"trial_type":"turing-test","trial_index":29,"time_elapsed":72217,"internal_node_id":"0.0-8.0-2.5","subject":"99zrw9eanzkj2gj","sona":"7549"},{"rt":3019.4300001021475,"stimulus":"<p>Welche Sequenz haben Sie als natürlicher empfunden?</p>","key_press":74,"test_part":"response","test_stimulus":{"position":1,"left":"bvh/vr_prediction_models/model(dmp)-dataset(pass-bottle)-npsi(40)-hold(3)/final-lines.txt","right":"bvh/pass-bottle-training3-lines.txt","att_check":false},"trial_type":"html-keyboard-response","trial_index":30,"time_elapsed":75241,"internal_node_id":"0.0-8.0-3.5","subject":"99zrw9eanzkj2gj","sona":"7549"},{"rt":219.15000001899898,"stimulus":"<p>Bereit?</p>","key_press":32,"trial_type":"html-keyboard-response","trial_index":31,"time_elapsed":75464,"internal_node_id":"0.0-8.0-0.6","subject":"99zrw9eanzkj2gj","sona":"7549"},{"rt":null,"stimulus":"<div style=\"font-size:60px;\">+</div>","key_press":null,"trial_type":"html-keyboard-response","trial_index":32,"time_elapsed":77468,"internal_node_id":"0.0-8.0-1.6","subject":"99zrw9eanzkj2gj","sona":"7549"},{"trial_type":"turing-test","trial_index":33,"time_elapsed":81179,"internal_node_id":"0.0-8.0-2.6","subject":"99zrw9eanzkj2gj","sona":"7549"},{"rt":2848.2749999966472,"stimulus":"<p>Welche Sequenz haben Sie als natürlicher empfunden?</p>","key_press":74,"test_part":"response","test_stimulus":{"position":1,"left":"bvh/vr_prediction_models/model(dmp)-dataset(return-bottle-hold)-npsi(80)-hold(4)/final-lines.txt","right":"bvh/return-bottle-hold-training4-lines.txt","att_check":false},"trial_type":"html-keyboard-response","trial_index":34,"time_elapsed":84031,"internal_node_id":"0.0-8.0-3.6","subject":"99zrw9eanzkj2gj","sona":"7549"},{"rt":236.62499990314245,"stimulus":"<p>Bereit?</p>","key_press":32,"trial_type":"html-keyboard-response","trial_index":35,"time_elapsed":84271,"internal_node_id":"0.0-8.0-0.7","subject":"99zrw9eanzkj2gj","sona":"7549"},{"rt":null,"stimulus":"<div style=\"font-size:60px;\">+</div>","key_press":null,"trial_type":"html-keyboard-response","trial_index":36,"time_elapsed":86274,"internal_node_id":"0.0-8.0-1.7","subject":"99zrw9eanzkj2gj","sona":"7549"},{"trial_type":"turing-test","trial_index":37,"time_elapsed":92452,"internal_node_id":"0.0-8.0-2.7","subject":"99zrw9eanzkj2gj","sona":"7549"},{"rt":1182.2099999990314,"stimulus":"<p>Welche Sequenz haben Sie als natürlicher empfunden?</p>","key_press":70,"test_part":"response","test_stimulus":{"position":1,"left":"bvh/vr_prediction_models/model(vcgpdm)-dataset(return-bottle)-mode(ELBO)-parts(3)-dyn(20)-lvm(20)-hold(4)/final-lines.txt","right":"bvh/return-bottle-training4-lines.txt","att_check":false},"trial_type":"html-keyboard-response","trial_index":38,"time_elapsed":93638,"internal_node_id":"0.0-8.0-3.7","subject":"99zrw9eanzkj2gj","sona":"7549"},{"rt":285.7450000010431,"stimulus":"<p>Bereit?</p>","key_press":32,"trial_type":"html-keyboard-response","trial_index":39,"time_elapsed":93926,"internal_node_id":"0.0-8.0-0.8","subject":"99zrw9eanzkj2gj","sona":"7549"},{"rt":null,"stimulus":"<div style=\"font-size:60px;\">+</div>","key_press":null,"trial_type":"html-keyboard-response","trial_index":40,"time_elapsed":95931,"internal_node_id":"0.0-8.0-1.8","subject":"99zrw9eanzkj2gj","sona":"7549"},{"trial_type":"turing-test","trial_index":41,"time_elapsed":99638,"internal_node_id":"0.0-8.0-2.8","subject":"99zrw9eanzkj2gj","sona":"7549"},{"rt":1051.2200000230223,"stimulus":"<p>Welche Sequenz haben Sie als natürlicher empfunden?</p>","key_press":74,"test_part":"response","test_stimulus":{"position":0,"left":"bvh/return-bottle-hold-training4-lines.txt","right":"bvh/vr_prediction_models/model(dmp)-dataset(return-bottle-hold)-npsi(90)-hold(4)/final-lines.txt","att_check":false},"trial_type":"html-keyboard-response","trial_index":42,"time_elapsed":100693,"internal_node_id":"0.0-8.0-3.8","subject":"99zrw9eanzkj2gj","sona":"7549"},{"rt":284.68000004068017,"stimulus":"<p>Bereit?</p>","key_press":32,"trial_type":"html-keyboard-response","trial_index":43,"time_elapsed":100981,"internal_node_id":"0.0-8.0-0.9","subject":"99zrw9eanzkj2gj","sona":"7549"},{"rt":null,"stimulus":"<div style=\"font-size:60px;\">+</div>","key_press":null,"trial_type":"html-keyboard-response","trial_index":44,"time_elapsed":102985,"internal_node_id":"0.0-8.0-1.9","subject":"99zrw9eanzkj2gj","sona":"7549"},{"trial_type":"turing-test","trial_index":45,"time_elapsed":108602,"internal_node_id":"0.0-8.0-2.9","subject":"99zrw9eanzkj2gj","sona":"7549"},{"rt":711.0699999611825,"stimulus":"<p>Welche Sequenz haben Sie als natürlicher empfunden?</p>","key_press":74,"test_part":"response","test_stimulus":{"position":1,"left":"bvh/vr_prediction_models/model(vcgpdm)-dataset(pass-bottle)-mode(ELBO)-parts(3)-dyn(35)-lvm(20)-hold(1)/final-lines.txt","right":"bvh/pass-bottle-training1-lines.txt","att_check":false},"trial_type":"html-keyboard-response","trial_index":46,"time_elapsed":109318,"internal_node_id":"0.0-8.0-3.9","subject":"99zrw9eanzkj2gj","sona":"7549"},{"rt":323.1900001410395,"stimulus":"<p>Bereit?</p>","key_press":32,"trial_type":"html-keyboard-response","trial_index":47,"time_elapsed":109644,"internal_node_id":"0.0-8.0-0.10","subject":"99zrw9eanzkj2gj","sona":"7549"},{"rt":null,"stimulus":"<div style=\"font-size:60px;\">+</div>","key_press":null,"trial_type":"html-keyboard-response","trial_index":48,"time_elapsed":111647,"internal_node_id":"0.0-8.0-1.10","subject":"99zrw9eanzkj2gj","sona":"7549"},{"trial_type":"turing-test","trial_index":49,"time_elapsed":117752,"internal_node_id":"0.0-8.0-2.10","subject":"99zrw9eanzkj2gj","sona":"7549"},{"rt":1127.305000089109,"stimulus":"<p>Welche Sequenz haben Sie als natürlicher empfunden?</p>","key_press":70,"test_part":"response","test_stimulus":{"position":1,"left":"bvh/vr_prediction_models/model(tmp)-dataset(pass-bottle)-numprim(6)-hold(2)/final-lines.txt","right":"bvh/pass-bottle-training2-lines.txt","att_check":false},"trial_type":"html-keyboard-response","trial_index":50,"time_elapsed":118883,"internal_node_id":"0.0-8.0-3.10","subject":"99zrw9eanzkj2gj","sona":"7549"},{"rt":276.6449998598546,"stimulus":"<p>Bereit?</p>","key_press":32,"trial_type":"html-keyboard-response","trial_index":51,"time_elapsed":119163,"internal_node_id":"0.0-8.0-0.11","subject":"99zrw9eanzkj2gj","sona":"7549"},{"rt":null,"stimulus":"<div style=\"font-size:60px;\">+</div>","key_press":null,"trial_type":"html-keyboard-response","trial_index":52,"time_elapsed":121168,"internal_node_id":"0.0-8.0-1.11","subject":"99zrw9eanzkj2gj","sona":"7549"},{"trial_type":"turing-test","trial_index":53,"time_elapsed":125256,"internal_node_id":"0.0-8.0-2.11","subject":"99zrw9eanzkj2gj","sona":"7549"},{"rt":1664.4250000827014,"stimulus":"<p>Welche Sequenz haben Sie als natürlicher empfunden?</p>","key_press":74,"test_part":"response","test_stimulus":{"position":0,"left":"bvh/return-bottle-hold-training4-lines.txt","right":"bvh/vr_prediction_models/model(vcgpdm)-dataset(return-bottle-hold)-mode(ELBO)-parts(3)-dyn(10)-lvm(30)-hold(4)/final-lines.txt","att_check":false},"trial_type":"html-keyboard-response","trial_index":54,"time_elapsed":126924,"internal_node_id":"0.0-8.0-3.11","subject":"99zrw9eanzkj2gj","sona":"7549"},{"rt":290.70999985560775,"stimulus":"<p>Bereit?</p>","key_press":32,"trial_type":"html-keyboard-response","trial_index":55,"time_elapsed":127219,"internal_node_id":"0.0-8.0-0.12","subject":"99zrw9eanzkj2gj","sona":"7549"},{"rt":null,"stimulus":"<div style=\"font-size:60px;\">+</div>","key_press":null,"trial_type":"html-keyboard-response","trial_index":56,"time_elapsed":129222,"internal_node_id":"0.0-8.0-1.12","subject":"99zrw9eanzkj2gj","sona":"7549"},{"trial_type":"turing-test","trial_index":57,"time_elapsed":132753,"internal_node_id":"0.0-8.0-2.12","subject":"99zrw9eanzkj2gj","sona":"7549"},{"rt":773.1250000651926,"stimulus":"<p>Welche Sequenz haben Sie als natürlicher empfunden?</p>","key_press":74,"test_part":"response","test_stimulus":{"position":1,"left":"bvh/vr_prediction_models/model(dmp)-dataset(pass-bottle-hold)-npsi(100)-hold(4)/final-lines.txt","right":"bvh/pass-bottle-hold-training4-lines.txt","att_check":true},"trial_type":"html-keyboard-response","trial_index":58,"time_elapsed":133529,"internal_node_id":"0.0-8.0-3.12","subject":"99zrw9eanzkj2gj","sona":"7549"},{"rt":372.4950000178069,"stimulus":"<p>Bereit?</p>","key_press":32,"trial_type":"html-keyboard-response","trial_index":59,"time_elapsed":133905,"internal_node_id":"0.0-8.0-0.13","subject":"99zrw9eanzkj2gj","sona":"7549"},{"rt":null,"stimulus":"<div style=\"font-size:60px;\">+</div>","key_press":null,"trial_type":"html-keyboard-response","trial_index":60,"time_elapsed":135908,"internal_node_id":"0.0-8.0-1.13","subject":"99zrw9eanzkj2gj","sona":"7549"},{"trial_type":"turing-test","trial_index":61,"time_elapsed":142019,"internal_node_id":"0.0-8.0-2.13","subject":"99zrw9eanzkj2gj","sona":"7549"},{"rt":946.5049998834729,"stimulus":"<p>Welche Sequenz haben Sie als natürlicher empfunden?</p>","key_press":70,"test_part":"response","test_stimulus":{"position":0,"left":"bvh/pass-bottle-training3-lines.txt","right":"bvh/vr_prediction_models/model(vcgpdm)-dataset(pass-bottle)-mode(ELBO)-parts(3)-dyn(10)-lvm(10)-hold(3)/final-lines.txt","att_check":false},"trial_type":"html-keyboard-response","trial_index":62,"time_elapsed":142970,"internal_node_id":"0.0-8.0-3.13","subject":"99zrw9eanzkj2gj","sona":"7549"},{"rt":265.4050001874566,"stimulus":"<p>Bereit?</p>","key_press":32,"trial_type":"html-keyboard-response","trial_index":63,"time_elapsed":143241,"internal_node_id":"0.0-8.0-0.14","subject":"99zrw9eanzkj2gj","sona":"7549"},{"rt":null,"stimulus":"<div style=\"font-size:60px;\">+</div>","key_press":null,"trial_type":"html-keyboard-response","trial_index":64,"time_elapsed":145244,"internal_node_id":"0.0-8.0-1.14","subject":"99zrw9eanzkj2gj","sona":"7549"},{"trial_type":"turing-test","trial_index":65,"time_elapsed":151039,"internal_node_id":"0.0-8.0-2.14","subject":"99zrw9eanzkj2gj","sona":"7549"},{"rt":524.7349999845028,"stimulus":"<p>Welche Sequenz haben Sie als natürlicher empfunden?</p>","key_press":74,"test_part":"response","test_stimulus":{"position":0,"left":"bvh/return-bottle-training4-lines.txt","right":"bvh/vr_prediction_models/model(tmp)-dataset(return-bottle)-numprim(5)-hold(4)/final-lines.txt","att_check":false},"trial_type":"html-keyboard-response","trial_index":66,"time_elapsed":151568,"internal_node_id":"0.0-8.0-3.14","subject":"99zrw9eanzkj2gj","sona":"7549"},{"rt":201.97000005282462,"stimulus":"<p>Bereit?</p>","key_press":32,"trial_type":"html-keyboard-response","trial_index":67,"time_elapsed":151776,"internal_node_id":"0.0-8.0-0.15","subject":"99zrw9eanzkj2gj","sona":"7549"},{"rt":null,"stimulus":"<div style=\"font-size:60px;\">+</div>","key_press":null,"trial_type":"html-keyboard-response","trial_index":68,"time_elapsed":153780,"internal_node_id":"0.0-8.0-1.15","subject":"99zrw9eanzkj2gj","sona":"7549"},{"trial_type":"turing-test","trial_index":69,"time_elapsed":160128,"internal_node_id":"0.0-8.0-2.15","subject":"99zrw9eanzkj2gj","sona":"7549"},{"rt":860.0000001024455,"stimulus":"<p>Welche Sequenz haben Sie als natürlicher empfunden?</p>","key_press":70,"test_part":"response","test_stimulus":{"position":0,"left":"bvh/pass-bottle-training3-lines.txt","right":"bvh/vr_prediction_models/model(vcgpdm)-dataset(pass-bottle)-mode(ELBO)-parts(1)-dyn(10)-lvm(5)-hold(3)/final-lines.txt","att_check":false},"trial_type":"html-keyboard-response","trial_index":70,"time_elapsed":160993,"internal_node_id":"0.0-8.0-3.15","subject":"99zrw9eanzkj2gj","sona":"7549"},{"rt":242.65500018373132,"stimulus":"<p>Bereit?</p>","key_press":32,"trial_type":"html-keyboard-response","trial_index":71,"time_elapsed":161240,"internal_node_id":"0.0-8.0-0.16","subject":"99zrw9eanzkj2gj","sona":"7549"},{"rt":null,"stimulus":"<div style=\"font-size:60px;\">+</div>","key_press":null,"trial_type":"html-keyboard-response","trial_index":72,"time_elapsed":163243,"internal_node_id":"0.0-8.0-1.16","subject":"99zrw9eanzkj2gj","sona":"7549"},{"trial_type":"turing-test","trial_index":73,"time_elapsed":168852,"internal_node_id":"0.0-8.0-2.16","subject":"99zrw9eanzkj2gj","sona":"7549"},{"rt":533.9049999602139,"stimulus":"<p>Welche Sequenz haben Sie als natürlicher empfunden?</p>","key_press":74,"test_part":"response","test_stimulus":{"position":1,"left":"bvh/vr_prediction_models/model(vcgpdm)-dataset(pass-bottle)-mode(ELBO)-parts(1)-dyn(10)-lvm(30)-hold(1)/final-lines.txt","right":"bvh/pass-bottle-training1-lines.txt","att_check":false},"trial_type":"html-keyboard-response","trial_index":74,"time_elapsed":169391,"internal_node_id":"0.0-8.0-3.16","subject":"99zrw9eanzkj2gj","sona":"7549"},{"rt":275.9750001132488,"stimulus":"<p>Bereit?</p>","key_press":32,"trial_type":"html-keyboard-response","trial_index":75,"time_elapsed":169671,"internal_node_id":"0.0-8.0-0.17","subject":"99zrw9eanzkj2gj","sona":"7549"},{"rt":null,"stimulus":"<div style=\"font-size:60px;\">+</div>","key_press":null,"trial_type":"html-keyboard-response","trial_index":76,"time_elapsed":171675,"internal_node_id":"0.0-8.0-1.17","subject":"99zrw9eanzkj2gj","sona":"7549"},{"trial_type":"turing-test","trial_index":77,"time_elapsed":175263,"internal_node_id":"0.0-8.0-2.17","subject":"99zrw9eanzkj2gj","sona":"7549"},{"rt":890.9199999179691,"stimulus":"<p>Welche Sequenz haben Sie als natürlicher empfunden?</p>","key_press":70,"test_part":"response","test_stimulus":{"position":1,"left":"bvh/vr_prediction_models/model(dmp)-dataset(pass-bottle-hold)-npsi(20)-hold(4)/final-lines.txt","right":"bvh/pass-bottle-hold-training4-lines.txt","att_check":false},"trial_type":"html-keyboard-response","trial_index":78,"time_elapsed":176158,"internal_node_id":"0.0-8.0-3.17","subject":"99zrw9eanzkj2gj","sona":"7549"},{"rt":282.9849999397993,"stimulus":"<p>Bereit?</p>","key_press":32,"trial_type":"html-keyboard-response","trial_index":79,"time_elapsed":176445,"internal_node_id":"0.0-8.0-0.18","subject":"99zrw9eanzkj2gj","sona":"7549"},{"rt":null,"stimulus":"<div style=\"font-size:60px;\">+</div>","key_press":null,"trial_type":"html-keyboard-response","trial_index":80,"time_elapsed":178449,"internal_node_id":"0.0-8.0-1.18","subject":"99zrw9eanzkj2gj","sona":"7549"},{"trial_type":"turing-test","trial_index":81,"time_elapsed":184263,"internal_node_id":"0.0-8.0-2.18","subject":"99zrw9eanzkj2gj","sona":"7549"},{"rt":360.4550000745803,"stimulus":"<p>Welche Sequenz haben Sie als natürlicher empfunden?</p>","key_press":74,"test_part":"response","test_stimulus":{"position":1,"left":"bvh/vr_prediction_models/model(tmp)-dataset(pass-bottle)-numprim(4)-hold(3)/final-lines.txt","right":"bvh/pass-bottle-training3-lines.txt","att_check":false},"trial_type":"html-keyboard-response","trial_index":82,"time_elapsed":184628,"internal_node_id":"0.0-8.0-3.18","subject":"99zrw9eanzkj2gj","sona":"7549"},{"rt":636.3999999593943,"stimulus":"<p>Bereit?</p>","key_press":32,"trial_type":"html-keyboard-response","trial_index":83,"time_elapsed":185269,"internal_node_id":"0.0-8.0-0.19","subject":"99zrw9eanzkj2gj","sona":"7549"},{"rt":null,"stimulus":"<div style=\"font-size:60px;\">+</div>","key_press":null,"trial_type":"html-keyboard-response","trial_index":84,"time_elapsed":187272,"internal_node_id":"0.0-8.0-1.19","subject":"99zrw9eanzkj2gj","sona":"7549"},{"trial_type":"turing-test","trial_index":85,"time_elapsed":190547,"internal_node_id":"0.0-8.0-2.19","subject":"99zrw9eanzkj2gj","sona":"7549"},{"rt":1245.1900001615286,"stimulus":"<p>Welche Sequenz haben Sie als natürlicher empfunden?</p>","key_press":70,"test_part":"response","test_stimulus":{"position":0,"left":"bvh/pass-bottle-hold-training2-lines.txt","right":"bvh/vr_prediction_models/model(vcgpdm)-dataset(pass-bottle-hold)-mode(ELBO)-parts(3)-dyn(35)-lvm(20)-hold(2)/final-lines.txt","att_check":false},"trial_type":"html-keyboard-response","trial_index":86,"time_elapsed":191796,"internal_node_id":"0.0-8.0-3.19","subject":"99zrw9eanzkj2gj","sona":"7549"},{"rt":282.84500003792346,"stimulus":"<p>Bereit?</p>","key_press":32,"trial_type":"html-keyboard-response","trial_index":87,"time_elapsed":192083,"internal_node_id":"0.0-8.0-0.20","subject":"99zrw9eanzkj2gj","sona":"7549"},{"rt":null,"stimulus":"<div style=\"font-size:60px;\">+</div>","key_press":null,"trial_type":"html-keyboard-response","trial_index":88,"time_elapsed":194087,"internal_node_id":"0.0-8.0-1.20","subject":"99zrw9eanzkj2gj","sona":"7549"},{"trial_type":"turing-test","trial_index":89,"time_elapsed":197397,"internal_node_id":"0.0-8.0-2.20","subject":"99zrw9eanzkj2gj","sona":"7549"},{"rt":1728.31999999471,"stimulus":"<p>Welche Sequenz haben Sie als natürlicher empfunden?</p>","key_press":74,"test_part":"response","test_stimulus":{"position":0,"left":"bvh/return-bottle-hold-training1-lines.txt","right":"bvh/vr_prediction_models/model(dmp)-dataset(return-bottle-hold)-npsi(70)-hold(1)/final-lines.txt","att_check":false},"trial_type":"html-keyboard-response","trial_index":90,"time_elapsed":199130,"internal_node_id":"0.0-8.0-3.20","subject":"99zrw9eanzkj2gj","sona":"7549"},{"rt":420.33500014804304,"stimulus":"<p>Bereit?</p>","key_press":32,"trial_type":"html-keyboard-response","trial_index":91,"time_elapsed":199554,"internal_node_id":"0.0-8.0-0.21","subject":"99zrw9eanzkj2gj","sona":"7549"},{"rt":null,"stimulus":"<div style=\"font-size:60px;\">+</div>","key_press":null,"trial_type":"html-keyboard-response","trial_index":92,"time_elapsed":201557,"internal_node_id":"0.0-8.0-1.21","subject":"99zrw9eanzkj2gj","sona":"7549"},{"trial_type":"turing-test","trial_index":93,"time_elapsed":204836,"internal_node_id":"0.0-8.0-2.21","subject":"99zrw9eanzkj2gj","sona":"7549"},{"rt":2073.3099998906255,"stimulus":"<p>Welche Sequenz haben Sie als natürlicher empfunden?</p>","key_press":70,"test_part":"response","test_stimulus":{"position":1,"left":"bvh/vr_prediction_models/model(vcgpdm)-dataset(pass-bottle-hold)-mode(ELBO)-parts(3)-dyn(10)-lvm(25)-hold(0)/final-lines.txt","right":"bvh/pass-bottle-hold-training0-lines.txt","att_check":false},"trial_type":"html-keyboard-response","trial_index":94,"time_elapsed":206914,"internal_node_id":"0.0-8.0-3.21","subject":"99zrw9eanzkj2gj","sona":"7549"},{"rt":611.1800000071526,"stimulus":"<p>Bereit?</p>","key_press":32,"trial_type":"html-keyboard-response","trial_index":95,"time_elapsed":207529,"internal_node_id":"0.0-8.0-0.22","subject":"99zrw9eanzkj2gj","sona":"7549"},{"rt":null,"stimulus":"<div style=\"font-size:60px;\">+</div>","key_press":null,"trial_type":"html-keyboard-response","trial_index":96,"time_elapsed":209533,"internal_node_id":"0.0-8.0-1.22","subject":"99zrw9eanzkj2gj","sona":"7549"},{"trial_type":"turing-test","trial_index":97,"time_elapsed":214809,"internal_node_id":"0.0-8.0-2.22","subject":"99zrw9eanzkj2gj","sona":"7549"},{"rt":1337.6899999566376,"stimulus":"<p>Welche Sequenz haben Sie als natürlicher empfunden?</p>","key_press":70,"test_part":"response","test_stimulus":{"position":0,"left":"bvh/return-bottle-hold-training0-lines.txt","right":"bvh/vr_prediction_models/model(vcgpdm)-dataset(return-bottle-hold)-mode(ELBO)-parts(1)-dyn(15)-lvm(35)-hold(0)/final-lines.txt","att_check":false},"trial_type":"html-keyboard-response","trial_index":98,"time_elapsed":216152,"internal_node_id":"0.0-8.0-3.22","subject":"99zrw9eanzkj2gj","sona":"7549"},{"rt":332.21499994397163,"stimulus":"<p>Bereit?</p>","key_press":32,"trial_type":"html-keyboard-response","trial_index":99,"time_elapsed":216488,"internal_node_id":"0.0-8.0-0.23","subject":"99zrw9eanzkj2gj","sona":"7549"},{"rt":null,"stimulus":"<div style=\"font-size:60px;\">+</div>","key_press":null,"trial_type":"html-keyboard-response","trial_index":100,"time_elapsed":218493,"internal_node_id":"0.0-8.0-1.23","subject":"99zrw9eanzkj2gj","sona":"7549"},{"trial_type":"turing-test","trial_index":101,"time_elapsed":222133,"internal_node_id":"0.0-8.0-2.23","subject":"99zrw9eanzkj2gj","sona":"7549"},{"rt":797.7549999486655,"stimulus":"<p>Welche Sequenz haben Sie als natürlicher empfunden?</p>","key_press":74,"test_part":"response","test_stimulus":{"position":0,"left":"bvh/return-bottle-hold-training3-lines.txt","right":"bvh/vr_prediction_models/model(dmp)-dataset(return-bottle-hold)-npsi(50)-hold(3)/final-lines.txt","att_check":false},"trial_type":"html-keyboard-response","trial_index":102,"time_elapsed":222936,"internal_node_id":"0.0-8.0-3.23","subject":"99zrw9eanzkj2gj","sona":"7549"},{"rt":290.19500012509525,"stimulus":"<p>Bereit?</p>","key_press":32,"trial_type":"html-keyboard-response","trial_index":103,"time_elapsed":223230,"internal_node_id":"0.0-8.0-0.24","subject":"99zrw9eanzkj2gj","sona":"7549"},{"rt":null,"stimulus":"<div style=\"font-size:60px;\">+</div>","key_press":null,"trial_type":"html-keyboard-response","trial_index":104,"time_elapsed":225233,"internal_node_id":"0.0-8.0-1.24","subject":"99zrw9eanzkj2gj","sona":"7549"},{"trial_type":"turing-test","trial_index":105,"time_elapsed":229021,"internal_node_id":"0.0-8.0-2.24","subject":"99zrw9eanzkj2gj","sona":"7549"},{"rt":2019.3350000772625,"stimulus":"<p>Welche Sequenz haben Sie als natürlicher empfunden?</p>","key_press":74,"test_part":"response","test_stimulus":{"position":0,"left":"bvh/pass-bottle-hold-training3-lines.txt","right":"bvh/vr_prediction_models/model(vcgpdm)-dataset(pass-bottle-hold)-mode(ELBO)-parts(1)-dyn(10)-lvm(5)-hold(3)/final-lines.txt","att_check":false},"trial_type":"html-keyboard-response","trial_index":106,"time_elapsed":231045,"internal_node_id":"0.0-8.0-3.24","subject":"99zrw9eanzkj2gj","sona":"7549"},{"rt":411.68999997898936,"stimulus":"<p>Bereit?</p>","key_press":32,"trial_type":"html-keyboard-response","trial_index":107,"time_elapsed":231461,"internal_node_id":"0.0-8.0-0.25","subject":"99zrw9eanzkj2gj","sona":"7549"},{"rt":null,"stimulus":"<div style=\"font-size:60px;\">+</div>","key_press":null,"trial_type":"html-keyboard-response","trial_index":108,"time_elapsed":233466,"internal_node_id":"0.0-8.0-1.25","subject":"99zrw9eanzkj2gj","sona":"7549"},{"trial_type":"turing-test","trial_index":109,"time_elapsed":238900,"internal_node_id":"0.0-8.0-2.25","subject":"99zrw9eanzkj2gj","sona":"7549"},{"rt":1188.6749998666346,"stimulus":"<p>Welche Sequenz haben Sie als natürlicher empfunden?</p>","key_press":70,"test_part":"response","test_stimulus":{"position":0,"left":"bvh/pass-bottle-training1-lines.txt","right":"bvh/vr_prediction_models/model(dmp)-dataset(pass-bottle)-npsi(40)-hold(1)/final-lines.txt","att_check":false},"trial_type":"html-keyboard-response","trial_index":110,"time_elapsed":240094,"internal_node_id":"0.0-8.0-3.25","subject":"99zrw9eanzkj2gj","sona":"7549"},{"rt":378.52999987080693,"stimulus":"<p>Bereit?</p>","key_press":32,"trial_type":"html-keyboard-response","trial_index":111,"time_elapsed":240477,"internal_node_id":"0.0-8.0-0.26","subject":"99zrw9eanzkj2gj","sona":"7549"},{"rt":null,"stimulus":"<div style=\"font-size:60px;\">+</div>","key_press":null,"trial_type":"html-keyboard-response","trial_index":112,"time_elapsed":242481,"internal_node_id":"0.0-8.0-1.26","subject":"99zrw9eanzkj2gj","sona":"7549"},{"trial_type":"turing-test","trial_index":113,"time_elapsed":246060,"internal_node_id":"0.0-8.0-2.26","subject":"99zrw9eanzkj2gj","sona":"7549"},{"rt":4768.840000033379,"stimulus":"<p>Welche Sequenz haben Sie als natürlicher empfunden?</p>","key_press":74,"test_part":"response","test_stimulus":{"position":0,"left":"bvh/pass-bottle-hold-training2-lines.txt","right":"bvh/vr_prediction_models/model(vcgpdm)-dataset(pass-bottle-hold)-mode(ELBO)-parts(1)-dyn(15)-lvm(35)-hold(2)/final-lines.txt","att_check":false},"trial_type":"html-keyboard-response","trial_index":114,"time_elapsed":250835,"internal_node_id":"0.0-8.0-3.26","subject":"99zrw9eanzkj2gj","sona":"7549"},{"rt":297.7350000292063,"stimulus":"<p>Bereit?</p>","key_press":32,"trial_type":"html-keyboard-response","trial_index":115,"time_elapsed":251137,"internal_node_id":"0.0-8.0-0.27","subject":"99zrw9eanzkj2gj","sona":"7549"},{"rt":null,"stimulus":"<div style=\"font-size:60px;\">+</div>","key_press":null,"trial_type":"html-keyboard-response","trial_index":116,"time_elapsed":253141,"internal_node_id":"0.0-8.0-1.27","subject":"99zrw9eanzkj2gj","sona":"7549"},{"trial_type":"turing-test","trial_index":117,"time_elapsed":258967,"internal_node_id":"0.0-8.0-2.27","subject":"99zrw9eanzkj2gj","sona":"7549"},{"rt":996.9750000163913,"stimulus":"<p>Welche Sequenz haben Sie als natürlicher empfunden?</p>","key_press":74,"test_part":"response","test_stimulus":{"position":1,"left":"bvh/vr_prediction_models/model(dmp)-dataset(pass-bottle)-npsi(30)-hold(3)/final-lines.txt","right":"bvh/pass-bottle-training3-lines.txt","att_check":false},"trial_type":"html-keyboard-response","trial_index":118,"time_elapsed":259969,"internal_node_id":"0.0-8.0-3.27","subject":"99zrw9eanzkj2gj","sona":"7549"},{"rt":451.4249998610467,"stimulus":"<p>Bereit?</p>","key_press":32,"trial_type":"html-keyboard-response","trial_index":119,"time_elapsed":260424,"internal_node_id":"0.0-8.0-0.28","subject":"99zrw9eanzkj2gj","sona":"7549"},{"rt":null,"stimulus":"<div style=\"font-size:60px;\">+</div>","key_press":null,"trial_type":"html-keyboard-response","trial_index":120,"time_elapsed":262427,"internal_node_id":"0.0-8.0-1.28","subject":"99zrw9eanzkj2gj","sona":"7549"},{"trial_type":"turing-test","trial_index":121,"time_elapsed":268423,"internal_node_id":"0.0-8.0-2.28","subject":"99zrw9eanzkj2gj","sona":"7549"},{"rt":573.0800000019372,"stimulus":"<p>Welche Sequenz haben Sie als natürlicher empfunden?</p>","key_press":74,"test_part":"response","test_stimulus":{"position":1,"left":"bvh/vr_prediction_models/model(vcgpdm)-dataset(pass-bottle)-mode(MAP)-parts(1)-hold(4)/final-lines.txt","right":"bvh/pass-bottle-training4-lines.txt","att_check":false},"trial_type":"html-keyboard-response","trial_index":122,"time_elapsed":269001,"internal_node_id":"0.0-8.0-3.28","subject":"99zrw9eanzkj2gj","sona":"7549"},{"rt":359.61499996483326,"stimulus":"<p>Bereit?</p>","key_press":32,"trial_type":"html-keyboard-response","trial_index":123,"time_elapsed":269368,"internal_node_id":"0.0-8.0-0.29","subject":"99zrw9eanzkj2gj","sona":"7549"},{"rt":null,"stimulus":"<div style=\"font-size:60px;\">+</div>","key_press":null,"trial_type":"html-keyboard-response","trial_index":124,"time_elapsed":271372,"internal_node_id":"0.0-8.0-1.29","subject":"99zrw9eanzkj2gj","sona":"7549"},{"trial_type":"turing-test","trial_index":125,"time_elapsed":277571,"internal_node_id":"0.0-8.0-2.29","subject":"99zrw9eanzkj2gj","sona":"7549"},{"rt":6093.330000061542,"stimulus":"<p>Welche Sequenz haben Sie als natürlicher empfunden?</p>","key_press":70,"test_part":"response","test_stimulus":{"position":1,"left":"bvh/vr_prediction_models/model(tmp)-dataset(pass-bottle)-numprim(4)-hold(2)/final-lines.txt","right":"bvh/pass-bottle-training2-lines.txt","att_check":false},"trial_type":"html-keyboard-response","trial_index":126,"time_elapsed":283670,"internal_node_id":"0.0-8.0-3.29","subject":"99zrw9eanzkj2gj","sona":"7549"},{"rt":362.0799998752773,"stimulus":"<p>Bereit?</p>","key_press":32,"trial_type":"html-keyboard-response","trial_index":127,"time_elapsed":284037,"internal_node_id":"0.0-8.0-0.30","subject":"99zrw9eanzkj2gj","sona":"7549"},{"rt":null,"stimulus":"<div style=\"font-size:60px;\">+</div>","key_press":null,"trial_type":"html-keyboard-response","trial_index":128,"time_elapsed":286041,"internal_node_id":"0.0-8.0-1.30","subject":"99zrw9eanzkj2gj","sona":"7549"},{"trial_type":"turing-test","trial_index":129,"time_elapsed":290047,"internal_node_id":"0.0-8.0-2.30","subject":"99zrw9eanzkj2gj","sona":"7549"},{"rt":1407.5600001960993,"stimulus":"<p>Welche Sequenz haben Sie als natürlicher empfunden?</p>","key_press":74,"test_part":"response","test_stimulus":{"position":0,"left":"bvh/return-bottle-hold-training4-lines.txt","right":"bvh/vr_prediction_models/model(vcgpdm)-dataset(return-bottle-hold)-mode(ELBO)-parts(3)-dyn(20)-lvm(35)-hold(4)/final-lines.txt","att_check":false},"trial_type":"html-keyboard-response","trial_index":130,"time_elapsed":291460,"internal_node_id":"0.0-8.0-3.30","subject":"99zrw9eanzkj2gj","sona":"7549"},{"rt":347.1550000831485,"stimulus":"<p>Bereit?</p>","key_press":32,"trial_type":"html-keyboard-response","trial_index":131,"time_elapsed":291812,"internal_node_id":"0.0-8.0-0.31","subject":"99zrw9eanzkj2gj","sona":"7549"},{"rt":null,"stimulus":"<div style=\"font-size:60px;\">+</div>","key_press":null,"trial_type":"html-keyboard-response","trial_index":132,"time_elapsed":293816,"internal_node_id":"0.0-8.0-1.31","subject":"99zrw9eanzkj2gj","sona":"7549"},{"trial_type":"turing-test","trial_index":133,"time_elapsed":300089,"internal_node_id":"0.0-8.0-2.31","subject":"99zrw9eanzkj2gj","sona":"7549"},{"rt":1509.4800000078976,"stimulus":"<p>Welche Sequenz haben Sie als natürlicher empfunden?</p>","key_press":74,"test_part":"response","test_stimulus":{"position":0,"left":"bvh/return-bottle-training1-lines.txt","right":"bvh/vr_prediction_models/model(vcgpdm)-dataset(return-bottle)-mode(ELBO)-parts(3)-dyn(25)-lvm(30)-hold(1)/final-lines.txt","att_check":false},"trial_type":"html-keyboard-response","trial_index":134,"time_elapsed":301605,"internal_node_id":"0.0-8.0-3.31","subject":"99zrw9eanzkj2gj","sona":"7549"},{"rt":521.9799999613315,"stimulus":"<p>Bereit?</p>","key_press":32,"trial_type":"html-keyboard-response","trial_index":135,"time_elapsed":302132,"internal_node_id":"0.0-8.0-0.32","subject":"99zrw9eanzkj2gj","sona":"7549"},{"rt":null,"stimulus":"<div style=\"font-size:60px;\">+</div>","key_press":null,"trial_type":"html-keyboard-response","trial_index":136,"time_elapsed":304134,"internal_node_id":"0.0-8.0-1.32","subject":"99zrw9eanzkj2gj","sona":"7549"},{"trial_type":"turing-test","trial_index":137,"time_elapsed":307846,"internal_node_id":"0.0-8.0-2.32","subject":"99zrw9eanzkj2gj","sona":"7549"},{"rt":1285.0150000303984,"stimulus":"<p>Welche Sequenz haben Sie als natürlicher empfunden?</p>","key_press":70,"test_part":"response","test_stimulus":{"position":0,"left":"bvh/pass-bottle-hold-training3-lines.txt","right":"bvh/vr_prediction_models/model(vcgpdm)-dataset(pass-bottle-hold)-mode(ELBO)-parts(1)-dyn(35)-lvm(30)-hold(3)/final-lines.txt","att_check":false},"trial_type":"html-keyboard-response","trial_index":138,"time_elapsed":309138,"internal_node_id":"0.0-8.0-3.32","subject":"99zrw9eanzkj2gj","sona":"7549"},{"rt":395.69499995559454,"stimulus":"<p>Bereit?</p>","key_press":32,"trial_type":"html-keyboard-response","trial_index":139,"time_elapsed":309538,"internal_node_id":"0.0-8.0-0.33","subject":"99zrw9eanzkj2gj","sona":"7549"},{"rt":null,"stimulus":"<div style=\"font-size:60px;\">+</div>","key_press":null,"trial_type":"html-keyboard-response","trial_index":140,"time_elapsed":311542,"internal_node_id":"0.0-8.0-1.33","subject":"99zrw9eanzkj2gj","sona":"7549"},{"trial_type":"turing-test","trial_index":141,"time_elapsed":317254,"internal_node_id":"0.0-8.0-2.33","subject":"99zrw9eanzkj2gj","sona":"7549"},{"rt":407.0249998476356,"stimulus":"<p>Welche Sequenz haben Sie als natürlicher empfunden?</p>","key_press":74,"test_part":"response","test_stimulus":{"position":1,"left":"bvh/vr_prediction_models/model(dmp)-dataset(return-bottle)-npsi(80)-hold(3)/final-lines.txt","right":"bvh/return-bottle-training3-lines.txt","att_check":false},"trial_type":"html-keyboard-response","trial_index":142,"time_elapsed":317667,"internal_node_id":"0.0-8.0-3.33","subject":"99zrw9eanzkj2gj","sona":"7549"},{"rt":546.0149999707937,"stimulus":"<p>Bereit?</p>","key_press":32,"trial_type":"html-keyboard-response","trial_index":143,"time_elapsed":318218,"internal_node_id":"0.0-8.0-0.34","subject":"99zrw9eanzkj2gj","sona":"7549"},{"rt":null,"stimulus":"<div style=\"font-size:60px;\">+</div>","key_press":null,"trial_type":"html-keyboard-response","trial_index":144,"time_elapsed":320221,"internal_node_id":"0.0-8.0-1.34","subject":"99zrw9eanzkj2gj","sona":"7549"},{"trial_type":"turing-test","trial_index":145,"time_elapsed":323927,"internal_node_id":"0.0-8.0-2.34","subject":"99zrw9eanzkj2gj","sona":"7549"},{"rt":570.8699999377131,"stimulus":"<p>Welche Sequenz haben Sie als natürlicher empfunden?</p>","key_press":74,"test_part":"response","test_stimulus":{"position":1,"left":"bvh/vr_prediction_models/model(vcgpdm)-dataset(return-bottle-hold)-mode(ELBO)-parts(1)-dyn(10)-lvm(30)-hold(1)/final-lines.txt","right":"bvh/return-bottle-hold-training1-lines.txt","att_check":false},"trial_type":"html-keyboard-response","trial_index":146,"time_elapsed":324504,"internal_node_id":"0.0-8.0-3.34","subject":"99zrw9eanzkj2gj","sona":"7549"},{"rt":331.7499998956919,"stimulus":"<p>Bereit?</p>","key_press":32,"trial_type":"html-keyboard-response","trial_index":147,"time_elapsed":324840,"internal_node_id":"0.0-8.0-0.35","subject":"99zrw9eanzkj2gj","sona":"7549"},{"rt":null,"stimulus":"<div style=\"font-size:60px;\">+</div>","key_press":null,"trial_type":"html-keyboard-response","trial_index":148,"time_elapsed":326845,"internal_node_id":"0.0-8.0-1.35","subject":"99zrw9eanzkj2gj","sona":"7549"},{"trial_type":"turing-test","trial_index":149,"time_elapsed":332906,"internal_node_id":"0.0-8.0-2.35","subject":"99zrw9eanzkj2gj","sona":"7549"},{"rt":783.7300000246614,"stimulus":"<p>Welche Sequenz haben Sie als natürlicher empfunden?</p>","key_press":70,"test_part":"response","test_stimulus":{"position":0,"left":"bvh/return-bottle-training4-lines.txt","right":"bvh/vr_prediction_models/model(vcgpdm)-dataset(return-bottle)-mode(MAP)-parts(3)-hold(4)/final-lines.txt","att_check":false},"trial_type":"html-keyboard-response","trial_index":150,"time_elapsed":333696,"internal_node_id":"0.0-8.0-3.35","subject":"99zrw9eanzkj2gj","sona":"7549"},{"rt":410.56500002741814,"stimulus":"<p>Bereit?</p>","key_press":32,"trial_type":"html-keyboard-response","trial_index":151,"time_elapsed":334111,"internal_node_id":"0.0-8.0-0.36","subject":"99zrw9eanzkj2gj","sona":"7549"},{"rt":null,"stimulus":"<div style=\"font-size:60px;\">+</div>","key_press":null,"trial_type":"html-keyboard-response","trial_index":152,"time_elapsed":336115,"internal_node_id":"0.0-8.0-1.36","subject":"99zrw9eanzkj2gj","sona":"7549"},{"trial_type":"turing-test","trial_index":153,"time_elapsed":342040,"internal_node_id":"0.0-8.0-2.36","subject":"99zrw9eanzkj2gj","sona":"7549"},{"rt":959.1249998193234,"stimulus":"<p>Welche Sequenz haben Sie als natürlicher empfunden?</p>","key_press":70,"test_part":"response","test_stimulus":{"position":0,"left":"bvh/return-bottle-training3-lines.txt","right":"bvh/vr_prediction_models/model(vcgpdm)-dataset(return-bottle)-mode(ELBO)-parts(3)-dyn(15)-lvm(30)-hold(3)/final-lines.txt","att_check":false},"trial_type":"html-keyboard-response","trial_index":154,"time_elapsed":343006,"internal_node_id":"0.0-8.0-3.36","subject":"99zrw9eanzkj2gj","sona":"7549"},{"rt":363.429999910295,"stimulus":"<p>Bereit?</p>","key_press":32,"trial_type":"html-keyboard-response","trial_index":155,"time_elapsed":343375,"internal_node_id":"0.0-8.0-0.37","subject":"99zrw9eanzkj2gj","sona":"7549"},{"rt":null,"stimulus":"<div style=\"font-size:60px;\">+</div>","key_press":null,"trial_type":"html-keyboard-response","trial_index":156,"time_elapsed":345378,"internal_node_id":"0.0-8.0-1.37","subject":"99zrw9eanzkj2gj","sona":"7549"},{"trial_type":"turing-test","trial_index":157,"time_elapsed":351073,"internal_node_id":"0.0-8.0-2.37","subject":"99zrw9eanzkj2gj","sona":"7549"},{"rt":1552.0649999380112,"stimulus":"<p>Welche Sequenz haben Sie als natürlicher empfunden?</p>","key_press":74,"test_part":"response","test_stimulus":{"position":0,"left":"bvh/pass-bottle-training1-lines.txt","right":"bvh/vr_prediction_models/model(vcgpdm)-dataset(pass-bottle)-mode(ELBO)-parts(1)-dyn(35)-lvm(30)-hold(1)/final-lines.txt","att_check":false},"trial_type":"html-keyboard-response","trial_index":158,"time_elapsed":352631,"internal_node_id":"0.0-8.0-3.37","subject":"99zrw9eanzkj2gj","sona":"7549"},{"rt":385.1349998731166,"stimulus":"<p>Bereit?</p>","key_press":32,"trial_type":"html-keyboard-response","trial_index":159,"time_elapsed":353022,"internal_node_id":"0.0-8.0-0.38","subject":"99zrw9eanzkj2gj","sona":"7549"},{"rt":null,"stimulus":"<div style=\"font-size:60px;\">+</div>","key_press":null,"trial_type":"html-keyboard-response","trial_index":160,"time_elapsed":355026,"internal_node_id":"0.0-8.0-1.38","subject":"99zrw9eanzkj2gj","sona":"7549"},{"trial_type":"turing-test","trial_index":161,"time_elapsed":360347,"internal_node_id":"0.0-8.0-2.38","subject":"99zrw9eanzkj2gj","sona":"7549"},{"rt":1640.320000005886,"stimulus":"<p>Welche Sequenz haben Sie als natürlicher empfunden?</p>","key_press":74,"test_part":"response","test_stimulus":{"position":0,"left":"bvh/return-bottle-hold-training0-lines.txt","right":"bvh/vr_prediction_models/model(vcgpdm)-dataset(return-bottle-hold)-mode(ELBO)-parts(3)-dyn(25)-lvm(15)-hold(0)/final-lines.txt","att_check":false},"trial_type":"html-keyboard-response","trial_index":162,"time_elapsed":361994,"internal_node_id":"0.0-8.0-3.38","subject":"99zrw9eanzkj2gj","sona":"7549"},{"rt":290.43999989517033,"stimulus":"<p>Bereit?</p>","key_press":32,"trial_type":"html-keyboard-response","trial_index":163,"time_elapsed":362289,"internal_node_id":"0.0-8.0-0.39","subject":"99zrw9eanzkj2gj","sona":"7549"},{"rt":null,"stimulus":"<div style=\"font-size:60px;\">+</div>","key_press":null,"trial_type":"html-keyboard-response","trial_index":164,"time_elapsed":364292,"internal_node_id":"0.0-8.0-1.39","subject":"99zrw9eanzkj2gj","sona":"7549"},{"trial_type":"turing-test","trial_index":165,"time_elapsed":367836,"internal_node_id":"0.0-8.0-2.39","subject":"99zrw9eanzkj2gj","sona":"7549"},{"rt":1110.6350000482053,"stimulus":"<p>Welche Sequenz haben Sie als natürlicher empfunden?</p>","key_press":70,"test_part":"response","test_stimulus":{"position":0,"left":"bvh/pass-bottle-hold-training2-lines.txt","right":"bvh/vr_prediction_models/model(vcgpdm)-dataset(pass-bottle-hold)-mode(ELBO)-parts(3)-dyn(20)-lvm(20)-hold(2)/final-lines.txt","att_check":false},"trial_type":"html-keyboard-response","trial_index":166,"time_elapsed":368952,"internal_node_id":"0.0-8.0-3.39","subject":"99zrw9eanzkj2gj","sona":"7549"},{"rt":330.52499988116324,"stimulus":"<p>Bereit?</p>","key_press":32,"trial_type":"html-keyboard-response","trial_index":167,"time_elapsed":369288,"internal_node_id":"0.0-8.0-0.40","subject":"99zrw9eanzkj2gj","sona":"7549"},{"rt":null,"stimulus":"<div style=\"font-size:60px;\">+</div>","key_press":null,"trial_type":"html-keyboard-response","trial_index":168,"time_elapsed":371292,"internal_node_id":"0.0-8.0-1.40","subject":"99zrw9eanzkj2gj","sona":"7549"},{"trial_type":"turing-test","trial_index":169,"time_elapsed":376919,"internal_node_id":"0.0-8.0-2.40","subject":"99zrw9eanzkj2gj","sona":"7549"},{"rt":1176.780000096187,"stimulus":"<p>Welche Sequenz haben Sie als natürlicher empfunden?</p>","key_press":70,"test_part":"response","test_stimulus":{"position":1,"left":"bvh/vr_prediction_models/model(vcgpdm)-dataset(pass-bottle)-mode(ELBO)-parts(3)-dyn(25)-lvm(30)-hold(1)/final-lines.txt","right":"bvh/pass-bottle-training1-lines.txt","att_check":false},"trial_type":"html-keyboard-response","trial_index":170,"time_elapsed":378103,"internal_node_id":"0.0-8.0-3.40","subject":"99zrw9eanzkj2gj","sona":"7549"},{"rt":329.460000153631,"stimulus":"<p>Bereit?</p>","key_press":32,"trial_type":"html-keyboard-response","trial_index":171,"time_elapsed":378439,"internal_node_id":"0.0-8.0-0.41","subject":"99zrw9eanzkj2gj","sona":"7549"},{"rt":null,"stimulus":"<div style=\"font-size:60px;\">+</div>","key_press":null,"trial_type":"html-keyboard-response","trial_index":172,"time_elapsed":380443,"internal_node_id":"0.0-8.0-1.41","subject":"99zrw9eanzkj2gj","sona":"7549"},{"trial_type":"turing-test","trial_index":173,"time_elapsed":384295,"internal_node_id":"0.0-8.0-2.41","subject":"99zrw9eanzkj2gj","sona":"7549"},{"rt":1074.1099999286234,"stimulus":"<p>Welche Sequenz haben Sie als natürlicher empfunden?</p>","key_press":74,"test_part":"response","test_stimulus":{"position":0,"left":"bvh/return-bottle-hold-training3-lines.txt","right":"bvh/vr_prediction_models/model(vcgpdm)-dataset(return-bottle-hold)-mode(ELBO)-parts(3)-dyn(10)-lvm(30)-hold(3)/final-lines.txt","att_check":false},"trial_type":"html-keyboard-response","trial_index":174,"time_elapsed":385375,"internal_node_id":"0.0-8.0-3.41","subject":"99zrw9eanzkj2gj","sona":"7549"},{"rt":345.22999986074865,"stimulus":"<p>Bereit?</p>","key_press":32,"trial_type":"html-keyboard-response","trial_index":175,"time_elapsed":385726,"internal_node_id":"0.0-8.0-0.42","subject":"99zrw9eanzkj2gj","sona":"7549"},{"rt":null,"stimulus":"<div style=\"font-size:60px;\">+</div>","key_press":null,"trial_type":"html-keyboard-response","trial_index":176,"time_elapsed":387730,"internal_node_id":"0.0-8.0-1.42","subject":"99zrw9eanzkj2gj","sona":"7549"},{"trial_type":"turing-test","trial_index":177,"time_elapsed":391060,"internal_node_id":"0.0-8.0-2.42","subject":"99zrw9eanzkj2gj","sona":"7549"},{"rt":1043.1500000413507,"stimulus":"<p>Welche Sequenz haben Sie als natürlicher empfunden?</p>","key_press":74,"test_part":"response","test_stimulus":{"position":1,"left":"bvh/vr_prediction_models/model(dmp)-dataset(pass-bottle-hold)-npsi(80)-hold(0)/final-lines.txt","right":"bvh/pass-bottle-hold-training0-lines.txt","att_check":false},"trial_type":"html-keyboard-response","trial_index":178,"time_elapsed":392108,"internal_node_id":"0.0-8.0-3.42","subject":"99zrw9eanzkj2gj","sona":"7549"},{"rt":418.8600000925362,"stimulus":"<p>Bereit?</p>","key_press":32,"trial_type":"html-keyboard-response","trial_index":179,"time_elapsed":392532,"internal_node_id":"0.0-8.0-0.43","subject":"99zrw9eanzkj2gj","sona":"7549"},{"rt":null,"stimulus":"<div style=\"font-size:60px;\">+</div>","key_press":null,"trial_type":"html-keyboard-response","trial_index":180,"time_elapsed":394536,"internal_node_id":"0.0-8.0-1.43","subject":"99zrw9eanzkj2gj","sona":"7549"},{"trial_type":"turing-test","trial_index":181,"time_elapsed":400542,"internal_node_id":"0.0-8.0-2.43","subject":"99zrw9eanzkj2gj","sona":"7549"},{"rt":1144.5199998561293,"stimulus":"<p>Welche Sequenz haben Sie als natürlicher empfunden?</p>","key_press":74,"test_part":"response","test_stimulus":{"position":1,"left":"bvh/vr_prediction_models/model(vcgpdm)-dataset(return-bottle)-mode(ELBO)-parts(3)-dyn(25)-lvm(25)-hold(4)/final-lines.txt","right":"bvh/return-bottle-training4-lines.txt","att_check":false},"trial_type":"html-keyboard-response","trial_index":182,"time_elapsed":401693,"internal_node_id":"0.0-8.0-3.43","subject":"99zrw9eanzkj2gj","sona":"7549"},{"rt":455.7799999602139,"stimulus":"<p>Bereit?</p>","key_press":32,"trial_type":"html-keyboard-response","trial_index":183,"time_elapsed":402156,"internal_node_id":"0.0-8.0-0.44","subject":"99zrw9eanzkj2gj","sona":"7549"},{"rt":null,"stimulus":"<div style=\"font-size:60px;\">+</div>","key_press":null,"trial_type":"html-keyboard-response","trial_index":184,"time_elapsed":404160,"internal_node_id":"0.0-8.0-1.44","subject":"99zrw9eanzkj2gj","sona":"7549"},{"trial_type":"turing-test","trial_index":185,"time_elapsed":410180,"internal_node_id":"0.0-8.0-2.44","subject":"99zrw9eanzkj2gj","sona":"7549"},{"rt":944.4099999964237,"stimulus":"<p>Welche Sequenz haben Sie als natürlicher empfunden?</p>","key_press":74,"test_part":"response","test_stimulus":{"position":1,"left":"bvh/vr_prediction_models/model(vcgpdm)-dataset(return-bottle)-mode(ELBO)-parts(1)-dyn(20)-lvm(30)-hold(3)/final-lines.txt","right":"bvh/return-bottle-training3-lines.txt","att_check":false},"trial_type":"html-keyboard-response","trial_index":186,"time_elapsed":411131,"internal_node_id":"0.0-8.0-3.44","subject":"99zrw9eanzkj2gj","sona":"7549"},{"rt":426.4399998355657,"stimulus":"<p>Bereit?</p>","key_press":32,"trial_type":"html-keyboard-response","trial_index":187,"time_elapsed":411563,"internal_node_id":"0.0-8.0-0.45","subject":"99zrw9eanzkj2gj","sona":"7549"},{"rt":null,"stimulus":"<div style=\"font-size:60px;\">+</div>","key_press":null,"trial_type":"html-keyboard-response","trial_index":188,"time_elapsed":413566,"internal_node_id":"0.0-8.0-1.45","subject":"99zrw9eanzkj2gj","sona":"7549"},{"trial_type":"turing-test","trial_index":189,"time_elapsed":419616,"internal_node_id":"0.0-8.0-2.45","subject":"99zrw9eanzkj2gj","sona":"7549"},{"rt":981.5549999475479,"stimulus":"<p>Welche Sequenz haben Sie als natürlicher empfunden?</p>","key_press":70,"test_part":"response","test_stimulus":{"position":1,"left":"bvh/vr_prediction_models/model(vcgpdm)-dataset(pass-bottle)-mode(ELBO)-parts(3)-dyn(20)-lvm(20)-hold(3)/final-lines.txt","right":"bvh/pass-bottle-training3-lines.txt","att_check":false},"trial_type":"html-keyboard-response","trial_index":190,"time_elapsed":420604,"internal_node_id":"0.0-8.0-3.45","subject":"99zrw9eanzkj2gj","sona":"7549"},{"rt":247.5149999372661,"stimulus":"<p>Bereit?</p>","key_press":32,"trial_type":"html-keyboard-response","trial_index":191,"time_elapsed":420859,"internal_node_id":"0.0-8.0-0.46","subject":"99zrw9eanzkj2gj","sona":"7549"},{"rt":null,"stimulus":"<div style=\"font-size:60px;\">+</div>","key_press":null,"trial_type":"html-keyboard-response","trial_index":192,"time_elapsed":422863,"internal_node_id":"0.0-8.0-1.46","subject":"99zrw9eanzkj2gj","sona":"7549"},{"trial_type":"turing-test","trial_index":193,"time_elapsed":429580,"internal_node_id":"0.0-8.0-2.46","subject":"99zrw9eanzkj2gj","sona":"7549"},{"rt":872.6250000763685,"stimulus":"<p>Welche Sequenz haben Sie als natürlicher empfunden?</p>","key_press":70,"test_part":"response","test_stimulus":{"position":0,"left":"bvh/pass-bottle-training0-lines.txt","right":"bvh/vr_prediction_models/model(dmp)-dataset(pass-bottle)-npsi(50)-hold(0)/final-lines.txt","att_check":false},"trial_type":"html-keyboard-response","trial_index":194,"time_elapsed":430458,"internal_node_id":"0.0-8.0-3.46","subject":"99zrw9eanzkj2gj","sona":"7549"},{"rt":491.17999989539385,"stimulus":"<p>Bereit?</p>","key_press":32,"trial_type":"html-keyboard-response","trial_index":195,"time_elapsed":430956,"internal_node_id":"0.0-8.0-0.47","subject":"99zrw9eanzkj2gj","sona":"7549"},{"rt":null,"stimulus":"<div style=\"font-size:60px;\">+</div>","key_press":null,"trial_type":"html-keyboard-response","trial_index":196,"time_elapsed":432960,"internal_node_id":"0.0-8.0-1.47","subject":"99zrw9eanzkj2gj","sona":"7549"},{"trial_type":"turing-test","trial_index":197,"time_elapsed":436229,"internal_node_id":"0.0-8.0-2.47","subject":"99zrw9eanzkj2gj","sona":"7549"},{"rt":1308.980000205338,"stimulus":"<p>Welche Sequenz haben Sie als natürlicher empfunden?</p>","key_press":70,"test_part":"response","test_stimulus":{"position":0,"left":"bvh/pass-bottle-hold-training0-lines.txt","right":"bvh/vr_prediction_models/model(dmp)-dataset(pass-bottle-hold)-npsi(60)-hold(0)/final-lines.txt","att_check":true},"trial_type":"html-keyboard-response","trial_index":198,"time_elapsed":437545,"internal_node_id":"0.0-8.0-3.47","subject":"99zrw9eanzkj2gj","sona":"7549"},{"rt":394.8299998883158,"stimulus":"<p>Bereit?</p>","key_press":32,"trial_type":"html-keyboard-response","trial_index":199,"time_elapsed":437945,"internal_node_id":"0.0-8.0-0.48","subject":"99zrw9eanzkj2gj","sona":"7549"},{"rt":null,"stimulus":"<div style=\"font-size:60px;\">+</div>","key_press":null,"trial_type":"html-keyboard-response","trial_index":200,"time_elapsed":439949,"internal_node_id":"0.0-8.0-1.48","subject":"99zrw9eanzkj2gj","sona":"7549"},{"trial_type":"turing-test","trial_index":201,"time_elapsed":445359,"internal_node_id":"0.0-8.0-2.48","subject":"99zrw9eanzkj2gj","sona":"7549"},{"rt":932.4400001205504,"stimulus":"<p>Welche Sequenz haben Sie als natürlicher empfunden?</p>","key_press":74,"test_part":"response","test_stimulus":{"position":0,"left":"bvh/return-bottle-training0-lines.txt","right":"bvh/vr_prediction_models/model(tmp)-dataset(return-bottle)-numprim(10)-hold(0)/final-lines.txt","att_check":false},"trial_type":"html-keyboard-response","trial_index":202,"time_elapsed":446298,"internal_node_id":"0.0-8.0-3.48","subject":"99zrw9eanzkj2gj","sona":"7549"},{"rt":446.80000003427267,"stimulus":"<p>Bereit?</p>","key_press":32,"trial_type":"html-keyboard-response","trial_index":203,"time_elapsed":446752,"internal_node_id":"0.0-8.0-0.49","subject":"99zrw9eanzkj2gj","sona":"7549"},{"rt":null,"stimulus":"<div style=\"font-size:60px;\">+</div>","key_press":null,"trial_type":"html-keyboard-response","trial_index":204,"time_elapsed":448755,"internal_node_id":"0.0-8.0-1.49","subject":"99zrw9eanzkj2gj","sona":"7549"},{"trial_type":"turing-test","trial_index":205,"time_elapsed":454445,"internal_node_id":"0.0-8.0-2.49","subject":"99zrw9eanzkj2gj","sona":"7549"},{"rt":1167.5099998246878,"stimulus":"<p>Welche Sequenz haben Sie als natürlicher empfunden?</p>","key_press":74,"test_part":"response","test_stimulus":{"position":1,"left":"bvh/vr_prediction_models/model(vcgpdm)-dataset(return-bottle)-mode(ELBO)-parts(1)-dyn(20)-lvm(5)-hold(0)/final-lines.txt","right":"bvh/return-bottle-training0-lines.txt","att_check":false},"trial_type":"html-keyboard-response","trial_index":206,"time_elapsed":455624,"internal_node_id":"0.0-8.0-3.49","subject":"99zrw9eanzkj2gj","sona":"7549"},{"rt":304.6800000593066,"stimulus":"<p>Bereit?</p>","key_press":32,"trial_type":"html-keyboard-response","trial_index":207,"time_elapsed":455936,"internal_node_id":"0.0-8.0-0.50","subject":"99zrw9eanzkj2gj","sona":"7549"},{"rt":null,"stimulus":"<div style=\"font-size:60px;\">+</div>","key_press":null,"trial_type":"html-keyboard-response","trial_index":208,"time_elapsed":457940,"internal_node_id":"0.0-8.0-1.50","subject":"99zrw9eanzkj2gj","sona":"7549"},{"trial_type":"turing-test","trial_index":209,"time_elapsed":461873,"internal_node_id":"0.0-8.0-2.50","subject":"99zrw9eanzkj2gj","sona":"7549"},{"rt":263.46000004559755,"stimulus":"<p>Welche Sequenz haben Sie als natürlicher empfunden?</p>","key_press":70,"test_part":"response","test_stimulus":{"position":0,"left":"bvh/return-bottle-hold-training4-lines.txt","right":"bvh/vr_prediction_models/model(vcgpdm)-dataset(return-bottle-hold)-mode(ELBO)-parts(3)-dyn(25)-lvm(25)-hold(4)/final-lines.txt","att_check":false},"trial_type":"html-keyboard-response","trial_index":210,"time_elapsed":462143,"internal_node_id":"0.0-8.0-3.50","subject":"99zrw9eanzkj2gj","sona":"7549"},{"rt":1807.6200000941753,"stimulus":"<p>Bereit?</p>","key_press":32,"trial_type":"html-keyboard-response","trial_index":211,"time_elapsed":463957,"internal_node_id":"0.0-8.0-0.51","subject":"99zrw9eanzkj2gj","sona":"7549"},{"rt":null,"stimulus":"<div style=\"font-size:60px;\">+</div>","key_press":null,"trial_type":"html-keyboard-response","trial_index":212,"time_elapsed":465959,"internal_node_id":"0.0-8.0-1.51","subject":"99zrw9eanzkj2gj","sona":"7549"},{"trial_type":"turing-test","trial_index":213,"time_elapsed":469405,"internal_node_id":"0.0-8.0-2.51","subject":"99zrw9eanzkj2gj","sona":"7549"},{"rt":1527.1400001365691,"stimulus":"<p>Welche Sequenz haben Sie als natürlicher empfunden?</p>","key_press":70,"test_part":"response","test_stimulus":{"position":0,"left":"bvh/return-bottle-hold-training2-lines.txt","right":"bvh/vr_prediction_models/model(dmp)-dataset(return-bottle-hold)-npsi(60)-hold(2)/final-lines.txt","att_check":false},"trial_type":"html-keyboard-response","trial_index":214,"time_elapsed":470939,"internal_node_id":"0.0-8.0-3.51","subject":"99zrw9eanzkj2gj","sona":"7549"},{"rt":650.6550000049174,"stimulus":"<p>Bereit?</p>","key_press":32,"trial_type":"html-keyboard-response","trial_index":215,"time_elapsed":471595,"internal_node_id":"0.0-8.0-0.52","subject":"99zrw9eanzkj2gj","sona":"7549"},{"rt":null,"stimulus":"<div style=\"font-size:60px;\">+</div>","key_press":null,"trial_type":"html-keyboard-response","trial_index":216,"time_elapsed":473600,"internal_node_id":"0.0-8.0-1.52","subject":"99zrw9eanzkj2gj","sona":"7549"},{"trial_type":"turing-test","trial_index":217,"time_elapsed":477478,"internal_node_id":"0.0-8.0-2.52","subject":"99zrw9eanzkj2gj","sona":"7549"},{"rt":1679.3499998748302,"stimulus":"<p>Welche Sequenz haben Sie als natürlicher empfunden?</p>","key_press":74,"test_part":"response","test_stimulus":{"position":1,"left":"bvh/vr_prediction_models/model(vcgpdm)-dataset(pass-bottle-hold)-mode(ELBO)-parts(3)-dyn(20)-lvm(15)-hold(3)/final-lines.txt","right":"bvh/pass-bottle-hold-training3-lines.txt","att_check":false},"trial_type":"html-keyboard-response","trial_index":218,"time_elapsed":479164,"internal_node_id":"0.0-8.0-3.52","subject":"99zrw9eanzkj2gj","sona":"7549"},{"rt":305.0550001207739,"stimulus":"<p>Bereit?</p>","key_press":32,"trial_type":"html-keyboard-response","trial_index":219,"time_elapsed":479474,"internal_node_id":"0.0-8.0-0.53","subject":"99zrw9eanzkj2gj","sona":"7549"},{"rt":null,"stimulus":"<div style=\"font-size:60px;\">+</div>","key_press":null,"trial_type":"html-keyboard-response","trial_index":220,"time_elapsed":481479,"internal_node_id":"0.0-8.0-1.53","subject":"99zrw9eanzkj2gj","sona":"7549"},{"trial_type":"turing-test","trial_index":221,"time_elapsed":487144,"internal_node_id":"0.0-8.0-2.53","subject":"99zrw9eanzkj2gj","sona":"7549"},{"rt":649.9700001440942,"stimulus":"<p>Welche Sequenz haben Sie als natürlicher empfunden?</p>","key_press":74,"test_part":"response","test_stimulus":{"position":1,"left":"bvh/vr_prediction_models/model(vcgpdm)-dataset(return-bottle)-mode(ELBO)-parts(1)-dyn(30)-lvm(35)-hold(0)/final-lines.txt","right":"bvh/return-bottle-training0-lines.txt","att_check":false},"trial_type":"html-keyboard-response","trial_index":222,"time_elapsed":487801,"internal_node_id":"0.0-8.0-3.53","subject":"99zrw9eanzkj2gj","sona":"7549"},{"rt":346.35000000707805,"stimulus":"<p>Bereit?</p>","key_press":32,"trial_type":"html-keyboard-response","trial_index":223,"time_elapsed":488153,"internal_node_id":"0.0-8.0-0.54","subject":"99zrw9eanzkj2gj","sona":"7549"},{"rt":null,"stimulus":"<div style=\"font-size:60px;\">+</div>","key_press":null,"trial_type":"html-keyboard-response","trial_index":224,"time_elapsed":490158,"internal_node_id":"0.0-8.0-1.54","subject":"99zrw9eanzkj2gj","sona":"7549"},{"trial_type":"turing-test","trial_index":225,"time_elapsed":493534,"internal_node_id":"0.0-8.0-2.54","subject":"99zrw9eanzkj2gj","sona":"7549"},{"rt":1425.6150000728667,"stimulus":"<p>Welche Sequenz haben Sie als natürlicher empfunden?</p>","key_press":70,"test_part":"response","test_stimulus":{"position":0,"left":"bvh/return-bottle-hold-training2-lines.txt","right":"bvh/vr_prediction_models/model(dmp)-dataset(return-bottle-hold)-npsi(60)-hold(2)/final-lines.txt","att_check":false},"trial_type":"html-keyboard-response","trial_index":226,"time_elapsed":494969,"internal_node_id":"0.0-8.0-3.54","subject":"99zrw9eanzkj2gj","sona":"7549"},{"rt":328.8700000848621,"stimulus":"<p>Bereit?</p>","key_press":32,"trial_type":"html-keyboard-response","trial_index":227,"time_elapsed":495303,"internal_node_id":"0.0-8.0-0.55","subject":"99zrw9eanzkj2gj","sona":"7549"},{"rt":null,"stimulus":"<div style=\"font-size:60px;\">+</div>","key_press":null,"trial_type":"html-keyboard-response","trial_index":228,"time_elapsed":497307,"internal_node_id":"0.0-8.0-1.55","subject":"99zrw9eanzkj2gj","sona":"7549"},{"trial_type":"turing-test","trial_index":229,"time_elapsed":500929,"internal_node_id":"0.0-8.0-2.55","subject":"99zrw9eanzkj2gj","sona":"7549"},{"rt":982.3900000192225,"stimulus":"<p>Welche Sequenz haben Sie als natürlicher empfunden?</p>","key_press":74,"test_part":"response","test_stimulus":{"position":0,"left":"bvh/return-bottle-hold-training3-lines.txt","right":"bvh/vr_prediction_models/model(tmp)-dataset(return-bottle-hold)-numprim(15)-hold(3)/final-lines.txt","att_check":false},"trial_type":"html-keyboard-response","trial_index":230,"time_elapsed":501918,"internal_node_id":"0.0-8.0-3.55","subject":"99zrw9eanzkj2gj","sona":"7549"},{"rt":304.21500001102686,"stimulus":"<p>Bereit?</p>","key_press":32,"trial_type":"html-keyboard-response","trial_index":231,"time_elapsed":502230,"internal_node_id":"0.0-8.0-0.56","subject":"99zrw9eanzkj2gj","sona":"7549"},{"rt":null,"stimulus":"<div style=\"font-size:60px;\">+</div>","key_press":null,"trial_type":"html-keyboard-response","trial_index":232,"time_elapsed":504234,"internal_node_id":"0.0-8.0-1.56","subject":"99zrw9eanzkj2gj","sona":"7549"},{"trial_type":"turing-test","trial_index":233,"time_elapsed":510467,"internal_node_id":"0.0-8.0-2.56","subject":"99zrw9eanzkj2gj","sona":"7549"},{"rt":876.674999948591,"stimulus":"<p>Welche Sequenz haben Sie als natürlicher empfunden?</p>","key_press":74,"test_part":"response","test_stimulus":{"position":1,"left":"bvh/vr_prediction_models/model(vcgpdm)-dataset(return-bottle)-mode(ELBO)-parts(3)-dyn(20)-lvm(35)-hold(1)/final-lines.txt","right":"bvh/return-bottle-training1-lines.txt","att_check":false},"trial_type":"html-keyboard-response","trial_index":234,"time_elapsed":511351,"internal_node_id":"0.0-8.0-3.56","subject":"99zrw9eanzkj2gj","sona":"7549"},{"rt":543.8650001306087,"stimulus":"<p>Bereit?</p>","key_press":32,"trial_type":"html-keyboard-response","trial_index":235,"time_elapsed":511901,"internal_node_id":"0.0-8.0-0.57","subject":"99zrw9eanzkj2gj","sona":"7549"},{"rt":null,"stimulus":"<div style=\"font-size:60px;\">+</div>","key_press":null,"trial_type":"html-keyboard-response","trial_index":236,"time_elapsed":513905,"internal_node_id":"0.0-8.0-1.57","subject":"99zrw9eanzkj2gj","sona":"7549"},{"trial_type":"turing-test","trial_index":237,"time_elapsed":519561,"internal_node_id":"0.0-8.0-2.57","subject":"99zrw9eanzkj2gj","sona":"7549"},{"rt":1092.4549999181181,"stimulus":"<p>Welche Sequenz haben Sie als natürlicher empfunden?</p>","key_press":70,"test_part":"response","test_stimulus":{"position":0,"left":"bvh/pass-bottle-training1-lines.txt","right":"bvh/vr_prediction_models/model(vcgpdm)-dataset(pass-bottle)-mode(ELBO)-parts(3)-dyn(20)-lvm(20)-hold(1)/final-lines.txt","att_check":false},"trial_type":"html-keyboard-response","trial_index":238,"time_elapsed":520660,"internal_node_id":"0.0-8.0-3.57","subject":"99zrw9eanzkj2gj","sona":"7549"},{"rt":353.92999998293817,"stimulus":"<p>Bereit?</p>","key_press":32,"trial_type":"html-keyboard-response","trial_index":239,"time_elapsed":521021,"internal_node_id":"0.0-8.0-0.58","subject":"99zrw9eanzkj2gj","sona":"7549"},{"rt":null,"stimulus":"<div style=\"font-size:60px;\">+</div>","key_press":null,"trial_type":"html-keyboard-response","trial_index":240,"time_elapsed":523025,"internal_node_id":"0.0-8.0-1.58","subject":"99zrw9eanzkj2gj","sona":"7549"},{"trial_type":"turing-test","trial_index":241,"time_elapsed":528808,"internal_node_id":"0.0-8.0-2.58","subject":"99zrw9eanzkj2gj","sona":"7549"},{"rt":885.9699999447912,"stimulus":"<p>Welche Sequenz haben Sie als natürlicher empfunden?</p>","key_press":74,"test_part":"response","test_stimulus":{"position":1,"left":"bvh/vr_prediction_models/model(dmp)-dataset(return-bottle)-npsi(40)-hold(4)/final-lines.txt","right":"bvh/return-bottle-training4-lines.txt","att_check":false},"trial_type":"html-keyboard-response","trial_index":242,"time_elapsed":529701,"internal_node_id":"0.0-8.0-3.58","subject":"99zrw9eanzkj2gj","sona":"7549"},{"rt":574.6700000017881,"stimulus":"<p>Bereit?</p>","key_press":32,"trial_type":"html-keyboard-response","trial_index":243,"time_elapsed":530284,"internal_node_id":"0.0-8.0-0.59","subject":"99zrw9eanzkj2gj","sona":"7549"},{"rt":null,"stimulus":"<div style=\"font-size:60px;\">+</div>","key_press":null,"trial_type":"html-keyboard-response","trial_index":244,"time_elapsed":532287,"internal_node_id":"0.0-8.0-1.59","subject":"99zrw9eanzkj2gj","sona":"7549"},{"trial_type":"turing-test","trial_index":245,"time_elapsed":537764,"internal_node_id":"0.0-8.0-2.59","subject":"99zrw9eanzkj2gj","sona":"7549"},{"rt":1150.46999999322,"stimulus":"<p>Welche Sequenz haben Sie als natürlicher empfunden?</p>","key_press":74,"test_part":"response","test_stimulus":{"position":1,"left":"bvh/vr_prediction_models/model(tmp)-dataset(pass-bottle)-numprim(3)-hold(1)/final-lines.txt","right":"bvh/pass-bottle-training1-lines.txt","att_check":false},"trial_type":"html-keyboard-response","trial_index":246,"time_elapsed":538923,"internal_node_id":"0.0-8.0-3.59","subject":"99zrw9eanzkj2gj","sona":"7549"},{"rt":425.5099999718368,"stimulus":"<p>Bereit?</p>","key_press":32,"trial_type":"html-keyboard-response","trial_index":247,"time_elapsed":539355,"internal_node_id":"0.0-8.0-0.60","subject":"99zrw9eanzkj2gj","sona":"7549"},{"rt":null,"stimulus":"<div style=\"font-size:60px;\">+</div>","key_press":null,"trial_type":"html-keyboard-response","trial_index":248,"time_elapsed":541360,"internal_node_id":"0.0-8.0-1.60","subject":"99zrw9eanzkj2gj","sona":"7549"},{"trial_type":"turing-test","trial_index":249,"time_elapsed":547259,"internal_node_id":"0.0-8.0-2.60","subject":"99zrw9eanzkj2gj","sona":"7549"},{"rt":762.1700000017881,"stimulus":"<p>Welche Sequenz haben Sie als natürlicher empfunden?</p>","key_press":70,"test_part":"response","test_stimulus":{"position":0,"left":"bvh/pass-bottle-training3-lines.txt","right":"bvh/vr_prediction_models/model(tmp)-dataset(pass-bottle)-numprim(5)-hold(3)/final-lines.txt","att_check":false},"trial_type":"html-keyboard-response","trial_index":250,"time_elapsed":548028,"internal_node_id":"0.0-8.0-3.60","subject":"99zrw9eanzkj2gj","sona":"7549"},{"rt":407.21500013023615,"stimulus":"<p>Bereit?</p>","key_press":32,"trial_type":"html-keyboard-response","trial_index":251,"time_elapsed":548444,"internal_node_id":"0.0-8.0-0.61","subject":"99zrw9eanzkj2gj","sona":"7549"},{"rt":null,"stimulus":"<div style=\"font-size:60px;\">+</div>","key_press":null,"trial_type":"html-keyboard-response","trial_index":252,"time_elapsed":550446,"internal_node_id":"0.0-8.0-1.61","subject":"99zrw9eanzkj2gj","sona":"7549"},{"trial_type":"turing-test","trial_index":253,"time_elapsed":556169,"internal_node_id":"0.0-8.0-2.61","subject":"99zrw9eanzkj2gj","sona":"7549"},{"rt":1477.7299999259412,"stimulus":"<p>Welche Sequenz haben Sie als natürlicher empfunden?</p>","key_press":74,"test_part":"response","test_stimulus":{"position":1,"left":"bvh/vr_prediction_models/model(vcgpdm)-dataset(pass-bottle)-mode(ELBO)-parts(1)-dyn(20)-lvm(30)-hold(1)/final-lines.txt","right":"bvh/pass-bottle-training1-lines.txt","att_check":false},"trial_type":"html-keyboard-response","trial_index":254,"time_elapsed":557659,"internal_node_id":"0.0-8.0-3.61","subject":"99zrw9eanzkj2gj","sona":"7549"},{"rt":313.0600000731647,"stimulus":"<p>Bereit?</p>","key_press":32,"trial_type":"html-keyboard-response","trial_index":255,"time_elapsed":557979,"internal_node_id":"0.0-8.0-0.62","subject":"99zrw9eanzkj2gj","sona":"7549"},{"rt":null,"stimulus":"<div style=\"font-size:60px;\">+</div>","key_press":null,"trial_type":"html-keyboard-response","trial_index":256,"time_elapsed":559983,"internal_node_id":"0.0-8.0-1.62","subject":"99zrw9eanzkj2gj","sona":"7549"},{"trial_type":"turing-test","trial_index":257,"time_elapsed":563307,"internal_node_id":"0.0-8.0-2.62","subject":"99zrw9eanzkj2gj","sona":"7549"},{"rt":877.8450000099838,"stimulus":"<p>Welche Sequenz haben Sie als natürlicher empfunden?</p>","key_press":70,"test_part":"response","test_stimulus":{"position":0,"left":"bvh/pass-bottle-hold-training2-lines.txt","right":"bvh/vr_prediction_models/model(dmp)-dataset(pass-bottle-hold)-npsi(50)-hold(2)/final-lines.txt","att_check":false},"trial_type":"html-keyboard-response","trial_index":258,"time_elapsed":564194,"internal_node_id":"0.0-8.0-3.62","subject":"99zrw9eanzkj2gj","sona":"7549"},{"rt":384.3799999449402,"stimulus":"<p>Bereit?</p>","key_press":32,"trial_type":"html-keyboard-response","trial_index":259,"time_elapsed":564585,"internal_node_id":"0.0-8.0-0.63","subject":"99zrw9eanzkj2gj","sona":"7549"},{"rt":null,"stimulus":"<div style=\"font-size:60px;\">+</div>","key_press":null,"trial_type":"html-keyboard-response","trial_index":260,"time_elapsed":566590,"internal_node_id":"0.0-8.0-1.63","subject":"99zrw9eanzkj2gj","sona":"7549"},{"trial_type":"turing-test","trial_index":261,"time_elapsed":569878,"internal_node_id":"0.0-8.0-2.63","subject":"99zrw9eanzkj2gj","sona":"7549"},{"rt":2178.7450001575053,"stimulus":"<p>Welche Sequenz haben Sie als natürlicher empfunden?</p>","key_press":70,"test_part":"response","test_stimulus":{"position":0,"left":"bvh/pass-bottle-hold-training2-lines.txt","right":"bvh/vr_prediction_models/model(vcgpdm)-dataset(pass-bottle-hold)-mode(ELBO)-parts(1)-dyn(15)-lvm(35)-hold(2)/final-lines.txt","att_check":false},"trial_type":"html-keyboard-response","trial_index":262,"time_elapsed":572064,"internal_node_id":"0.0-8.0-3.63","subject":"99zrw9eanzkj2gj","sona":"7549"},{"rt":408.18000002764165,"stimulus":"<p>Bereit?</p>","key_press":32,"trial_type":"html-keyboard-response","trial_index":263,"time_elapsed":572480,"internal_node_id":"0.0-8.0-0.64","subject":"99zrw9eanzkj2gj","sona":"7549"},{"rt":null,"stimulus":"<div style=\"font-size:60px;\">+</div>","key_press":null,"trial_type":"html-keyboard-response","trial_index":264,"time_elapsed":574484,"internal_node_id":"0.0-8.0-1.64","subject":"99zrw9eanzkj2gj","sona":"7549"},{"trial_type":"turing-test","trial_index":265,"time_elapsed":578326,"internal_node_id":"0.0-8.0-2.64","subject":"99zrw9eanzkj2gj","sona":"7549"},{"rt":905.934999929741,"stimulus":"<p>Welche Sequenz haben Sie als natürlicher empfunden?</p>","key_press":70,"test_part":"response","test_stimulus":{"position":0,"left":"bvh/return-bottle-hold-training3-lines.txt","right":"bvh/vr_prediction_models/model(vcgpdm)-dataset(return-bottle-hold)-mode(MAP)-parts(3)-hold(3)/final-lines.txt","att_check":false},"trial_type":"html-keyboard-response","trial_index":266,"time_elapsed":579240,"internal_node_id":"0.0-8.0-3.64","subject":"99zrw9eanzkj2gj","sona":"7549"},{"rt":407.92999998666346,"stimulus":"<p>Bereit?</p>","key_press":32,"trial_type":"html-keyboard-response","trial_index":267,"time_elapsed":579655,"internal_node_id":"0.0-8.0-0.65","subject":"99zrw9eanzkj2gj","sona":"7549"},{"rt":null,"stimulus":"<div style=\"font-size:60px;\">+</div>","key_press":null,"trial_type":"html-keyboard-response","trial_index":268,"time_elapsed":581659,"internal_node_id":"0.0-8.0-1.65","subject":"99zrw9eanzkj2gj","sona":"7549"},{"trial_type":"turing-test","trial_index":269,"time_elapsed":585319,"internal_node_id":"0.0-8.0-2.65","subject":"99zrw9eanzkj2gj","sona":"7549"},{"rt":1391.950000077486,"stimulus":"<p>Welche Sequenz haben Sie als natürlicher empfunden?</p>","key_press":74,"test_part":"response","test_stimulus":{"position":0,"left":"bvh/return-bottle-hold-training2-lines.txt","right":"bvh/vr_prediction_models/model(vcgpdm)-dataset(return-bottle-hold)-mode(ELBO)-parts(1)-dyn(35)-lvm(10)-hold(2)/final-lines.txt","att_check":false},"trial_type":"html-keyboard-response","trial_index":270,"time_elapsed":586717,"internal_node_id":"0.0-8.0-3.65","subject":"99zrw9eanzkj2gj","sona":"7549"},{"rt":377.4800000246614,"stimulus":"<p>Bereit?</p>","key_press":32,"trial_type":"html-keyboard-response","trial_index":271,"time_elapsed":587101,"internal_node_id":"0.0-8.0-0.66","subject":"99zrw9eanzkj2gj","sona":"7549"},{"rt":null,"stimulus":"<div style=\"font-size:60px;\">+</div>","key_press":null,"trial_type":"html-keyboard-response","trial_index":272,"time_elapsed":589106,"internal_node_id":"0.0-8.0-1.66","subject":"99zrw9eanzkj2gj","sona":"7549"},{"trial_type":"turing-test","trial_index":273,"time_elapsed":592353,"internal_node_id":"0.0-8.0-2.66","subject":"99zrw9eanzkj2gj","sona":"7549"},{"rt":3580.8599998708814,"stimulus":"<p>Welche Sequenz haben Sie als natürlicher empfunden?</p>","key_press":70,"test_part":"response","test_stimulus":{"position":1,"left":"bvh/vr_prediction_models/model(tmp)-dataset(pass-bottle-hold)-numprim(9)-hold(1)/final-lines.txt","right":"bvh/pass-bottle-hold-training1-lines.txt","att_check":false},"trial_type":"html-keyboard-response","trial_index":274,"time_elapsed":595942,"internal_node_id":"0.0-8.0-3.66","subject":"99zrw9eanzkj2gj","sona":"7549"},{"rt":464.3600000999868,"stimulus":"<p>Bereit?</p>","key_press":32,"trial_type":"html-keyboard-response","trial_index":275,"time_elapsed":596413,"internal_node_id":"0.0-8.0-0.67","subject":"99zrw9eanzkj2gj","sona":"7549"},{"rt":null,"stimulus":"<div style=\"font-size:60px;\">+</div>","key_press":null,"trial_type":"html-keyboard-response","trial_index":276,"time_elapsed":598417,"internal_node_id":"0.0-8.0-1.67","subject":"99zrw9eanzkj2gj","sona":"7549"},{"trial_type":"turing-test","trial_index":277,"time_elapsed":601864,"internal_node_id":"0.0-8.0-2.67","subject":"99zrw9eanzkj2gj","sona":"7549"},{"rt":2185.130000114441,"stimulus":"<p>Welche Sequenz haben Sie als natürlicher empfunden?</p>","key_press":74,"test_part":"response","test_stimulus":{"position":1,"left":"bvh/vr_prediction_models/model(tmp)-dataset(return-bottle-hold)-numprim(6)-hold(2)/final-lines.txt","right":"bvh/return-bottle-hold-training2-lines.txt","att_check":false},"trial_type":"html-keyboard-response","trial_index":278,"time_elapsed":604060,"internal_node_id":"0.0-8.0-3.67","subject":"99zrw9eanzkj2gj","sona":"7549"},{"rt":416.3049999624491,"stimulus":"<p>Bereit?</p>","key_press":32,"trial_type":"html-keyboard-response","trial_index":279,"time_elapsed":604483,"internal_node_id":"0.0-8.0-0.68","subject":"99zrw9eanzkj2gj","sona":"7549"},{"rt":null,"stimulus":"<div style=\"font-size:60px;\">+</div>","key_press":null,"trial_type":"html-keyboard-response","trial_index":280,"time_elapsed":606487,"internal_node_id":"0.0-8.0-1.68","subject":"99zrw9eanzkj2gj","sona":"7549"},{"trial_type":"turing-test","trial_index":281,"time_elapsed":610236,"internal_node_id":"0.0-8.0-2.68","subject":"99zrw9eanzkj2gj","sona":"7549"},{"rt":847.8850000537932,"stimulus":"<p>Welche Sequenz haben Sie als natürlicher empfunden?</p>","key_press":74,"test_part":"response","test_stimulus":{"position":0,"left":"bvh/pass-bottle-hold-training3-lines.txt","right":"bvh/vr_prediction_models/model(vcgpdm)-dataset(pass-bottle-hold)-mode(ELBO)-parts(3)-dyn(10)-lvm(10)-hold(3)/final-lines.txt","att_check":false},"trial_type":"html-keyboard-response","trial_index":282,"time_elapsed":611091,"internal_node_id":"0.0-8.0-3.68","subject":"99zrw9eanzkj2gj","sona":"7549"},{"rt":606.9700000807643,"stimulus":"<p>Bereit?</p>","key_press":32,"trial_type":"html-keyboard-response","trial_index":283,"time_elapsed":611706,"internal_node_id":"0.0-8.0-0.69","subject":"99zrw9eanzkj2gj","sona":"7549"},{"rt":null,"stimulus":"<div style=\"font-size:60px;\">+</div>","key_press":null,"trial_type":"html-keyboard-response","trial_index":284,"time_elapsed":613710,"internal_node_id":"0.0-8.0-1.69","subject":"99zrw9eanzkj2gj","sona":"7549"},{"trial_type":"turing-test","trial_index":285,"time_elapsed":619008,"internal_node_id":"0.0-8.0-2.69","subject":"99zrw9eanzkj2gj","sona":"7549"},{"rt":625.2850000746548,"stimulus":"<p>Welche Sequenz haben Sie als natürlicher empfunden?</p>","key_press":70,"test_part":"response","test_stimulus":{"position":1,"left":"bvh/vr_prediction_models/model(tmp)-dataset(return-bottle)-numprim(10)-hold(0)/final-lines.txt","right":"bvh/return-bottle-training0-lines.txt","att_check":false},"trial_type":"html-keyboard-response","trial_index":286,"time_elapsed":619641,"internal_node_id":"0.0-8.0-3.69","subject":"99zrw9eanzkj2gj","sona":"7549"},{"rt":576.0249998420477,"stimulus":"<p>Bereit?</p>","key_press":32,"trial_type":"html-keyboard-response","trial_index":287,"time_elapsed":620225,"internal_node_id":"0.0-8.0-0.70","subject":"99zrw9eanzkj2gj","sona":"7549"},{"rt":null,"stimulus":"<div style=\"font-size:60px;\">+</div>","key_press":null,"trial_type":"html-keyboard-response","trial_index":288,"time_elapsed":622228,"internal_node_id":"0.0-8.0-1.70","subject":"99zrw9eanzkj2gj","sona":"7549"},{"trial_type":"turing-test","trial_index":289,"time_elapsed":628570,"internal_node_id":"0.0-8.0-2.70","subject":"99zrw9eanzkj2gj","sona":"7549"},{"rt":664.0899998601526,"stimulus":"<p>Welche Sequenz haben Sie als natürlicher empfunden?</p>","key_press":70,"test_part":"response","test_stimulus":{"position":0,"left":"bvh/pass-bottle-training2-lines.txt","right":"bvh/vr_prediction_models/model(vcgpdm)-dataset(pass-bottle)-mode(ELBO)-parts(3)-dyn(10)-lvm(30)-hold(2)/final-lines.txt","att_check":false},"trial_type":"html-keyboard-response","trial_index":290,"time_elapsed":629241,"internal_node_id":"0.0-8.0-3.70","subject":"99zrw9eanzkj2gj","sona":"7549"},{"rt":472.9349999688566,"stimulus":"<p>Bereit?</p>","key_press":32,"trial_type":"html-keyboard-response","trial_index":291,"time_elapsed":629721,"internal_node_id":"0.0-8.0-0.71","subject":"99zrw9eanzkj2gj","sona":"7549"},{"rt":null,"stimulus":"<div style=\"font-size:60px;\">+</div>","key_press":null,"trial_type":"html-keyboard-response","trial_index":292,"time_elapsed":631724,"internal_node_id":"0.0-8.0-1.71","subject":"99zrw9eanzkj2gj","sona":"7549"},{"trial_type":"turing-test","trial_index":293,"time_elapsed":638625,"internal_node_id":"0.0-8.0-2.71","subject":"99zrw9eanzkj2gj","sona":"7549"},{"rt":484.32000004686415,"stimulus":"<p>Welche Sequenz haben Sie als natürlicher empfunden?</p>","key_press":74,"test_part":"response","test_stimulus":{"position":1,"left":"bvh/vr_prediction_models/model(vcgpdm)-dataset(pass-bottle)-mode(ELBO)-parts(1)-dyn(30)-lvm(30)-hold(0)/final-lines.txt","right":"bvh/pass-bottle-training0-lines.txt","att_check":false},"trial_type":"html-keyboard-response","trial_index":294,"time_elapsed":639120,"internal_node_id":"0.0-8.0-3.71","subject":"99zrw9eanzkj2gj","sona":"7549"},{"rt":400.9050000458956,"stimulus":"<p>Bereit?</p>","key_press":32,"trial_type":"html-keyboard-response","trial_index":295,"time_elapsed":639529,"internal_node_id":"0.0-8.0-0.72","subject":"99zrw9eanzkj2gj","sona":"7549"},{"rt":null,"stimulus":"<div style=\"font-size:60px;\">+</div>","key_press":null,"trial_type":"html-keyboard-response","trial_index":296,"time_elapsed":641533,"internal_node_id":"0.0-8.0-1.72","subject":"99zrw9eanzkj2gj","sona":"7549"},{"trial_type":"turing-test","trial_index":297,"time_elapsed":648283,"internal_node_id":"0.0-8.0-2.72","subject":"99zrw9eanzkj2gj","sona":"7549"},{"rt":890.8700000029057,"stimulus":"<p>Welche Sequenz haben Sie als natürlicher empfunden?</p>","key_press":70,"test_part":"response","test_stimulus":{"position":1,"left":"bvh/vr_prediction_models/model(tmp)-dataset(pass-bottle)-numprim(6)-hold(0)/final-lines.txt","right":"bvh/pass-bottle-training0-lines.txt","att_check":false},"trial_type":"html-keyboard-response","trial_index":298,"time_elapsed":649183,"internal_node_id":"0.0-8.0-3.72","subject":"99zrw9eanzkj2gj","sona":"7549"},{"rt":459.5800000242889,"stimulus":"<p>Bereit?</p>","key_press":32,"trial_type":"html-keyboard-response","trial_index":299,"time_elapsed":649649,"internal_node_id":"0.0-8.0-0.73","subject":"99zrw9eanzkj2gj","sona":"7549"},{"rt":null,"stimulus":"<div style=\"font-size:60px;\">+</div>","key_press":null,"trial_type":"html-keyboard-response","trial_index":300,"time_elapsed":651653,"internal_node_id":"0.0-8.0-1.73","subject":"99zrw9eanzkj2gj","sona":"7549"},{"trial_type":"turing-test","trial_index":301,"time_elapsed":654863,"internal_node_id":"0.0-8.0-2.73","subject":"99zrw9eanzkj2gj","sona":"7549"},{"rt":785.1900001987815,"stimulus":"<p>Welche Sequenz haben Sie als natürlicher empfunden?</p>","key_press":74,"test_part":"response","test_stimulus":{"position":1,"left":"bvh/vr_prediction_models/model(dmp)-dataset(pass-bottle-hold)-npsi(40)-hold(1)/final-lines.txt","right":"bvh/pass-bottle-hold-training1-lines.txt","att_check":false},"trial_type":"html-keyboard-response","trial_index":302,"time_elapsed":655654,"internal_node_id":"0.0-8.0-3.73","subject":"99zrw9eanzkj2gj","sona":"7549"},{"rt":367.3900000285357,"stimulus":"<p>Bereit?</p>","key_press":32,"trial_type":"html-keyboard-response","trial_index":303,"time_elapsed":656030,"internal_node_id":"0.0-8.0-0.74","subject":"99zrw9eanzkj2gj","sona":"7549"},{"rt":null,"stimulus":"<div style=\"font-size:60px;\">+</div>","key_press":null,"trial_type":"html-keyboard-response","trial_index":304,"time_elapsed":658034,"internal_node_id":"0.0-8.0-1.74","subject":"99zrw9eanzkj2gj","sona":"7549"},{"trial_type":"turing-test","trial_index":305,"time_elapsed":661183,"internal_node_id":"0.0-8.0-2.74","subject":"99zrw9eanzkj2gj","sona":"7549"},{"rt":1263.0100001115352,"stimulus":"<p>Welche Sequenz haben Sie als natürlicher empfunden?</p>","key_press":70,"test_part":"response","test_stimulus":{"position":0,"left":"bvh/pass-bottle-hold-training1-lines.txt","right":"bvh/vr_prediction_models/model(vcgpdm)-dataset(pass-bottle-hold)-mode(ELBO)-parts(1)-dyn(20)-lvm(20)-hold(1)/final-lines.txt","att_check":false},"trial_type":"html-keyboard-response","trial_index":306,"time_elapsed":662453,"internal_node_id":"0.0-8.0-3.74","subject":"99zrw9eanzkj2gj","sona":"7549"},{"rt":361.77499988116324,"stimulus":"<p>Bereit?</p>","key_press":32,"trial_type":"html-keyboard-response","trial_index":307,"time_elapsed":662821,"internal_node_id":"0.0-8.0-0.75","subject":"99zrw9eanzkj2gj","sona":"7549"},{"rt":null,"stimulus":"<div style=\"font-size:60px;\">+</div>","key_press":null,"trial_type":"html-keyboard-response","trial_index":308,"time_elapsed":664825,"internal_node_id":"0.0-8.0-1.75","subject":"99zrw9eanzkj2gj","sona":"7549"},{"trial_type":"turing-test","trial_index":309,"time_elapsed":671416,"internal_node_id":"0.0-8.0-2.75","subject":"99zrw9eanzkj2gj","sona":"7549"},{"rt":764.1900000162423,"stimulus":"<p>Welche Sequenz haben Sie als natürlicher empfunden?</p>","key_press":74,"test_part":"response","test_stimulus":{"position":1,"left":"bvh/vr_prediction_models/model(dmp)-dataset(return-bottle)-npsi(10)-hold(2)/final-lines.txt","right":"bvh/return-bottle-training2-lines.txt","att_check":true},"trial_type":"html-keyboard-response","trial_index":310,"time_elapsed":672188,"internal_node_id":"0.0-8.0-3.75","subject":"99zrw9eanzkj2gj","sona":"7549"},{"rt":456.9500000216067,"stimulus":"<p>Bereit?</p>","key_press":32,"trial_type":"html-keyboard-response","trial_index":311,"time_elapsed":672654,"internal_node_id":"0.0-8.0-0.76","subject":"99zrw9eanzkj2gj","sona":"7549"},{"rt":null,"stimulus":"<div style=\"font-size:60px;\">+</div>","key_press":null,"trial_type":"html-keyboard-response","trial_index":312,"time_elapsed":674656,"internal_node_id":"0.0-8.0-1.76","subject":"99zrw9eanzkj2gj","sona":"7549"},{"trial_type":"turing-test","trial_index":313,"time_elapsed":678175,"internal_node_id":"0.0-8.0-2.76","subject":"99zrw9eanzkj2gj","sona":"7549"},{"rt":907.8499998431653,"stimulus":"<p>Welche Sequenz haben Sie als natürlicher empfunden?</p>","key_press":74,"test_part":"response","test_stimulus":{"position":0,"left":"bvh/pass-bottle-hold-training3-lines.txt","right":"bvh/vr_prediction_models/model(tmp)-dataset(pass-bottle-hold)-numprim(10)-hold(3)/final-lines.txt","att_check":false},"trial_type":"html-keyboard-response","trial_index":314,"time_elapsed":679091,"internal_node_id":"0.0-8.0-3.76","subject":"99zrw9eanzkj2gj","sona":"7549"},{"rt":335.21499997004867,"stimulus":"<p>Bereit?</p>","key_press":32,"trial_type":"html-keyboard-response","trial_index":315,"time_elapsed":679434,"internal_node_id":"0.0-8.0-0.77","subject":"99zrw9eanzkj2gj","sona":"7549"},{"rt":null,"stimulus":"<div style=\"font-size:60px;\">+</div>","key_press":null,"trial_type":"html-keyboard-response","trial_index":316,"time_elapsed":681437,"internal_node_id":"0.0-8.0-1.77","subject":"99zrw9eanzkj2gj","sona":"7549"},{"trial_type":"turing-test","trial_index":317,"time_elapsed":685015,"internal_node_id":"0.0-8.0-2.77","subject":"99zrw9eanzkj2gj","sona":"7549"},{"rt":1004.7749998047948,"stimulus":"<p>Welche Sequenz haben Sie als natürlicher empfunden?</p>","key_press":74,"test_part":"response","test_stimulus":{"position":1,"left":"bvh/vr_prediction_models/model(vcgpdm)-dataset(pass-bottle-hold)-mode(ELBO)-parts(3)-dyn(10)-lvm(10)-hold(1)/final-lines.txt","right":"bvh/pass-bottle-hold-training1-lines.txt","att_check":false},"trial_type":"html-keyboard-response","trial_index":318,"time_elapsed":686027,"internal_node_id":"0.0-8.0-3.77","subject":"99zrw9eanzkj2gj","sona":"7549"},{"rt":415.58499983511865,"stimulus":"<p>Bereit?</p>","key_press":32,"trial_type":"html-keyboard-response","trial_index":319,"time_elapsed":686449,"internal_node_id":"0.0-8.0-0.78","subject":"99zrw9eanzkj2gj","sona":"7549"},{"rt":null,"stimulus":"<div style=\"font-size:60px;\">+</div>","key_press":null,"trial_type":"html-keyboard-response","trial_index":320,"time_elapsed":688454,"internal_node_id":"0.0-8.0-1.78","subject":"99zrw9eanzkj2gj","sona":"7549"},{"trial_type":"turing-test","trial_index":321,"time_elapsed":693561,"internal_node_id":"0.0-8.0-2.78","subject":"99zrw9eanzkj2gj","sona":"7549"},{"rt":766.8400001712143,"stimulus":"<p>Welche Sequenz haben Sie als natürlicher empfunden?</p>","key_press":70,"test_part":"response","test_stimulus":{"position":1,"left":"bvh/vr_prediction_models/model(tmp)-dataset(return-bottle-hold)-numprim(6)-hold(0)/final-lines.txt","right":"bvh/return-bottle-hold-training0-lines.txt","att_check":false},"trial_type":"html-keyboard-response","trial_index":322,"time_elapsed":694336,"internal_node_id":"0.0-8.0-3.78","subject":"99zrw9eanzkj2gj","sona":"7549"},{"rt":367.86000011488795,"stimulus":"<p>Bereit?</p>","key_press":32,"trial_type":"html-keyboard-response","trial_index":323,"time_elapsed":694712,"internal_node_id":"0.0-8.0-0.79","subject":"99zrw9eanzkj2gj","sona":"7549"},{"rt":null,"stimulus":"<div style=\"font-size:60px;\">+</div>","key_press":null,"trial_type":"html-keyboard-response","trial_index":324,"time_elapsed":696714,"internal_node_id":"0.0-8.0-1.79","subject":"99zrw9eanzkj2gj","sona":"7549"},{"trial_type":"turing-test","trial_index":325,"time_elapsed":702705,"internal_node_id":"0.0-8.0-2.79","subject":"99zrw9eanzkj2gj","sona":"7549"},{"rt":1917.860000161454,"stimulus":"<p>Welche Sequenz haben Sie als natürlicher empfunden?</p>","key_press":70,"test_part":"response","test_stimulus":{"position":0,"left":"bvh/return-bottle-training1-lines.txt","right":"bvh/vr_prediction_models/model(vcgpdm)-dataset(return-bottle)-mode(ELBO)-parts(3)-dyn(20)-lvm(35)-hold(1)/final-lines.txt","att_check":false},"trial_type":"html-keyboard-response","trial_index":326,"time_elapsed":704633,"internal_node_id":"0.0-8.0-3.79","subject":"99zrw9eanzkj2gj","sona":"7549"},{"rt":6193.925000028685,"responses":"{\"age\":\" 20\",\"gender\":\"weiblich\"}","trial_type":"survey-text","trial_index":327,"time_elapsed":710846,"internal_node_id":"0.0-10.0-0.0","subject":"99zrw9eanzkj2gj","sona":"7549"},{"rt":40310.40500011295,"responses":"{\"area\":\"die arme, der hals\",\"Q1\":\"wenn die bewegung nicht flüssig war\",\"Q2\":\"wenn das strichmännchen \\\"weggeflogen\\\" ist\"}","trial_type":"survey-text","trial_index":328,"time_elapsed":751172,"internal_node_id":"0.0-10.0-1.0","subject":"99zrw9eanzkj2gj","sona":"7549"}]