[{"rt":1897.8550000028918,"stimulus":"<p>Welcome!<br> Please choose your language to start the experiment in the chosen language.</p><p>Willkommen!<br> Bitte wählen Sie eine Sprache, um das Experiment in der ausgewählten Sprache zu starten</p>","button_pressed":"1","trial_type":"html-button-response","trial_index":0,"time_elapsed":2018,"internal_node_id":"0.0-0.0","subject":"b9ooomrpym0jv7n","sona":"7567"},{"view_history":"[{\"page_index\":0,\"viewing_time\":1484.954999992624},{\"page_index\":1,\"viewing_time\":1109.760000006645},{\"page_index\":2,\"viewing_time\":957.0999999996275},{\"page_index\":3,\"viewing_time\":1670.125000004191},{\"page_index\":4,\"viewing_time\":1527.4999999965075}]","rt":6750.579999992624,"trial_type":"instructions","trial_index":1,"time_elapsed":8770,"internal_node_id":"0.0-1.0-0.0","subject":"b9ooomrpym0jv7n","sona":"7567"},{"rt":1149.1399999940768,"stimulus":"<p>Bereit?</p>","key_press":32,"trial_type":"html-keyboard-response","trial_index":2,"time_elapsed":9921,"internal_node_id":"0.0-3.0","subject":"b9ooomrpym0jv7n","sona":"7567"},{"rt":null,"stimulus":"<div style=\"font-size:60px;\">+</div>","key_press":null,"trial_type":"html-keyboard-response","trial_index":3,"time_elapsed":11938,"internal_node_id":"0.0-4.0","subject":"b9ooomrpym0jv7n","sona":"7567"},{"trial_type":"training","trial_index":4,"time_elapsed":15294,"internal_node_id":"0.0-5.0","subject":"b9ooomrpym0jv7n","sona":"7567"},{"rt":1165.9450000006473,"stimulus":"<p>Welche Sequenz haben Sie als natürlicher empfunden?</p>","key_press":74,"trial_type":"html-keyboard-response","trial_index":5,"time_elapsed":16461,"internal_node_id":"0.0-6.0","subject":"b9ooomrpym0jv7n","sona":"7567"},{"rt":2381.4149999961955,"stimulus":"<p>Das Experiment startet nun.</p><p><small>Bitte drücken Sie den Knopf, wenn Sie bereit sind.</small></p>","button_pressed":"0","trial_type":"html-button-response","trial_index":6,"time_elapsed":18843,"internal_node_id":"0.0-7.0","subject":"b9ooomrpym0jv7n","sona":"7567"},{"rt":1246.8800000060583,"stimulus":"<p>Bereit?</p>","key_press":32,"trial_type":"html-keyboard-response","trial_index":7,"time_elapsed":20091,"internal_node_id":"0.0-8.0-0.0","subject":"b9ooomrpym0jv7n","sona":"7567"},{"rt":null,"stimulus":"<div style=\"font-size:60px;\">+</div>","key_press":null,"trial_type":"html-keyboard-response","trial_index":8,"time_elapsed":22110,"internal_node_id":"0.0-8.0-1.0","subject":"b9ooomrpym0jv7n","sona":"7567"},{"trial_type":"turing-test","trial_index":9,"time_elapsed":25632,"internal_node_id":"0.0-8.0-2.0","subject":"b9ooomrpym0jv7n","sona":"7567"},{"rt":843.1049999926472,"stimulus":"<p>Welche Sequenz haben Sie als natürlicher empfunden?</p>","key_press":74,"test_part":"response","test_stimulus":{"position":1,"left":"bvh/vr_prediction_models/model(vcgpdm)-dataset(pass-bottle-hold)-mode(ELBO)-parts(3)-dyn(25)-lvm(15)-hold(2)/final-lines.txt","right":"bvh/pass-bottle-hold-training2-lines.txt","att_check":false},"trial_type":"html-keyboard-response","trial_index":10,"time_elapsed":26477,"internal_node_id":"0.0-8.0-3.0","subject":"b9ooomrpym0jv7n","sona":"7567"},{"rt":328.44999998633284,"stimulus":"<p>Bereit?</p>","key_press":32,"trial_type":"html-keyboard-response","trial_index":11,"time_elapsed":26807,"internal_node_id":"0.0-8.0-0.1","subject":"b9ooomrpym0jv7n","sona":"7567"},{"rt":null,"stimulus":"<div style=\"font-size:60px;\">+</div>","key_press":null,"trial_type":"html-keyboard-response","trial_index":12,"time_elapsed":28827,"internal_node_id":"0.0-8.0-1.1","subject":"b9ooomrpym0jv7n","sona":"7567"},{"trial_type":"turing-test","trial_index":13,"time_elapsed":32364,"internal_node_id":"0.0-8.0-2.1","subject":"b9ooomrpym0jv7n","sona":"7567"},{"rt":384.314999988419,"stimulus":"<p>Welche Sequenz haben Sie als natürlicher empfunden?</p>","key_press":70,"test_part":"response","test_stimulus":{"position":0,"left":"bvh/return-bottle-hold-training2-lines.txt","right":"bvh/vr_prediction_models/model(vcgpdm)-dataset(return-bottle-hold)-mode(ELBO)-parts(3)-dyn(25)-lvm(30)-hold(2)/final-lines.txt","att_check":false},"trial_type":"html-keyboard-response","trial_index":14,"time_elapsed":32751,"internal_node_id":"0.0-8.0-3.1","subject":"b9ooomrpym0jv7n","sona":"7567"},{"rt":318.06000000506174,"stimulus":"<p>Bereit?</p>","key_press":32,"trial_type":"html-keyboard-response","trial_index":15,"time_elapsed":33070,"internal_node_id":"0.0-8.0-0.2","subject":"b9ooomrpym0jv7n","sona":"7567"},{"rt":null,"stimulus":"<div style=\"font-size:60px;\">+</div>","key_press":null,"trial_type":"html-keyboard-response","trial_index":16,"time_elapsed":35091,"internal_node_id":"0.0-8.0-1.2","subject":"b9ooomrpym0jv7n","sona":"7567"},{"trial_type":"turing-test","trial_index":17,"time_elapsed":41640,"internal_node_id":"0.0-8.0-2.2","subject":"b9ooomrpym0jv7n","sona":"7567"},{"rt":777.4050000007264,"stimulus":"<p>Welche Sequenz haben Sie als natürlicher empfunden?</p>","key_press":70,"test_part":"response","test_stimulus":{"position":1,"left":"bvh/vr_prediction_models/model(tmp)-dataset(return-bottle)-numprim(13)-hold(2)/final-lines.txt","right":"bvh/return-bottle-training2-lines.txt","att_check":false},"trial_type":"html-keyboard-response","trial_index":18,"time_elapsed":42420,"internal_node_id":"0.0-8.0-3.2","subject":"b9ooomrpym0jv7n","sona":"7567"},{"rt":279.96499999426305,"stimulus":"<p>Bereit?</p>","key_press":32,"trial_type":"html-keyboard-response","trial_index":19,"time_elapsed":42702,"internal_node_id":"0.0-8.0-0.3","subject":"b9ooomrpym0jv7n","sona":"7567"},{"rt":null,"stimulus":"<div style=\"font-size:60px;\">+</div>","key_press":null,"trial_type":"html-keyboard-response","trial_index":20,"time_elapsed":44719,"internal_node_id":"0.0-8.0-1.3","subject":"b9ooomrpym0jv7n","sona":"7567"},{"trial_type":"turing-test","trial_index":21,"time_elapsed":48183,"internal_node_id":"0.0-8.0-2.3","subject":"b9ooomrpym0jv7n","sona":"7567"},{"rt":1604.3750000098953,"stimulus":"<p>Welche Sequenz haben Sie als natürlicher empfunden?</p>","key_press":70,"test_part":"response","test_stimulus":{"position":0,"left":"bvh/pass-bottle-hold-training2-lines.txt","right":"bvh/vr_prediction_models/model(vcgpdm)-dataset(pass-bottle-hold)-mode(ELBO)-parts(1)-dyn(10)-lvm(5)-hold(2)/final-lines.txt","att_check":false},"trial_type":"html-keyboard-response","trial_index":22,"time_elapsed":49788,"internal_node_id":"0.0-8.0-3.3","subject":"b9ooomrpym0jv7n","sona":"7567"},{"rt":321.9049999897834,"stimulus":"<p>Bereit?</p>","key_press":32,"trial_type":"html-keyboard-response","trial_index":23,"time_elapsed":50111,"internal_node_id":"0.0-8.0-0.4","subject":"b9ooomrpym0jv7n","sona":"7567"},{"rt":null,"stimulus":"<div style=\"font-size:60px;\">+</div>","key_press":null,"trial_type":"html-keyboard-response","trial_index":24,"time_elapsed":52123,"internal_node_id":"0.0-8.0-1.4","subject":"b9ooomrpym0jv7n","sona":"7567"},{"trial_type":"turing-test","trial_index":25,"time_elapsed":55535,"internal_node_id":"0.0-8.0-2.4","subject":"b9ooomrpym0jv7n","sona":"7567"},{"rt":989.0500000037719,"stimulus":"<p>Welche Sequenz haben Sie als natürlicher empfunden?</p>","key_press":70,"test_part":"response","test_stimulus":{"position":0,"left":"bvh/pass-bottle-hold-training2-lines.txt","right":"bvh/vr_prediction_models/model(vcgpdm)-dataset(pass-bottle-hold)-mode(ELBO)-parts(3)-dyn(25)-lvm(30)-hold(2)/final-lines.txt","att_check":false},"trial_type":"html-keyboard-response","trial_index":26,"time_elapsed":56526,"internal_node_id":"0.0-8.0-3.4","subject":"b9ooomrpym0jv7n","sona":"7567"},{"rt":282.38999999302905,"stimulus":"<p>Bereit?</p>","key_press":32,"trial_type":"html-keyboard-response","trial_index":27,"time_elapsed":56810,"internal_node_id":"0.0-8.0-0.5","subject":"b9ooomrpym0jv7n","sona":"7567"},{"rt":null,"stimulus":"<div style=\"font-size:60px;\">+</div>","key_press":null,"trial_type":"html-keyboard-response","trial_index":28,"time_elapsed":58839,"internal_node_id":"0.0-8.0-1.5","subject":"b9ooomrpym0jv7n","sona":"7567"},{"trial_type":"turing-test","trial_index":29,"time_elapsed":64250,"internal_node_id":"0.0-8.0-2.5","subject":"b9ooomrpym0jv7n","sona":"7567"},{"rt":540.7200000045123,"stimulus":"<p>Welche Sequenz haben Sie als natürlicher empfunden?</p>","key_press":74,"test_part":"response","test_stimulus":{"position":1,"left":"bvh/vr_prediction_models/model(dmp)-dataset(pass-bottle)-npsi(100)-hold(1)/final-lines.txt","right":"bvh/pass-bottle-training1-lines.txt","att_check":false},"trial_type":"html-keyboard-response","trial_index":30,"time_elapsed":64793,"internal_node_id":"0.0-8.0-3.5","subject":"b9ooomrpym0jv7n","sona":"7567"},{"rt":269.81500000692904,"stimulus":"<p>Bereit?</p>","key_press":32,"trial_type":"html-keyboard-response","trial_index":31,"time_elapsed":65065,"internal_node_id":"0.0-8.0-0.6","subject":"b9ooomrpym0jv7n","sona":"7567"},{"rt":null,"stimulus":"<div style=\"font-size:60px;\">+</div>","key_press":null,"trial_type":"html-keyboard-response","trial_index":32,"time_elapsed":67074,"internal_node_id":"0.0-8.0-1.6","subject":"b9ooomrpym0jv7n","sona":"7567"},{"trial_type":"turing-test","trial_index":33,"time_elapsed":73118,"internal_node_id":"0.0-8.0-2.6","subject":"b9ooomrpym0jv7n","sona":"7567"},{"rt":1216.6400000132853,"stimulus":"<p>Welche Sequenz haben Sie als natürlicher empfunden?</p>","key_press":74,"test_part":"response","test_stimulus":{"position":0,"left":"bvh/return-bottle-training1-lines.txt","right":"bvh/vr_prediction_models/model(tmp)-dataset(return-bottle)-numprim(15)-hold(1)/final-lines.txt","att_check":false},"trial_type":"html-keyboard-response","trial_index":34,"time_elapsed":74338,"internal_node_id":"0.0-8.0-3.6","subject":"b9ooomrpym0jv7n","sona":"7567"},{"rt":288.0650000006426,"stimulus":"<p>Bereit?</p>","key_press":32,"trial_type":"html-keyboard-response","trial_index":35,"time_elapsed":74627,"internal_node_id":"0.0-8.0-0.7","subject":"b9ooomrpym0jv7n","sona":"7567"},{"rt":null,"stimulus":"<div style=\"font-size:60px;\">+</div>","key_press":null,"trial_type":"html-keyboard-response","trial_index":36,"time_elapsed":76642,"internal_node_id":"0.0-8.0-1.7","subject":"b9ooomrpym0jv7n","sona":"7567"},{"trial_type":"turing-test","trial_index":37,"time_elapsed":82445,"internal_node_id":"0.0-8.0-2.7","subject":"b9ooomrpym0jv7n","sona":"7567"},{"rt":954.9450000049546,"stimulus":"<p>Welche Sequenz haben Sie als natürlicher empfunden?</p>","key_press":70,"test_part":"response","test_stimulus":{"position":0,"left":"bvh/pass-bottle-training3-lines.txt","right":"bvh/vr_prediction_models/model(dmp)-dataset(pass-bottle)-npsi(90)-hold(3)/final-lines.txt","att_check":false},"trial_type":"html-keyboard-response","trial_index":38,"time_elapsed":83403,"internal_node_id":"0.0-8.0-3.7","subject":"b9ooomrpym0jv7n","sona":"7567"},{"rt":326.94500000798143,"stimulus":"<p>Bereit?</p>","key_press":32,"trial_type":"html-keyboard-response","trial_index":39,"time_elapsed":83731,"internal_node_id":"0.0-8.0-0.8","subject":"b9ooomrpym0jv7n","sona":"7567"},{"rt":null,"stimulus":"<div style=\"font-size:60px;\">+</div>","key_press":null,"trial_type":"html-keyboard-response","trial_index":40,"time_elapsed":85752,"internal_node_id":"0.0-8.0-1.8","subject":"b9ooomrpym0jv7n","sona":"7567"},{"trial_type":"turing-test","trial_index":41,"time_elapsed":91735,"internal_node_id":"0.0-8.0-2.8","subject":"b9ooomrpym0jv7n","sona":"7567"},{"rt":456.78000000771135,"stimulus":"<p>Welche Sequenz haben Sie als natürlicher empfunden?</p>","key_press":70,"test_part":"response","test_stimulus":{"position":0,"left":"bvh/return-bottle-training1-lines.txt","right":"bvh/vr_prediction_models/model(vcgpdm)-dataset(return-bottle)-mode(MAP)-parts(3)-hold(1)/final-lines.txt","att_check":false},"trial_type":"html-keyboard-response","trial_index":42,"time_elapsed":92195,"internal_node_id":"0.0-8.0-3.8","subject":"b9ooomrpym0jv7n","sona":"7567"},{"rt":453.87500000651926,"stimulus":"<p>Bereit?</p>","key_press":32,"trial_type":"html-keyboard-response","trial_index":43,"time_elapsed":92650,"internal_node_id":"0.0-8.0-0.9","subject":"b9ooomrpym0jv7n","sona":"7567"},{"rt":null,"stimulus":"<div style=\"font-size:60px;\">+</div>","key_press":null,"trial_type":"html-keyboard-response","trial_index":44,"time_elapsed":94669,"internal_node_id":"0.0-8.0-1.9","subject":"b9ooomrpym0jv7n","sona":"7567"},{"trial_type":"turing-test","trial_index":45,"time_elapsed":100490,"internal_node_id":"0.0-8.0-2.9","subject":"b9ooomrpym0jv7n","sona":"7567"},{"rt":1086.18500000739,"stimulus":"<p>Welche Sequenz haben Sie als natürlicher empfunden?</p>","key_press":70,"test_part":"response","test_stimulus":{"position":1,"left":"bvh/vr_prediction_models/model(tmp)-dataset(return-bottle)-numprim(8)-hold(4)/final-lines.txt","right":"bvh/return-bottle-training4-lines.txt","att_check":false},"trial_type":"html-keyboard-response","trial_index":46,"time_elapsed":101579,"internal_node_id":"0.0-8.0-3.9","subject":"b9ooomrpym0jv7n","sona":"7567"},{"rt":407.2100000048522,"stimulus":"<p>Bereit?</p>","key_press":32,"trial_type":"html-keyboard-response","trial_index":47,"time_elapsed":101990,"internal_node_id":"0.0-8.0-0.10","subject":"b9ooomrpym0jv7n","sona":"7567"},{"rt":null,"stimulus":"<div style=\"font-size:60px;\">+</div>","key_press":null,"trial_type":"html-keyboard-response","trial_index":48,"time_elapsed":104013,"internal_node_id":"0.0-8.0-1.10","subject":"b9ooomrpym0jv7n","sona":"7567"},{"trial_type":"turing-test","trial_index":49,"time_elapsed":107265,"internal_node_id":"0.0-8.0-2.10","subject":"b9ooomrpym0jv7n","sona":"7567"},{"rt":1032.5200000079349,"stimulus":"<p>Welche Sequenz haben Sie als natürlicher empfunden?</p>","key_press":70,"test_part":"response","test_stimulus":{"position":1,"left":"bvh/vr_prediction_models/model(tmp)-dataset(pass-bottle-hold)-numprim(15)-hold(1)/final-lines.txt","right":"bvh/pass-bottle-hold-training1-lines.txt","att_check":false},"trial_type":"html-keyboard-response","trial_index":50,"time_elapsed":108301,"internal_node_id":"0.0-8.0-3.10","subject":"b9ooomrpym0jv7n","sona":"7567"},{"rt":336.009999999078,"stimulus":"<p>Bereit?</p>","key_press":32,"trial_type":"html-keyboard-response","trial_index":51,"time_elapsed":108641,"internal_node_id":"0.0-8.0-0.11","subject":"b9ooomrpym0jv7n","sona":"7567"},{"rt":null,"stimulus":"<div style=\"font-size:60px;\">+</div>","key_press":null,"trial_type":"html-keyboard-response","trial_index":52,"time_elapsed":110672,"internal_node_id":"0.0-8.0-1.11","subject":"b9ooomrpym0jv7n","sona":"7567"}]