[{"rt":4953.875000006519,"stimulus":"<p>Welcome!<br> Please choose your language to start the experiment in the chosen language.</p><p>Willkommen!<br> Bitte wählen Sie eine Sprache, um das Experiment in der ausgewählten Sprache zu starten</p>","button_pressed":"1","trial_type":"html-button-response","trial_index":0,"time_elapsed":4997,"internal_node_id":"0.0-0.0","subject":"kshcsg4946949be","sona":"7792"},{"view_history":"[{\"page_index\":0,\"viewing_time\":6961.155000026338},{\"page_index\":1,\"viewing_time\":4673.025000025518},{\"page_index\":2,\"viewing_time\":6741.099999984726},{\"page_index\":3,\"viewing_time\":4885.424999985844},{\"page_index\":4,\"viewing_time\":4966.405000013765}]","rt":28228.390000003856,"trial_type":"instructions","trial_index":1,"time_elapsed":33227,"internal_node_id":"0.0-1.0-0.0","subject":"kshcsg4946949be","sona":"7792"},{"rt":2380.5799999972805,"stimulus":"<p>Bereit?</p>","key_press":32,"trial_type":"html-keyboard-response","trial_index":2,"time_elapsed":35610,"internal_node_id":"0.0-3.0","subject":"kshcsg4946949be","sona":"7792"},{"rt":null,"stimulus":"<div style=\"font-size:60px;\">+</div>","key_press":null,"trial_type":"html-keyboard-response","trial_index":3,"time_elapsed":37615,"internal_node_id":"0.0-4.0","subject":"kshcsg4946949be","sona":"7792"},{"trial_type":"training","trial_index":4,"time_elapsed":41042,"internal_node_id":"0.0-5.0","subject":"kshcsg4946949be","sona":"7792"},{"rt":884.5149999833666,"stimulus":"<p>Welche Sequenz haben Sie als natürlicher empfunden?</p>","key_press":70,"trial_type":"html-keyboard-response","trial_index":5,"time_elapsed":41929,"internal_node_id":"0.0-6.0","subject":"kshcsg4946949be","sona":"7792"},{"rt":5207.129999995232,"stimulus":"<p>Das Experiment startet nun.</p><p><small>Bitte drücken Sie den Knopf, wenn Sie bereit sind.</small></p>","button_pressed":"0","trial_type":"html-button-response","trial_index":6,"time_elapsed":47139,"internal_node_id":"0.0-7.0","subject":"kshcsg4946949be","sona":"7792"},{"rt":1824.384999985341,"stimulus":"<p>Bereit?</p>","key_press":32,"trial_type":"html-keyboard-response","trial_index":7,"time_elapsed":48966,"internal_node_id":"0.0-8.0-0.0","subject":"kshcsg4946949be","sona":"7792"},{"rt":null,"stimulus":"<div style=\"font-size:60px;\">+</div>","key_press":null,"trial_type":"html-keyboard-response","trial_index":8,"time_elapsed":50973,"internal_node_id":"0.0-8.0-1.0","subject":"kshcsg4946949be","sona":"7792"},{"trial_type":"turing-test","trial_index":9,"time_elapsed":56797,"internal_node_id":"0.0-8.0-2.0","subject":"kshcsg4946949be","sona":"7792"},{"rt":1195.560000021942,"stimulus":"<p>Welche Sequenz haben Sie als natürlicher empfunden?</p>","key_press":74,"test_part":"response","test_stimulus":{"position":1,"left":"bvh/vr_prediction_models/model(dmp)-dataset(pass-bottle)-npsi(70)-hold(4)/final-lines.txt","right":"bvh/pass-bottle-training4-lines.txt","att_check":false},"trial_type":"html-keyboard-response","trial_index":10,"time_elapsed":58002,"internal_node_id":"0.0-8.0-3.0","subject":"kshcsg4946949be","sona":"7792"},{"rt":1338.4599999990314,"stimulus":"<p>Bereit?</p>","key_press":32,"trial_type":"html-keyboard-response","trial_index":11,"time_elapsed":59347,"internal_node_id":"0.0-8.0-0.1","subject":"kshcsg4946949be","sona":"7792"},{"rt":null,"stimulus":"<div style=\"font-size:60px;\">+</div>","key_press":null,"trial_type":"html-keyboard-response","trial_index":12,"time_elapsed":61351,"internal_node_id":"0.0-8.0-1.1","subject":"kshcsg4946949be","sona":"7792"},{"trial_type":"turing-test","trial_index":13,"time_elapsed":65014,"internal_node_id":"0.0-8.0-2.1","subject":"kshcsg4946949be","sona":"7792"},{"rt":1273.5100000281818,"stimulus":"<p>Welche Sequenz haben Sie als natürlicher empfunden?</p>","key_press":74,"test_part":"response","test_stimulus":{"position":1,"left":"bvh/vr_prediction_models/model(vcgpdm)-dataset(return-bottle-hold)-mode(ELBO)-parts(3)-dyn(10)-lvm(25)-hold(2)/final-lines.txt","right":"bvh/return-bottle-hold-training2-lines.txt","att_check":false},"trial_type":"html-keyboard-response","trial_index":14,"time_elapsed":66293,"internal_node_id":"0.0-8.0-3.1","subject":"kshcsg4946949be","sona":"7792"},{"rt":3484.070000005886,"stimulus":"<p>Bereit?</p>","key_press":32,"trial_type":"html-keyboard-response","trial_index":15,"time_elapsed":69782,"internal_node_id":"0.0-8.0-0.2","subject":"kshcsg4946949be","sona":"7792"},{"rt":null,"stimulus":"<div style=\"font-size:60px;\">+</div>","key_press":null,"trial_type":"html-keyboard-response","trial_index":16,"time_elapsed":71786,"internal_node_id":"0.0-8.0-1.2","subject":"kshcsg4946949be","sona":"7792"},{"trial_type":"turing-test","trial_index":17,"time_elapsed":78421,"internal_node_id":"0.0-8.0-2.2","subject":"kshcsg4946949be","sona":"7792"},{"rt":614.6650000009686,"stimulus":"<p>Welche Sequenz haben Sie als natürlicher empfunden?</p>","key_press":70,"test_part":"response","test_stimulus":{"position":0,"left":"bvh/return-bottle-training2-lines.txt","right":"bvh/vr_prediction_models/model(dmp)-dataset(return-bottle)-npsi(80)-hold(2)/final-lines.txt","att_check":false},"trial_type":"html-keyboard-response","trial_index":18,"time_elapsed":79044,"internal_node_id":"0.0-8.0-3.2","subject":"kshcsg4946949be","sona":"7792"},{"rt":2686.534999986179,"stimulus":"<p>Bereit?</p>","key_press":32,"trial_type":"html-keyboard-response","trial_index":19,"time_elapsed":81736,"internal_node_id":"0.0-8.0-0.3","subject":"kshcsg4946949be","sona":"7792"},{"rt":null,"stimulus":"<div style=\"font-size:60px;\">+</div>","key_press":null,"trial_type":"html-keyboard-response","trial_index":20,"time_elapsed":83740,"internal_node_id":"0.0-8.0-1.3","subject":"kshcsg4946949be","sona":"7792"},{"trial_type":"turing-test","trial_index":21,"time_elapsed":87315,"internal_node_id":"0.0-8.0-2.3","subject":"kshcsg4946949be","sona":"7792"},{"rt":1820.4599999589846,"stimulus":"<p>Welche Sequenz haben Sie als natürlicher empfunden?</p>","key_press":70,"test_part":"response","test_stimulus":{"position":0,"left":"bvh/pass-bottle-hold-training2-lines.txt","right":"bvh/vr_prediction_models/model(vcgpdm)-dataset(pass-bottle-hold)-mode(ELBO)-parts(1)-dyn(35)-lvm(30)-hold(2)/final-lines.txt","att_check":false},"trial_type":"html-keyboard-response","trial_index":22,"time_elapsed":89139,"internal_node_id":"0.0-8.0-3.3","subject":"kshcsg4946949be","sona":"7792"},{"rt":790.4499999713153,"stimulus":"<p>Bereit?</p>","key_press":32,"trial_type":"html-keyboard-response","trial_index":23,"time_elapsed":89936,"internal_node_id":"0.0-8.0-0.4","subject":"kshcsg4946949be","sona":"7792"},{"rt":null,"stimulus":"<div style=\"font-size:60px;\">+</div>","key_press":null,"trial_type":"html-keyboard-response","trial_index":24,"time_elapsed":91940,"internal_node_id":"0.0-8.0-1.4","subject":"kshcsg4946949be","sona":"7792"},{"trial_type":"turing-test","trial_index":25,"time_elapsed":95406,"internal_node_id":"0.0-8.0-2.4","subject":"kshcsg4946949be","sona":"7792"},{"rt":453.16500001354143,"stimulus":"<p>Welche Sequenz haben Sie als natürlicher empfunden?</p>","key_press":70,"test_part":"response","test_stimulus":{"position":0,"left":"bvh/pass-bottle-hold-training0-lines.txt","right":"bvh/vr_prediction_models/model(vcgpdm)-dataset(pass-bottle-hold)-mode(ELBO)-parts(1)-dyn(20)-lvm(20)-hold(0)/final-lines.txt","att_check":false},"trial_type":"html-keyboard-response","trial_index":26,"time_elapsed":95863,"internal_node_id":"0.0-8.0-3.4","subject":"kshcsg4946949be","sona":"7792"},{"rt":666.09499999322,"stimulus":"<p>Bereit?</p>","key_press":32,"trial_type":"html-keyboard-response","trial_index":27,"time_elapsed":96534,"internal_node_id":"0.0-8.0-0.5","subject":"kshcsg4946949be","sona":"7792"},{"rt":null,"stimulus":"<div style=\"font-size:60px;\">+</div>","key_press":null,"trial_type":"html-keyboard-response","trial_index":28,"time_elapsed":98536,"internal_node_id":"0.0-8.0-1.5","subject":"kshcsg4946949be","sona":"7792"},{"trial_type":"turing-test","trial_index":29,"time_elapsed":102019,"internal_node_id":"0.0-8.0-2.5","subject":"kshcsg4946949be","sona":"7792"},{"rt":1675.264999968931,"stimulus":"<p>Welche Sequenz haben Sie als natürlicher empfunden?</p>","key_press":70,"test_part":"response","test_stimulus":{"position":1,"left":"bvh/vr_prediction_models/model(tmp)-dataset(return-bottle-hold)-numprim(9)-hold(2)/final-lines.txt","right":"bvh/return-bottle-hold-training2-lines.txt","att_check":false},"trial_type":"html-keyboard-response","trial_index":30,"time_elapsed":103702,"internal_node_id":"0.0-8.0-3.5","subject":"kshcsg4946949be","sona":"7792"},{"rt":851.1600000201724,"stimulus":"<p>Bereit?</p>","key_press":32,"trial_type":"html-keyboard-response","trial_index":31,"time_elapsed":104558,"internal_node_id":"0.0-8.0-0.6","subject":"kshcsg4946949be","sona":"7792"},{"rt":null,"stimulus":"<div style=\"font-size:60px;\">+</div>","key_press":null,"trial_type":"html-keyboard-response","trial_index":32,"time_elapsed":106562,"internal_node_id":"0.0-8.0-1.6","subject":"kshcsg4946949be","sona":"7792"},{"trial_type":"turing-test","trial_index":33,"time_elapsed":112332,"internal_node_id":"0.0-8.0-2.6","subject":"kshcsg4946949be","sona":"7792"},{"rt":889.9949999758974,"stimulus":"<p>Welche Sequenz haben Sie als natürlicher empfunden?</p>","key_press":70,"test_part":"response","test_stimulus":{"position":0,"left":"bvh/return-bottle-training3-lines.txt","right":"bvh/vr_prediction_models/model(tmp)-dataset(return-bottle)-numprim(10)-hold(3)/final-lines.txt","att_check":false},"trial_type":"html-keyboard-response","trial_index":34,"time_elapsed":113231,"internal_node_id":"0.0-8.0-3.6","subject":"kshcsg4946949be","sona":"7792"},{"rt":923.5299999709241,"stimulus":"<p>Bereit?</p>","key_press":32,"trial_type":"html-keyboard-response","trial_index":35,"time_elapsed":114159,"internal_node_id":"0.0-8.0-0.7","subject":"kshcsg4946949be","sona":"7792"},{"rt":null,"stimulus":"<div style=\"font-size:60px;\">+</div>","key_press":null,"trial_type":"html-keyboard-response","trial_index":36,"time_elapsed":116163,"internal_node_id":"0.0-8.0-1.7","subject":"kshcsg4946949be","sona":"7792"},{"trial_type":"turing-test","trial_index":37,"time_elapsed":121453,"internal_node_id":"0.0-8.0-2.7","subject":"kshcsg4946949be","sona":"7792"},{"rt":338.18500000052154,"stimulus":"<p>Welche Sequenz haben Sie als natürlicher empfunden?</p>","key_press":70,"test_part":"response","test_stimulus":{"position":0,"left":"bvh/return-bottle-hold-training0-lines.txt","right":"bvh/vr_prediction_models/model(vcgpdm)-dataset(return-bottle-hold)-mode(ELBO)-parts(1)-dyn(10)-lvm(30)-hold(0)/final-lines.txt","att_check":false},"trial_type":"html-keyboard-response","trial_index":38,"time_elapsed":121799,"internal_node_id":"0.0-8.0-3.7","subject":"kshcsg4946949be","sona":"7792"},{"rt":473.13499997835606,"stimulus":"<p>Bereit?</p>","key_press":32,"trial_type":"html-keyboard-response","trial_index":39,"time_elapsed":122278,"internal_node_id":"0.0-8.0-0.8","subject":"kshcsg4946949be","sona":"7792"},{"rt":null,"stimulus":"<div style=\"font-size:60px;\">+</div>","key_press":null,"trial_type":"html-keyboard-response","trial_index":40,"time_elapsed":124281,"internal_node_id":"0.0-8.0-1.8","subject":"kshcsg4946949be","sona":"7792"},{"trial_type":"turing-test","trial_index":41,"time_elapsed":127781,"internal_node_id":"0.0-8.0-2.8","subject":"kshcsg4946949be","sona":"7792"},{"rt":527.3950000409968,"stimulus":"<p>Welche Sequenz haben Sie als natürlicher empfunden?</p>","key_press":74,"test_part":"response","test_stimulus":{"position":1,"left":"bvh/vr_prediction_models/model(vcgpdm)-dataset(pass-bottle-hold)-mode(ELBO)-parts(1)-dyn(10)-lvm(25)-hold(0)/final-lines.txt","right":"bvh/pass-bottle-hold-training0-lines.txt","att_check":false},"trial_type":"html-keyboard-response","trial_index":42,"time_elapsed":128315,"internal_node_id":"0.0-8.0-3.8","subject":"kshcsg4946949be","sona":"7792"},{"rt":444.2200000048615,"stimulus":"<p>Bereit?</p>","key_press":32,"trial_type":"html-keyboard-response","trial_index":43,"time_elapsed":128765,"internal_node_id":"0.0-8.0-0.9","subject":"kshcsg4946949be","sona":"7792"},{"rt":null,"stimulus":"<div style=\"font-size:60px;\">+</div>","key_press":null,"trial_type":"html-keyboard-response","trial_index":44,"time_elapsed":130769,"internal_node_id":"0.0-8.0-1.9","subject":"kshcsg4946949be","sona":"7792"},{"trial_type":"turing-test","trial_index":45,"time_elapsed":136503,"internal_node_id":"0.0-8.0-2.9","subject":"kshcsg4946949be","sona":"7792"},{"rt":864.4649999914691,"stimulus":"<p>Welche Sequenz haben Sie als natürlicher empfunden?</p>","key_press":70,"test_part":"response","test_stimulus":{"position":1,"left":"bvh/vr_prediction_models/model(tmp)-dataset(pass-bottle)-numprim(4)-hold(4)/final-lines.txt","right":"bvh/pass-bottle-training4-lines.txt","att_check":false},"trial_type":"html-keyboard-response","trial_index":46,"time_elapsed":137375,"internal_node_id":"0.0-8.0-3.9","subject":"kshcsg4946949be","sona":"7792"},{"rt":545.9499999997206,"stimulus":"<p>Bereit?</p>","key_press":32,"trial_type":"html-keyboard-response","trial_index":47,"time_elapsed":137926,"internal_node_id":"0.0-8.0-0.10","subject":"kshcsg4946949be","sona":"7792"},{"rt":null,"stimulus":"<div style=\"font-size:60px;\">+</div>","key_press":null,"trial_type":"html-keyboard-response","trial_index":48,"time_elapsed":139929,"internal_node_id":"0.0-8.0-1.10","subject":"kshcsg4946949be","sona":"7792"},{"trial_type":"turing-test","trial_index":49,"time_elapsed":143596,"internal_node_id":"0.0-8.0-2.10","subject":"kshcsg4946949be","sona":"7792"},{"rt":850.304999970831,"stimulus":"<p>Welche Sequenz haben Sie als natürlicher empfunden?</p>","key_press":74,"test_part":"response","test_stimulus":{"position":0,"left":"bvh/pass-bottle-hold-training4-lines.txt","right":"bvh/vr_prediction_models/model(dmp)-dataset(pass-bottle-hold)-npsi(100)-hold(4)/final-lines.txt","att_check":true},"trial_type":"html-keyboard-response","trial_index":50,"time_elapsed":144454,"internal_node_id":"0.0-8.0-3.10","subject":"kshcsg4946949be","sona":"7792"},{"rt":260.2900000056252,"stimulus":"<p>Bereit?</p>","key_press":32,"trial_type":"html-keyboard-response","trial_index":51,"time_elapsed":144720,"internal_node_id":"0.0-8.0-0.11","subject":"kshcsg4946949be","sona":"7792"},{"rt":null,"stimulus":"<div style=\"font-size:60px;\">+</div>","key_press":null,"trial_type":"html-keyboard-response","trial_index":52,"time_elapsed":146725,"internal_node_id":"0.0-8.0-1.11","subject":"kshcsg4946949be","sona":"7792"}]