[{"rt":2100.800000014715,"stimulus":"<p>Welcome!<br> Please choose your language to start the experiment in the chosen language.</p><p>Willkommen!<br> Bitte wählen Sie eine Sprache, um das Experiment in der ausgewählten Sprache zu starten</p>","button_pressed":"1","trial_type":"html-button-response","trial_index":0,"time_elapsed":2120,"internal_node_id":"0.0-0.0","subject":"1eaum742q3ot4w4","sona":"7285"},{"view_history":"[{\"page_index\":0,\"viewing_time\":29406.649999989895},{\"page_index\":1,\"viewing_time\":3488.4600000223145},{\"page_index\":2,\"viewing_time\":2478.6949999979697},{\"page_index\":3,\"viewing_time\":5903.0799999891315},{\"page_index\":4,\"viewing_time\":2364.590000011958}]","rt":43642.90499998606,"trial_type":"instructions","trial_index":1,"time_elapsed":45764,"internal_node_id":"0.0-1.0-0.0","subject":"1eaum742q3ot4w4","sona":"7285"},{"rt":1829.760000022361,"stimulus":"<p>Bereit?</p>","key_press":32,"trial_type":"html-keyboard-response","trial_index":2,"time_elapsed":47596,"internal_node_id":"0.0-3.0","subject":"1eaum742q3ot4w4","sona":"7285"},{"rt":null,"stimulus":"<div style=\"font-size:60px;\">+</div>","key_press":null,"trial_type":"html-keyboard-response","trial_index":3,"time_elapsed":49599,"internal_node_id":"0.0-4.0","subject":"1eaum742q3ot4w4","sona":"7285"},{"trial_type":"training","trial_index":4,"time_elapsed":52970,"internal_node_id":"0.0-5.0","subject":"1eaum742q3ot4w4","sona":"7285"},{"rt":5911.644999985583,"stimulus":"<p>Welche Sequenz haben Sie als natürlicher empfunden?</p>","key_press":70,"trial_type":"html-keyboard-response","trial_index":5,"time_elapsed":58883,"internal_node_id":"0.0-6.0","subject":"1eaum742q3ot4w4","sona":"7285"},{"rt":2923.2799999881536,"stimulus":"<p>Das Experiment startet nun.</p><p><small>Bitte drücken Sie den Knopf, wenn Sie bereit sind.</small></p>","button_pressed":"0","trial_type":"html-button-response","trial_index":6,"time_elapsed":61809,"internal_node_id":"0.0-7.0","subject":"1eaum742q3ot4w4","sona":"7285"},{"rt":1798.4099999885075,"stimulus":"<p>Bereit?</p>","key_press":32,"trial_type":"html-keyboard-response","trial_index":7,"time_elapsed":63609,"internal_node_id":"0.0-8.0-0.0","subject":"1eaum742q3ot4w4","sona":"7285"},{"rt":null,"stimulus":"<div style=\"font-size:60px;\">+</div>","key_press":null,"trial_type":"html-keyboard-response","trial_index":8,"time_elapsed":65611,"internal_node_id":"0.0-8.0-1.0","subject":"1eaum742q3ot4w4","sona":"7285"},{"trial_type":"turing-test","trial_index":9,"time_elapsed":71866,"internal_node_id":"0.0-8.0-2.0","subject":"1eaum742q3ot4w4","sona":"7285"},{"rt":1163.780000002589,"stimulus":"<p>Welche Sequenz haben Sie als natürlicher empfunden?</p>","key_press":70,"test_part":"response","test_stimulus":{"position":0,"left":"bvh/pass-bottle-training2-lines.txt","right":"bvh/vr_prediction_models/model(vcgpdm)-dataset(pass-bottle)-mode(ELBO)-parts(1)-dyn(30)-lvm(35)-hold(2)/final-lines.txt","att_check":false},"trial_type":"html-keyboard-response","trial_index":10,"time_elapsed":73033,"internal_node_id":"0.0-8.0-3.0","subject":"1eaum742q3ot4w4","sona":"7285"},{"rt":1413.3149999834131,"stimulus":"<p>Bereit?</p>","key_press":32,"trial_type":"html-keyboard-response","trial_index":11,"time_elapsed":74449,"internal_node_id":"0.0-8.0-0.1","subject":"1eaum742q3ot4w4","sona":"7285"},{"rt":null,"stimulus":"<div style=\"font-size:60px;\">+</div>","key_press":null,"trial_type":"html-keyboard-response","trial_index":12,"time_elapsed":76451,"internal_node_id":"0.0-8.0-1.1","subject":"1eaum742q3ot4w4","sona":"7285"},{"trial_type":"turing-test","trial_index":13,"time_elapsed":81700,"internal_node_id":"0.0-8.0-2.1","subject":"1eaum742q3ot4w4","sona":"7285"},{"rt":3398.9650000003166,"stimulus":"<p>Welche Sequenz haben Sie als natürlicher empfunden?</p>","key_press":74,"test_part":"response","test_stimulus":{"position":0,"left":"bvh/return-bottle-hold-training0-lines.txt","right":"bvh/vr_prediction_models/model(vcgpdm)-dataset(return-bottle-hold)-mode(ELBO)-parts(3)-dyn(10)-lvm(25)-hold(0)/final-lines.txt","att_check":false},"trial_type":"html-keyboard-response","trial_index":14,"time_elapsed":85102,"internal_node_id":"0.0-8.0-3.1","subject":"1eaum742q3ot4w4","sona":"7285"},{"rt":935.6950000219513,"stimulus":"<p>Bereit?</p>","key_press":32,"trial_type":"html-keyboard-response","trial_index":15,"time_elapsed":86040,"internal_node_id":"0.0-8.0-0.2","subject":"1eaum742q3ot4w4","sona":"7285"},{"rt":null,"stimulus":"<div style=\"font-size:60px;\">+</div>","key_press":null,"trial_type":"html-keyboard-response","trial_index":16,"time_elapsed":88043,"internal_node_id":"0.0-8.0-1.2","subject":"1eaum742q3ot4w4","sona":"7285"},{"trial_type":"turing-test","trial_index":17,"time_elapsed":91757,"internal_node_id":"0.0-8.0-2.2","subject":"1eaum742q3ot4w4","sona":"7285"},{"rt":5884.4950000057,"stimulus":"<p>Welche Sequenz haben Sie als natürlicher empfunden?</p>","key_press":74,"test_part":"response","test_stimulus":{"position":1,"left":"bvh/vr_prediction_models/model(vcgpdm)-dataset(pass-bottle-hold)-mode(ELBO)-parts(1)-dyn(20)-lvm(20)-hold(3)/final-lines.txt","right":"bvh/pass-bottle-hold-training3-lines.txt","att_check":false},"trial_type":"html-keyboard-response","trial_index":18,"time_elapsed":97644,"internal_node_id":"0.0-8.0-3.2","subject":"1eaum742q3ot4w4","sona":"7285"},{"rt":678.1600000103936,"stimulus":"<p>Bereit?</p>","key_press":32,"trial_type":"html-keyboard-response","trial_index":19,"time_elapsed":98323,"internal_node_id":"0.0-8.0-0.3","subject":"1eaum742q3ot4w4","sona":"7285"},{"rt":null,"stimulus":"<div style=\"font-size:60px;\">+</div>","key_press":null,"trial_type":"html-keyboard-response","trial_index":20,"time_elapsed":100325,"internal_node_id":"0.0-8.0-1.3","subject":"1eaum742q3ot4w4","sona":"7285"},{"trial_type":"turing-test","trial_index":21,"time_elapsed":105781,"internal_node_id":"0.0-8.0-2.3","subject":"1eaum742q3ot4w4","sona":"7285"},{"rt":1203.765000012936,"stimulus":"<p>Welche Sequenz haben Sie als natürlicher empfunden?</p>","key_press":74,"test_part":"response","test_stimulus":{"position":1,"left":"bvh/vr_prediction_models/model(tmp)-dataset(return-bottle)-numprim(4)-hold(0)/final-lines.txt","right":"bvh/return-bottle-training0-lines.txt","att_check":false},"trial_type":"html-keyboard-response","trial_index":22,"time_elapsed":106988,"internal_node_id":"0.0-8.0-3.3","subject":"1eaum742q3ot4w4","sona":"7285"},{"rt":895.3249999904074,"stimulus":"<p>Bereit?</p>","key_press":32,"trial_type":"html-keyboard-response","trial_index":23,"time_elapsed":107886,"internal_node_id":"0.0-8.0-0.4","subject":"1eaum742q3ot4w4","sona":"7285"},{"rt":null,"stimulus":"<div style=\"font-size:60px;\">+</div>","key_press":null,"trial_type":"html-keyboard-response","trial_index":24,"time_elapsed":109889,"internal_node_id":"0.0-8.0-1.4","subject":"1eaum742q3ot4w4","sona":"7285"},{"trial_type":"turing-test","trial_index":25,"time_elapsed":115844,"internal_node_id":"0.0-8.0-2.4","subject":"1eaum742q3ot4w4","sona":"7285"},{"rt":825.7600000069942,"stimulus":"<p>Welche Sequenz haben Sie als natürlicher empfunden?</p>","key_press":74,"test_part":"response","test_stimulus":{"position":1,"left":"bvh/vr_prediction_models/model(vcgpdm)-dataset(pass-bottle)-mode(ELBO)-parts(1)-dyn(10)-lvm(25)-hold(3)/final-lines.txt","right":"bvh/pass-bottle-training3-lines.txt","att_check":false},"trial_type":"html-keyboard-response","trial_index":26,"time_elapsed":116673,"internal_node_id":"0.0-8.0-3.4","subject":"1eaum742q3ot4w4","sona":"7285"},{"rt":681.1850000231061,"stimulus":"<p>Bereit?</p>","key_press":32,"trial_type":"html-keyboard-response","trial_index":27,"time_elapsed":117356,"internal_node_id":"0.0-8.0-0.5","subject":"1eaum742q3ot4w4","sona":"7285"},{"rt":null,"stimulus":"<div style=\"font-size:60px;\">+</div>","key_press":null,"trial_type":"html-keyboard-response","trial_index":28,"time_elapsed":119358,"internal_node_id":"0.0-8.0-1.5","subject":"1eaum742q3ot4w4","sona":"7285"},{"trial_type":"turing-test","trial_index":29,"time_elapsed":123006,"internal_node_id":"0.0-8.0-2.5","subject":"1eaum742q3ot4w4","sona":"7285"},{"rt":1017.6450000144541,"stimulus":"<p>Welche Sequenz haben Sie als natürlicher empfunden?</p>","key_press":70,"test_part":"response","test_stimulus":{"position":0,"left":"bvh/pass-bottle-hold-training3-lines.txt","right":"bvh/vr_prediction_models/model(vcgpdm)-dataset(pass-bottle-hold)-mode(ELBO)-parts(1)-dyn(25)-lvm(35)-hold(3)/final-lines.txt","att_check":false},"trial_type":"html-keyboard-response","trial_index":30,"time_elapsed":124027,"internal_node_id":"0.0-8.0-3.5","subject":"1eaum742q3ot4w4","sona":"7285"},{"rt":855.3649999957997,"stimulus":"<p>Bereit?</p>","key_press":32,"trial_type":"html-keyboard-response","trial_index":31,"time_elapsed":124883,"internal_node_id":"0.0-8.0-0.6","subject":"1eaum742q3ot4w4","sona":"7285"},{"rt":null,"stimulus":"<div style=\"font-size:60px;\">+</div>","key_press":null,"trial_type":"html-keyboard-response","trial_index":32,"time_elapsed":126886,"internal_node_id":"0.0-8.0-1.6","subject":"1eaum742q3ot4w4","sona":"7285"},{"trial_type":"turing-test","trial_index":33,"time_elapsed":130713,"internal_node_id":"0.0-8.0-2.6","subject":"1eaum742q3ot4w4","sona":"7285"},{"rt":2226.8650000041816,"stimulus":"<p>Welche Sequenz haben Sie als natürlicher empfunden?</p>","key_press":70,"test_part":"response","test_stimulus":{"position":1,"left":"bvh/vr_prediction_models/model(vcgpdm)-dataset(return-bottle-hold)-mode(ELBO)-parts(3)-dyn(10)-lvm(30)-hold(4)/final-lines.txt","right":"bvh/return-bottle-hold-training4-lines.txt","att_check":false},"trial_type":"html-keyboard-response","trial_index":34,"time_elapsed":132943,"internal_node_id":"0.0-8.0-3.6","subject":"1eaum742q3ot4w4","sona":"7285"},{"rt":683.9299999992363,"stimulus":"<p>Bereit?</p>","key_press":32,"trial_type":"html-keyboard-response","trial_index":35,"time_elapsed":133629,"internal_node_id":"0.0-8.0-0.7","subject":"1eaum742q3ot4w4","sona":"7285"},{"rt":null,"stimulus":"<div style=\"font-size:60px;\">+</div>","key_press":null,"trial_type":"html-keyboard-response","trial_index":36,"time_elapsed":135632,"internal_node_id":"0.0-8.0-1.7","subject":"1eaum742q3ot4w4","sona":"7285"},{"trial_type":"turing-test","trial_index":37,"time_elapsed":140756,"internal_node_id":"0.0-8.0-2.7","subject":"1eaum742q3ot4w4","sona":"7285"},{"rt":537.8949999867473,"stimulus":"<p>Welche Sequenz haben Sie als natürlicher empfunden?</p>","key_press":74,"test_part":"response","test_stimulus":{"position":1,"left":"bvh/vr_prediction_models/model(vcgpdm)-dataset(return-bottle-hold)-mode(MAP)-parts(1)-hold(0)/final-lines.txt","right":"bvh/return-bottle-hold-training0-lines.txt","att_check":false},"trial_type":"html-keyboard-response","trial_index":38,"time_elapsed":141296,"internal_node_id":"0.0-8.0-3.7","subject":"1eaum742q3ot4w4","sona":"7285"},{"rt":348.7899999890942,"stimulus":"<p>Bereit?</p>","key_press":32,"trial_type":"html-keyboard-response","trial_index":39,"time_elapsed":141647,"internal_node_id":"0.0-8.0-0.8","subject":"1eaum742q3ot4w4","sona":"7285"},{"rt":null,"stimulus":"<div style=\"font-size:60px;\">+</div>","key_press":null,"trial_type":"html-keyboard-response","trial_index":40,"time_elapsed":143650,"internal_node_id":"0.0-8.0-1.8","subject":"1eaum742q3ot4w4","sona":"7285"},{"trial_type":"turing-test","trial_index":41,"time_elapsed":149451,"internal_node_id":"0.0-8.0-2.8","subject":"1eaum742q3ot4w4","sona":"7285"},{"rt":724.0600000077393,"stimulus":"<p>Welche Sequenz haben Sie als natürlicher empfunden?</p>","key_press":74,"test_part":"response","test_stimulus":{"position":0,"left":"bvh/pass-bottle-training3-lines.txt","right":"bvh/vr_prediction_models/model(dmp)-dataset(pass-bottle)-npsi(80)-hold(3)/final-lines.txt","att_check":false},"trial_type":"html-keyboard-response","trial_index":42,"time_elapsed":150179,"internal_node_id":"0.0-8.0-3.8","subject":"1eaum742q3ot4w4","sona":"7285"},{"rt":281.69999999227,"stimulus":"<p>Bereit?</p>","key_press":32,"trial_type":"html-keyboard-response","trial_index":43,"time_elapsed":150463,"internal_node_id":"0.0-8.0-0.9","subject":"1eaum742q3ot4w4","sona":"7285"},{"rt":null,"stimulus":"<div style=\"font-size:60px;\">+</div>","key_press":null,"trial_type":"html-keyboard-response","trial_index":44,"time_elapsed":152465,"internal_node_id":"0.0-8.0-1.9","subject":"1eaum742q3ot4w4","sona":"7285"},{"trial_type":"turing-test","trial_index":45,"time_elapsed":158363,"internal_node_id":"0.0-8.0-2.9","subject":"1eaum742q3ot4w4","sona":"7285"},{"rt":696.1650000012014,"stimulus":"<p>Welche Sequenz haben Sie als natürlicher empfunden?</p>","key_press":70,"test_part":"response","test_stimulus":{"position":1,"left":"bvh/vr_prediction_models/model(vcgpdm)-dataset(pass-bottle)-mode(ELBO)-parts(1)-dyn(25)-lvm(35)-hold(4)/final-lines.txt","right":"bvh/pass-bottle-training4-lines.txt","att_check":false},"trial_type":"html-keyboard-response","trial_index":46,"time_elapsed":159062,"internal_node_id":"0.0-8.0-3.9","subject":"1eaum742q3ot4w4","sona":"7285"},{"rt":276.81999999913387,"stimulus":"<p>Bereit?</p>","key_press":32,"trial_type":"html-keyboard-response","trial_index":47,"time_elapsed":159341,"internal_node_id":"0.0-8.0-0.10","subject":"1eaum742q3ot4w4","sona":"7285"},{"rt":null,"stimulus":"<div style=\"font-size:60px;\">+</div>","key_press":null,"trial_type":"html-keyboard-response","trial_index":48,"time_elapsed":161345,"internal_node_id":"0.0-8.0-1.10","subject":"1eaum742q3ot4w4","sona":"7285"},{"trial_type":"turing-test","trial_index":49,"time_elapsed":167564,"internal_node_id":"0.0-8.0-2.10","subject":"1eaum742q3ot4w4","sona":"7285"},{"rt":1397.0599999884143,"stimulus":"<p>Welche Sequenz haben Sie als natürlicher empfunden?</p>","key_press":70,"test_part":"response","test_stimulus":{"position":0,"left":"bvh/pass-bottle-training2-lines.txt","right":"bvh/vr_prediction_models/model(vcgpdm)-dataset(pass-bottle)-mode(ELBO)-parts(1)-dyn(10)-lvm(25)-hold(2)/final-lines.txt","att_check":false},"trial_type":"html-keyboard-response","trial_index":50,"time_elapsed":168963,"internal_node_id":"0.0-8.0-3.10","subject":"1eaum742q3ot4w4","sona":"7285"}]