[{"rt":1692,"stimulus":"<p>Welcome!<br> Please choose your language to start the experiment in the chosen language.</p><p>Willkommen!<br> Bitte wählen Sie eine Sprache um das Experiment in der ausgewählten Sprache zu starten</p>","button_pressed":"1","trial_type":"html-button-response","trial_index":0,"time_elapsed":1696,"internal_node_id":"0.0-0.0","subject":"xtqnclpdvtupol3"},{"view_history":"[{\"page_index\":0,\"viewing_time\":651},{\"page_index\":1,\"viewing_time\":272},{\"page_index\":2,\"viewing_time\":548},{\"page_index\":3,\"viewing_time\":448.0000000000009}]","rt":1920,"trial_type":"instructions","trial_index":1,"time_elapsed":3619,"internal_node_id":"0.0-1.0-0.0","subject":"xtqnclpdvtupol3"},{"rt":623,"stimulus":"<p>Bereit?</p>","button_pressed":"0","trial_type":"html-button-response","trial_index":2,"time_elapsed":4244,"internal_node_id":"0.0-3.0","subject":"xtqnclpdvtupol3"},{"rt":null,"stimulus":"<div style=\"font-size:60px;\">+</div>","key_press":null,"trial_type":"html-keyboard-response","trial_index":3,"time_elapsed":6248,"internal_node_id":"0.0-4.0","subject":"xtqnclpdvtupol3"},{"trial_type":"training","trial_index":4,"time_elapsed":9446,"internal_node_id":"0.0-5.0","subject":"xtqnclpdvtupol3"},{"rt":816.9999999999982,"stimulus":"<p>Welche Sequenz haben Sie als natürlicher empfunden?</p>","button_pressed":"0","trial_type":"html-button-response","trial_index":5,"time_elapsed":10264,"internal_node_id":"0.0-6.0","subject":"xtqnclpdvtupol3"},{"rt":535,"stimulus":"<p>Das Experiment startet nun.</p><p> Bitte drücken Sie den Knopf, wenn Sie bereit sind.</p>","button_pressed":"0","trial_type":"html-button-response","trial_index":6,"time_elapsed":10800,"internal_node_id":"0.0-7.0","subject":"xtqnclpdvtupol3"},{"rt":558,"stimulus":"<p>Bereit?</p>","button_pressed":"0","trial_type":"html-button-response","trial_index":7,"time_elapsed":11360,"internal_node_id":"0.0-8.0-0.0","subject":"xtqnclpdvtupol3"},{"rt":null,"stimulus":"<div style=\"font-size:60px;\">+</div>","key_press":null,"trial_type":"html-keyboard-response","trial_index":8,"time_elapsed":13363,"internal_node_id":"0.0-8.0-1.0","subject":"xtqnclpdvtupol3"},{"trial_type":"turing-test","trial_index":9,"time_elapsed":19878,"internal_node_id":"0.0-8.0-2.0","subject":"xtqnclpdvtupol3"},{"rt":715.9999999999964,"stimulus":"<p>Welche Sequenz haben Sie als natürlicher empfunden?</p>","button_pressed":"0","test_part":"response","test_stimulus":{"position":0,"left":"bvh/return-bottle-training2-lines.txt","right":"bvh/vr_prediction_models/model(dmp)-dataset(return-bottle)-npsi(50)-hold(2)/final-lines.txt","att_check":true},"trial_type":"html-button-response","trial_index":10,"time_elapsed":20597,"internal_node_id":"0.0-8.0-3.0","subject":"xtqnclpdvtupol3"},{"rt":1584,"stimulus":"<p>Bereit?</p>","button_pressed":"0","trial_type":"html-button-response","trial_index":11,"time_elapsed":22185,"internal_node_id":"0.0-8.0-0.1","subject":"xtqnclpdvtupol3"},{"rt":null,"stimulus":"<div style=\"font-size:60px;\">+</div>","key_press":null,"trial_type":"html-keyboard-response","trial_index":12,"time_elapsed":24187,"internal_node_id":"0.0-8.0-1.1","subject":"xtqnclpdvtupol3"},{"trial_type":"turing-test","trial_index":13,"time_elapsed":27431,"internal_node_id":"0.0-8.0-2.1","subject":"xtqnclpdvtupol3"},{"rt":2059.0000000000036,"stimulus":"<p>Welche Sequenz haben Sie als natürlicher empfunden?</p>","button_pressed":"0","test_part":"response","test_stimulus":{"position":0,"left":"bvh/pass-bottle-hold-training1-lines.txt","right":"bvh/vr_prediction_models/model(vcgpdm)-dataset(pass-bottle-hold)-mode(ELBO)-parts(3)-dyn(20)-lvm(35)-hold(1)/final-lines.txt","att_check":false},"trial_type":"html-button-response","trial_index":14,"time_elapsed":29494,"internal_node_id":"0.0-8.0-3.1","subject":"xtqnclpdvtupol3"},{"rt":387,"stimulus":"<p>Bereit?</p>","button_pressed":"0","trial_type":"html-button-response","trial_index":15,"time_elapsed":29885,"internal_node_id":"0.0-8.0-0.2","subject":"xtqnclpdvtupol3"},{"rt":null,"stimulus":"<div style=\"font-size:60px;\">+</div>","key_press":null,"trial_type":"html-keyboard-response","trial_index":16,"time_elapsed":31889,"internal_node_id":"0.0-8.0-1.2","subject":"xtqnclpdvtupol3"},{"trial_type":"turing-test","trial_index":17,"time_elapsed":37641,"internal_node_id":"0.0-8.0-2.2","subject":"xtqnclpdvtupol3"},{"rt":647,"stimulus":"<p>Welche Sequenz haben Sie als natürlicher empfunden?</p>","button_pressed":"1","test_part":"response","test_stimulus":{"position":1,"left":"bvh/vr_prediction_models/model(dmp)-dataset(pass-bottle)-npsi(40)-hold(3)/final-lines.txt","right":"bvh/pass-bottle-training3-lines.txt","att_check":false},"trial_type":"html-button-response","trial_index":18,"time_elapsed":38292,"internal_node_id":"0.0-8.0-3.2","subject":"xtqnclpdvtupol3"},{"rt":599,"stimulus":"<p>Bereit?</p>","button_pressed":"0","trial_type":"html-button-response","trial_index":19,"time_elapsed":38893,"internal_node_id":"0.0-8.0-0.3","subject":"xtqnclpdvtupol3"},{"rt":null,"stimulus":"<div style=\"font-size:60px;\">+</div>","key_press":null,"trial_type":"html-keyboard-response","trial_index":20,"time_elapsed":40896,"internal_node_id":"0.0-8.0-1.3","subject":"xtqnclpdvtupol3"},{"trial_type":"turing-test","trial_index":21,"time_elapsed":47593,"internal_node_id":"0.0-8.0-2.3","subject":"xtqnclpdvtupol3"},{"rt":694,"stimulus":"<p>Welche Sequenz haben Sie als natürlicher empfunden?</p>","button_pressed":"1","test_part":"response","test_stimulus":{"position":1,"left":"bvh/vr_prediction_models/model(vcgpdm)-dataset(return-bottle)-mode(ELBO)-parts(3)-dyn(20)-lvm(35)-hold(2)/final-lines.txt","right":"bvh/return-bottle-training2-lines.txt","att_check":false},"trial_type":"html-button-response","trial_index":22,"time_elapsed":48291,"internal_node_id":"0.0-8.0-3.3","subject":"xtqnclpdvtupol3"},{"rt":525,"stimulus":"<p>Bereit?</p>","button_pressed":"0","trial_type":"html-button-response","trial_index":23,"time_elapsed":48819,"internal_node_id":"0.0-8.0-0.4","subject":"xtqnclpdvtupol3"},{"rt":null,"stimulus":"<div style=\"font-size:60px;\">+</div>","key_press":null,"trial_type":"html-keyboard-response","trial_index":24,"time_elapsed":50822,"internal_node_id":"0.0-8.0-1.4","subject":"xtqnclpdvtupol3"},{"trial_type":"turing-test","trial_index":25,"time_elapsed":57486,"internal_node_id":"0.0-8.0-2.4","subject":"xtqnclpdvtupol3"},{"rt":705,"stimulus":"<p>Welche Sequenz haben Sie als natürlicher empfunden?</p>","button_pressed":"1","test_part":"response","test_stimulus":{"position":1,"left":"bvh/vr_prediction_models/model(dmp)-dataset(pass-bottle)-npsi(80)-hold(0)/final-lines.txt","right":"bvh/pass-bottle-training0-lines.txt","att_check":false},"trial_type":"html-button-response","trial_index":26,"time_elapsed":58194,"internal_node_id":"0.0-8.0-3.4","subject":"xtqnclpdvtupol3"},{"rt":644,"stimulus":"<p>Bereit?</p>","button_pressed":"0","trial_type":"html-button-response","trial_index":27,"time_elapsed":58841,"internal_node_id":"0.0-8.0-0.5","subject":"xtqnclpdvtupol3"},{"rt":null,"stimulus":"<div style=\"font-size:60px;\">+</div>","key_press":null,"trial_type":"html-keyboard-response","trial_index":28,"time_elapsed":60844,"internal_node_id":"0.0-8.0-1.5","subject":"xtqnclpdvtupol3"},{"trial_type":"turing-test","trial_index":29,"time_elapsed":66679,"internal_node_id":"0.0-8.0-2.5","subject":"xtqnclpdvtupol3"},{"rt":640,"stimulus":"<p>Welche Sequenz haben Sie als natürlicher empfunden?</p>","button_pressed":"1","test_part":"response","test_stimulus":{"position":1,"left":"bvh/vr_prediction_models/model(vcgpdm)-dataset(pass-bottle)-mode(ELBO)-parts(1)-dyn(35)-lvm(30)-hold(3)/final-lines.txt","right":"bvh/pass-bottle-training3-lines.txt","att_check":false},"trial_type":"html-button-response","trial_index":30,"time_elapsed":67322,"internal_node_id":"0.0-8.0-3.5","subject":"xtqnclpdvtupol3"},{"rt":501,"stimulus":"<p>Bereit?</p>","button_pressed":"0","trial_type":"html-button-response","trial_index":31,"time_elapsed":67827,"internal_node_id":"0.0-8.0-0.6","subject":"xtqnclpdvtupol3"},{"rt":null,"stimulus":"<div style=\"font-size:60px;\">+</div>","key_press":null,"trial_type":"html-keyboard-response","trial_index":32,"time_elapsed":69830,"internal_node_id":"0.0-8.0-1.6","subject":"xtqnclpdvtupol3"},{"trial_type":"turing-test","trial_index":33,"time_elapsed":73516,"internal_node_id":"0.0-8.0-2.6","subject":"xtqnclpdvtupol3"},{"rt":525.0000000000146,"stimulus":"<p>Welche Sequenz haben Sie als natürlicher empfunden?</p>","button_pressed":"0","test_part":"response","test_stimulus":{"position":0,"left":"bvh/return-bottle-hold-training3-lines.txt","right":"bvh/vr_prediction_models/model(vcgpdm)-dataset(return-bottle-hold)-mode(ELBO)-parts(1)-dyn(20)-lvm(20)-hold(3)/final-lines.txt","att_check":false},"trial_type":"html-button-response","trial_index":34,"time_elapsed":74045,"internal_node_id":"0.0-8.0-3.6","subject":"xtqnclpdvtupol3"},{"rt":439,"stimulus":"<p>Bereit?</p>","button_pressed":"0","trial_type":"html-button-response","trial_index":35,"time_elapsed":74488,"internal_node_id":"0.0-8.0-0.7","subject":"xtqnclpdvtupol3"},{"rt":null,"stimulus":"<div style=\"font-size:60px;\">+</div>","key_press":null,"trial_type":"html-keyboard-response","trial_index":36,"time_elapsed":76492,"internal_node_id":"0.0-8.0-1.7","subject":"xtqnclpdvtupol3"},{"trial_type":"turing-test","trial_index":37,"time_elapsed":80218,"internal_node_id":"0.0-8.0-2.7","subject":"xtqnclpdvtupol3"},{"rt":680,"stimulus":"<p>Welche Sequenz haben Sie als natürlicher empfunden?</p>","button_pressed":"1","test_part":"response","test_stimulus":{"position":1,"left":"bvh/vr_prediction_models/model(vcgpdm)-dataset(return-bottle-hold)-mode(ELBO)-parts(3)-dyn(20)-lvm(20)-hold(4)/final-lines.txt","right":"bvh/return-bottle-hold-training4-lines.txt","att_check":false},"trial_type":"html-button-response","trial_index":38,"time_elapsed":80902,"internal_node_id":"0.0-8.0-3.7","subject":"xtqnclpdvtupol3"},{"rt":516.9999999999854,"stimulus":"<p>Bereit?</p>","button_pressed":"0","trial_type":"html-button-response","trial_index":39,"time_elapsed":81422,"internal_node_id":"0.0-8.0-0.8","subject":"xtqnclpdvtupol3"},{"rt":null,"stimulus":"<div style=\"font-size:60px;\">+</div>","key_press":null,"trial_type":"html-keyboard-response","trial_index":40,"time_elapsed":83425,"internal_node_id":"0.0-8.0-1.8","subject":"xtqnclpdvtupol3"},{"trial_type":"turing-test","trial_index":41,"time_elapsed":90161,"internal_node_id":"0.0-8.0-2.8","subject":"xtqnclpdvtupol3"},{"rt":608,"stimulus":"<p>Welche Sequenz haben Sie als natürlicher empfunden?</p>","button_pressed":"0","test_part":"response","test_stimulus":{"position":1,"left":"bvh/vr_prediction_models/model(vcgpdm)-dataset(pass-bottle)-mode(ELBO)-parts(1)-dyn(20)-lvm(5)-hold(0)/final-lines.txt","right":"bvh/pass-bottle-training0-lines.txt","att_check":false},"trial_type":"html-button-response","trial_index":42,"time_elapsed":90773,"internal_node_id":"0.0-8.0-3.8","subject":"xtqnclpdvtupol3"},{"rt":598,"stimulus":"<p>Bereit?</p>","button_pressed":"0","trial_type":"html-button-response","trial_index":43,"time_elapsed":91373,"internal_node_id":"0.0-8.0-0.9","subject":"xtqnclpdvtupol3"},{"rt":null,"stimulus":"<div style=\"font-size:60px;\">+</div>","key_press":null,"trial_type":"html-keyboard-response","trial_index":44,"time_elapsed":93378,"internal_node_id":"0.0-8.0-1.9","subject":"xtqnclpdvtupol3"},{"trial_type":"turing-test","trial_index":45,"time_elapsed":99199,"internal_node_id":"0.0-8.0-2.9","subject":"xtqnclpdvtupol3"},{"rt":723.0000000000146,"stimulus":"<p>Welche Sequenz haben Sie als natürlicher empfunden?</p>","button_pressed":"1","test_part":"response","test_stimulus":{"position":1,"left":"bvh/vr_prediction_models/model(vcgpdm)-dataset(return-bottle)-mode(ELBO)-parts(3)-dyn(25)-lvm(25)-hold(4)/final-lines.txt","right":"bvh/return-bottle-training4-lines.txt","att_check":false},"trial_type":"html-button-response","trial_index":46,"time_elapsed":99926,"internal_node_id":"0.0-8.0-3.9","subject":"xtqnclpdvtupol3"},{"rt":3416.9999999999854,"stimulus":"<p>Bereit?</p>","button_pressed":"0","trial_type":"html-button-response","trial_index":47,"time_elapsed":103346,"internal_node_id":"0.0-8.0-0.10","subject":"xtqnclpdvtupol3"},{"rt":null,"stimulus":"<div style=\"font-size:60px;\">+</div>","key_press":null,"trial_type":"html-keyboard-response","trial_index":48,"time_elapsed":105352,"internal_node_id":"0.0-8.0-1.10","subject":"xtqnclpdvtupol3"},{"trial_type":"turing-test","trial_index":49,"time_elapsed":110631,"internal_node_id":"0.0-8.0-2.10","subject":"xtqnclpdvtupol3"},{"rt":2551.0000000000146,"stimulus":"<p>Welche Sequenz haben Sie als natürlicher empfunden?</p>","button_pressed":"1","test_part":"response","test_stimulus":{"position":1,"left":"bvh/vr_prediction_models/model(tmp)-dataset(pass-bottle)-numprim(12)-hold(1)/final-lines.txt","right":"bvh/pass-bottle-training1-lines.txt","att_check":false},"trial_type":"html-button-response","trial_index":50,"time_elapsed":113186,"internal_node_id":"0.0-8.0-3.10","subject":"xtqnclpdvtupol3"},{"rt":523.9999999999854,"stimulus":"<p>Bereit?</p>","button_pressed":"0","trial_type":"html-button-response","trial_index":51,"time_elapsed":113713,"internal_node_id":"0.0-8.0-0.11","subject":"xtqnclpdvtupol3"},{"rt":null,"stimulus":"<div style=\"font-size:60px;\">+</div>","key_press":null,"trial_type":"html-keyboard-response","trial_index":52,"time_elapsed":115716,"internal_node_id":"0.0-8.0-1.11","subject":"xtqnclpdvtupol3"},{"trial_type":"turing-test","trial_index":53,"time_elapsed":121574,"internal_node_id":"0.0-8.0-2.11","subject":"xtqnclpdvtupol3"},{"rt":1028,"stimulus":"<p>Welche Sequenz haben Sie als natürlicher empfunden?</p>","button_pressed":"0","test_part":"response","test_stimulus":{"position":0,"left":"bvh/pass-bottle-training4-lines.txt","right":"bvh/vr_prediction_models/model(vcgpdm)-dataset(pass-bottle)-mode(ELBO)-parts(1)-dyn(20)-lvm(30)-hold(4)/final-lines.txt","att_check":false},"trial_type":"html-button-response","trial_index":54,"time_elapsed":122606,"internal_node_id":"0.0-8.0-3.11","subject":"xtqnclpdvtupol3"},{"rt":4071.0000000000146,"stimulus":"<p>Bereit?</p>","button_pressed":"0","trial_type":"html-button-response","trial_index":55,"time_elapsed":126680,"internal_node_id":"0.0-8.0-0.12","subject":"xtqnclpdvtupol3"},{"rt":null,"stimulus":"<div style=\"font-size:60px;\">+</div>","key_press":null,"trial_type":"html-keyboard-response","trial_index":56,"time_elapsed":128685,"internal_node_id":"0.0-8.0-1.12","subject":"xtqnclpdvtupol3"},{"trial_type":"turing-test","trial_index":57,"time_elapsed":132194,"internal_node_id":"0.0-8.0-2.12","subject":"xtqnclpdvtupol3"},{"rt":1871,"stimulus":"<p>Welche Sequenz haben Sie als natürlicher empfunden?</p>","button_pressed":"0","test_part":"response","test_stimulus":{"position":0,"left":"bvh/return-bottle-hold-training1-lines.txt","right":"bvh/vr_prediction_models/model(vcgpdm)-dataset(return-bottle-hold)-mode(ELBO)-parts(1)-dyn(30)-lvm(35)-hold(1)/final-lines.txt","att_check":false},"trial_type":"html-button-response","trial_index":58,"time_elapsed":134069,"internal_node_id":"0.0-8.0-3.12","subject":"xtqnclpdvtupol3"},{"rt":759,"stimulus":"<p>Bereit?</p>","button_pressed":"0","trial_type":"html-button-response","trial_index":59,"time_elapsed":134832,"internal_node_id":"0.0-8.0-0.13","subject":"xtqnclpdvtupol3"},{"rt":null,"stimulus":"<div style=\"font-size:60px;\">+</div>","key_press":null,"trial_type":"html-keyboard-response","trial_index":60,"time_elapsed":136835,"internal_node_id":"0.0-8.0-1.13","subject":"xtqnclpdvtupol3"},{"trial_type":"turing-test","trial_index":61,"time_elapsed":142490,"internal_node_id":"0.0-8.0-2.13","subject":"xtqnclpdvtupol3"},{"rt":711,"stimulus":"<p>Welche Sequenz haben Sie als natürlicher empfunden?</p>","button_pressed":"0","test_part":"response","test_stimulus":{"position":1,"left":"bvh/vr_prediction_models/model(tmp)-dataset(pass-bottle)-numprim(7)-hold(4)/final-lines.txt","right":"bvh/pass-bottle-training4-lines.txt","att_check":false},"trial_type":"html-button-response","trial_index":62,"time_elapsed":143204,"internal_node_id":"0.0-8.0-3.13","subject":"xtqnclpdvtupol3"},{"rt":349,"stimulus":"<p>Bereit?</p>","button_pressed":"0","trial_type":"html-button-response","trial_index":63,"time_elapsed":143556,"internal_node_id":"0.0-8.0-0.14","subject":"xtqnclpdvtupol3"},{"rt":null,"stimulus":"<div style=\"font-size:60px;\">+</div>","key_press":null,"trial_type":"html-keyboard-response","trial_index":64,"time_elapsed":145560,"internal_node_id":"0.0-8.0-1.14","subject":"xtqnclpdvtupol3"},{"trial_type":"turing-test","trial_index":65,"time_elapsed":149218,"internal_node_id":"0.0-8.0-2.14","subject":"xtqnclpdvtupol3"},{"rt":614,"stimulus":"<p>Welche Sequenz haben Sie als natürlicher empfunden?</p>","button_pressed":"1","test_part":"response","test_stimulus":{"position":1,"left":"bvh/vr_prediction_models/model(vcgpdm)-dataset(pass-bottle-hold)-mode(ELBO)-parts(3)-dyn(25)-lvm(15)-hold(4)/final-lines.txt","right":"bvh/pass-bottle-hold-training4-lines.txt","att_check":false},"trial_type":"html-button-response","trial_index":66,"time_elapsed":149835,"internal_node_id":"0.0-8.0-3.14","subject":"xtqnclpdvtupol3"},{"rt":340,"stimulus":"<p>Bereit?</p>","button_pressed":"0","trial_type":"html-button-response","trial_index":67,"time_elapsed":150179,"internal_node_id":"0.0-8.0-0.15","subject":"xtqnclpdvtupol3"},{"rt":null,"stimulus":"<div style=\"font-size:60px;\">+</div>","key_press":null,"trial_type":"html-keyboard-response","trial_index":68,"time_elapsed":152183,"internal_node_id":"0.0-8.0-1.15","subject":"xtqnclpdvtupol3"},{"trial_type":"turing-test","trial_index":69,"time_elapsed":157546,"internal_node_id":"0.0-8.0-2.15","subject":"xtqnclpdvtupol3"},{"rt":588,"stimulus":"<p>Welche Sequenz haben Sie als natürlicher empfunden?</p>","button_pressed":"0","test_part":"response","test_stimulus":{"position":0,"left":"bvh/return-bottle-training0-lines.txt","right":"bvh/vr_prediction_models/model(tmp)-dataset(return-bottle)-numprim(3)-hold(0)/final-lines.txt","att_check":false},"trial_type":"html-button-response","trial_index":70,"time_elapsed":158138,"internal_node_id":"0.0-8.0-3.15","subject":"xtqnclpdvtupol3"},{"rt":294.9999999999709,"stimulus":"<p>Bereit?</p>","button_pressed":"0","trial_type":"html-button-response","trial_index":71,"time_elapsed":158436,"internal_node_id":"0.0-8.0-0.16","subject":"xtqnclpdvtupol3"},{"rt":null,"stimulus":"<div style=\"font-size:60px;\">+</div>","key_press":null,"trial_type":"html-keyboard-response","trial_index":72,"time_elapsed":160441,"internal_node_id":"0.0-8.0-1.16","subject":"xtqnclpdvtupol3"},{"trial_type":"turing-test","trial_index":73,"time_elapsed":165810,"internal_node_id":"0.0-8.0-2.16","subject":"xtqnclpdvtupol3"},{"rt":552,"stimulus":"<p>Welche Sequenz haben Sie als natürlicher empfunden?</p>","button_pressed":"0","test_part":"response","test_stimulus":{"position":0,"left":"bvh/pass-bottle-training1-lines.txt","right":"bvh/vr_prediction_models/model(dmp)-dataset(pass-bottle)-npsi(100)-hold(1)/final-lines.txt","att_check":false},"trial_type":"html-button-response","trial_index":74,"time_elapsed":166366,"internal_node_id":"0.0-8.0-3.16","subject":"xtqnclpdvtupol3"},{"rt":620,"stimulus":"<p>Bereit?</p>","button_pressed":"0","trial_type":"html-button-response","trial_index":75,"time_elapsed":166990,"internal_node_id":"0.0-8.0-0.17","subject":"xtqnclpdvtupol3"},{"rt":null,"stimulus":"<div style=\"font-size:60px;\">+</div>","key_press":null,"trial_type":"html-keyboard-response","trial_index":76,"time_elapsed":168993,"internal_node_id":"0.0-8.0-1.17","subject":"xtqnclpdvtupol3"},{"trial_type":"turing-test","trial_index":77,"time_elapsed":172715,"internal_node_id":"0.0-8.0-2.17","subject":"xtqnclpdvtupol3"},{"rt":867,"stimulus":"<p>Welche Sequenz haben Sie als natürlicher empfunden?</p>","button_pressed":"0","test_part":"response","test_stimulus":{"position":1,"left":"bvh/vr_prediction_models/model(tmp)-dataset(return-bottle-hold)-numprim(12)-hold(4)/final-lines.txt","right":"bvh/return-bottle-hold-training4-lines.txt","att_check":false},"trial_type":"html-button-response","trial_index":78,"time_elapsed":173586,"internal_node_id":"0.0-8.0-3.17","subject":"xtqnclpdvtupol3"},{"rt":277,"stimulus":"<p>Bereit?</p>","button_pressed":"0","trial_type":"html-button-response","trial_index":79,"time_elapsed":173866,"internal_node_id":"0.0-8.0-0.18","subject":"xtqnclpdvtupol3"},{"rt":null,"stimulus":"<div style=\"font-size:60px;\">+</div>","key_press":null,"trial_type":"html-keyboard-response","trial_index":80,"time_elapsed":175870,"internal_node_id":"0.0-8.0-1.18","subject":"xtqnclpdvtupol3"},{"trial_type":"turing-test","trial_index":81,"time_elapsed":179280,"internal_node_id":"0.0-8.0-2.18","subject":"xtqnclpdvtupol3"},{"rt":799.9999999999709,"stimulus":"<p>Welche Sequenz haben Sie als natürlicher empfunden?</p>","button_pressed":"0","test_part":"response","test_stimulus":{"position":1,"left":"bvh/vr_prediction_models/model(dmp)-dataset(return-bottle-hold)-npsi(30)-hold(2)/final-lines.txt","right":"bvh/return-bottle-hold-training2-lines.txt","att_check":false},"trial_type":"html-button-response","trial_index":82,"time_elapsed":180085,"internal_node_id":"0.0-8.0-3.18","subject":"xtqnclpdvtupol3"},{"rt":260,"stimulus":"<p>Bereit?</p>","button_pressed":"0","trial_type":"html-button-response","trial_index":83,"time_elapsed":180349,"internal_node_id":"0.0-8.0-0.19","subject":"xtqnclpdvtupol3"},{"rt":null,"stimulus":"<div style=\"font-size:60px;\">+</div>","key_press":null,"trial_type":"html-keyboard-response","trial_index":84,"time_elapsed":182352,"internal_node_id":"0.0-8.0-1.19","subject":"xtqnclpdvtupol3"},{"trial_type":"turing-test","trial_index":85,"time_elapsed":188259,"internal_node_id":"0.0-8.0-2.19","subject":"xtqnclpdvtupol3"},{"rt":20712.00000000003,"stimulus":"<p>Welche Sequenz haben Sie als natürlicher empfunden?</p>","button_pressed":"1","test_part":"response","test_stimulus":{"position":0,"left":"bvh/return-bottle-training1-lines.txt","right":"bvh/vr_prediction_models/model(dmp)-dataset(return-bottle)-npsi(50)-hold(1)/final-lines.txt","att_check":false},"trial_type":"html-button-response","trial_index":86,"time_elapsed":208975,"internal_node_id":"0.0-8.0-3.19","subject":"xtqnclpdvtupol3"},{"rt":706.0000000000291,"stimulus":"<p>Bereit?</p>","button_pressed":"0","trial_type":"html-button-response","trial_index":87,"time_elapsed":209684,"internal_node_id":"0.0-8.0-0.20","subject":"xtqnclpdvtupol3"},{"rt":null,"stimulus":"<div style=\"font-size:60px;\">+</div>","key_press":null,"trial_type":"html-keyboard-response","trial_index":88,"time_elapsed":211687,"internal_node_id":"0.0-8.0-1.20","subject":"xtqnclpdvtupol3"},{"trial_type":"turing-test","trial_index":89,"time_elapsed":215272,"internal_node_id":"0.0-8.0-2.20","subject":"xtqnclpdvtupol3"},{"rt":867,"stimulus":"<p>Welche Sequenz haben Sie als natürlicher empfunden?</p>","button_pressed":"1","test_part":"response","test_stimulus":{"position":1,"left":"bvh/vr_prediction_models/model(dmp)-dataset(return-bottle-hold)-npsi(20)-hold(3)/final-lines.txt","right":"bvh/return-bottle-hold-training3-lines.txt","att_check":false},"trial_type":"html-button-response","trial_index":90,"time_elapsed":216144,"internal_node_id":"0.0-8.0-3.20","subject":"xtqnclpdvtupol3"},{"rt":301,"stimulus":"<p>Bereit?</p>","button_pressed":"0","trial_type":"html-button-response","trial_index":91,"time_elapsed":216447,"internal_node_id":"0.0-8.0-0.21","subject":"xtqnclpdvtupol3"},{"rt":null,"stimulus":"<div style=\"font-size:60px;\">+</div>","key_press":null,"trial_type":"html-keyboard-response","trial_index":92,"time_elapsed":218450,"internal_node_id":"0.0-8.0-1.21","subject":"xtqnclpdvtupol3"},{"trial_type":"turing-test","trial_index":93,"time_elapsed":225123,"internal_node_id":"0.0-8.0-2.21","subject":"xtqnclpdvtupol3"},{"rt":748,"stimulus":"<p>Welche Sequenz haben Sie als natürlicher empfunden?</p>","button_pressed":"1","test_part":"response","test_stimulus":{"position":1,"left":"bvh/vr_prediction_models/model(tmp)-dataset(pass-bottle)-numprim(3)-hold(0)/final-lines.txt","right":"bvh/pass-bottle-training0-lines.txt","att_check":false},"trial_type":"html-button-response","trial_index":94,"time_elapsed":225876,"internal_node_id":"0.0-8.0-3.21","subject":"xtqnclpdvtupol3"},{"rt":381,"stimulus":"<p>Bereit?</p>","button_pressed":"0","trial_type":"html-button-response","trial_index":95,"time_elapsed":226260,"internal_node_id":"0.0-8.0-0.22","subject":"xtqnclpdvtupol3"},{"rt":null,"stimulus":"<div style=\"font-size:60px;\">+</div>","key_press":null,"trial_type":"html-keyboard-response","trial_index":96,"time_elapsed":228263,"internal_node_id":"0.0-8.0-1.22","subject":"xtqnclpdvtupol3"},{"trial_type":"turing-test","trial_index":97,"time_elapsed":234121,"internal_node_id":"0.0-8.0-2.22","subject":"xtqnclpdvtupol3"},{"rt":651,"stimulus":"<p>Welche Sequenz haben Sie als natürlicher empfunden?</p>","button_pressed":"0","test_part":"response","test_stimulus":{"position":0,"left":"bvh/return-bottle-training4-lines.txt","right":"bvh/vr_prediction_models/model(vcgpdm)-dataset(return-bottle)-mode(ELBO)-parts(1)-dyn(30)-lvm(35)-hold(4)/final-lines.txt","att_check":false},"trial_type":"html-button-response","trial_index":98,"time_elapsed":234775,"internal_node_id":"0.0-8.0-3.22","subject":"xtqnclpdvtupol3"},{"rt":638,"stimulus":"<p>Bereit?</p>","button_pressed":"0","trial_type":"html-button-response","trial_index":99,"time_elapsed":235416,"internal_node_id":"0.0-8.0-0.23","subject":"xtqnclpdvtupol3"},{"rt":null,"stimulus":"<div style=\"font-size:60px;\">+</div>","key_press":null,"trial_type":"html-keyboard-response","trial_index":100,"time_elapsed":237418,"internal_node_id":"0.0-8.0-1.23","subject":"xtqnclpdvtupol3"},{"trial_type":"turing-test","trial_index":101,"time_elapsed":241169,"internal_node_id":"0.0-8.0-2.23","subject":"xtqnclpdvtupol3"},{"rt":1252.999999999971,"stimulus":"<p>Welche Sequenz haben Sie als natürlicher empfunden?</p>","button_pressed":"1","test_part":"response","test_stimulus":{"position":0,"left":"bvh/pass-bottle-hold-training0-lines.txt","right":"bvh/vr_prediction_models/model(vcgpdm)-dataset(pass-bottle-hold)-mode(ELBO)-parts(3)-dyn(35)-lvm(20)-hold(0)/final-lines.txt","att_check":false},"trial_type":"html-button-response","trial_index":102,"time_elapsed":242426,"internal_node_id":"0.0-8.0-3.23","subject":"xtqnclpdvtupol3"},{"rt":572,"stimulus":"<p>Bereit?</p>","button_pressed":"0","trial_type":"html-button-response","trial_index":103,"time_elapsed":243002,"internal_node_id":"0.0-8.0-0.24","subject":"xtqnclpdvtupol3"},{"rt":null,"stimulus":"<div style=\"font-size:60px;\">+</div>","key_press":null,"trial_type":"html-keyboard-response","trial_index":104,"time_elapsed":245006,"internal_node_id":"0.0-8.0-1.24","subject":"xtqnclpdvtupol3"},{"trial_type":"turing-test","trial_index":105,"time_elapsed":250696,"internal_node_id":"0.0-8.0-2.24","subject":"xtqnclpdvtupol3"},{"rt":626.0000000000291,"stimulus":"<p>Welche Sequenz haben Sie als natürlicher empfunden?</p>","button_pressed":"0","test_part":"response","test_stimulus":{"position":1,"left":"bvh/vr_prediction_models/model(tmp)-dataset(return-bottle)-numprim(8)-hold(3)/final-lines.txt","right":"bvh/return-bottle-training3-lines.txt","att_check":false},"trial_type":"html-button-response","trial_index":106,"time_elapsed":251328,"internal_node_id":"0.0-8.0-3.24","subject":"xtqnclpdvtupol3"},{"rt":263,"stimulus":"<p>Bereit?</p>","button_pressed":"0","trial_type":"html-button-response","trial_index":107,"time_elapsed":251594,"internal_node_id":"0.0-8.0-0.25","subject":"xtqnclpdvtupol3"},{"rt":null,"stimulus":"<div style=\"font-size:60px;\">+</div>","key_press":null,"trial_type":"html-keyboard-response","trial_index":108,"time_elapsed":253597,"internal_node_id":"0.0-8.0-1.25","subject":"xtqnclpdvtupol3"},{"trial_type":"turing-test","trial_index":109,"time_elapsed":256928,"internal_node_id":"0.0-8.0-2.25","subject":"xtqnclpdvtupol3"},{"rt":512,"stimulus":"<p>Welche Sequenz haben Sie als natürlicher empfunden?</p>","button_pressed":"0","test_part":"response","test_stimulus":{"position":0,"left":"bvh/pass-bottle-hold-training2-lines.txt","right":"bvh/vr_prediction_models/model(dmp)-dataset(pass-bottle-hold)-npsi(70)-hold(2)/final-lines.txt","att_check":true},"trial_type":"html-button-response","trial_index":110,"time_elapsed":257445,"internal_node_id":"0.0-8.0-3.25","subject":"xtqnclpdvtupol3"},{"rt":260,"stimulus":"<p>Bereit?</p>","button_pressed":"0","trial_type":"html-button-response","trial_index":111,"time_elapsed":257708,"internal_node_id":"0.0-8.0-0.26","subject":"xtqnclpdvtupol3"},{"rt":null,"stimulus":"<div style=\"font-size:60px;\">+</div>","key_press":null,"trial_type":"html-keyboard-response","trial_index":112,"time_elapsed":259712,"internal_node_id":"0.0-8.0-1.26","subject":"xtqnclpdvtupol3"},{"trial_type":"turing-test","trial_index":113,"time_elapsed":266118,"internal_node_id":"0.0-8.0-2.26","subject":"xtqnclpdvtupol3"},{"rt":885,"stimulus":"<p>Welche Sequenz haben Sie als natürlicher empfunden?</p>","button_pressed":"1","test_part":"response","test_stimulus":{"position":1,"left":"bvh/vr_prediction_models/model(dmp)-dataset(return-bottle)-npsi(50)-hold(2)/final-lines.txt","right":"bvh/return-bottle-training2-lines.txt","att_check":false},"trial_type":"html-button-response","trial_index":114,"time_elapsed":267006,"internal_node_id":"0.0-8.0-3.26","subject":"xtqnclpdvtupol3"},{"rt":351,"stimulus":"<p>Bereit?</p>","button_pressed":"0","trial_type":"html-button-response","trial_index":115,"time_elapsed":267360,"internal_node_id":"0.0-8.0-0.27","subject":"xtqnclpdvtupol3"},{"rt":null,"stimulus":"<div style=\"font-size:60px;\">+</div>","key_press":null,"trial_type":"html-keyboard-response","trial_index":116,"time_elapsed":269364,"internal_node_id":"0.0-8.0-1.27","subject":"xtqnclpdvtupol3"},{"trial_type":"turing-test","trial_index":117,"time_elapsed":272899,"internal_node_id":"0.0-8.0-2.27","subject":"xtqnclpdvtupol3"}]