[{"rt":5213.2500000006985,"stimulus":"<p>Welcome!<br> Please choose your language to start the experiment in the chosen language.</p><p>Willkommen!<br> Bitte wählen Sie eine Sprache, um das Experiment in der ausgewählten Sprache zu starten</p>","button_pressed":"1","trial_type":"html-button-response","trial_index":0,"time_elapsed":5242,"internal_node_id":"0.0-0.0","subject":"zt5fpcv0avbuuef","sona":"5203"},{"view_history":"[{\"page_index\":0,\"viewing_time\":11623.505000001387},{\"page_index\":1,\"viewing_time\":6081.869999999981},{\"page_index\":2,\"viewing_time\":20975.854999998774},{\"page_index\":3,\"viewing_time\":8920.250000001033},{\"page_index\":2,\"viewing_time\":1004.3299999997544},{\"page_index\":1,\"viewing_time\":3217.4749999994674},{\"page_index\":2,\"viewing_time\":501.1450000001787},{\"page_index\":3,\"viewing_time\":1132.3250000004919},{\"page_index\":4,\"viewing_time\":2522.9550000003655}]","rt":55980.18000000047,"trial_type":"instructions","trial_index":1,"time_elapsed":61224,"internal_node_id":"0.0-1.0-0.0","subject":"zt5fpcv0avbuuef","sona":"5203"},{"rt":2690.950000000157,"stimulus":"<p>Bereit?</p>","key_press":32,"trial_type":"html-keyboard-response","trial_index":2,"time_elapsed":63919,"internal_node_id":"0.0-3.0","subject":"zt5fpcv0avbuuef","sona":"5203"},{"rt":null,"stimulus":"<div style=\"font-size:60px;\">+</div>","key_press":null,"trial_type":"html-keyboard-response","trial_index":3,"time_elapsed":65927,"internal_node_id":"0.0-4.0","subject":"zt5fpcv0avbuuef","sona":"5203"},{"trial_type":"training","trial_index":4,"time_elapsed":77803,"internal_node_id":"0.0-5.0","subject":"zt5fpcv0avbuuef","sona":"5203"},{"rt":7587.815000000774,"stimulus":"<p>Welche Sequenz haben Sie als natürlicher empfunden?</p>","key_press":70,"trial_type":"html-keyboard-response","trial_index":5,"time_elapsed":85392,"internal_node_id":"0.0-6.0","subject":"zt5fpcv0avbuuef","sona":"5203"},{"rt":2015.7299999991665,"stimulus":"<p>Das Experiment startet nun.</p><p><small>Bitte drücken Sie den Knopf, wenn Sie bereit sind.</small></p>","button_pressed":"0","trial_type":"html-button-response","trial_index":6,"time_elapsed":87410,"internal_node_id":"0.0-7.0","subject":"zt5fpcv0avbuuef","sona":"5203"},{"rt":2304.7049999986484,"stimulus":"<p>Bereit?</p>","key_press":32,"trial_type":"html-keyboard-response","trial_index":7,"time_elapsed":89717,"internal_node_id":"0.0-8.0-0.0","subject":"zt5fpcv0avbuuef","sona":"5203"},{"rt":null,"stimulus":"<div style=\"font-size:60px;\">+</div>","key_press":null,"trial_type":"html-keyboard-response","trial_index":8,"time_elapsed":91727,"internal_node_id":"0.0-8.0-1.0","subject":"zt5fpcv0avbuuef","sona":"5203"},{"trial_type":"turing-test","trial_index":9,"time_elapsed":104101,"internal_node_id":"0.0-8.0-2.0","subject":"zt5fpcv0avbuuef","sona":"5203"},{"rt":4040.320000000065,"stimulus":"<p>Welche Sequenz haben Sie als natürlicher empfunden?</p>","key_press":74,"test_part":"response","test_stimulus":{"position":1,"left":"bvh/vr_prediction_models/model(dmp)-dataset(pass-bottle)-npsi(60)-hold(3)/final-lines.txt","right":"bvh/pass-bottle-training3-lines.txt","att_check":false},"trial_type":"html-keyboard-response","trial_index":10,"time_elapsed":108144,"internal_node_id":"0.0-8.0-3.0","subject":"zt5fpcv0avbuuef","sona":"5203"},{"rt":1561.7550000006158,"stimulus":"<p>Bereit?</p>","key_press":32,"trial_type":"html-keyboard-response","trial_index":11,"time_elapsed":109708,"internal_node_id":"0.0-8.0-0.1","subject":"zt5fpcv0avbuuef","sona":"5203"},{"rt":null,"stimulus":"<div style=\"font-size:60px;\">+</div>","key_press":null,"trial_type":"html-keyboard-response","trial_index":12,"time_elapsed":111712,"internal_node_id":"0.0-8.0-1.1","subject":"zt5fpcv0avbuuef","sona":"5203"},{"trial_type":"turing-test","trial_index":13,"time_elapsed":127249,"internal_node_id":"0.0-8.0-2.1","subject":"zt5fpcv0avbuuef","sona":"5203"},{"rt":1999.0950000010198,"stimulus":"<p>Welche Sequenz haben Sie als natürlicher empfunden?</p>","key_press":74,"test_part":"response","test_stimulus":{"position":0,"left":"bvh/return-bottle-hold-training0-lines.txt","right":"bvh/vr_prediction_models/model(dmp)-dataset(return-bottle-hold)-npsi(40)-hold(0)/final-lines.txt","att_check":false},"trial_type":"html-keyboard-response","trial_index":14,"time_elapsed":129251,"internal_node_id":"0.0-8.0-3.1","subject":"zt5fpcv0avbuuef","sona":"5203"},{"rt":1071.4649999990943,"stimulus":"<p>Bereit?</p>","key_press":32,"trial_type":"html-keyboard-response","trial_index":15,"time_elapsed":130325,"internal_node_id":"0.0-8.0-0.2","subject":"zt5fpcv0avbuuef","sona":"5203"},{"rt":null,"stimulus":"<div style=\"font-size:60px;\">+</div>","key_press":null,"trial_type":"html-keyboard-response","trial_index":16,"time_elapsed":132329,"internal_node_id":"0.0-8.0-1.2","subject":"zt5fpcv0avbuuef","sona":"5203"}]