[{"rt":4437.980000046082,"stimulus":"<p>Welcome!<br> Please choose your language to start the experiment in the chosen language.</p><p>Willkommen!<br> Bitte wählen Sie eine Sprache, um das Experiment in der ausgewählten Sprache zu starten</p>","button_pressed":"1","trial_type":"html-button-response","trial_index":0,"time_elapsed":4459,"internal_node_id":"0.0-0.0","subject":"5xgzpkpv4u6d866","sona":"7552"},{"view_history":"[{\"page_index\":0,\"viewing_time\":9416.319999960251},{\"page_index\":1,\"viewing_time\":4171.8100000871345},{\"page_index\":2,\"viewing_time\":8765.689999912865},{\"page_index\":3,\"viewing_time\":11209.090000018477},{\"page_index\":4,\"viewing_time\":2745.9449999732897}]","rt":36310.3350000456,"trial_type":"instructions","trial_index":1,"time_elapsed":40771,"internal_node_id":"0.0-1.0-0.0","subject":"5xgzpkpv4u6d866","sona":"7552"},{"rt":2009.2449999647215,"stimulus":"<p>Bereit?</p>","key_press":32,"trial_type":"html-keyboard-response","trial_index":2,"time_elapsed":42782,"internal_node_id":"0.0-3.0","subject":"5xgzpkpv4u6d866","sona":"7552"},{"rt":null,"stimulus":"<div style=\"font-size:60px;\">+</div>","key_press":null,"trial_type":"html-keyboard-response","trial_index":3,"time_elapsed":44806,"internal_node_id":"0.0-4.0","subject":"5xgzpkpv4u6d866","sona":"7552"},{"trial_type":"training","trial_index":4,"time_elapsed":48284,"internal_node_id":"0.0-5.0","subject":"5xgzpkpv4u6d866","sona":"7552"},{"rt":485.94499996397644,"stimulus":"<p>Welche Sequenz haben Sie als natürlicher empfunden?</p>","key_press":70,"trial_type":"html-keyboard-response","trial_index":5,"time_elapsed":48771,"internal_node_id":"0.0-6.0","subject":"5xgzpkpv4u6d866","sona":"7552"},{"rt":5201.589999953285,"stimulus":"<p>Das Experiment startet nun.</p><p><small>Bitte drücken Sie den Knopf, wenn Sie bereit sind.</small></p>","button_pressed":"0","trial_type":"html-button-response","trial_index":6,"time_elapsed":53975,"internal_node_id":"0.0-7.0","subject":"5xgzpkpv4u6d866","sona":"7552"},{"rt":2544.099999940954,"stimulus":"<p>Bereit?</p>","key_press":32,"trial_type":"html-keyboard-response","trial_index":7,"time_elapsed":56520,"internal_node_id":"0.0-8.0-0.0","subject":"5xgzpkpv4u6d866","sona":"7552"},{"rt":null,"stimulus":"<div style=\"font-size:60px;\">+</div>","key_press":null,"trial_type":"html-keyboard-response","trial_index":8,"time_elapsed":58544,"internal_node_id":"0.0-8.0-1.0","subject":"5xgzpkpv4u6d866","sona":"7552"},{"trial_type":"turing-test","trial_index":9,"time_elapsed":62179,"internal_node_id":"0.0-8.0-2.0","subject":"5xgzpkpv4u6d866","sona":"7552"},{"rt":876.5150000108406,"stimulus":"<p>Welche Sequenz haben Sie als natürlicher empfunden?</p>","key_press":74,"test_part":"response","test_stimulus":{"position":0,"left":"bvh/return-bottle-hold-training2-lines.txt","right":"bvh/vr_prediction_models/model(vcgpdm)-dataset(return-bottle-hold)-mode(ELBO)-parts(3)-dyn(25)-lvm(15)-hold(2)/final-lines.txt","att_check":false},"trial_type":"html-keyboard-response","trial_index":10,"time_elapsed":63059,"internal_node_id":"0.0-8.0-3.0","subject":"5xgzpkpv4u6d866","sona":"7552"},{"rt":924.7500000055879,"stimulus":"<p>Bereit?</p>","key_press":32,"trial_type":"html-keyboard-response","trial_index":11,"time_elapsed":63988,"internal_node_id":"0.0-8.0-0.1","subject":"5xgzpkpv4u6d866","sona":"7552"},{"rt":null,"stimulus":"<div style=\"font-size:60px;\">+</div>","key_press":null,"trial_type":"html-keyboard-response","trial_index":12,"time_elapsed":66009,"internal_node_id":"0.0-8.0-1.1","subject":"5xgzpkpv4u6d866","sona":"7552"},{"trial_type":"turing-test","trial_index":13,"time_elapsed":71269,"internal_node_id":"0.0-8.0-2.1","subject":"5xgzpkpv4u6d866","sona":"7552"},{"rt":397.4600000074133,"stimulus":"<p>Welche Sequenz haben Sie als natürlicher empfunden?</p>","key_press":70,"test_part":"response","test_stimulus":{"position":1,"left":"bvh/vr_prediction_models/model(vcgpdm)-dataset(return-bottle-hold)-mode(ELBO)-parts(1)-dyn(20)-lvm(5)-hold(0)/final-lines.txt","right":"bvh/return-bottle-hold-training0-lines.txt","att_check":false},"trial_type":"html-keyboard-response","trial_index":14,"time_elapsed":71670,"internal_node_id":"0.0-8.0-3.1","subject":"5xgzpkpv4u6d866","sona":"7552"},{"rt":801.0050000157207,"stimulus":"<p>Bereit?</p>","key_press":32,"trial_type":"html-keyboard-response","trial_index":15,"time_elapsed":72475,"internal_node_id":"0.0-8.0-0.2","subject":"5xgzpkpv4u6d866","sona":"7552"},{"rt":null,"stimulus":"<div style=\"font-size:60px;\">+</div>","key_press":null,"trial_type":"html-keyboard-response","trial_index":16,"time_elapsed":74495,"internal_node_id":"0.0-8.0-1.2","subject":"5xgzpkpv4u6d866","sona":"7552"},{"trial_type":"turing-test","trial_index":17,"time_elapsed":81256,"internal_node_id":"0.0-8.0-2.2","subject":"5xgzpkpv4u6d866","sona":"7552"},{"rt":146.40500000678003,"stimulus":"<p>Welche Sequenz haben Sie als natürlicher empfunden?</p>","key_press":74,"test_part":"response","test_stimulus":{"position":1,"left":"bvh/vr_prediction_models/model(vcgpdm)-dataset(return-bottle)-mode(ELBO)-parts(1)-dyn(20)-lvm(5)-hold(2)/final-lines.txt","right":"bvh/return-bottle-training2-lines.txt","att_check":false},"trial_type":"html-keyboard-response","trial_index":18,"time_elapsed":81408,"internal_node_id":"0.0-8.0-3.2","subject":"5xgzpkpv4u6d866","sona":"7552"},{"rt":769.4899999769405,"stimulus":"<p>Bereit?</p>","key_press":32,"trial_type":"html-keyboard-response","trial_index":19,"time_elapsed":82181,"internal_node_id":"0.0-8.0-0.3","subject":"5xgzpkpv4u6d866","sona":"7552"},{"rt":null,"stimulus":"<div style=\"font-size:60px;\">+</div>","key_press":null,"trial_type":"html-keyboard-response","trial_index":20,"time_elapsed":84192,"internal_node_id":"0.0-8.0-1.3","subject":"5xgzpkpv4u6d866","sona":"7552"},{"trial_type":"turing-test","trial_index":21,"time_elapsed":90079,"internal_node_id":"0.0-8.0-2.3","subject":"5xgzpkpv4u6d866","sona":"7552"},{"rt":394.704999984242,"stimulus":"<p>Welche Sequenz haben Sie als natürlicher empfunden?</p>","key_press":74,"test_part":"response","test_stimulus":{"position":0,"left":"bvh/return-bottle-training3-lines.txt","right":"bvh/vr_prediction_models/model(vcgpdm)-dataset(return-bottle)-mode(ELBO)-parts(1)-dyn(10)-lvm(5)-hold(3)/final-lines.txt","att_check":false},"trial_type":"html-keyboard-response","trial_index":22,"time_elapsed":90479,"internal_node_id":"0.0-8.0-3.3","subject":"5xgzpkpv4u6d866","sona":"7552"},{"rt":760.2249999763444,"stimulus":"<p>Bereit?</p>","key_press":32,"trial_type":"html-keyboard-response","trial_index":23,"time_elapsed":91242,"internal_node_id":"0.0-8.0-0.4","subject":"5xgzpkpv4u6d866","sona":"7552"},{"rt":null,"stimulus":"<div style=\"font-size:60px;\">+</div>","key_press":null,"trial_type":"html-keyboard-response","trial_index":24,"time_elapsed":93270,"internal_node_id":"0.0-8.0-1.4","subject":"5xgzpkpv4u6d866","sona":"7552"},{"trial_type":"turing-test","trial_index":25,"time_elapsed":96795,"internal_node_id":"0.0-8.0-2.4","subject":"5xgzpkpv4u6d866","sona":"7552"},{"rt":261.69499999377877,"stimulus":"<p>Welche Sequenz haben Sie als natürlicher empfunden?</p>","key_press":74,"test_part":"response","test_stimulus":{"position":1,"left":"bvh/vr_prediction_models/model(vcgpdm)-dataset(return-bottle-hold)-mode(MAP)-parts(3)-hold(1)/final-lines.txt","right":"bvh/return-bottle-hold-training1-lines.txt","att_check":false},"trial_type":"html-keyboard-response","trial_index":26,"time_elapsed":97061,"internal_node_id":"0.0-8.0-3.4","subject":"5xgzpkpv4u6d866","sona":"7552"},{"rt":627.9100000392646,"stimulus":"<p>Bereit?</p>","key_press":32,"trial_type":"html-keyboard-response","trial_index":27,"time_elapsed":97693,"internal_node_id":"0.0-8.0-0.5","subject":"5xgzpkpv4u6d866","sona":"7552"},{"rt":null,"stimulus":"<div style=\"font-size:60px;\">+</div>","key_press":null,"trial_type":"html-keyboard-response","trial_index":28,"time_elapsed":99717,"internal_node_id":"0.0-8.0-1.5","subject":"5xgzpkpv4u6d866","sona":"7552"},{"trial_type":"turing-test","trial_index":29,"time_elapsed":105651,"internal_node_id":"0.0-8.0-2.5","subject":"5xgzpkpv4u6d866","sona":"7552"},{"rt":0.39000005926936865,"stimulus":"<p>Welche Sequenz haben Sie als natürlicher empfunden?</p>","key_press":74,"test_part":"response","test_stimulus":{"position":1,"left":"bvh/vr_prediction_models/model(vcgpdm)-dataset(pass-bottle)-mode(ELBO)-parts(3)-dyn(10)-lvm(10)-hold(4)/final-lines.txt","right":"bvh/pass-bottle-training4-lines.txt","att_check":false},"trial_type":"html-keyboard-response","trial_index":30,"time_elapsed":105657,"internal_node_id":"0.0-8.0-3.5","subject":"5xgzpkpv4u6d866","sona":"7552"},{"rt":1032.4849999742582,"stimulus":"<p>Bereit?</p>","key_press":32,"trial_type":"html-keyboard-response","trial_index":31,"time_elapsed":106691,"internal_node_id":"0.0-8.0-0.6","subject":"5xgzpkpv4u6d866","sona":"7552"},{"rt":null,"stimulus":"<div style=\"font-size:60px;\">+</div>","key_press":null,"trial_type":"html-keyboard-response","trial_index":32,"time_elapsed":108711,"internal_node_id":"0.0-8.0-1.6","subject":"5xgzpkpv4u6d866","sona":"7552"},{"trial_type":"turing-test","trial_index":33,"time_elapsed":115558,"internal_node_id":"0.0-8.0-2.6","subject":"5xgzpkpv4u6d866","sona":"7552"},{"rt":306.4799999119714,"stimulus":"<p>Welche Sequenz haben Sie als natürlicher empfunden?</p>","key_press":74,"test_part":"response","test_stimulus":{"position":1,"left":"bvh/vr_prediction_models/model(vcgpdm)-dataset(pass-bottle)-mode(ELBO)-parts(3)-dyn(25)-lvm(30)-hold(0)/final-lines.txt","right":"bvh/pass-bottle-training0-lines.txt","att_check":false},"trial_type":"html-keyboard-response","trial_index":34,"time_elapsed":115866,"internal_node_id":"0.0-8.0-3.6","subject":"5xgzpkpv4u6d866","sona":"7552"},{"rt":1200.114999897778,"stimulus":"<p>Bereit?</p>","key_press":32,"trial_type":"html-keyboard-response","trial_index":35,"time_elapsed":117070,"internal_node_id":"0.0-8.0-0.7","subject":"5xgzpkpv4u6d866","sona":"7552"},{"rt":null,"stimulus":"<div style=\"font-size:60px;\">+</div>","key_press":null,"trial_type":"html-keyboard-response","trial_index":36,"time_elapsed":119081,"internal_node_id":"0.0-8.0-1.7","subject":"5xgzpkpv4u6d866","sona":"7552"},{"trial_type":"turing-test","trial_index":37,"time_elapsed":125279,"internal_node_id":"0.0-8.0-2.7","subject":"5xgzpkpv4u6d866","sona":"7552"},{"rt":404.68000003602356,"stimulus":"<p>Welche Sequenz haben Sie als natürlicher empfunden?</p>","key_press":74,"test_part":"response","test_stimulus":{"position":1,"left":"bvh/vr_prediction_models/model(vcgpdm)-dataset(return-bottle)-mode(ELBO)-parts(3)-dyn(10)-lvm(30)-hold(1)/final-lines.txt","right":"bvh/return-bottle-training1-lines.txt","att_check":false},"trial_type":"html-keyboard-response","trial_index":38,"time_elapsed":125687,"internal_node_id":"0.0-8.0-3.7","subject":"5xgzpkpv4u6d866","sona":"7552"},{"rt":537.7900000894442,"stimulus":"<p>Bereit?</p>","key_press":32,"trial_type":"html-keyboard-response","trial_index":39,"time_elapsed":126229,"internal_node_id":"0.0-8.0-0.8","subject":"5xgzpkpv4u6d866","sona":"7552"},{"rt":null,"stimulus":"<div style=\"font-size:60px;\">+</div>","key_press":null,"trial_type":"html-keyboard-response","trial_index":40,"time_elapsed":128246,"internal_node_id":"0.0-8.0-1.8","subject":"5xgzpkpv4u6d866","sona":"7552"},{"trial_type":"turing-test","trial_index":41,"time_elapsed":131863,"internal_node_id":"0.0-8.0-2.8","subject":"5xgzpkpv4u6d866","sona":"7552"},{"rt":143.54499999899417,"stimulus":"<p>Welche Sequenz haben Sie als natürlicher empfunden?</p>","key_press":74,"test_part":"response","test_stimulus":{"position":1,"left":"bvh/vr_prediction_models/model(vcgpdm)-dataset(return-bottle-hold)-mode(ELBO)-parts(1)-dyn(10)-lvm(25)-hold(2)/final-lines.txt","right":"bvh/return-bottle-hold-training2-lines.txt","att_check":false},"trial_type":"html-keyboard-response","trial_index":42,"time_elapsed":132011,"internal_node_id":"0.0-8.0-3.8","subject":"5xgzpkpv4u6d866","sona":"7552"},{"rt":749.2150000762194,"stimulus":"<p>Bereit?</p>","key_press":32,"trial_type":"html-keyboard-response","trial_index":43,"time_elapsed":132764,"internal_node_id":"0.0-8.0-0.9","subject":"5xgzpkpv4u6d866","sona":"7552"},{"rt":null,"stimulus":"<div style=\"font-size:60px;\">+</div>","key_press":null,"trial_type":"html-keyboard-response","trial_index":44,"time_elapsed":134785,"internal_node_id":"0.0-8.0-1.9","subject":"5xgzpkpv4u6d866","sona":"7552"},{"trial_type":"turing-test","trial_index":45,"time_elapsed":140899,"internal_node_id":"0.0-8.0-2.9","subject":"5xgzpkpv4u6d866","sona":"7552"},{"rt":0.7600000826641917,"stimulus":"<p>Welche Sequenz haben Sie als natürlicher empfunden?</p>","key_press":74,"test_part":"response","test_stimulus":{"position":1,"left":"bvh/vr_prediction_models/model(vcgpdm)-dataset(return-bottle)-mode(MAP)-parts(3)-hold(1)/final-lines.txt","right":"bvh/return-bottle-training1-lines.txt","att_check":false},"trial_type":"html-keyboard-response","trial_index":46,"time_elapsed":140905,"internal_node_id":"0.0-8.0-3.9","subject":"5xgzpkpv4u6d866","sona":"7552"},{"rt":864.7499999497086,"stimulus":"<p>Bereit?</p>","key_press":32,"trial_type":"html-keyboard-response","trial_index":47,"time_elapsed":141771,"internal_node_id":"0.0-8.0-0.10","subject":"5xgzpkpv4u6d866","sona":"7552"},{"rt":null,"stimulus":"<div style=\"font-size:60px;\">+</div>","key_press":null,"trial_type":"html-keyboard-response","trial_index":48,"time_elapsed":143793,"internal_node_id":"0.0-8.0-1.10","subject":"5xgzpkpv4u6d866","sona":"7552"},{"trial_type":"turing-test","trial_index":49,"time_elapsed":149751,"internal_node_id":"0.0-8.0-2.10","subject":"5xgzpkpv4u6d866","sona":"7552"},{"rt":585.6550000607967,"stimulus":"<p>Welche Sequenz haben Sie als natürlicher empfunden?</p>","key_press":74,"test_part":"response","test_stimulus":{"position":0,"left":"bvh/pass-bottle-training3-lines.txt","right":"bvh/vr_prediction_models/model(vcgpdm)-dataset(pass-bottle)-mode(ELBO)-parts(3)-dyn(15)-lvm(30)-hold(3)/final-lines.txt","att_check":false},"trial_type":"html-keyboard-response","trial_index":50,"time_elapsed":150341,"internal_node_id":"0.0-8.0-3.10","subject":"5xgzpkpv4u6d866","sona":"7552"}]