[{"rt":1421,"stimulus":"<p>Welcome!<br> Please choose your language to start the experiment in the chosen language.</p><p>Willkommen!<br> Bitte wählen Sie eine Sprache, um das Experiment in der ausgewählten Sprache zu starten</p>","button_pressed":"1","trial_type":"html-button-response","trial_index":0,"time_elapsed":1428,"internal_node_id":"0.0-0.0","subject":"nkgu0dp1am57bjw","sona":"7276"},{"view_history":"[{\"page_index\":0,\"viewing_time\":703},{\"page_index\":1,\"viewing_time\":1208},{\"page_index\":2,\"viewing_time\":1336},{\"page_index\":3,\"viewing_time\":1152},{\"page_index\":4,\"viewing_time\":972}]","rt":5374,"trial_type":"instructions","trial_index":1,"time_elapsed":6806,"internal_node_id":"0.0-1.0-0.0","subject":"nkgu0dp1am57bjw","sona":"7276"},{"rt":2353,"stimulus":"<p>Bereit?</p>","key_press":32,"trial_type":"html-keyboard-response","trial_index":2,"time_elapsed":9165,"internal_node_id":"0.0-3.0","subject":"nkgu0dp1am57bjw","sona":"7276"},{"rt":null,"stimulus":"<div style=\"font-size:60px;\">+</div>","key_press":null,"trial_type":"html-keyboard-response","trial_index":3,"time_elapsed":11191,"internal_node_id":"0.0-4.0","subject":"nkgu0dp1am57bjw","sona":"7276"},{"trial_type":"training","trial_index":4,"time_elapsed":14683,"internal_node_id":"0.0-5.0","subject":"nkgu0dp1am57bjw","sona":"7276"},{"rt":242,"stimulus":"<p>Welche Sequenz haben Sie als natürlicher empfunden?</p>","key_press":70,"trial_type":"html-keyboard-response","trial_index":5,"time_elapsed":14930,"internal_node_id":"0.0-6.0","subject":"nkgu0dp1am57bjw","sona":"7276"},{"rt":3396,"stimulus":"<p>Das Experiment startet nun.</p><p><small>Bitte drücken Sie den Knopf, wenn Sie bereit sind.</small></p>","button_pressed":"0","trial_type":"html-button-response","trial_index":6,"time_elapsed":18328,"internal_node_id":"0.0-7.0","subject":"nkgu0dp1am57bjw","sona":"7276"},{"rt":781,"stimulus":"<p>Bereit?</p>","key_press":32,"trial_type":"html-keyboard-response","trial_index":7,"time_elapsed":19114,"internal_node_id":"0.0-8.0-0.0","subject":"nkgu0dp1am57bjw","sona":"7276"},{"rt":null,"stimulus":"<div style=\"font-size:60px;\">+</div>","key_press":null,"trial_type":"html-keyboard-response","trial_index":8,"time_elapsed":21144,"internal_node_id":"0.0-8.0-1.0","subject":"nkgu0dp1am57bjw","sona":"7276"},{"trial_type":"turing-test","trial_index":9,"time_elapsed":25143,"internal_node_id":"0.0-8.0-2.0","subject":"nkgu0dp1am57bjw","sona":"7276"},{"rt":343,"stimulus":"<p>Welche Sequenz haben Sie als natürlicher empfunden?</p>","key_press":74,"test_part":"response","test_stimulus":{"position":1,"left":"bvh/vr_prediction_models/model(vcgpdm)-dataset(return-bottle-hold)-mode(ELBO)-parts(1)-dyn(10)-lvm(30)-hold(4)/final-lines.txt","right":"bvh/return-bottle-hold-training4-lines.txt","att_check":false},"trial_type":"html-keyboard-response","trial_index":10,"time_elapsed":25492,"internal_node_id":"0.0-8.0-3.0","subject":"nkgu0dp1am57bjw","sona":"7276"},{"rt":120,"stimulus":"<p>Bereit?</p>","key_press":32,"trial_type":"html-keyboard-response","trial_index":11,"time_elapsed":25616,"internal_node_id":"0.0-8.0-0.1","subject":"nkgu0dp1am57bjw","sona":"7276"},{"rt":null,"stimulus":"<div style=\"font-size:60px;\">+</div>","key_press":null,"trial_type":"html-keyboard-response","trial_index":12,"time_elapsed":27643,"internal_node_id":"0.0-8.0-1.1","subject":"nkgu0dp1am57bjw","sona":"7276"},{"trial_type":"turing-test","trial_index":13,"time_elapsed":33123,"internal_node_id":"0.0-8.0-2.1","subject":"nkgu0dp1am57bjw","sona":"7276"},{"rt":363,"stimulus":"<p>Welche Sequenz haben Sie als natürlicher empfunden?</p>","key_press":70,"test_part":"response","test_stimulus":{"position":0,"left":"bvh/pass-bottle-training1-lines.txt","right":"bvh/vr_prediction_models/model(dmp)-dataset(pass-bottle)-npsi(70)-hold(1)/final-lines.txt","att_check":false},"trial_type":"html-keyboard-response","trial_index":14,"time_elapsed":33489,"internal_node_id":"0.0-8.0-3.1","subject":"nkgu0dp1am57bjw","sona":"7276"},{"rt":315,"stimulus":"<p>Bereit?</p>","key_press":32,"trial_type":"html-keyboard-response","trial_index":15,"time_elapsed":33807,"internal_node_id":"0.0-8.0-0.2","subject":"nkgu0dp1am57bjw","sona":"7276"},{"rt":null,"stimulus":"<div style=\"font-size:60px;\">+</div>","key_press":null,"trial_type":"html-keyboard-response","trial_index":16,"time_elapsed":35836,"internal_node_id":"0.0-8.0-1.2","subject":"nkgu0dp1am57bjw","sona":"7276"},{"trial_type":"turing-test","trial_index":17,"time_elapsed":42463,"internal_node_id":"0.0-8.0-2.2","subject":"nkgu0dp1am57bjw","sona":"7276"},{"rt":421,"stimulus":"<p>Welche Sequenz haben Sie als natürlicher empfunden?</p>","key_press":74,"test_part":"response","test_stimulus":{"position":1,"left":"bvh/vr_prediction_models/model(dmp)-dataset(return-bottle)-npsi(80)-hold(2)/final-lines.txt","right":"bvh/return-bottle-training2-lines.txt","att_check":false},"trial_type":"html-keyboard-response","trial_index":18,"time_elapsed":42888,"internal_node_id":"0.0-8.0-3.2","subject":"nkgu0dp1am57bjw","sona":"7276"},{"rt":83,"stimulus":"<p>Bereit?</p>","key_press":32,"trial_type":"html-keyboard-response","trial_index":19,"time_elapsed":42974,"internal_node_id":"0.0-8.0-0.3","subject":"nkgu0dp1am57bjw","sona":"7276"},{"rt":null,"stimulus":"<div style=\"font-size:60px;\">+</div>","key_press":null,"trial_type":"html-keyboard-response","trial_index":20,"time_elapsed":45004,"internal_node_id":"0.0-8.0-1.3","subject":"nkgu0dp1am57bjw","sona":"7276"},{"trial_type":"turing-test","trial_index":21,"time_elapsed":48823,"internal_node_id":"0.0-8.0-2.3","subject":"nkgu0dp1am57bjw","sona":"7276"},{"rt":467,"stimulus":"<p>Welche Sequenz haben Sie als natürlicher empfunden?</p>","key_press":70,"test_part":"response","test_stimulus":{"position":0,"left":"bvh/return-bottle-hold-training3-lines.txt","right":"bvh/vr_prediction_models/model(vcgpdm)-dataset(return-bottle-hold)-mode(ELBO)-parts(1)-dyn(10)-lvm(25)-hold(3)/final-lines.txt","att_check":false},"trial_type":"html-keyboard-response","trial_index":22,"time_elapsed":49295,"internal_node_id":"0.0-8.0-3.3","subject":"nkgu0dp1am57bjw","sona":"7276"},{"rt":118,"stimulus":"<p>Bereit?</p>","key_press":32,"trial_type":"html-keyboard-response","trial_index":23,"time_elapsed":49415,"internal_node_id":"0.0-8.0-0.4","subject":"nkgu0dp1am57bjw","sona":"7276"},{"rt":null,"stimulus":"<div style=\"font-size:60px;\">+</div>","key_press":null,"trial_type":"html-keyboard-response","trial_index":24,"time_elapsed":51444,"internal_node_id":"0.0-8.0-1.4","subject":"nkgu0dp1am57bjw","sona":"7276"},{"trial_type":"turing-test","trial_index":25,"time_elapsed":57733,"internal_node_id":"0.0-8.0-2.4","subject":"nkgu0dp1am57bjw","sona":"7276"},{"rt":433,"stimulus":"<p>Welche Sequenz haben Sie als natürlicher empfunden?</p>","key_press":70,"test_part":"response","test_stimulus":{"position":0,"left":"bvh/pass-bottle-training2-lines.txt","right":"bvh/vr_prediction_models/model(vcgpdm)-dataset(pass-bottle)-mode(ELBO)-parts(3)-dyn(10)-lvm(25)-hold(2)/final-lines.txt","att_check":false},"trial_type":"html-keyboard-response","trial_index":26,"time_elapsed":58169,"internal_node_id":"0.0-8.0-3.4","subject":"nkgu0dp1am57bjw","sona":"7276"},{"rt":245157,"stimulus":"<p>Bereit?</p>","key_press":32,"trial_type":"html-keyboard-response","trial_index":27,"time_elapsed":303330,"internal_node_id":"0.0-8.0-0.5","subject":"nkgu0dp1am57bjw","sona":"7276"},{"rt":null,"stimulus":"<div style=\"font-size:60px;\">+</div>","key_press":null,"trial_type":"html-keyboard-response","trial_index":28,"time_elapsed":305364,"internal_node_id":"0.0-8.0-1.5","subject":"nkgu0dp1am57bjw","sona":"7276"},{"trial_type":"turing-test","trial_index":29,"time_elapsed":311003,"internal_node_id":"0.0-8.0-2.5","subject":"nkgu0dp1am57bjw","sona":"7276"},{"rt":359,"stimulus":"<p>Welche Sequenz haben Sie als natürlicher empfunden?</p>","key_press":70,"test_part":"response","test_stimulus":{"position":0,"left":"bvh/return-bottle-hold-training0-lines.txt","right":"bvh/vr_prediction_models/model(dmp)-dataset(return-bottle-hold)-npsi(90)-hold(0)/final-lines.txt","att_check":false},"trial_type":"html-keyboard-response","trial_index":30,"time_elapsed":311367,"internal_node_id":"0.0-8.0-3.5","subject":"nkgu0dp1am57bjw","sona":"7276"},{"rt":145,"stimulus":"<p>Bereit?</p>","key_press":32,"trial_type":"html-keyboard-response","trial_index":31,"time_elapsed":311517,"internal_node_id":"0.0-8.0-0.6","subject":"nkgu0dp1am57bjw","sona":"7276"},{"rt":null,"stimulus":"<div style=\"font-size:60px;\">+</div>","key_press":null,"trial_type":"html-keyboard-response","trial_index":32,"time_elapsed":313545,"internal_node_id":"0.0-8.0-1.6","subject":"nkgu0dp1am57bjw","sona":"7276"},{"trial_type":"turing-test","trial_index":33,"time_elapsed":317203,"internal_node_id":"0.0-8.0-2.6","subject":"nkgu0dp1am57bjw","sona":"7276"},{"rt":341,"stimulus":"<p>Welche Sequenz haben Sie als natürlicher empfunden?</p>","key_press":74,"test_part":"response","test_stimulus":{"position":1,"left":"bvh/vr_prediction_models/model(vcgpdm)-dataset(return-bottle-hold)-mode(ELBO)-parts(1)-dyn(20)-lvm(20)-hold(3)/final-lines.txt","right":"bvh/return-bottle-hold-training3-lines.txt","att_check":false},"trial_type":"html-keyboard-response","trial_index":34,"time_elapsed":317548,"internal_node_id":"0.0-8.0-3.6","subject":"nkgu0dp1am57bjw","sona":"7276"},{"rt":139,"stimulus":"<p>Bereit?</p>","key_press":32,"trial_type":"html-keyboard-response","trial_index":35,"time_elapsed":317691,"internal_node_id":"0.0-8.0-0.7","subject":"nkgu0dp1am57bjw","sona":"7276"},{"rt":null,"stimulus":"<div style=\"font-size:60px;\">+</div>","key_press":null,"trial_type":"html-keyboard-response","trial_index":36,"time_elapsed":319724,"internal_node_id":"0.0-8.0-1.7","subject":"nkgu0dp1am57bjw","sona":"7276"},{"trial_type":"turing-test","trial_index":37,"time_elapsed":325664,"internal_node_id":"0.0-8.0-2.7","subject":"nkgu0dp1am57bjw","sona":"7276"},{"rt":57,"stimulus":"<p>Welche Sequenz haben Sie als natürlicher empfunden?</p>","key_press":74,"test_part":"response","test_stimulus":{"position":0,"left":"bvh/pass-bottle-training4-lines.txt","right":"bvh/vr_prediction_models/model(vcgpdm)-dataset(pass-bottle)-mode(ELBO)-parts(3)-dyn(25)-lvm(25)-hold(4)/final-lines.txt","att_check":false},"trial_type":"html-keyboard-response","trial_index":38,"time_elapsed":325727,"internal_node_id":"0.0-8.0-3.7","subject":"nkgu0dp1am57bjw","sona":"7276"},{"rt":238,"stimulus":"<p>Bereit?</p>","key_press":32,"trial_type":"html-keyboard-response","trial_index":39,"time_elapsed":325968,"internal_node_id":"0.0-8.0-0.8","subject":"nkgu0dp1am57bjw","sona":"7276"},{"rt":null,"stimulus":"<div style=\"font-size:60px;\">+</div>","key_press":null,"trial_type":"html-keyboard-response","trial_index":40,"time_elapsed":328003,"internal_node_id":"0.0-8.0-1.8","subject":"nkgu0dp1am57bjw","sona":"7276"},{"trial_type":"turing-test","trial_index":41,"time_elapsed":333444,"internal_node_id":"0.0-8.0-2.8","subject":"nkgu0dp1am57bjw","sona":"7276"},{"rt":307,"stimulus":"<p>Welche Sequenz haben Sie als natürlicher empfunden?</p>","key_press":74,"test_part":"response","test_stimulus":{"position":0,"left":"bvh/pass-bottle-training1-lines.txt","right":"bvh/vr_prediction_models/model(tmp)-dataset(pass-bottle)-numprim(9)-hold(1)/final-lines.txt","att_check":false},"trial_type":"html-keyboard-response","trial_index":42,"time_elapsed":333755,"internal_node_id":"0.0-8.0-3.8","subject":"nkgu0dp1am57bjw","sona":"7276"},{"rt":88,"stimulus":"<p>Bereit?</p>","key_press":32,"trial_type":"html-keyboard-response","trial_index":43,"time_elapsed":333846,"internal_node_id":"0.0-8.0-0.9","subject":"nkgu0dp1am57bjw","sona":"7276"},{"rt":null,"stimulus":"<div style=\"font-size:60px;\">+</div>","key_press":null,"trial_type":"html-keyboard-response","trial_index":44,"time_elapsed":335884,"internal_node_id":"0.0-8.0-1.9","subject":"nkgu0dp1am57bjw","sona":"7276"},{"trial_type":"turing-test","trial_index":45,"time_elapsed":342804,"internal_node_id":"0.0-8.0-2.9","subject":"nkgu0dp1am57bjw","sona":"7276"},{"rt":478,"stimulus":"<p>Welche Sequenz haben Sie als natürlicher empfunden?</p>","key_press":74,"test_part":"response","test_stimulus":{"position":1,"left":"bvh/vr_prediction_models/model(vcgpdm)-dataset(pass-bottle)-mode(ELBO)-parts(3)-dyn(25)-lvm(25)-hold(0)/final-lines.txt","right":"bvh/pass-bottle-training0-lines.txt","att_check":false},"trial_type":"html-keyboard-response","trial_index":46,"time_elapsed":343286,"internal_node_id":"0.0-8.0-3.9","subject":"nkgu0dp1am57bjw","sona":"7276"},{"rt":65,"stimulus":"<p>Bereit?</p>","key_press":32,"trial_type":"html-keyboard-response","trial_index":47,"time_elapsed":343355,"internal_node_id":"0.0-8.0-0.10","subject":"nkgu0dp1am57bjw","sona":"7276"},{"rt":null,"stimulus":"<div style=\"font-size:60px;\">+</div>","key_press":null,"trial_type":"html-keyboard-response","trial_index":48,"time_elapsed":345378,"internal_node_id":"0.0-8.0-1.10","subject":"nkgu0dp1am57bjw","sona":"7276"},{"trial_type":"turing-test","trial_index":49,"time_elapsed":351362,"internal_node_id":"0.0-8.0-2.10","subject":"nkgu0dp1am57bjw","sona":"7276"},{"rt":389,"stimulus":"<p>Welche Sequenz haben Sie als natürlicher empfunden?</p>","key_press":74,"test_part":"response","test_stimulus":{"position":0,"left":"bvh/return-bottle-training3-lines.txt","right":"bvh/vr_prediction_models/model(vcgpdm)-dataset(return-bottle)-mode(MAP)-parts(1)-hold(3)/final-lines.txt","att_check":false},"trial_type":"html-keyboard-response","trial_index":50,"time_elapsed":351755,"internal_node_id":"0.0-8.0-3.10","subject":"nkgu0dp1am57bjw","sona":"7276"},{"rt":111,"stimulus":"<p>Bereit?</p>","key_press":32,"trial_type":"html-keyboard-response","trial_index":51,"time_elapsed":351869,"internal_node_id":"0.0-8.0-0.11","subject":"nkgu0dp1am57bjw","sona":"7276"},{"rt":null,"stimulus":"<div style=\"font-size:60px;\">+</div>","key_press":null,"trial_type":"html-keyboard-response","trial_index":52,"time_elapsed":353904,"internal_node_id":"0.0-8.0-1.11","subject":"nkgu0dp1am57bjw","sona":"7276"},{"trial_type":"turing-test","trial_index":53,"time_elapsed":357360,"internal_node_id":"0.0-8.0-2.11","subject":"nkgu0dp1am57bjw","sona":"7276"}]