[{"rt":1152,"stimulus":"<p>Welcome!<br> Please choose your language to start the experiment in the chosen language.</p><p>Willkommen!<br> Bitte wählen Sie eine Sprache, um das Experiment in der ausgewählten Sprache zu starten</p>","button_pressed":"1","trial_type":"html-button-response","trial_index":0,"time_elapsed":1211,"internal_node_id":"0.0-0.0","subject":"k4mbl54zy8eax1w","sona":"THNS"},{"view_history":"[{\"page_index\":0,\"viewing_time\":408},{\"page_index\":1,\"viewing_time\":650},{\"page_index\":2,\"viewing_time\":344},{\"page_index\":3,\"viewing_time\":1212.0000000000005},{\"page_index\":4,\"viewing_time\":1178.9999999999995}]","rt":3793,"trial_type":"instructions","trial_index":1,"time_elapsed":5005,"internal_node_id":"0.0-1.0-0.0","subject":"k4mbl54zy8eax1w","sona":"THNS"},{"rt":815.0000000000009,"stimulus":"<p>Bereit?</p>","key_press":32,"trial_type":"html-keyboard-response","trial_index":2,"time_elapsed":5821,"internal_node_id":"0.0-3.0","subject":"k4mbl54zy8eax1w","sona":"THNS"},{"rt":null,"stimulus":"<div style=\"font-size:60px;\">+</div>","key_press":null,"trial_type":"html-keyboard-response","trial_index":3,"time_elapsed":7824,"internal_node_id":"0.0-4.0","subject":"k4mbl54zy8eax1w","sona":"THNS"},{"trial_type":"training","trial_index":4,"time_elapsed":11202,"internal_node_id":"0.0-5.0","subject":"k4mbl54zy8eax1w","sona":"THNS"},{"rt":399.9999999999982,"stimulus":"<p>Welche Sequenz haben Sie als natürlicher empfunden?</p>","key_press":70,"trial_type":"html-keyboard-response","trial_index":5,"time_elapsed":11603,"internal_node_id":"0.0-6.0","subject":"k4mbl54zy8eax1w","sona":"THNS"},{"rt":10778,"stimulus":"<p>Das Experiment startet nun.</p><p><small>Bitte drücken Sie den Knopf, wenn Sie bereit sind.</small></p>","button_pressed":"0","trial_type":"html-button-response","trial_index":6,"time_elapsed":22382,"internal_node_id":"0.0-7.0","subject":"k4mbl54zy8eax1w","sona":"THNS"},{"rt":660,"stimulus":"<p>Bereit?</p>","key_press":32,"trial_type":"html-keyboard-response","trial_index":7,"time_elapsed":23042,"internal_node_id":"0.0-8.0-0.0","subject":"k4mbl54zy8eax1w","sona":"THNS"},{"rt":null,"stimulus":"<div style=\"font-size:60px;\">+</div>","key_press":null,"trial_type":"html-keyboard-response","trial_index":8,"time_elapsed":25046,"internal_node_id":"0.0-8.0-1.0","subject":"k4mbl54zy8eax1w","sona":"THNS"},{"trial_type":"turing-test","trial_index":9,"time_elapsed":28794,"internal_node_id":"0.0-8.0-2.0","subject":"k4mbl54zy8eax1w","sona":"THNS"},{"rt":388,"stimulus":"<p>Welche Sequenz haben Sie als natürlicher empfunden?</p>","key_press":74,"test_part":"response","test_stimulus":{"position":1,"left":"bvh/vr_prediction_models/model(vcgpdm)-dataset(return-bottle-hold)-mode(ELBO)-parts(3)-dyn(30)-lvm(15)-hold(4)/final-lines.txt","right":"bvh/return-bottle-hold-training4-lines.txt","att_check":false},"trial_type":"html-keyboard-response","trial_index":10,"time_elapsed":29186,"internal_node_id":"0.0-8.0-3.0","subject":"k4mbl54zy8eax1w","sona":"THNS"},{"rt":525,"stimulus":"<p>Bereit?</p>","key_press":32,"trial_type":"html-keyboard-response","trial_index":11,"time_elapsed":29714,"internal_node_id":"0.0-8.0-0.1","subject":"k4mbl54zy8eax1w","sona":"THNS"},{"rt":null,"stimulus":"<div style=\"font-size:60px;\">+</div>","key_press":null,"trial_type":"html-keyboard-response","trial_index":12,"time_elapsed":31717,"internal_node_id":"0.0-8.0-1.1","subject":"k4mbl54zy8eax1w","sona":"THNS"},{"trial_type":"turing-test","trial_index":13,"time_elapsed":37279,"internal_node_id":"0.0-8.0-2.1","subject":"k4mbl54zy8eax1w","sona":"THNS"},{"rt":420,"stimulus":"<p>Welche Sequenz haben Sie als natürlicher empfunden?</p>","key_press":70,"test_part":"response","test_stimulus":{"position":0,"left":"bvh/pass-bottle-training1-lines.txt","right":"bvh/vr_prediction_models/model(vcgpdm)-dataset(pass-bottle)-mode(ELBO)-parts(3)-dyn(10)-lvm(25)-hold(1)/final-lines.txt","att_check":false},"trial_type":"html-keyboard-response","trial_index":14,"time_elapsed":37702,"internal_node_id":"0.0-8.0-3.1","subject":"k4mbl54zy8eax1w","sona":"THNS"}]