[{"rt":113142.17500000086,"stimulus":"<p>Welcome!<br> Please choose your language to start the experiment in the chosen language.</p><p>Willkommen!<br> Bitte wählen Sie eine Sprache, um das Experiment in der ausgewählten Sprache zu starten</p>","button_pressed":"1","trial_type":"html-button-response","trial_index":0,"time_elapsed":113148,"internal_node_id":"0.0-0.0","subject":"obyd7c5717crd7t","sona":"5203"},{"view_history":"[{\"page_index\":0,\"viewing_time\":528.2399999996414},{\"page_index\":1,\"viewing_time\":977.5900000022375},{\"page_index\":2,\"viewing_time\":703.7800000034622},{\"page_index\":3,\"viewing_time\":1001.9049999973504},{\"page_index\":4,\"viewing_time\":793.5450000004494}]","rt":4006.0950000042794,"trial_type":"instructions","trial_index":1,"time_elapsed":117156,"internal_node_id":"0.0-1.0-0.0","subject":"obyd7c5717crd7t","sona":"5203"},{"rt":1930.1500000001397,"stimulus":"<p>Bereit?</p>","key_press":32,"trial_type":"html-keyboard-response","trial_index":2,"time_elapsed":119088,"internal_node_id":"0.0-3.0","subject":"obyd7c5717crd7t","sona":"5203"},{"rt":null,"stimulus":"<div style=\"font-size:60px;\">+</div>","key_press":null,"trial_type":"html-keyboard-response","trial_index":3,"time_elapsed":121090,"internal_node_id":"0.0-4.0","subject":"obyd7c5717crd7t","sona":"5203"},{"trial_type":"training","trial_index":4,"time_elapsed":124304,"internal_node_id":"0.0-5.0","subject":"obyd7c5717crd7t","sona":"5203"},{"rt":978.6050000038813,"stimulus":"<p>Welche Sequenz haben Sie als natürlicher empfunden?</p>","key_press":70,"trial_type":"html-keyboard-response","trial_index":5,"time_elapsed":125284,"internal_node_id":"0.0-6.0","subject":"obyd7c5717crd7t","sona":"5203"},{"rt":2308.9449999970384,"stimulus":"<p>Das Experiment startet nun.</p><p><small>Bitte drücken Sie den Knopf, wenn Sie bereit sind.</small></p>","button_pressed":"0","trial_type":"html-button-response","trial_index":6,"time_elapsed":127595,"internal_node_id":"0.0-7.0","subject":"obyd7c5717crd7t","sona":"5203"},{"rt":1473.6449999982142,"stimulus":"<p>Bereit?</p>","key_press":32,"trial_type":"html-keyboard-response","trial_index":7,"time_elapsed":129070,"internal_node_id":"0.0-8.0-0.0","subject":"obyd7c5717crd7t","sona":"5203"},{"rt":null,"stimulus":"<div style=\"font-size:60px;\">+</div>","key_press":null,"trial_type":"html-keyboard-response","trial_index":8,"time_elapsed":131072,"internal_node_id":"0.0-8.0-1.0","subject":"obyd7c5717crd7t","sona":"5203"},{"trial_type":"turing-test","trial_index":9,"time_elapsed":135671,"internal_node_id":"0.0-8.0-2.0","subject":"obyd7c5717crd7t","sona":"5203"},{"rt":1120.425000000978,"stimulus":"<p>Welche Sequenz haben Sie als natürlicher empfunden?</p>","key_press":70,"test_part":"response","test_stimulus":{"position":1,"left":"bvh/vr_prediction_models/model(dmp)-dataset(pass-bottle-hold)-npsi(90)-hold(0)/final-lines.txt","right":"bvh/pass-bottle-hold-training0-lines.txt","att_check":false},"trial_type":"html-keyboard-response","trial_index":10,"time_elapsed":136794,"internal_node_id":"0.0-8.0-3.0","subject":"obyd7c5717crd7t","sona":"5203"},{"rt":2689.924999998766,"stimulus":"<p>Bereit?</p>","key_press":32,"trial_type":"html-keyboard-response","trial_index":11,"time_elapsed":139485,"internal_node_id":"0.0-8.0-0.1","subject":"obyd7c5717crd7t","sona":"5203"},{"rt":null,"stimulus":"<div style=\"font-size:60px;\">+</div>","key_press":null,"trial_type":"html-keyboard-response","trial_index":12,"time_elapsed":141487,"internal_node_id":"0.0-8.0-1.1","subject":"obyd7c5717crd7t","sona":"5203"},{"trial_type":"turing-test","trial_index":13,"time_elapsed":148621,"internal_node_id":"0.0-8.0-2.1","subject":"obyd7c5717crd7t","sona":"5203"},{"rt":372.8049999990617,"stimulus":"<p>Welche Sequenz haben Sie als natürlicher empfunden?</p>","key_press":70,"test_part":"response","test_stimulus":{"position":1,"left":"bvh/vr_prediction_models/model(tmp)-dataset(return-bottle)-numprim(6)-hold(3)/final-lines.txt","right":"bvh/return-bottle-training3-lines.txt","att_check":false},"trial_type":"html-keyboard-response","trial_index":14,"time_elapsed":148997,"internal_node_id":"0.0-8.0-3.1","subject":"obyd7c5717crd7t","sona":"5203"},{"rt":1441.274999997404,"stimulus":"<p>Bereit?</p>","key_press":32,"trial_type":"html-keyboard-response","trial_index":15,"time_elapsed":150439,"internal_node_id":"0.0-8.0-0.2","subject":"obyd7c5717crd7t","sona":"5203"},{"rt":null,"stimulus":"<div style=\"font-size:60px;\">+</div>","key_press":null,"trial_type":"html-keyboard-response","trial_index":16,"time_elapsed":152441,"internal_node_id":"0.0-8.0-1.2","subject":"obyd7c5717crd7t","sona":"5203"},{"trial_type":"turing-test","trial_index":17,"time_elapsed":173393,"internal_node_id":"0.0-8.0-2.2","subject":"obyd7c5717crd7t","sona":"5203"},{"rt":1530.6700000001001,"stimulus":"<p>Welche Sequenz haben Sie als natürlicher empfunden?</p>","key_press":74,"test_part":"response","test_stimulus":{"position":1,"left":"bvh/vr_prediction_models/model(vcgpdm)-dataset(return-bottle)-mode(ELBO)-parts(1)-dyn(20)-lvm(20)-hold(1)/final-lines.txt","right":"bvh/return-bottle-training1-lines.txt","att_check":false},"trial_type":"html-keyboard-response","trial_index":18,"time_elapsed":174926,"internal_node_id":"0.0-8.0-3.2","subject":"obyd7c5717crd7t","sona":"5203"},{"rt":825.3100000001723,"stimulus":"<p>Bereit?</p>","key_press":32,"trial_type":"html-keyboard-response","trial_index":19,"time_elapsed":175753,"internal_node_id":"0.0-8.0-0.3","subject":"obyd7c5717crd7t","sona":"5203"},{"rt":null,"stimulus":"<div style=\"font-size:60px;\">+</div>","key_press":null,"trial_type":"html-keyboard-response","trial_index":20,"time_elapsed":177754,"internal_node_id":"0.0-8.0-1.3","subject":"obyd7c5717crd7t","sona":"5203"},{"trial_type":"turing-test","trial_index":21,"time_elapsed":192545,"internal_node_id":"0.0-8.0-2.3","subject":"obyd7c5717crd7t","sona":"5203"}]