[{"rt":3995.8650000044145,"stimulus":"<p>Welcome!<br> Please choose your language to start the experiment in the chosen language.</p><p>Willkommen!<br> Bitte wählen Sie eine Sprache, um das Experiment in der ausgewählten Sprache zu starten</p>","button_pressed":"1","trial_type":"html-button-response","trial_index":0,"time_elapsed":4055,"internal_node_id":"0.0-0.0","subject":"0uje13pfsw6hdsu","sona":"9580"},{"view_history":"[{\"page_index\":0,\"viewing_time\":7818.375000002561},{\"page_index\":1,\"viewing_time\":5008.10000000638},{\"page_index\":2,\"viewing_time\":8223.789999989094},{\"page_index\":3,\"viewing_time\":6266.405000002123},{\"page_index\":4,\"viewing_time\":4446.159999992233}]","rt":31764.32499999646,"trial_type":"instructions","trial_index":1,"time_elapsed":35820,"internal_node_id":"0.0-1.0-0.0","subject":"0uje13pfsw6hdsu","sona":"9580"},{"rt":3290.2150000154506,"stimulus":"<p>Bereit?</p>","key_press":32,"trial_type":"html-keyboard-response","trial_index":2,"time_elapsed":39114,"internal_node_id":"0.0-3.0","subject":"0uje13pfsw6hdsu","sona":"9580"},{"rt":null,"stimulus":"<div style=\"font-size:60px;\">+</div>","key_press":null,"trial_type":"html-keyboard-response","trial_index":3,"time_elapsed":41136,"internal_node_id":"0.0-4.0","subject":"0uje13pfsw6hdsu","sona":"9580"},{"trial_type":"training","trial_index":4,"time_elapsed":44559,"internal_node_id":"0.0-5.0","subject":"0uje13pfsw6hdsu","sona":"9580"},{"rt":4879.025000002002,"stimulus":"<p>Welche Sequenz haben Sie als natürlicher empfunden?</p>","key_press":70,"trial_type":"html-keyboard-response","trial_index":5,"time_elapsed":49440,"internal_node_id":"0.0-6.0","subject":"0uje13pfsw6hdsu","sona":"9580"},{"rt":3051.824999973178,"stimulus":"<p>Das Experiment startet nun.</p><p><small>Bitte drücken Sie den Knopf, wenn Sie bereit sind.</small></p>","button_pressed":"0","trial_type":"html-button-response","trial_index":6,"time_elapsed":52494,"internal_node_id":"0.0-7.0","subject":"0uje13pfsw6hdsu","sona":"9580"},{"rt":2451.344999979483,"stimulus":"<p>Bereit?</p>","key_press":32,"trial_type":"html-keyboard-response","trial_index":7,"time_elapsed":54947,"internal_node_id":"0.0-8.0-0.0","subject":"0uje13pfsw6hdsu","sona":"9580"},{"rt":null,"stimulus":"<div style=\"font-size:60px;\">+</div>","key_press":null,"trial_type":"html-keyboard-response","trial_index":8,"time_elapsed":56968,"internal_node_id":"0.0-8.0-1.0","subject":"0uje13pfsw6hdsu","sona":"9580"},{"trial_type":"turing-test","trial_index":9,"time_elapsed":62512,"internal_node_id":"0.0-8.0-2.0","subject":"0uje13pfsw6hdsu","sona":"9580"},{"rt":2715.7249999872874,"stimulus":"<p>Welche Sequenz haben Sie als natürlicher empfunden?</p>","key_press":74,"test_part":"response","test_stimulus":{"position":1,"left":"bvh/vr_prediction_models/model(vcgpdm)-dataset(return-bottle)-mode(ELBO)-parts(1)-dyn(30)-lvm(35)-hold(0)/final-lines.txt","right":"bvh/return-bottle-training0-lines.txt","att_check":false},"trial_type":"html-keyboard-response","trial_index":10,"time_elapsed":65233,"internal_node_id":"0.0-8.0-3.0","subject":"0uje13pfsw6hdsu","sona":"9580"},{"rt":2022.8200000128709,"stimulus":"<p>Bereit?</p>","key_press":32,"trial_type":"html-keyboard-response","trial_index":11,"time_elapsed":67260,"internal_node_id":"0.0-8.0-0.1","subject":"0uje13pfsw6hdsu","sona":"9580"},{"rt":null,"stimulus":"<div style=\"font-size:60px;\">+</div>","key_press":null,"trial_type":"html-keyboard-response","trial_index":12,"time_elapsed":69279,"internal_node_id":"0.0-8.0-1.1","subject":"0uje13pfsw6hdsu","sona":"9580"},{"trial_type":"turing-test","trial_index":13,"time_elapsed":75225,"internal_node_id":"0.0-8.0-2.1","subject":"0uje13pfsw6hdsu","sona":"9580"},{"rt":1648.830000020098,"stimulus":"<p>Welche Sequenz haben Sie als natürlicher empfunden?</p>","key_press":70,"test_part":"response","test_stimulus":{"position":1,"left":"bvh/vr_prediction_models/model(vcgpdm)-dataset(return-bottle)-mode(ELBO)-parts(1)-dyn(30)-lvm(30)-hold(4)/final-lines.txt","right":"bvh/return-bottle-training4-lines.txt","att_check":false},"trial_type":"html-keyboard-response","trial_index":14,"time_elapsed":76880,"internal_node_id":"0.0-8.0-3.1","subject":"0uje13pfsw6hdsu","sona":"9580"},{"rt":1031.5999999875203,"stimulus":"<p>Bereit?</p>","key_press":32,"trial_type":"html-keyboard-response","trial_index":15,"time_elapsed":77915,"internal_node_id":"0.0-8.0-0.2","subject":"0uje13pfsw6hdsu","sona":"9580"},{"rt":null,"stimulus":"<div style=\"font-size:60px;\">+</div>","key_press":null,"trial_type":"html-keyboard-response","trial_index":16,"time_elapsed":79925,"internal_node_id":"0.0-8.0-1.2","subject":"0uje13pfsw6hdsu","sona":"9580"},{"trial_type":"turing-test","trial_index":17,"time_elapsed":85719,"internal_node_id":"0.0-8.0-2.2","subject":"0uje13pfsw6hdsu","sona":"9580"},{"rt":1859.8150000034366,"stimulus":"<p>Welche Sequenz haben Sie als natürlicher empfunden?</p>","key_press":70,"test_part":"response","test_stimulus":{"position":0,"left":"bvh/return-bottle-training4-lines.txt","right":"bvh/vr_prediction_models/model(vcgpdm)-dataset(return-bottle)-mode(ELBO)-parts(3)-dyn(15)-lvm(30)-hold(4)/final-lines.txt","att_check":false},"trial_type":"html-keyboard-response","trial_index":18,"time_elapsed":87585,"internal_node_id":"0.0-8.0-3.2","subject":"0uje13pfsw6hdsu","sona":"9580"},{"rt":616.714999981923,"stimulus":"<p>Bereit?</p>","key_press":32,"trial_type":"html-keyboard-response","trial_index":19,"time_elapsed":88206,"internal_node_id":"0.0-8.0-0.3","subject":"0uje13pfsw6hdsu","sona":"9580"},{"rt":null,"stimulus":"<div style=\"font-size:60px;\">+</div>","key_press":null,"trial_type":"html-keyboard-response","trial_index":20,"time_elapsed":90234,"internal_node_id":"0.0-8.0-1.3","subject":"0uje13pfsw6hdsu","sona":"9580"},{"trial_type":"turing-test","trial_index":21,"time_elapsed":95716,"internal_node_id":"0.0-8.0-2.3","subject":"0uje13pfsw6hdsu","sona":"9580"},{"rt":992.0799999963492,"stimulus":"<p>Welche Sequenz haben Sie als natürlicher empfunden?</p>","key_press":74,"test_part":"response","test_stimulus":{"position":0,"left":"bvh/pass-bottle-training1-lines.txt","right":"bvh/vr_prediction_models/model(tmp)-dataset(pass-bottle)-numprim(10)-hold(1)/final-lines.txt","att_check":false},"trial_type":"html-keyboard-response","trial_index":22,"time_elapsed":96714,"internal_node_id":"0.0-8.0-3.3","subject":"0uje13pfsw6hdsu","sona":"9580"},{"rt":861.6150000016205,"stimulus":"<p>Bereit?</p>","key_press":32,"trial_type":"html-keyboard-response","trial_index":23,"time_elapsed":97579,"internal_node_id":"0.0-8.0-0.4","subject":"0uje13pfsw6hdsu","sona":"9580"},{"rt":null,"stimulus":"<div style=\"font-size:60px;\">+</div>","key_press":null,"trial_type":"html-keyboard-response","trial_index":24,"time_elapsed":99601,"internal_node_id":"0.0-8.0-1.4","subject":"0uje13pfsw6hdsu","sona":"9580"},{"trial_type":"turing-test","trial_index":25,"time_elapsed":106372,"internal_node_id":"0.0-8.0-2.4","subject":"0uje13pfsw6hdsu","sona":"9580"},{"rt":1518.0150000087451,"stimulus":"<p>Welche Sequenz haben Sie als natürlicher empfunden?</p>","key_press":70,"test_part":"response","test_stimulus":{"position":0,"left":"bvh/pass-bottle-training0-lines.txt","right":"bvh/vr_prediction_models/model(tmp)-dataset(pass-bottle)-numprim(11)-hold(0)/final-lines.txt","att_check":false},"trial_type":"html-keyboard-response","trial_index":26,"time_elapsed":107894,"internal_node_id":"0.0-8.0-3.4","subject":"0uje13pfsw6hdsu","sona":"9580"},{"rt":736.9550000003073,"stimulus":"<p>Bereit?</p>","key_press":32,"trial_type":"html-keyboard-response","trial_index":27,"time_elapsed":108635,"internal_node_id":"0.0-8.0-0.5","subject":"0uje13pfsw6hdsu","sona":"9580"},{"rt":null,"stimulus":"<div style=\"font-size:60px;\">+</div>","key_press":null,"trial_type":"html-keyboard-response","trial_index":28,"time_elapsed":110654,"internal_node_id":"0.0-8.0-1.5","subject":"0uje13pfsw6hdsu","sona":"9580"},{"trial_type":"turing-test","trial_index":29,"time_elapsed":116553,"internal_node_id":"0.0-8.0-2.5","subject":"0uje13pfsw6hdsu","sona":"9580"},{"rt":742.9600000032224,"stimulus":"<p>Welche Sequenz haben Sie als natürlicher empfunden?</p>","key_press":74,"test_part":"response","test_stimulus":{"position":1,"left":"bvh/vr_prediction_models/model(vcgpdm)-dataset(return-bottle)-mode(ELBO)-parts(3)-dyn(25)-lvm(15)-hold(4)/final-lines.txt","right":"bvh/return-bottle-training4-lines.txt","att_check":false},"trial_type":"html-keyboard-response","trial_index":30,"time_elapsed":117302,"internal_node_id":"0.0-8.0-3.5","subject":"0uje13pfsw6hdsu","sona":"9580"},{"rt":591.5149999782443,"stimulus":"<p>Bereit?</p>","key_press":32,"trial_type":"html-keyboard-response","trial_index":31,"time_elapsed":117898,"internal_node_id":"0.0-8.0-0.6","subject":"0uje13pfsw6hdsu","sona":"9580"},{"rt":null,"stimulus":"<div style=\"font-size:60px;\">+</div>","key_press":null,"trial_type":"html-keyboard-response","trial_index":32,"time_elapsed":119906,"internal_node_id":"0.0-8.0-1.6","subject":"0uje13pfsw6hdsu","sona":"9580"},{"trial_type":"turing-test","trial_index":33,"time_elapsed":125460,"internal_node_id":"0.0-8.0-2.6","subject":"0uje13pfsw6hdsu","sona":"9580"},{"rt":237.38499998580664,"stimulus":"<p>Welche Sequenz haben Sie als natürlicher empfunden?</p>","key_press":70,"test_part":"response","test_stimulus":{"position":1,"left":"bvh/vr_prediction_models/model(vcgpdm)-dataset(pass-bottle)-mode(ELBO)-parts(1)-dyn(35)-lvm(10)-hold(1)/final-lines.txt","right":"bvh/pass-bottle-training1-lines.txt","att_check":false},"trial_type":"html-keyboard-response","trial_index":34,"time_elapsed":125703,"internal_node_id":"0.0-8.0-3.6","subject":"0uje13pfsw6hdsu","sona":"9580"},{"rt":1078.910000011092,"stimulus":"<p>Bereit?</p>","key_press":32,"trial_type":"html-keyboard-response","trial_index":35,"time_elapsed":126785,"internal_node_id":"0.0-8.0-0.7","subject":"0uje13pfsw6hdsu","sona":"9580"},{"rt":null,"stimulus":"<div style=\"font-size:60px;\">+</div>","key_press":null,"trial_type":"html-keyboard-response","trial_index":36,"time_elapsed":128804,"internal_node_id":"0.0-8.0-1.7","subject":"0uje13pfsw6hdsu","sona":"9580"},{"trial_type":"turing-test","trial_index":37,"time_elapsed":132538,"internal_node_id":"0.0-8.0-2.7","subject":"0uje13pfsw6hdsu","sona":"9580"},{"rt":1723.679999995511,"stimulus":"<p>Welche Sequenz haben Sie als natürlicher empfunden?</p>","key_press":74,"test_part":"response","test_stimulus":{"position":1,"left":"bvh/vr_prediction_models/model(vcgpdm)-dataset(pass-bottle-hold)-mode(ELBO)-parts(1)-dyn(10)-lvm(25)-hold(4)/final-lines.txt","right":"bvh/pass-bottle-hold-training4-lines.txt","att_check":false},"trial_type":"html-keyboard-response","trial_index":38,"time_elapsed":134266,"internal_node_id":"0.0-8.0-3.7","subject":"0uje13pfsw6hdsu","sona":"9580"},{"rt":791.4049999963026,"stimulus":"<p>Bereit?</p>","key_press":32,"trial_type":"html-keyboard-response","trial_index":39,"time_elapsed":135062,"internal_node_id":"0.0-8.0-0.8","subject":"0uje13pfsw6hdsu","sona":"9580"},{"rt":null,"stimulus":"<div style=\"font-size:60px;\">+</div>","key_press":null,"trial_type":"html-keyboard-response","trial_index":40,"time_elapsed":137080,"internal_node_id":"0.0-8.0-1.8","subject":"0uje13pfsw6hdsu","sona":"9580"},{"trial_type":"turing-test","trial_index":41,"time_elapsed":140790,"internal_node_id":"0.0-8.0-2.8","subject":"0uje13pfsw6hdsu","sona":"9580"},{"rt":600.7950000057463,"stimulus":"<p>Welche Sequenz haben Sie als natürlicher empfunden?</p>","key_press":74,"test_part":"response","test_stimulus":{"position":1,"left":"bvh/vr_prediction_models/model(vcgpdm)-dataset(pass-bottle-hold)-mode(ELBO)-parts(1)-dyn(10)-lvm(25)-hold(3)/final-lines.txt","right":"bvh/pass-bottle-hold-training3-lines.txt","att_check":false},"trial_type":"html-keyboard-response","trial_index":42,"time_elapsed":141397,"internal_node_id":"0.0-8.0-3.8","subject":"0uje13pfsw6hdsu","sona":"9580"},{"rt":731.5100000123493,"stimulus":"<p>Bereit?</p>","key_press":32,"trial_type":"html-keyboard-response","trial_index":43,"time_elapsed":142133,"internal_node_id":"0.0-8.0-0.9","subject":"0uje13pfsw6hdsu","sona":"9580"},{"rt":null,"stimulus":"<div style=\"font-size:60px;\">+</div>","key_press":null,"trial_type":"html-keyboard-response","trial_index":44,"time_elapsed":144138,"internal_node_id":"0.0-8.0-1.9","subject":"0uje13pfsw6hdsu","sona":"9580"},{"trial_type":"turing-test","trial_index":45,"time_elapsed":150251,"internal_node_id":"0.0-8.0-2.9","subject":"0uje13pfsw6hdsu","sona":"9580"},{"rt":735.7349999947473,"stimulus":"<p>Welche Sequenz haben Sie als natürlicher empfunden?</p>","key_press":74,"test_part":"response","test_stimulus":{"position":1,"left":"bvh/vr_prediction_models/model(dmp)-dataset(return-bottle)-npsi(20)-hold(1)/final-lines.txt","right":"bvh/return-bottle-training1-lines.txt","att_check":false},"trial_type":"html-keyboard-response","trial_index":46,"time_elapsed":150991,"internal_node_id":"0.0-8.0-3.9","subject":"0uje13pfsw6hdsu","sona":"9580"},{"rt":1392.679999989923,"stimulus":"<p>Bereit?</p>","key_press":32,"trial_type":"html-keyboard-response","trial_index":47,"time_elapsed":152387,"internal_node_id":"0.0-8.0-0.10","subject":"0uje13pfsw6hdsu","sona":"9580"},{"rt":null,"stimulus":"<div style=\"font-size:60px;\">+</div>","key_press":null,"trial_type":"html-keyboard-response","trial_index":48,"time_elapsed":154414,"internal_node_id":"0.0-8.0-1.10","subject":"0uje13pfsw6hdsu","sona":"9580"},{"trial_type":"turing-test","trial_index":49,"time_elapsed":160198,"internal_node_id":"0.0-8.0-2.10","subject":"0uje13pfsw6hdsu","sona":"9580"},{"rt":1782.9749999800697,"stimulus":"<p>Welche Sequenz haben Sie als natürlicher empfunden?</p>","key_press":74,"test_part":"response","test_stimulus":{"position":1,"left":"bvh/vr_prediction_models/model(tmp)-dataset(return-bottle)-numprim(9)-hold(3)/final-lines.txt","right":"bvh/return-bottle-training3-lines.txt","att_check":false},"trial_type":"html-keyboard-response","trial_index":50,"time_elapsed":161986,"internal_node_id":"0.0-8.0-3.10","subject":"0uje13pfsw6hdsu","sona":"9580"},{"rt":1683.1850000016857,"stimulus":"<p>Bereit?</p>","key_press":32,"trial_type":"html-keyboard-response","trial_index":51,"time_elapsed":163673,"internal_node_id":"0.0-8.0-0.11","subject":"0uje13pfsw6hdsu","sona":"9580"},{"rt":null,"stimulus":"<div style=\"font-size:60px;\">+</div>","key_press":null,"trial_type":"html-keyboard-response","trial_index":52,"time_elapsed":165691,"internal_node_id":"0.0-8.0-1.11","subject":"0uje13pfsw6hdsu","sona":"9580"}]