[{"rt":2732.0049999998446,"stimulus":"<p>Welcome!<br> Please choose your language to start the experiment in the chosen language.</p><p>Willkommen!<br> Bitte wählen Sie eine Sprache, um das Experiment in der ausgewählten Sprache zu starten</p>","button_pressed":"1","trial_type":"html-button-response","trial_index":0,"time_elapsed":2953,"internal_node_id":"0.0-0.0","subject":"cdjjpz0thacerve","sona":"7504"},{"view_history":"[{\"page_index\":0,\"viewing_time\":5734.370000000126},{\"page_index\":1,\"viewing_time\":3102.614999999787},{\"page_index\":2,\"viewing_time\":3487.5800000008894},{\"page_index\":3,\"viewing_time\":4006.424999999581},{\"page_index\":4,\"viewing_time\":2082.345000000714}]","rt":18414.904999999635,"trial_type":"instructions","trial_index":1,"time_elapsed":21369,"internal_node_id":"0.0-1.0-0.0","subject":"cdjjpz0thacerve","sona":"7504"},{"rt":1427.6300000001356,"stimulus":"<p>Bereit?</p>","key_press":32,"trial_type":"html-keyboard-response","trial_index":2,"time_elapsed":22798,"internal_node_id":"0.0-3.0","subject":"cdjjpz0thacerve","sona":"7504"},{"rt":null,"stimulus":"<div style=\"font-size:60px;\">+</div>","key_press":null,"trial_type":"html-keyboard-response","trial_index":3,"time_elapsed":24802,"internal_node_id":"0.0-4.0","subject":"cdjjpz0thacerve","sona":"7504"},{"trial_type":"training","trial_index":4,"time_elapsed":28795,"internal_node_id":"0.0-5.0","subject":"cdjjpz0thacerve","sona":"7504"},{"rt":1144.3600000002334,"stimulus":"<p>Welche Sequenz haben Sie als natürlicher empfunden?</p>","key_press":70,"trial_type":"html-keyboard-response","trial_index":5,"time_elapsed":29941,"internal_node_id":"0.0-6.0","subject":"cdjjpz0thacerve","sona":"7504"},{"rt":1905.2649999994173,"stimulus":"<p>Das Experiment startet nun.</p><p><small>Bitte drücken Sie den Knopf, wenn Sie bereit sind.</small></p>","button_pressed":"0","trial_type":"html-button-response","trial_index":6,"time_elapsed":31848,"internal_node_id":"0.0-7.0","subject":"cdjjpz0thacerve","sona":"7504"},{"rt":1244.2150000006222,"stimulus":"<p>Bereit?</p>","key_press":32,"trial_type":"html-keyboard-response","trial_index":7,"time_elapsed":33094,"internal_node_id":"0.0-8.0-0.0","subject":"cdjjpz0thacerve","sona":"7504"},{"rt":null,"stimulus":"<div style=\"font-size:60px;\">+</div>","key_press":null,"trial_type":"html-keyboard-response","trial_index":8,"time_elapsed":35101,"internal_node_id":"0.0-8.0-1.0","subject":"cdjjpz0thacerve","sona":"7504"},{"trial_type":"turing-test","trial_index":9,"time_elapsed":40911,"internal_node_id":"0.0-8.0-2.0","subject":"cdjjpz0thacerve","sona":"7504"},{"rt":2461.1949999998615,"stimulus":"<p>Welche Sequenz haben Sie als natürlicher empfunden?</p>","key_press":70,"test_part":"response","test_stimulus":{"position":0,"left":"bvh/return-bottle-training3-lines.txt","right":"bvh/vr_prediction_models/model(tmp)-dataset(return-bottle)-numprim(8)-hold(3)/final-lines.txt","att_check":false},"trial_type":"html-keyboard-response","trial_index":10,"time_elapsed":43376,"internal_node_id":"0.0-8.0-3.0","subject":"cdjjpz0thacerve","sona":"7504"},{"rt":508.47000000067055,"stimulus":"<p>Bereit?</p>","key_press":32,"trial_type":"html-keyboard-response","trial_index":11,"time_elapsed":43887,"internal_node_id":"0.0-8.0-0.1","subject":"cdjjpz0thacerve","sona":"7504"},{"rt":null,"stimulus":"<div style=\"font-size:60px;\">+</div>","key_press":null,"trial_type":"html-keyboard-response","trial_index":12,"time_elapsed":45891,"internal_node_id":"0.0-8.0-1.1","subject":"cdjjpz0thacerve","sona":"7504"},{"trial_type":"turing-test","trial_index":13,"time_elapsed":49966,"internal_node_id":"0.0-8.0-2.1","subject":"cdjjpz0thacerve","sona":"7504"},{"rt":1755.52499999867,"stimulus":"<p>Welche Sequenz haben Sie als natürlicher empfunden?</p>","key_press":74,"test_part":"response","test_stimulus":{"position":1,"left":"bvh/vr_prediction_models/model(vcgpdm)-dataset(return-bottle-hold)-mode(ELBO)-parts(1)-dyn(25)-lvm(35)-hold(4)/final-lines.txt","right":"bvh/return-bottle-hold-training4-lines.txt","att_check":false},"trial_type":"html-keyboard-response","trial_index":14,"time_elapsed":51725,"internal_node_id":"0.0-8.0-3.1","subject":"cdjjpz0thacerve","sona":"7504"},{"rt":590.0600000004488,"stimulus":"<p>Bereit?</p>","key_press":32,"trial_type":"html-keyboard-response","trial_index":15,"time_elapsed":52317,"internal_node_id":"0.0-8.0-0.2","subject":"cdjjpz0thacerve","sona":"7504"},{"rt":null,"stimulus":"<div style=\"font-size:60px;\">+</div>","key_press":null,"trial_type":"html-keyboard-response","trial_index":16,"time_elapsed":54326,"internal_node_id":"0.0-8.0-1.2","subject":"cdjjpz0thacerve","sona":"7504"},{"trial_type":"turing-test","trial_index":17,"time_elapsed":59898,"internal_node_id":"0.0-8.0-2.2","subject":"cdjjpz0thacerve","sona":"7504"},{"rt":582.8349999992497,"stimulus":"<p>Welche Sequenz haben Sie als natürlicher empfunden?</p>","key_press":74,"test_part":"response","test_stimulus":{"position":0,"left":"bvh/pass-bottle-training1-lines.txt","right":"bvh/vr_prediction_models/model(vcgpdm)-dataset(pass-bottle)-mode(MAP)-parts(1)-hold(1)/final-lines.txt","att_check":false},"trial_type":"html-keyboard-response","trial_index":18,"time_elapsed":60484,"internal_node_id":"0.0-8.0-3.2","subject":"cdjjpz0thacerve","sona":"7504"},{"rt":477.9049999997369,"stimulus":"<p>Bereit?</p>","key_press":32,"trial_type":"html-keyboard-response","trial_index":19,"time_elapsed":60964,"internal_node_id":"0.0-8.0-0.3","subject":"cdjjpz0thacerve","sona":"7504"},{"rt":null,"stimulus":"<div style=\"font-size:60px;\">+</div>","key_press":null,"trial_type":"html-keyboard-response","trial_index":20,"time_elapsed":62969,"internal_node_id":"0.0-8.0-1.3","subject":"cdjjpz0thacerve","sona":"7504"},{"trial_type":"turing-test","trial_index":21,"time_elapsed":68742,"internal_node_id":"0.0-8.0-2.3","subject":"cdjjpz0thacerve","sona":"7504"},{"rt":1573.9799999992101,"stimulus":"<p>Welche Sequenz haben Sie als natürlicher empfunden?</p>","key_press":74,"test_part":"response","test_stimulus":{"position":1,"left":"bvh/vr_prediction_models/model(vcgpdm)-dataset(return-bottle)-mode(ELBO)-parts(3)-dyn(30)-lvm(15)-hold(0)/final-lines.txt","right":"bvh/return-bottle-training0-lines.txt","att_check":false},"trial_type":"html-keyboard-response","trial_index":22,"time_elapsed":70321,"internal_node_id":"0.0-8.0-3.3","subject":"cdjjpz0thacerve","sona":"7504"},{"rt":342.32999999949243,"stimulus":"<p>Bereit?</p>","key_press":32,"trial_type":"html-keyboard-response","trial_index":23,"time_elapsed":70665,"internal_node_id":"0.0-8.0-0.4","subject":"cdjjpz0thacerve","sona":"7504"},{"rt":null,"stimulus":"<div style=\"font-size:60px;\">+</div>","key_press":null,"trial_type":"html-keyboard-response","trial_index":24,"time_elapsed":72674,"internal_node_id":"0.0-8.0-1.4","subject":"cdjjpz0thacerve","sona":"7504"},{"trial_type":"turing-test","trial_index":25,"time_elapsed":76319,"internal_node_id":"0.0-8.0-2.4","subject":"cdjjpz0thacerve","sona":"7504"},{"rt":1073.1749999995372,"stimulus":"<p>Welche Sequenz haben Sie als natürlicher empfunden?</p>","key_press":74,"test_part":"response","test_stimulus":{"position":1,"left":"bvh/vr_prediction_models/model(tmp)-dataset(pass-bottle-hold)-numprim(7)-hold(4)/final-lines.txt","right":"bvh/pass-bottle-hold-training4-lines.txt","att_check":false},"trial_type":"html-keyboard-response","trial_index":26,"time_elapsed":77396,"internal_node_id":"0.0-8.0-3.4","subject":"cdjjpz0thacerve","sona":"7504"},{"rt":301.74000000079104,"stimulus":"<p>Bereit?</p>","key_press":32,"trial_type":"html-keyboard-response","trial_index":27,"time_elapsed":77700,"internal_node_id":"0.0-8.0-0.5","subject":"cdjjpz0thacerve","sona":"7504"},{"rt":null,"stimulus":"<div style=\"font-size:60px;\">+</div>","key_press":null,"trial_type":"html-keyboard-response","trial_index":28,"time_elapsed":79709,"internal_node_id":"0.0-8.0-1.5","subject":"cdjjpz0thacerve","sona":"7504"},{"trial_type":"turing-test","trial_index":29,"time_elapsed":86320,"internal_node_id":"0.0-8.0-2.5","subject":"cdjjpz0thacerve","sona":"7504"},{"rt":1175.585000000865,"stimulus":"<p>Welche Sequenz haben Sie als natürlicher empfunden?</p>","key_press":74,"test_part":"response","test_stimulus":{"position":1,"left":"bvh/vr_prediction_models/model(dmp)-dataset(return-bottle)-npsi(70)-hold(2)/final-lines.txt","right":"bvh/return-bottle-training2-lines.txt","att_check":false},"trial_type":"html-keyboard-response","trial_index":30,"time_elapsed":87499,"internal_node_id":"0.0-8.0-3.5","subject":"cdjjpz0thacerve","sona":"7504"},{"rt":923.84999999922,"stimulus":"<p>Bereit?</p>","key_press":32,"trial_type":"html-keyboard-response","trial_index":31,"time_elapsed":88427,"internal_node_id":"0.0-8.0-0.6","subject":"cdjjpz0thacerve","sona":"7504"},{"rt":null,"stimulus":"<div style=\"font-size:60px;\">+</div>","key_press":null,"trial_type":"html-keyboard-response","trial_index":32,"time_elapsed":90434,"internal_node_id":"0.0-8.0-1.6","subject":"cdjjpz0thacerve","sona":"7504"},{"trial_type":"turing-test","trial_index":33,"time_elapsed":96838,"internal_node_id":"0.0-8.0-2.6","subject":"cdjjpz0thacerve","sona":"7504"},{"rt":1194.8149999989255,"stimulus":"<p>Welche Sequenz haben Sie als natürlicher empfunden?</p>","key_press":70,"test_part":"response","test_stimulus":{"position":1,"left":"bvh/vr_prediction_models/model(vcgpdm)-dataset(pass-bottle)-mode(ELBO)-parts(1)-dyn(10)-lvm(5)-hold(2)/final-lines.txt","right":"bvh/pass-bottle-training2-lines.txt","att_check":false},"trial_type":"html-keyboard-response","trial_index":34,"time_elapsed":98037,"internal_node_id":"0.0-8.0-3.6","subject":"cdjjpz0thacerve","sona":"7504"},{"rt":501.4950000004319,"stimulus":"<p>Bereit?</p>","key_press":32,"trial_type":"html-keyboard-response","trial_index":35,"time_elapsed":98541,"internal_node_id":"0.0-8.0-0.7","subject":"cdjjpz0thacerve","sona":"7504"},{"rt":null,"stimulus":"<div style=\"font-size:60px;\">+</div>","key_press":null,"trial_type":"html-keyboard-response","trial_index":36,"time_elapsed":100548,"internal_node_id":"0.0-8.0-1.7","subject":"cdjjpz0thacerve","sona":"7504"},{"trial_type":"turing-test","trial_index":37,"time_elapsed":106369,"internal_node_id":"0.0-8.0-2.7","subject":"cdjjpz0thacerve","sona":"7504"},{"rt":365.7050000001618,"stimulus":"<p>Welche Sequenz haben Sie als natürlicher empfunden?</p>","key_press":70,"test_part":"response","test_stimulus":{"position":0,"left":"bvh/return-bottle-training3-lines.txt","right":"bvh/vr_prediction_models/model(vcgpdm)-dataset(return-bottle)-mode(ELBO)-parts(3)-dyn(25)-lvm(30)-hold(3)/final-lines.txt","att_check":false},"trial_type":"html-keyboard-response","trial_index":38,"time_elapsed":106739,"internal_node_id":"0.0-8.0-3.7","subject":"cdjjpz0thacerve","sona":"7504"},{"rt":326.0900000004767,"stimulus":"<p>Bereit?</p>","key_press":32,"trial_type":"html-keyboard-response","trial_index":39,"time_elapsed":107067,"internal_node_id":"0.0-8.0-0.8","subject":"cdjjpz0thacerve","sona":"7504"},{"rt":null,"stimulus":"<div style=\"font-size:60px;\">+</div>","key_press":null,"trial_type":"html-keyboard-response","trial_index":40,"time_elapsed":109075,"internal_node_id":"0.0-8.0-1.8","subject":"cdjjpz0thacerve","sona":"7504"},{"trial_type":"turing-test","trial_index":41,"time_elapsed":113045,"internal_node_id":"0.0-8.0-2.8","subject":"cdjjpz0thacerve","sona":"7504"},{"rt":1249.3149999991147,"stimulus":"<p>Welche Sequenz haben Sie als natürlicher empfunden?</p>","key_press":70,"test_part":"response","test_stimulus":{"position":1,"left":"bvh/vr_prediction_models/model(vcgpdm)-dataset(return-bottle-hold)-mode(ELBO)-parts(3)-dyn(25)-lvm(25)-hold(3)/final-lines.txt","right":"bvh/return-bottle-hold-training3-lines.txt","att_check":false},"trial_type":"html-keyboard-response","trial_index":42,"time_elapsed":114298,"internal_node_id":"0.0-8.0-3.8","subject":"cdjjpz0thacerve","sona":"7504"},{"rt":572.9350000001432,"stimulus":"<p>Bereit?</p>","key_press":32,"trial_type":"html-keyboard-response","trial_index":43,"time_elapsed":114874,"internal_node_id":"0.0-8.0-0.9","subject":"cdjjpz0thacerve","sona":"7504"},{"rt":null,"stimulus":"<div style=\"font-size:60px;\">+</div>","key_press":null,"trial_type":"html-keyboard-response","trial_index":44,"time_elapsed":116882,"internal_node_id":"0.0-8.0-1.9","subject":"cdjjpz0thacerve","sona":"7504"},{"trial_type":"turing-test","trial_index":45,"time_elapsed":122712,"internal_node_id":"0.0-8.0-2.9","subject":"cdjjpz0thacerve","sona":"7504"},{"rt":965.1549999998679,"stimulus":"<p>Welche Sequenz haben Sie als natürlicher empfunden?</p>","key_press":74,"test_part":"response","test_stimulus":{"position":1,"left":"bvh/vr_prediction_models/model(dmp)-dataset(return-bottle)-npsi(40)-hold(4)/final-lines.txt","right":"bvh/return-bottle-training4-lines.txt","att_check":false},"trial_type":"html-keyboard-response","trial_index":46,"time_elapsed":123680,"internal_node_id":"0.0-8.0-3.9","subject":"cdjjpz0thacerve","sona":"7504"},{"rt":1062.3200000009092,"stimulus":"<p>Bereit?</p>","key_press":32,"trial_type":"html-keyboard-response","trial_index":47,"time_elapsed":124745,"internal_node_id":"0.0-8.0-0.10","subject":"cdjjpz0thacerve","sona":"7504"},{"rt":null,"stimulus":"<div style=\"font-size:60px;\">+</div>","key_press":null,"trial_type":"html-keyboard-response","trial_index":48,"time_elapsed":126750,"internal_node_id":"0.0-8.0-1.10","subject":"cdjjpz0thacerve","sona":"7504"},{"trial_type":"turing-test","trial_index":49,"time_elapsed":132554,"internal_node_id":"0.0-8.0-2.10","subject":"cdjjpz0thacerve","sona":"7504"},{"rt":1538.8899999998102,"stimulus":"<p>Welche Sequenz haben Sie als natürlicher empfunden?</p>","key_press":74,"test_part":"response","test_stimulus":{"position":1,"left":"bvh/vr_prediction_models/model(dmp)-dataset(pass-bottle)-npsi(50)-hold(4)/final-lines.txt","right":"bvh/pass-bottle-training4-lines.txt","att_check":false},"trial_type":"html-keyboard-response","trial_index":50,"time_elapsed":134096,"internal_node_id":"0.0-8.0-3.10","subject":"cdjjpz0thacerve","sona":"7504"},{"rt":1398.1849999999977,"stimulus":"<p>Bereit?</p>","key_press":32,"trial_type":"html-keyboard-response","trial_index":51,"time_elapsed":135497,"internal_node_id":"0.0-8.0-0.11","subject":"cdjjpz0thacerve","sona":"7504"},{"rt":null,"stimulus":"<div style=\"font-size:60px;\">+</div>","key_press":null,"trial_type":"html-keyboard-response","trial_index":52,"time_elapsed":137506,"internal_node_id":"0.0-8.0-1.11","subject":"cdjjpz0thacerve","sona":"7504"},{"trial_type":"turing-test","trial_index":53,"time_elapsed":140855,"internal_node_id":"0.0-8.0-2.11","subject":"cdjjpz0thacerve","sona":"7504"},{"rt":637.1299999991897,"stimulus":"<p>Welche Sequenz haben Sie als natürlicher empfunden?</p>","key_press":74,"test_part":"response","test_stimulus":{"position":1,"left":"bvh/vr_prediction_models/model(tmp)-dataset(pass-bottle-hold)-numprim(6)-hold(0)/final-lines.txt","right":"bvh/pass-bottle-hold-training0-lines.txt","att_check":false},"trial_type":"html-keyboard-response","trial_index":54,"time_elapsed":141496,"internal_node_id":"0.0-8.0-3.11","subject":"cdjjpz0thacerve","sona":"7504"},{"rt":396.6249999993888,"stimulus":"<p>Bereit?</p>","key_press":32,"trial_type":"html-keyboard-response","trial_index":55,"time_elapsed":141895,"internal_node_id":"0.0-8.0-0.12","subject":"cdjjpz0thacerve","sona":"7504"},{"rt":null,"stimulus":"<div style=\"font-size:60px;\">+</div>","key_press":null,"trial_type":"html-keyboard-response","trial_index":56,"time_elapsed":143902,"internal_node_id":"0.0-8.0-1.12","subject":"cdjjpz0thacerve","sona":"7504"},{"trial_type":"turing-test","trial_index":57,"time_elapsed":149800,"internal_node_id":"0.0-8.0-2.12","subject":"cdjjpz0thacerve","sona":"7504"},{"rt":644.1850000010163,"stimulus":"<p>Welche Sequenz haben Sie als natürlicher empfunden?</p>","key_press":74,"test_part":"response","test_stimulus":{"position":1,"left":"bvh/vr_prediction_models/model(vcgpdm)-dataset(return-bottle)-mode(ELBO)-parts(1)-dyn(20)-lvm(5)-hold(4)/final-lines.txt","right":"bvh/return-bottle-training4-lines.txt","att_check":false},"trial_type":"html-keyboard-response","trial_index":58,"time_elapsed":150448,"internal_node_id":"0.0-8.0-3.12","subject":"cdjjpz0thacerve","sona":"7504"},{"rt":572.3899999993446,"stimulus":"<p>Bereit?</p>","key_press":32,"trial_type":"html-keyboard-response","trial_index":59,"time_elapsed":151023,"internal_node_id":"0.0-8.0-0.13","subject":"cdjjpz0thacerve","sona":"7504"},{"rt":null,"stimulus":"<div style=\"font-size:60px;\">+</div>","key_press":null,"trial_type":"html-keyboard-response","trial_index":60,"time_elapsed":153027,"internal_node_id":"0.0-8.0-1.13","subject":"cdjjpz0thacerve","sona":"7504"},{"trial_type":"turing-test","trial_index":61,"time_elapsed":156765,"internal_node_id":"0.0-8.0-2.13","subject":"cdjjpz0thacerve","sona":"7504"},{"rt":677.6499999996449,"stimulus":"<p>Welche Sequenz haben Sie als natürlicher empfunden?</p>","key_press":70,"test_part":"response","test_stimulus":{"position":1,"left":"bvh/vr_prediction_models/model(vcgpdm)-dataset(pass-bottle-hold)-mode(ELBO)-parts(1)-dyn(30)-lvm(30)-hold(4)/final-lines.txt","right":"bvh/pass-bottle-hold-training4-lines.txt","att_check":false},"trial_type":"html-keyboard-response","trial_index":62,"time_elapsed":157447,"internal_node_id":"0.0-8.0-3.13","subject":"cdjjpz0thacerve","sona":"7504"},{"rt":357.3949999990873,"stimulus":"<p>Bereit?</p>","key_press":32,"trial_type":"html-keyboard-response","trial_index":63,"time_elapsed":157807,"internal_node_id":"0.0-8.0-0.14","subject":"cdjjpz0thacerve","sona":"7504"},{"rt":null,"stimulus":"<div style=\"font-size:60px;\">+</div>","key_press":null,"trial_type":"html-keyboard-response","trial_index":64,"time_elapsed":159813,"internal_node_id":"0.0-8.0-1.14","subject":"cdjjpz0thacerve","sona":"7504"},{"trial_type":"turing-test","trial_index":65,"time_elapsed":165803,"internal_node_id":"0.0-8.0-2.14","subject":"cdjjpz0thacerve","sona":"7504"},{"rt":640.3850000005914,"stimulus":"<p>Welche Sequenz haben Sie als natürlicher empfunden?</p>","key_press":74,"test_part":"response","test_stimulus":{"position":1,"left":"bvh/vr_prediction_models/model(vcgpdm)-dataset(pass-bottle)-mode(ELBO)-parts(3)-dyn(25)-lvm(15)-hold(3)/final-lines.txt","right":"bvh/pass-bottle-training3-lines.txt","att_check":false},"trial_type":"html-keyboard-response","trial_index":66,"time_elapsed":166447,"internal_node_id":"0.0-8.0-3.14","subject":"cdjjpz0thacerve","sona":"7504"},{"rt":364.4449999992503,"stimulus":"<p>Bereit?</p>","key_press":32,"trial_type":"html-keyboard-response","trial_index":67,"time_elapsed":166814,"internal_node_id":"0.0-8.0-0.15","subject":"cdjjpz0thacerve","sona":"7504"},{"rt":null,"stimulus":"<div style=\"font-size:60px;\">+</div>","key_press":null,"trial_type":"html-keyboard-response","trial_index":68,"time_elapsed":168821,"internal_node_id":"0.0-8.0-1.15","subject":"cdjjpz0thacerve","sona":"7504"},{"trial_type":"turing-test","trial_index":69,"time_elapsed":174998,"internal_node_id":"0.0-8.0-2.15","subject":"cdjjpz0thacerve","sona":"7504"},{"rt":428.10000000096625,"stimulus":"<p>Welche Sequenz haben Sie als natürlicher empfunden?</p>","key_press":70,"test_part":"response","test_stimulus":{"position":1,"left":"bvh/vr_prediction_models/model(vcgpdm)-dataset(return-bottle)-mode(ELBO)-parts(3)-dyn(30)-lvm(15)-hold(1)/final-lines.txt","right":"bvh/return-bottle-training1-lines.txt","att_check":false},"trial_type":"html-keyboard-response","trial_index":70,"time_elapsed":175430,"internal_node_id":"0.0-8.0-3.15","subject":"cdjjpz0thacerve","sona":"7504"},{"rt":309.1850000000559,"stimulus":"<p>Bereit?</p>","key_press":32,"trial_type":"html-keyboard-response","trial_index":71,"time_elapsed":175742,"internal_node_id":"0.0-8.0-0.16","subject":"cdjjpz0thacerve","sona":"7504"},{"rt":null,"stimulus":"<div style=\"font-size:60px;\">+</div>","key_press":null,"trial_type":"html-keyboard-response","trial_index":72,"time_elapsed":177750,"internal_node_id":"0.0-8.0-1.16","subject":"cdjjpz0thacerve","sona":"7504"},{"trial_type":"turing-test","trial_index":73,"time_elapsed":181023,"internal_node_id":"0.0-8.0-2.16","subject":"cdjjpz0thacerve","sona":"7504"},{"rt":739.439999999362,"stimulus":"<p>Welche Sequenz haben Sie als natürlicher empfunden?</p>","key_press":70,"test_part":"response","test_stimulus":{"position":1,"left":"bvh/vr_prediction_models/model(tmp)-dataset(pass-bottle-hold)-numprim(6)-hold(0)/final-lines.txt","right":"bvh/pass-bottle-hold-training0-lines.txt","att_check":false},"trial_type":"html-keyboard-response","trial_index":74,"time_elapsed":181766,"internal_node_id":"0.0-8.0-3.16","subject":"cdjjpz0thacerve","sona":"7504"},{"rt":333.3499999989872,"stimulus":"<p>Bereit?</p>","key_press":32,"trial_type":"html-keyboard-response","trial_index":75,"time_elapsed":182102,"internal_node_id":"0.0-8.0-0.17","subject":"cdjjpz0thacerve","sona":"7504"},{"rt":null,"stimulus":"<div style=\"font-size:60px;\">+</div>","key_press":null,"trial_type":"html-keyboard-response","trial_index":76,"time_elapsed":184112,"internal_node_id":"0.0-8.0-1.17","subject":"cdjjpz0thacerve","sona":"7504"},{"trial_type":"turing-test","trial_index":77,"time_elapsed":190310,"internal_node_id":"0.0-8.0-2.17","subject":"cdjjpz0thacerve","sona":"7504"},{"rt":608.8450000006706,"stimulus":"<p>Welche Sequenz haben Sie als natürlicher empfunden?</p>","key_press":74,"test_part":"response","test_stimulus":{"position":1,"left":"bvh/vr_prediction_models/model(vcgpdm)-dataset(return-bottle)-mode(ELBO)-parts(1)-dyn(25)-lvm(35)-hold(1)/final-lines.txt","right":"bvh/return-bottle-training1-lines.txt","att_check":false},"trial_type":"html-keyboard-response","trial_index":78,"time_elapsed":190925,"internal_node_id":"0.0-8.0-3.17","subject":"cdjjpz0thacerve","sona":"7504"},{"rt":525.4750000003842,"stimulus":"<p>Bereit?</p>","key_press":32,"trial_type":"html-keyboard-response","trial_index":79,"time_elapsed":191453,"internal_node_id":"0.0-8.0-0.18","subject":"cdjjpz0thacerve","sona":"7504"},{"rt":null,"stimulus":"<div style=\"font-size:60px;\">+</div>","key_press":null,"trial_type":"html-keyboard-response","trial_index":80,"time_elapsed":193457,"internal_node_id":"0.0-8.0-1.18","subject":"cdjjpz0thacerve","sona":"7504"},{"trial_type":"turing-test","trial_index":81,"time_elapsed":199255,"internal_node_id":"0.0-8.0-2.18","subject":"cdjjpz0thacerve","sona":"7504"},{"rt":489.1499999994121,"stimulus":"<p>Welche Sequenz haben Sie als natürlicher empfunden?</p>","key_press":74,"test_part":"response","test_stimulus":{"position":1,"left":"bvh/vr_prediction_models/model(dmp)-dataset(pass-bottle)-npsi(100)-hold(4)/final-lines.txt","right":"bvh/pass-bottle-training4-lines.txt","att_check":false},"trial_type":"html-keyboard-response","trial_index":82,"time_elapsed":199748,"internal_node_id":"0.0-8.0-3.18","subject":"cdjjpz0thacerve","sona":"7504"},{"rt":4573.530000001483,"stimulus":"<p>Bereit?</p>","key_press":32,"trial_type":"html-keyboard-response","trial_index":83,"time_elapsed":204324,"internal_node_id":"0.0-8.0-0.19","subject":"cdjjpz0thacerve","sona":"7504"},{"rt":null,"stimulus":"<div style=\"font-size:60px;\">+</div>","key_press":null,"trial_type":"html-keyboard-response","trial_index":84,"time_elapsed":206329,"internal_node_id":"0.0-8.0-1.19","subject":"cdjjpz0thacerve","sona":"7504"},{"trial_type":"turing-test","trial_index":85,"time_elapsed":211793,"internal_node_id":"0.0-8.0-2.19","subject":"cdjjpz0thacerve","sona":"7504"},{"rt":805.184999999241,"stimulus":"<p>Welche Sequenz haben Sie als natürlicher empfunden?</p>","key_press":70,"test_part":"response","test_stimulus":{"position":0,"left":"bvh/pass-bottle-training1-lines.txt","right":"bvh/vr_prediction_models/model(tmp)-dataset(pass-bottle)-numprim(4)-hold(1)/final-lines.txt","att_check":false},"trial_type":"html-keyboard-response","trial_index":86,"time_elapsed":212604,"internal_node_id":"0.0-8.0-3.19","subject":"cdjjpz0thacerve","sona":"7504"},{"rt":3540.984999999637,"stimulus":"<p>Bereit?</p>","key_press":32,"trial_type":"html-keyboard-response","trial_index":87,"time_elapsed":216147,"internal_node_id":"0.0-8.0-0.20","subject":"cdjjpz0thacerve","sona":"7504"},{"rt":null,"stimulus":"<div style=\"font-size:60px;\">+</div>","key_press":null,"trial_type":"html-keyboard-response","trial_index":88,"time_elapsed":218156,"internal_node_id":"0.0-8.0-1.20","subject":"cdjjpz0thacerve","sona":"7504"},{"trial_type":"turing-test","trial_index":89,"time_elapsed":221911,"internal_node_id":"0.0-8.0-2.20","subject":"cdjjpz0thacerve","sona":"7504"},{"rt":448.3650000002235,"stimulus":"<p>Welche Sequenz haben Sie als natürlicher empfunden?</p>","key_press":74,"test_part":"response","test_stimulus":{"position":1,"left":"bvh/vr_prediction_models/model(dmp)-dataset(return-bottle-hold)-npsi(30)-hold(4)/final-lines.txt","right":"bvh/return-bottle-hold-training4-lines.txt","att_check":false},"trial_type":"html-keyboard-response","trial_index":90,"time_elapsed":222363,"internal_node_id":"0.0-8.0-3.20","subject":"cdjjpz0thacerve","sona":"7504"},{"rt":338.4200000000419,"stimulus":"<p>Bereit?</p>","key_press":32,"trial_type":"html-keyboard-response","trial_index":91,"time_elapsed":222707,"internal_node_id":"0.0-8.0-0.21","subject":"cdjjpz0thacerve","sona":"7504"},{"rt":null,"stimulus":"<div style=\"font-size:60px;\">+</div>","key_press":null,"trial_type":"html-keyboard-response","trial_index":92,"time_elapsed":224715,"internal_node_id":"0.0-8.0-1.21","subject":"cdjjpz0thacerve","sona":"7504"},{"trial_type":"turing-test","trial_index":93,"time_elapsed":231655,"internal_node_id":"0.0-8.0-2.21","subject":"cdjjpz0thacerve","sona":"7504"},{"rt":479.47999999995227,"stimulus":"<p>Welche Sequenz haben Sie als natürlicher empfunden?</p>","key_press":70,"test_part":"response","test_stimulus":{"position":0,"left":"bvh/pass-bottle-training0-lines.txt","right":"bvh/vr_prediction_models/model(dmp)-dataset(pass-bottle)-npsi(50)-hold(0)/final-lines.txt","att_check":true},"trial_type":"html-keyboard-response","trial_index":94,"time_elapsed":232138,"internal_node_id":"0.0-8.0-3.21","subject":"cdjjpz0thacerve","sona":"7504"},{"rt":741.7199999999721,"stimulus":"<p>Bereit?</p>","key_press":32,"trial_type":"html-keyboard-response","trial_index":95,"time_elapsed":232883,"internal_node_id":"0.0-8.0-0.22","subject":"cdjjpz0thacerve","sona":"7504"},{"rt":null,"stimulus":"<div style=\"font-size:60px;\">+</div>","key_press":null,"trial_type":"html-keyboard-response","trial_index":96,"time_elapsed":234890,"internal_node_id":"0.0-8.0-1.22","subject":"cdjjpz0thacerve","sona":"7504"},{"trial_type":"turing-test","trial_index":97,"time_elapsed":240700,"internal_node_id":"0.0-8.0-2.22","subject":"cdjjpz0thacerve","sona":"7504"},{"rt":617.8149999995949,"stimulus":"<p>Welche Sequenz haben Sie als natürlicher empfunden?</p>","key_press":70,"test_part":"response","test_stimulus":{"position":1,"left":"bvh/vr_prediction_models/model(tmp)-dataset(pass-bottle)-numprim(4)-hold(4)/final-lines.txt","right":"bvh/pass-bottle-training4-lines.txt","att_check":false},"trial_type":"html-keyboard-response","trial_index":98,"time_elapsed":241322,"internal_node_id":"0.0-8.0-3.22","subject":"cdjjpz0thacerve","sona":"7504"},{"rt":308.8900000002468,"stimulus":"<p>Bereit?</p>","key_press":32,"trial_type":"html-keyboard-response","trial_index":99,"time_elapsed":241634,"internal_node_id":"0.0-8.0-0.23","subject":"cdjjpz0thacerve","sona":"7504"},{"rt":null,"stimulus":"<div style=\"font-size:60px;\">+</div>","key_press":null,"trial_type":"html-keyboard-response","trial_index":100,"time_elapsed":243641,"internal_node_id":"0.0-8.0-1.23","subject":"cdjjpz0thacerve","sona":"7504"},{"trial_type":"turing-test","trial_index":101,"time_elapsed":250591,"internal_node_id":"0.0-8.0-2.23","subject":"cdjjpz0thacerve","sona":"7504"},{"rt":317.97000000003027,"stimulus":"<p>Welche Sequenz haben Sie als natürlicher empfunden?</p>","key_press":74,"test_part":"response","test_stimulus":{"position":1,"left":"bvh/vr_prediction_models/model(vcgpdm)-dataset(pass-bottle)-mode(ELBO)-parts(3)-dyn(25)-lvm(25)-hold(0)/final-lines.txt","right":"bvh/pass-bottle-training0-lines.txt","att_check":false},"trial_type":"html-keyboard-response","trial_index":102,"time_elapsed":250914,"internal_node_id":"0.0-8.0-3.23","subject":"cdjjpz0thacerve","sona":"7504"},{"rt":492.4399999999732,"stimulus":"<p>Bereit?</p>","key_press":32,"trial_type":"html-keyboard-response","trial_index":103,"time_elapsed":251409,"internal_node_id":"0.0-8.0-0.24","subject":"cdjjpz0thacerve","sona":"7504"},{"rt":null,"stimulus":"<div style=\"font-size:60px;\">+</div>","key_press":null,"trial_type":"html-keyboard-response","trial_index":104,"time_elapsed":253418,"internal_node_id":"0.0-8.0-1.24","subject":"cdjjpz0thacerve","sona":"7504"},{"trial_type":"turing-test","trial_index":105,"time_elapsed":256930,"internal_node_id":"0.0-8.0-2.24","subject":"cdjjpz0thacerve","sona":"7504"},{"rt":914.4649999998219,"stimulus":"<p>Welche Sequenz haben Sie als natürlicher empfunden?</p>","key_press":74,"test_part":"response","test_stimulus":{"position":1,"left":"bvh/vr_prediction_models/model(vcgpdm)-dataset(pass-bottle-hold)-mode(MAP)-parts(1)-hold(2)/final-lines.txt","right":"bvh/pass-bottle-hold-training2-lines.txt","att_check":false},"trial_type":"html-keyboard-response","trial_index":106,"time_elapsed":257849,"internal_node_id":"0.0-8.0-3.24","subject":"cdjjpz0thacerve","sona":"7504"},{"rt":348.74000000127126,"stimulus":"<p>Bereit?</p>","key_press":32,"trial_type":"html-keyboard-response","trial_index":107,"time_elapsed":258201,"internal_node_id":"0.0-8.0-0.25","subject":"cdjjpz0thacerve","sona":"7504"},{"rt":null,"stimulus":"<div style=\"font-size:60px;\">+</div>","key_press":null,"trial_type":"html-keyboard-response","trial_index":108,"time_elapsed":260205,"internal_node_id":"0.0-8.0-1.25","subject":"cdjjpz0thacerve","sona":"7504"},{"trial_type":"turing-test","trial_index":109,"time_elapsed":266212,"internal_node_id":"0.0-8.0-2.25","subject":"cdjjpz0thacerve","sona":"7504"},{"rt":400.5649999999441,"stimulus":"<p>Welche Sequenz haben Sie als natürlicher empfunden?</p>","key_press":74,"test_part":"response","test_stimulus":{"position":1,"left":"bvh/vr_prediction_models/model(vcgpdm)-dataset(return-bottle)-mode(ELBO)-parts(1)-dyn(35)-lvm(10)-hold(4)/final-lines.txt","right":"bvh/return-bottle-training4-lines.txt","att_check":false},"trial_type":"html-keyboard-response","trial_index":110,"time_elapsed":266617,"internal_node_id":"0.0-8.0-3.25","subject":"cdjjpz0thacerve","sona":"7504"},{"rt":332.6800000013318,"stimulus":"<p>Bereit?</p>","key_press":32,"trial_type":"html-keyboard-response","trial_index":111,"time_elapsed":266952,"internal_node_id":"0.0-8.0-0.26","subject":"cdjjpz0thacerve","sona":"7504"},{"rt":null,"stimulus":"<div style=\"font-size:60px;\">+</div>","key_press":null,"trial_type":"html-keyboard-response","trial_index":112,"time_elapsed":268958,"internal_node_id":"0.0-8.0-1.26","subject":"cdjjpz0thacerve","sona":"7504"},{"trial_type":"turing-test","trial_index":113,"time_elapsed":272214,"internal_node_id":"0.0-8.0-2.26","subject":"cdjjpz0thacerve","sona":"7504"},{"rt":606.555000000284,"stimulus":"<p>Welche Sequenz haben Sie als natürlicher empfunden?</p>","key_press":70,"test_part":"response","test_stimulus":{"position":1,"left":"bvh/vr_prediction_models/model(dmp)-dataset(pass-bottle-hold)-npsi(70)-hold(1)/final-lines.txt","right":"bvh/pass-bottle-hold-training1-lines.txt","att_check":false},"trial_type":"html-keyboard-response","trial_index":114,"time_elapsed":272825,"internal_node_id":"0.0-8.0-3.26","subject":"cdjjpz0thacerve","sona":"7504"},{"rt":355.4650000005495,"stimulus":"<p>Bereit?</p>","key_press":32,"trial_type":"html-keyboard-response","trial_index":115,"time_elapsed":273184,"internal_node_id":"0.0-8.0-0.27","subject":"cdjjpz0thacerve","sona":"7504"},{"rt":null,"stimulus":"<div style=\"font-size:60px;\">+</div>","key_press":null,"trial_type":"html-keyboard-response","trial_index":116,"time_elapsed":275192,"internal_node_id":"0.0-8.0-1.27","subject":"cdjjpz0thacerve","sona":"7504"},{"trial_type":"turing-test","trial_index":117,"time_elapsed":281147,"internal_node_id":"0.0-8.0-2.27","subject":"cdjjpz0thacerve","sona":"7504"},{"rt":328.3649999993504,"stimulus":"<p>Welche Sequenz haben Sie als natürlicher empfunden?</p>","key_press":74,"test_part":"response","test_stimulus":{"position":1,"left":"bvh/vr_prediction_models/model(vcgpdm)-dataset(pass-bottle)-mode(ELBO)-parts(3)-dyn(30)-lvm(15)-hold(3)/final-lines.txt","right":"bvh/pass-bottle-training3-lines.txt","att_check":false},"trial_type":"html-keyboard-response","trial_index":118,"time_elapsed":281480,"internal_node_id":"0.0-8.0-3.27","subject":"cdjjpz0thacerve","sona":"7504"},{"rt":292.3600000012666,"stimulus":"<p>Bereit?</p>","key_press":32,"trial_type":"html-keyboard-response","trial_index":119,"time_elapsed":281775,"internal_node_id":"0.0-8.0-0.28","subject":"cdjjpz0thacerve","sona":"7504"},{"rt":null,"stimulus":"<div style=\"font-size:60px;\">+</div>","key_press":null,"trial_type":"html-keyboard-response","trial_index":120,"time_elapsed":283781,"internal_node_id":"0.0-8.0-1.28","subject":"cdjjpz0thacerve","sona":"7504"},{"trial_type":"turing-test","trial_index":121,"time_elapsed":287532,"internal_node_id":"0.0-8.0-2.28","subject":"cdjjpz0thacerve","sona":"7504"},{"rt":950.6849999997648,"stimulus":"<p>Welche Sequenz haben Sie als natürlicher empfunden?</p>","key_press":74,"test_part":"response","test_stimulus":{"position":0,"left":"bvh/return-bottle-hold-training3-lines.txt","right":"bvh/vr_prediction_models/model(vcgpdm)-dataset(return-bottle-hold)-mode(ELBO)-parts(3)-dyn(25)-lvm(15)-hold(3)/final-lines.txt","att_check":false},"trial_type":"html-keyboard-response","trial_index":122,"time_elapsed":288487,"internal_node_id":"0.0-8.0-3.28","subject":"cdjjpz0thacerve","sona":"7504"},{"rt":235.95000000018626,"stimulus":"<p>Bereit?</p>","key_press":32,"trial_type":"html-keyboard-response","trial_index":123,"time_elapsed":288726,"internal_node_id":"0.0-8.0-0.29","subject":"cdjjpz0thacerve","sona":"7504"},{"rt":null,"stimulus":"<div style=\"font-size:60px;\">+</div>","key_press":null,"trial_type":"html-keyboard-response","trial_index":124,"time_elapsed":290737,"internal_node_id":"0.0-8.0-1.29","subject":"cdjjpz0thacerve","sona":"7504"},{"trial_type":"turing-test","trial_index":125,"time_elapsed":296162,"internal_node_id":"0.0-8.0-2.29","subject":"cdjjpz0thacerve","sona":"7504"},{"rt":1104.9949999997043,"stimulus":"<p>Welche Sequenz haben Sie als natürlicher empfunden?</p>","key_press":74,"test_part":"response","test_stimulus":{"position":0,"left":"bvh/return-bottle-training0-lines.txt","right":"bvh/vr_prediction_models/model(dmp)-dataset(return-bottle)-npsi(80)-hold(0)/final-lines.txt","att_check":false},"trial_type":"html-keyboard-response","trial_index":126,"time_elapsed":297271,"internal_node_id":"0.0-8.0-3.29","subject":"cdjjpz0thacerve","sona":"7504"},{"rt":259.9550000013551,"stimulus":"<p>Bereit?</p>","key_press":32,"trial_type":"html-keyboard-response","trial_index":127,"time_elapsed":297534,"internal_node_id":"0.0-8.0-0.30","subject":"cdjjpz0thacerve","sona":"7504"},{"rt":null,"stimulus":"<div style=\"font-size:60px;\">+</div>","key_press":null,"trial_type":"html-keyboard-response","trial_index":128,"time_elapsed":299542,"internal_node_id":"0.0-8.0-1.30","subject":"cdjjpz0thacerve","sona":"7504"},{"trial_type":"turing-test","trial_index":129,"time_elapsed":303274,"internal_node_id":"0.0-8.0-2.30","subject":"cdjjpz0thacerve","sona":"7504"},{"rt":735.3299999994924,"stimulus":"<p>Welche Sequenz haben Sie als natürlicher empfunden?</p>","key_press":70,"test_part":"response","test_stimulus":{"position":1,"left":"bvh/vr_prediction_models/model(vcgpdm)-dataset(pass-bottle-hold)-mode(ELBO)-parts(3)-dyn(15)-lvm(30)-hold(4)/final-lines.txt","right":"bvh/pass-bottle-hold-training4-lines.txt","att_check":false},"trial_type":"html-keyboard-response","trial_index":130,"time_elapsed":304014,"internal_node_id":"0.0-8.0-3.30","subject":"cdjjpz0thacerve","sona":"7504"},{"rt":236.54500000161352,"stimulus":"<p>Bereit?</p>","key_press":32,"trial_type":"html-keyboard-response","trial_index":131,"time_elapsed":304254,"internal_node_id":"0.0-8.0-0.31","subject":"cdjjpz0thacerve","sona":"7504"},{"rt":null,"stimulus":"<div style=\"font-size:60px;\">+</div>","key_press":null,"trial_type":"html-keyboard-response","trial_index":132,"time_elapsed":306264,"internal_node_id":"0.0-8.0-1.31","subject":"cdjjpz0thacerve","sona":"7504"},{"trial_type":"turing-test","trial_index":133,"time_elapsed":311755,"internal_node_id":"0.0-8.0-2.31","subject":"cdjjpz0thacerve","sona":"7504"},{"rt":1134.7449999994133,"stimulus":"<p>Welche Sequenz haben Sie als natürlicher empfunden?</p>","key_press":74,"test_part":"response","test_stimulus":{"position":0,"left":"bvh/return-bottle-training0-lines.txt","right":"bvh/vr_prediction_models/model(vcgpdm)-dataset(return-bottle)-mode(ELBO)-parts(3)-dyn(10)-lvm(10)-hold(0)/final-lines.txt","att_check":false},"trial_type":"html-keyboard-response","trial_index":134,"time_elapsed":312894,"internal_node_id":"0.0-8.0-3.31","subject":"cdjjpz0thacerve","sona":"7504"},{"rt":396.17499999981374,"stimulus":"<p>Bereit?</p>","key_press":32,"trial_type":"html-keyboard-response","trial_index":135,"time_elapsed":313293,"internal_node_id":"0.0-8.0-0.32","subject":"cdjjpz0thacerve","sona":"7504"},{"rt":null,"stimulus":"<div style=\"font-size:60px;\">+</div>","key_press":null,"trial_type":"html-keyboard-response","trial_index":136,"time_elapsed":315298,"internal_node_id":"0.0-8.0-1.32","subject":"cdjjpz0thacerve","sona":"7504"},{"trial_type":"turing-test","trial_index":137,"time_elapsed":321634,"internal_node_id":"0.0-8.0-2.32","subject":"cdjjpz0thacerve","sona":"7504"},{"rt":1245.639999999199,"stimulus":"<p>Welche Sequenz haben Sie als natürlicher empfunden?</p>","key_press":74,"test_part":"response","test_stimulus":{"position":1,"left":"bvh/vr_prediction_models/model(vcgpdm)-dataset(return-bottle)-mode(ELBO)-parts(3)-dyn(25)-lvm(30)-hold(1)/final-lines.txt","right":"bvh/return-bottle-training1-lines.txt","att_check":false},"trial_type":"html-keyboard-response","trial_index":138,"time_elapsed":322884,"internal_node_id":"0.0-8.0-3.32","subject":"cdjjpz0thacerve","sona":"7504"},{"rt":318.11999999993714,"stimulus":"<p>Bereit?</p>","key_press":32,"trial_type":"html-keyboard-response","trial_index":139,"time_elapsed":323206,"internal_node_id":"0.0-8.0-0.33","subject":"cdjjpz0thacerve","sona":"7504"},{"rt":null,"stimulus":"<div style=\"font-size:60px;\">+</div>","key_press":null,"trial_type":"html-keyboard-response","trial_index":140,"time_elapsed":325216,"internal_node_id":"0.0-8.0-1.33","subject":"cdjjpz0thacerve","sona":"7504"},{"trial_type":"turing-test","trial_index":141,"time_elapsed":328851,"internal_node_id":"0.0-8.0-2.33","subject":"cdjjpz0thacerve","sona":"7504"},{"rt":486.270000001241,"stimulus":"<p>Welche Sequenz haben Sie als natürlicher empfunden?</p>","key_press":70,"test_part":"response","test_stimulus":{"position":0,"left":"bvh/pass-bottle-hold-training4-lines.txt","right":"bvh/vr_prediction_models/model(dmp)-dataset(pass-bottle-hold)-npsi(30)-hold(4)/final-lines.txt","att_check":false},"trial_type":"html-keyboard-response","trial_index":142,"time_elapsed":329340,"internal_node_id":"0.0-8.0-3.33","subject":"cdjjpz0thacerve","sona":"7504"},{"rt":268.31499999936204,"stimulus":"<p>Bereit?</p>","key_press":32,"trial_type":"html-keyboard-response","trial_index":143,"time_elapsed":329612,"internal_node_id":"0.0-8.0-0.34","subject":"cdjjpz0thacerve","sona":"7504"},{"rt":null,"stimulus":"<div style=\"font-size:60px;\">+</div>","key_press":null,"trial_type":"html-keyboard-response","trial_index":144,"time_elapsed":331619,"internal_node_id":"0.0-8.0-1.34","subject":"cdjjpz0thacerve","sona":"7504"},{"trial_type":"turing-test","trial_index":145,"time_elapsed":337394,"internal_node_id":"0.0-8.0-2.34","subject":"cdjjpz0thacerve","sona":"7504"},{"rt":389.9500000006519,"stimulus":"<p>Welche Sequenz haben Sie als natürlicher empfunden?</p>","key_press":74,"test_part":"response","test_stimulus":{"position":1,"left":"bvh/vr_prediction_models/model(dmp)-dataset(return-bottle)-npsi(90)-hold(3)/final-lines.txt","right":"bvh/return-bottle-training3-lines.txt","att_check":false},"trial_type":"html-keyboard-response","trial_index":146,"time_elapsed":337788,"internal_node_id":"0.0-8.0-3.34","subject":"cdjjpz0thacerve","sona":"7504"},{"rt":308.1050000000396,"stimulus":"<p>Bereit?</p>","key_press":32,"trial_type":"html-keyboard-response","trial_index":147,"time_elapsed":338100,"internal_node_id":"0.0-8.0-0.35","subject":"cdjjpz0thacerve","sona":"7504"},{"rt":null,"stimulus":"<div style=\"font-size:60px;\">+</div>","key_press":null,"trial_type":"html-keyboard-response","trial_index":148,"time_elapsed":340105,"internal_node_id":"0.0-8.0-1.35","subject":"cdjjpz0thacerve","sona":"7504"},{"trial_type":"turing-test","trial_index":149,"time_elapsed":346210,"internal_node_id":"0.0-8.0-2.35","subject":"cdjjpz0thacerve","sona":"7504"},{"rt":13.119999999646097,"stimulus":"<p>Welche Sequenz haben Sie als natürlicher empfunden?</p>","key_press":74,"test_part":"response","test_stimulus":{"position":1,"left":"bvh/vr_prediction_models/model(dmp)-dataset(return-bottle)-npsi(60)-hold(1)/final-lines.txt","right":"bvh/return-bottle-training1-lines.txt","att_check":false},"trial_type":"html-keyboard-response","trial_index":150,"time_elapsed":346227,"internal_node_id":"0.0-8.0-3.35","subject":"cdjjpz0thacerve","sona":"7504"},{"rt":733.0050000000629,"stimulus":"<p>Bereit?</p>","key_press":32,"trial_type":"html-keyboard-response","trial_index":151,"time_elapsed":346963,"internal_node_id":"0.0-8.0-0.36","subject":"cdjjpz0thacerve","sona":"7504"},{"rt":null,"stimulus":"<div style=\"font-size:60px;\">+</div>","key_press":null,"trial_type":"html-keyboard-response","trial_index":152,"time_elapsed":348969,"internal_node_id":"0.0-8.0-1.36","subject":"cdjjpz0thacerve","sona":"7504"},{"trial_type":"turing-test","trial_index":153,"time_elapsed":352712,"internal_node_id":"0.0-8.0-2.36","subject":"cdjjpz0thacerve","sona":"7504"},{"rt":358.5449999991688,"stimulus":"<p>Welche Sequenz haben Sie als natürlicher empfunden?</p>","key_press":70,"test_part":"response","test_stimulus":{"position":1,"left":"bvh/vr_prediction_models/model(vcgpdm)-dataset(return-bottle-hold)-mode(ELBO)-parts(3)-dyn(20)-lvm(15)-hold(3)/final-lines.txt","right":"bvh/return-bottle-hold-training3-lines.txt","att_check":false},"trial_type":"html-keyboard-response","trial_index":154,"time_elapsed":353075,"internal_node_id":"0.0-8.0-3.36","subject":"cdjjpz0thacerve","sona":"7504"},{"rt":572.3749999997672,"stimulus":"<p>Bereit?</p>","key_press":32,"trial_type":"html-keyboard-response","trial_index":155,"time_elapsed":353651,"internal_node_id":"0.0-8.0-0.37","subject":"cdjjpz0thacerve","sona":"7504"},{"rt":null,"stimulus":"<div style=\"font-size:60px;\">+</div>","key_press":null,"trial_type":"html-keyboard-response","trial_index":156,"time_elapsed":355661,"internal_node_id":"0.0-8.0-1.37","subject":"cdjjpz0thacerve","sona":"7504"},{"trial_type":"turing-test","trial_index":157,"time_elapsed":362354,"internal_node_id":"0.0-8.0-2.37","subject":"cdjjpz0thacerve","sona":"7504"},{"rt":9636.440000000177,"stimulus":"<p>Welche Sequenz haben Sie als natürlicher empfunden?</p>","key_press":74,"test_part":"response","test_stimulus":{"position":0,"left":"bvh/pass-bottle-training0-lines.txt","right":"bvh/vr_prediction_models/model(vcgpdm)-dataset(pass-bottle)-mode(ELBO)-parts(3)-dyn(25)-lvm(25)-hold(0)/final-lines.txt","att_check":false},"trial_type":"html-keyboard-response","trial_index":158,"time_elapsed":371994,"internal_node_id":"0.0-8.0-3.37","subject":"cdjjpz0thacerve","sona":"7504"},{"rt":283.96000000066124,"stimulus":"<p>Bereit?</p>","key_press":32,"trial_type":"html-keyboard-response","trial_index":159,"time_elapsed":372282,"internal_node_id":"0.0-8.0-0.38","subject":"cdjjpz0thacerve","sona":"7504"},{"rt":null,"stimulus":"<div style=\"font-size:60px;\">+</div>","key_press":null,"trial_type":"html-keyboard-response","trial_index":160,"time_elapsed":374288,"internal_node_id":"0.0-8.0-1.38","subject":"cdjjpz0thacerve","sona":"7504"},{"trial_type":"turing-test","trial_index":161,"time_elapsed":380244,"internal_node_id":"0.0-8.0-2.38","subject":"cdjjpz0thacerve","sona":"7504"},{"rt":625.1649999994552,"stimulus":"<p>Welche Sequenz haben Sie als natürlicher empfunden?</p>","key_press":74,"test_part":"response","test_stimulus":{"position":1,"left":"bvh/vr_prediction_models/model(vcgpdm)-dataset(pass-bottle)-mode(ELBO)-parts(3)-dyn(20)-lvm(15)-hold(3)/final-lines.txt","right":"bvh/pass-bottle-training3-lines.txt","att_check":false},"trial_type":"html-keyboard-response","trial_index":162,"time_elapsed":380873,"internal_node_id":"0.0-8.0-3.38","subject":"cdjjpz0thacerve","sona":"7504"},{"rt":291.75000000034925,"stimulus":"<p>Bereit?</p>","key_press":32,"trial_type":"html-keyboard-response","trial_index":163,"time_elapsed":381169,"internal_node_id":"0.0-8.0-0.39","subject":"cdjjpz0thacerve","sona":"7504"},{"rt":null,"stimulus":"<div style=\"font-size:60px;\">+</div>","key_press":null,"trial_type":"html-keyboard-response","trial_index":164,"time_elapsed":383175,"internal_node_id":"0.0-8.0-1.39","subject":"cdjjpz0thacerve","sona":"7504"},{"trial_type":"turing-test","trial_index":165,"time_elapsed":386999,"internal_node_id":"0.0-8.0-2.39","subject":"cdjjpz0thacerve","sona":"7504"},{"rt":1485.6500000005472,"stimulus":"<p>Welche Sequenz haben Sie als natürlicher empfunden?</p>","key_press":70,"test_part":"response","test_stimulus":{"position":0,"left":"bvh/return-bottle-hold-training4-lines.txt","right":"bvh/vr_prediction_models/model(vcgpdm)-dataset(return-bottle-hold)-mode(ELBO)-parts(1)-dyn(35)-lvm(10)-hold(4)/final-lines.txt","att_check":false},"trial_type":"html-keyboard-response","trial_index":166,"time_elapsed":388489,"internal_node_id":"0.0-8.0-3.39","subject":"cdjjpz0thacerve","sona":"7504"},{"rt":283.8250000004191,"stimulus":"<p>Bereit?</p>","key_press":32,"trial_type":"html-keyboard-response","trial_index":167,"time_elapsed":388776,"internal_node_id":"0.0-8.0-0.40","subject":"cdjjpz0thacerve","sona":"7504"},{"rt":null,"stimulus":"<div style=\"font-size:60px;\">+</div>","key_press":null,"trial_type":"html-keyboard-response","trial_index":168,"time_elapsed":390785,"internal_node_id":"0.0-8.0-1.40","subject":"cdjjpz0thacerve","sona":"7504"},{"trial_type":"turing-test","trial_index":169,"time_elapsed":394413,"internal_node_id":"0.0-8.0-2.40","subject":"cdjjpz0thacerve","sona":"7504"},{"rt":990.8599999998696,"stimulus":"<p>Welche Sequenz haben Sie als natürlicher empfunden?</p>","key_press":74,"test_part":"response","test_stimulus":{"position":1,"left":"bvh/vr_prediction_models/model(dmp)-dataset(pass-bottle-hold)-npsi(60)-hold(4)/final-lines.txt","right":"bvh/pass-bottle-hold-training4-lines.txt","att_check":false},"trial_type":"html-keyboard-response","trial_index":170,"time_elapsed":395408,"internal_node_id":"0.0-8.0-3.40","subject":"cdjjpz0thacerve","sona":"7504"},{"rt":212.34499999991385,"stimulus":"<p>Bereit?</p>","key_press":32,"trial_type":"html-keyboard-response","trial_index":171,"time_elapsed":395624,"internal_node_id":"0.0-8.0-0.41","subject":"cdjjpz0thacerve","sona":"7504"},{"rt":null,"stimulus":"<div style=\"font-size:60px;\">+</div>","key_press":null,"trial_type":"html-keyboard-response","trial_index":172,"time_elapsed":397629,"internal_node_id":"0.0-8.0-1.41","subject":"cdjjpz0thacerve","sona":"7504"},{"trial_type":"turing-test","trial_index":173,"time_elapsed":401266,"internal_node_id":"0.0-8.0-2.41","subject":"cdjjpz0thacerve","sona":"7504"},{"rt":313.1799999991781,"stimulus":"<p>Welche Sequenz haben Sie als natürlicher empfunden?</p>","key_press":74,"test_part":"response","test_stimulus":{"position":1,"left":"bvh/vr_prediction_models/model(vcgpdm)-dataset(return-bottle-hold)-mode(ELBO)-parts(3)-dyn(20)-lvm(35)-hold(2)/final-lines.txt","right":"bvh/return-bottle-hold-training2-lines.txt","att_check":false},"trial_type":"html-keyboard-response","trial_index":174,"time_elapsed":401584,"internal_node_id":"0.0-8.0-3.41","subject":"cdjjpz0thacerve","sona":"7504"},{"rt":764.0700000011129,"stimulus":"<p>Bereit?</p>","key_press":32,"trial_type":"html-keyboard-response","trial_index":175,"time_elapsed":402352,"internal_node_id":"0.0-8.0-0.42","subject":"cdjjpz0thacerve","sona":"7504"},{"rt":null,"stimulus":"<div style=\"font-size:60px;\">+</div>","key_press":null,"trial_type":"html-keyboard-response","trial_index":176,"time_elapsed":404356,"internal_node_id":"0.0-8.0-1.42","subject":"cdjjpz0thacerve","sona":"7504"},{"trial_type":"turing-test","trial_index":177,"time_elapsed":407711,"internal_node_id":"0.0-8.0-2.42","subject":"cdjjpz0thacerve","sona":"7504"},{"rt":1315.4549999998999,"stimulus":"<p>Welche Sequenz haben Sie als natürlicher empfunden?</p>","key_press":70,"test_part":"response","test_stimulus":{"position":0,"left":"bvh/pass-bottle-hold-training1-lines.txt","right":"bvh/vr_prediction_models/model(vcgpdm)-dataset(pass-bottle-hold)-mode(ELBO)-parts(1)-dyn(10)-lvm(5)-hold(1)/final-lines.txt","att_check":false},"trial_type":"html-keyboard-response","trial_index":178,"time_elapsed":409031,"internal_node_id":"0.0-8.0-3.42","subject":"cdjjpz0thacerve","sona":"7504"},{"rt":268.4000000008382,"stimulus":"<p>Bereit?</p>","key_press":32,"trial_type":"html-keyboard-response","trial_index":179,"time_elapsed":409303,"internal_node_id":"0.0-8.0-0.43","subject":"cdjjpz0thacerve","sona":"7504"},{"rt":null,"stimulus":"<div style=\"font-size:60px;\">+</div>","key_press":null,"trial_type":"html-keyboard-response","trial_index":180,"time_elapsed":411307,"internal_node_id":"0.0-8.0-1.43","subject":"cdjjpz0thacerve","sona":"7504"},{"trial_type":"turing-test","trial_index":181,"time_elapsed":414687,"internal_node_id":"0.0-8.0-2.43","subject":"cdjjpz0thacerve","sona":"7504"},{"rt":2356.420000000042,"stimulus":"<p>Welche Sequenz haben Sie als natürlicher empfunden?</p>","key_press":74,"test_part":"response","test_stimulus":{"position":1,"left":"bvh/vr_prediction_models/model(dmp)-dataset(return-bottle-hold)-npsi(70)-hold(1)/final-lines.txt","right":"bvh/return-bottle-hold-training1-lines.txt","att_check":false},"trial_type":"html-keyboard-response","trial_index":182,"time_elapsed":417047,"internal_node_id":"0.0-8.0-3.43","subject":"cdjjpz0thacerve","sona":"7504"},{"rt":283.59000000095693,"stimulus":"<p>Bereit?</p>","key_press":32,"trial_type":"html-keyboard-response","trial_index":183,"time_elapsed":417335,"internal_node_id":"0.0-8.0-0.44","subject":"cdjjpz0thacerve","sona":"7504"},{"rt":null,"stimulus":"<div style=\"font-size:60px;\">+</div>","key_press":null,"trial_type":"html-keyboard-response","trial_index":184,"time_elapsed":419344,"internal_node_id":"0.0-8.0-1.44","subject":"cdjjpz0thacerve","sona":"7504"},{"trial_type":"turing-test","trial_index":185,"time_elapsed":425108,"internal_node_id":"0.0-8.0-2.44","subject":"cdjjpz0thacerve","sona":"7504"},{"rt":766.1000000007334,"stimulus":"<p>Welche Sequenz haben Sie als natürlicher empfunden?</p>","key_press":70,"test_part":"response","test_stimulus":{"position":0,"left":"bvh/return-bottle-training3-lines.txt","right":"bvh/vr_prediction_models/model(tmp)-dataset(return-bottle)-numprim(5)-hold(3)/final-lines.txt","att_check":false},"trial_type":"html-keyboard-response","trial_index":186,"time_elapsed":425879,"internal_node_id":"0.0-8.0-3.44","subject":"cdjjpz0thacerve","sona":"7504"},{"rt":323.85999999858905,"stimulus":"<p>Bereit?</p>","key_press":32,"trial_type":"html-keyboard-response","trial_index":187,"time_elapsed":426206,"internal_node_id":"0.0-8.0-0.45","subject":"cdjjpz0thacerve","sona":"7504"},{"rt":null,"stimulus":"<div style=\"font-size:60px;\">+</div>","key_press":null,"trial_type":"html-keyboard-response","trial_index":188,"time_elapsed":428213,"internal_node_id":"0.0-8.0-1.45","subject":"cdjjpz0thacerve","sona":"7504"},{"trial_type":"turing-test","trial_index":189,"time_elapsed":434256,"internal_node_id":"0.0-8.0-2.45","subject":"cdjjpz0thacerve","sona":"7504"},{"rt":713.1750000008033,"stimulus":"<p>Welche Sequenz haben Sie als natürlicher empfunden?</p>","key_press":70,"test_part":"response","test_stimulus":{"position":0,"left":"bvh/return-bottle-training1-lines.txt","right":"bvh/vr_prediction_models/model(vcgpdm)-dataset(return-bottle)-mode(ELBO)-parts(3)-dyn(25)-lvm(30)-hold(1)/final-lines.txt","att_check":false},"trial_type":"html-keyboard-response","trial_index":190,"time_elapsed":434975,"internal_node_id":"0.0-8.0-3.45","subject":"cdjjpz0thacerve","sona":"7504"},{"rt":323.4800000009127,"stimulus":"<p>Bereit?</p>","key_press":32,"trial_type":"html-keyboard-response","trial_index":191,"time_elapsed":435302,"internal_node_id":"0.0-8.0-0.46","subject":"cdjjpz0thacerve","sona":"7504"},{"rt":null,"stimulus":"<div style=\"font-size:60px;\">+</div>","key_press":null,"trial_type":"html-keyboard-response","trial_index":192,"time_elapsed":437309,"internal_node_id":"0.0-8.0-1.46","subject":"cdjjpz0thacerve","sona":"7504"},{"trial_type":"turing-test","trial_index":193,"time_elapsed":443601,"internal_node_id":"0.0-8.0-2.46","subject":"cdjjpz0thacerve","sona":"7504"},{"rt":135.84000000084052,"stimulus":"<p>Welche Sequenz haben Sie als natürlicher empfunden?</p>","key_press":74,"test_part":"response","test_stimulus":{"position":1,"left":"bvh/vr_prediction_models/model(vcgpdm)-dataset(return-bottle)-mode(ELBO)-parts(1)-dyn(15)-lvm(35)-hold(1)/final-lines.txt","right":"bvh/return-bottle-training1-lines.txt","att_check":false},"trial_type":"html-keyboard-response","trial_index":194,"time_elapsed":443742,"internal_node_id":"0.0-8.0-3.46","subject":"cdjjpz0thacerve","sona":"7504"},{"rt":331.6400000003632,"stimulus":"<p>Bereit?</p>","key_press":32,"trial_type":"html-keyboard-response","trial_index":195,"time_elapsed":444077,"internal_node_id":"0.0-8.0-0.47","subject":"cdjjpz0thacerve","sona":"7504"},{"rt":null,"stimulus":"<div style=\"font-size:60px;\">+</div>","key_press":null,"trial_type":"html-keyboard-response","trial_index":196,"time_elapsed":446086,"internal_node_id":"0.0-8.0-1.47","subject":"cdjjpz0thacerve","sona":"7504"},{"trial_type":"turing-test","trial_index":197,"time_elapsed":452837,"internal_node_id":"0.0-8.0-2.47","subject":"cdjjpz0thacerve","sona":"7504"},{"rt":456.86499999830266,"stimulus":"<p>Welche Sequenz haben Sie als natürlicher empfunden?</p>","key_press":70,"test_part":"response","test_stimulus":{"position":0,"left":"bvh/return-bottle-training2-lines.txt","right":"bvh/vr_prediction_models/model(vcgpdm)-dataset(return-bottle)-mode(ELBO)-parts(1)-dyn(25)-lvm(35)-hold(2)/final-lines.txt","att_check":false},"trial_type":"html-keyboard-response","trial_index":198,"time_elapsed":453301,"internal_node_id":"0.0-8.0-3.47","subject":"cdjjpz0thacerve","sona":"7504"},{"rt":2803.9800000006217,"stimulus":"<p>Bereit?</p>","key_press":32,"trial_type":"html-keyboard-response","trial_index":199,"time_elapsed":456108,"internal_node_id":"0.0-8.0-0.48","subject":"cdjjpz0thacerve","sona":"7504"},{"rt":null,"stimulus":"<div style=\"font-size:60px;\">+</div>","key_press":null,"trial_type":"html-keyboard-response","trial_index":200,"time_elapsed":458113,"internal_node_id":"0.0-8.0-1.48","subject":"cdjjpz0thacerve","sona":"7504"},{"trial_type":"turing-test","trial_index":201,"time_elapsed":463772,"internal_node_id":"0.0-8.0-2.48","subject":"cdjjpz0thacerve","sona":"7504"},{"rt":602.9450000005309,"stimulus":"<p>Welche Sequenz haben Sie als natürlicher empfunden?</p>","key_press":74,"test_part":"response","test_stimulus":{"position":0,"left":"bvh/pass-bottle-training4-lines.txt","right":"bvh/vr_prediction_models/model(tmp)-dataset(pass-bottle)-numprim(4)-hold(4)/final-lines.txt","att_check":false},"trial_type":"html-keyboard-response","trial_index":202,"time_elapsed":464380,"internal_node_id":"0.0-8.0-3.48","subject":"cdjjpz0thacerve","sona":"7504"},{"rt":8411.885000001348,"stimulus":"<p>Bereit?</p>","key_press":32,"trial_type":"html-keyboard-response","trial_index":203,"time_elapsed":472795,"internal_node_id":"0.0-8.0-0.49","subject":"cdjjpz0thacerve","sona":"7504"},{"rt":null,"stimulus":"<div style=\"font-size:60px;\">+</div>","key_press":null,"trial_type":"html-keyboard-response","trial_index":204,"time_elapsed":474801,"internal_node_id":"0.0-8.0-1.49","subject":"cdjjpz0thacerve","sona":"7504"},{"trial_type":"turing-test","trial_index":205,"time_elapsed":478562,"internal_node_id":"0.0-8.0-2.49","subject":"cdjjpz0thacerve","sona":"7504"},{"rt":292.0050000011106,"stimulus":"<p>Welche Sequenz haben Sie als natürlicher empfunden?</p>","key_press":74,"test_part":"response","test_stimulus":{"position":0,"left":"bvh/return-bottle-hold-training3-lines.txt","right":"bvh/vr_prediction_models/model(vcgpdm)-dataset(return-bottle-hold)-mode(ELBO)-parts(3)-dyn(10)-lvm(10)-hold(3)/final-lines.txt","att_check":false},"trial_type":"html-keyboard-response","trial_index":206,"time_elapsed":478860,"internal_node_id":"0.0-8.0-3.49","subject":"cdjjpz0thacerve","sona":"7504"},{"rt":315.23500000004424,"stimulus":"<p>Bereit?</p>","key_press":32,"trial_type":"html-keyboard-response","trial_index":207,"time_elapsed":479179,"internal_node_id":"0.0-8.0-0.50","subject":"cdjjpz0thacerve","sona":"7504"},{"rt":null,"stimulus":"<div style=\"font-size:60px;\">+</div>","key_press":null,"trial_type":"html-keyboard-response","trial_index":208,"time_elapsed":481186,"internal_node_id":"0.0-8.0-1.50","subject":"cdjjpz0thacerve","sona":"7504"},{"trial_type":"turing-test","trial_index":209,"time_elapsed":486950,"internal_node_id":"0.0-8.0-2.50","subject":"cdjjpz0thacerve","sona":"7504"},{"rt":447.2100000002538,"stimulus":"<p>Welche Sequenz haben Sie als natürlicher empfunden?</p>","key_press":70,"test_part":"response","test_stimulus":{"position":0,"left":"bvh/return-bottle-training3-lines.txt","right":"bvh/vr_prediction_models/model(tmp)-dataset(return-bottle)-numprim(15)-hold(3)/final-lines.txt","att_check":false},"trial_type":"html-keyboard-response","trial_index":210,"time_elapsed":487403,"internal_node_id":"0.0-8.0-3.50","subject":"cdjjpz0thacerve","sona":"7504"},{"rt":916.0200000005425,"stimulus":"<p>Bereit?</p>","key_press":32,"trial_type":"html-keyboard-response","trial_index":211,"time_elapsed":488323,"internal_node_id":"0.0-8.0-0.51","subject":"cdjjpz0thacerve","sona":"7504"},{"rt":null,"stimulus":"<div style=\"font-size:60px;\">+</div>","key_press":null,"trial_type":"html-keyboard-response","trial_index":212,"time_elapsed":490329,"internal_node_id":"0.0-8.0-1.51","subject":"cdjjpz0thacerve","sona":"7504"},{"trial_type":"turing-test","trial_index":213,"time_elapsed":493915,"internal_node_id":"0.0-8.0-2.51","subject":"cdjjpz0thacerve","sona":"7504"},{"rt":331.19500000064727,"stimulus":"<p>Welche Sequenz haben Sie als natürlicher empfunden?</p>","key_press":74,"test_part":"response","test_stimulus":{"position":1,"left":"bvh/vr_prediction_models/model(dmp)-dataset(pass-bottle-hold)-npsi(90)-hold(3)/final-lines.txt","right":"bvh/pass-bottle-hold-training3-lines.txt","att_check":false},"trial_type":"html-keyboard-response","trial_index":214,"time_elapsed":494251,"internal_node_id":"0.0-8.0-3.51","subject":"cdjjpz0thacerve","sona":"7504"},{"rt":292.04999999998836,"stimulus":"<p>Bereit?</p>","key_press":32,"trial_type":"html-keyboard-response","trial_index":215,"time_elapsed":494546,"internal_node_id":"0.0-8.0-0.52","subject":"cdjjpz0thacerve","sona":"7504"},{"rt":null,"stimulus":"<div style=\"font-size:60px;\">+</div>","key_press":null,"trial_type":"html-keyboard-response","trial_index":216,"time_elapsed":496551,"internal_node_id":"0.0-8.0-1.52","subject":"cdjjpz0thacerve","sona":"7504"},{"trial_type":"turing-test","trial_index":217,"time_elapsed":502733,"internal_node_id":"0.0-8.0-2.52","subject":"cdjjpz0thacerve","sona":"7504"},{"rt":319.53000000061,"stimulus":"<p>Welche Sequenz haben Sie als natürlicher empfunden?</p>","key_press":74,"test_part":"response","test_stimulus":{"position":1,"left":"bvh/vr_prediction_models/model(dmp)-dataset(pass-bottle)-npsi(20)-hold(2)/final-lines.txt","right":"bvh/pass-bottle-training2-lines.txt","att_check":true},"trial_type":"html-keyboard-response","trial_index":218,"time_elapsed":503058,"internal_node_id":"0.0-8.0-3.52","subject":"cdjjpz0thacerve","sona":"7504"},{"rt":3844.3250000000116,"stimulus":"<p>Bereit?</p>","key_press":32,"trial_type":"html-keyboard-response","trial_index":219,"time_elapsed":506906,"internal_node_id":"0.0-8.0-0.53","subject":"cdjjpz0thacerve","sona":"7504"},{"rt":null,"stimulus":"<div style=\"font-size:60px;\">+</div>","key_press":null,"trial_type":"html-keyboard-response","trial_index":220,"time_elapsed":508915,"internal_node_id":"0.0-8.0-1.53","subject":"cdjjpz0thacerve","sona":"7504"},{"trial_type":"turing-test","trial_index":221,"time_elapsed":514830,"internal_node_id":"0.0-8.0-2.53","subject":"cdjjpz0thacerve","sona":"7504"},{"rt":301.604999998759,"stimulus":"<p>Welche Sequenz haben Sie als natürlicher empfunden?</p>","key_press":74,"test_part":"response","test_stimulus":{"position":1,"left":"bvh/vr_prediction_models/model(vcgpdm)-dataset(return-bottle)-mode(ELBO)-parts(3)-dyn(20)-lvm(20)-hold(4)/final-lines.txt","right":"bvh/return-bottle-training4-lines.txt","att_check":false},"trial_type":"html-keyboard-response","trial_index":222,"time_elapsed":515137,"internal_node_id":"0.0-8.0-3.53","subject":"cdjjpz0thacerve","sona":"7504"},{"rt":284.03000000072643,"stimulus":"<p>Bereit?</p>","key_press":32,"trial_type":"html-keyboard-response","trial_index":223,"time_elapsed":515425,"internal_node_id":"0.0-8.0-0.54","subject":"cdjjpz0thacerve","sona":"7504"},{"rt":null,"stimulus":"<div style=\"font-size:60px;\">+</div>","key_press":null,"trial_type":"html-keyboard-response","trial_index":224,"time_elapsed":517431,"internal_node_id":"0.0-8.0-1.54","subject":"cdjjpz0thacerve","sona":"7504"},{"trial_type":"turing-test","trial_index":225,"time_elapsed":520774,"internal_node_id":"0.0-8.0-2.54","subject":"cdjjpz0thacerve","sona":"7504"},{"rt":707.5450000011479,"stimulus":"<p>Welche Sequenz haben Sie als natürlicher empfunden?</p>","key_press":70,"test_part":"response","test_stimulus":{"position":0,"left":"bvh/pass-bottle-hold-training0-lines.txt","right":"bvh/vr_prediction_models/model(tmp)-dataset(pass-bottle-hold)-numprim(4)-hold(0)/final-lines.txt","att_check":false},"trial_type":"html-keyboard-response","trial_index":226,"time_elapsed":521497,"internal_node_id":"0.0-8.0-3.54","subject":"cdjjpz0thacerve","sona":"7504"},{"rt":259.28999999992084,"stimulus":"<p>Bereit?</p>","key_press":32,"trial_type":"html-keyboard-response","trial_index":227,"time_elapsed":521760,"internal_node_id":"0.0-8.0-0.55","subject":"cdjjpz0thacerve","sona":"7504"},{"rt":null,"stimulus":"<div style=\"font-size:60px;\">+</div>","key_press":null,"trial_type":"html-keyboard-response","trial_index":228,"time_elapsed":523767,"internal_node_id":"0.0-8.0-1.55","subject":"cdjjpz0thacerve","sona":"7504"},{"trial_type":"turing-test","trial_index":229,"time_elapsed":527350,"internal_node_id":"0.0-8.0-2.55","subject":"cdjjpz0thacerve","sona":"7504"},{"rt":710.0850000006612,"stimulus":"<p>Welche Sequenz haben Sie als natürlicher empfunden?</p>","key_press":74,"test_part":"response","test_stimulus":{"position":0,"left":"bvh/pass-bottle-hold-training3-lines.txt","right":"bvh/vr_prediction_models/model(dmp)-dataset(pass-bottle-hold)-npsi(30)-hold(3)/final-lines.txt","att_check":false},"trial_type":"html-keyboard-response","trial_index":230,"time_elapsed":528072,"internal_node_id":"0.0-8.0-3.55","subject":"cdjjpz0thacerve","sona":"7504"},{"rt":227.36000000080094,"stimulus":"<p>Bereit?</p>","key_press":32,"trial_type":"html-keyboard-response","trial_index":231,"time_elapsed":528304,"internal_node_id":"0.0-8.0-0.56","subject":"cdjjpz0thacerve","sona":"7504"},{"rt":null,"stimulus":"<div style=\"font-size:60px;\">+</div>","key_press":null,"trial_type":"html-keyboard-response","trial_index":232,"time_elapsed":530311,"internal_node_id":"0.0-8.0-1.56","subject":"cdjjpz0thacerve","sona":"7504"},{"trial_type":"turing-test","trial_index":233,"time_elapsed":535883,"internal_node_id":"0.0-8.0-2.56","subject":"cdjjpz0thacerve","sona":"7504"},{"rt":455.6750000010943,"stimulus":"<p>Welche Sequenz haben Sie als natürlicher empfunden?</p>","key_press":70,"test_part":"response","test_stimulus":{"position":1,"left":"bvh/vr_prediction_models/model(vcgpdm)-dataset(return-bottle)-mode(ELBO)-parts(3)-dyn(20)-lvm(15)-hold(0)/final-lines.txt","right":"bvh/return-bottle-training0-lines.txt","att_check":false},"trial_type":"html-keyboard-response","trial_index":234,"time_elapsed":536344,"internal_node_id":"0.0-8.0-3.56","subject":"cdjjpz0thacerve","sona":"7504"},{"rt":227.59499999845866,"stimulus":"<p>Bereit?</p>","key_press":32,"trial_type":"html-keyboard-response","trial_index":235,"time_elapsed":536575,"internal_node_id":"0.0-8.0-0.57","subject":"cdjjpz0thacerve","sona":"7504"},{"rt":null,"stimulus":"<div style=\"font-size:60px;\">+</div>","key_press":null,"trial_type":"html-keyboard-response","trial_index":236,"time_elapsed":538583,"internal_node_id":"0.0-8.0-1.57","subject":"cdjjpz0thacerve","sona":"7504"},{"trial_type":"turing-test","trial_index":237,"time_elapsed":545187,"internal_node_id":"0.0-8.0-2.57","subject":"cdjjpz0thacerve","sona":"7504"},{"rt":358.1750000012107,"stimulus":"<p>Welche Sequenz haben Sie als natürlicher empfunden?</p>","key_press":70,"test_part":"response","test_stimulus":{"position":0,"left":"bvh/return-bottle-training2-lines.txt","right":"bvh/vr_prediction_models/model(tmp)-dataset(return-bottle)-numprim(14)-hold(2)/final-lines.txt","att_check":false},"trial_type":"html-keyboard-response","trial_index":238,"time_elapsed":545551,"internal_node_id":"0.0-8.0-3.57","subject":"cdjjpz0thacerve","sona":"7504"},{"rt":338.6100000006845,"stimulus":"<p>Bereit?</p>","key_press":32,"trial_type":"html-keyboard-response","trial_index":239,"time_elapsed":545895,"internal_node_id":"0.0-8.0-0.58","subject":"cdjjpz0thacerve","sona":"7504"},{"rt":null,"stimulus":"<div style=\"font-size:60px;\">+</div>","key_press":null,"trial_type":"html-keyboard-response","trial_index":240,"time_elapsed":547905,"internal_node_id":"0.0-8.0-1.58","subject":"cdjjpz0thacerve","sona":"7504"},{"trial_type":"turing-test","trial_index":241,"time_elapsed":551382,"internal_node_id":"0.0-8.0-2.58","subject":"cdjjpz0thacerve","sona":"7504"},{"rt":1060.0699999994831,"stimulus":"<p>Welche Sequenz haben Sie als natürlicher empfunden?</p>","key_press":74,"test_part":"response","test_stimulus":{"position":0,"left":"bvh/return-bottle-hold-training1-lines.txt","right":"bvh/vr_prediction_models/model(vcgpdm)-dataset(return-bottle-hold)-mode(ELBO)-parts(3)-dyn(20)-lvm(15)-hold(1)/final-lines.txt","att_check":false},"trial_type":"html-keyboard-response","trial_index":242,"time_elapsed":552447,"internal_node_id":"0.0-8.0-3.58","subject":"cdjjpz0thacerve","sona":"7504"},{"rt":211.61000000033528,"stimulus":"<p>Bereit?</p>","key_press":32,"trial_type":"html-keyboard-response","trial_index":243,"time_elapsed":552662,"internal_node_id":"0.0-8.0-0.59","subject":"cdjjpz0thacerve","sona":"7504"},{"rt":null,"stimulus":"<div style=\"font-size:60px;\">+</div>","key_press":null,"trial_type":"html-keyboard-response","trial_index":244,"time_elapsed":554673,"internal_node_id":"0.0-8.0-1.59","subject":"cdjjpz0thacerve","sona":"7504"},{"trial_type":"turing-test","trial_index":245,"time_elapsed":558353,"internal_node_id":"0.0-8.0-2.59","subject":"cdjjpz0thacerve","sona":"7504"},{"rt":327.1549999989802,"stimulus":"<p>Welche Sequenz haben Sie als natürlicher empfunden?</p>","key_press":74,"test_part":"response","test_stimulus":{"position":0,"left":"bvh/pass-bottle-hold-training3-lines.txt","right":"bvh/vr_prediction_models/model(vcgpdm)-dataset(pass-bottle-hold)-mode(MAP)-parts(3)-hold(3)/final-lines.txt","att_check":false},"trial_type":"html-keyboard-response","trial_index":246,"time_elapsed":558686,"internal_node_id":"0.0-8.0-3.59","subject":"cdjjpz0thacerve","sona":"7504"},{"rt":227.61499999975786,"stimulus":"<p>Bereit?</p>","key_press":32,"trial_type":"html-keyboard-response","trial_index":247,"time_elapsed":558918,"internal_node_id":"0.0-8.0-0.60","subject":"cdjjpz0thacerve","sona":"7504"},{"rt":null,"stimulus":"<div style=\"font-size:60px;\">+</div>","key_press":null,"trial_type":"html-keyboard-response","trial_index":248,"time_elapsed":560925,"internal_node_id":"0.0-8.0-1.60","subject":"cdjjpz0thacerve","sona":"7504"},{"trial_type":"turing-test","trial_index":249,"time_elapsed":567553,"internal_node_id":"0.0-8.0-2.60","subject":"cdjjpz0thacerve","sona":"7504"},{"rt":335.6149999999907,"stimulus":"<p>Welche Sequenz haben Sie als natürlicher empfunden?</p>","key_press":74,"test_part":"response","test_stimulus":{"position":1,"left":"bvh/vr_prediction_models/model(tmp)-dataset(return-bottle)-numprim(12)-hold(2)/final-lines.txt","right":"bvh/return-bottle-training2-lines.txt","att_check":false},"trial_type":"html-keyboard-response","trial_index":250,"time_elapsed":567894,"internal_node_id":"0.0-8.0-3.60","subject":"cdjjpz0thacerve","sona":"7504"},{"rt":290.989999999525,"stimulus":"<p>Bereit?</p>","key_press":32,"trial_type":"html-keyboard-response","trial_index":251,"time_elapsed":568189,"internal_node_id":"0.0-8.0-0.61","subject":"cdjjpz0thacerve","sona":"7504"},{"rt":null,"stimulus":"<div style=\"font-size:60px;\">+</div>","key_press":null,"trial_type":"html-keyboard-response","trial_index":252,"time_elapsed":570194,"internal_node_id":"0.0-8.0-1.61","subject":"cdjjpz0thacerve","sona":"7504"},{"trial_type":"turing-test","trial_index":253,"time_elapsed":575563,"internal_node_id":"0.0-8.0-2.61","subject":"cdjjpz0thacerve","sona":"7504"},{"rt":380.14999999909196,"stimulus":"<p>Welche Sequenz haben Sie als natürlicher empfunden?</p>","key_press":70,"test_part":"response","test_stimulus":{"position":0,"left":"bvh/return-bottle-hold-training0-lines.txt","right":"bvh/vr_prediction_models/model(vcgpdm)-dataset(return-bottle-hold)-mode(ELBO)-parts(1)-dyn(10)-lvm(25)-hold(0)/final-lines.txt","att_check":false},"trial_type":"html-keyboard-response","trial_index":254,"time_elapsed":575949,"internal_node_id":"0.0-8.0-3.61","subject":"cdjjpz0thacerve","sona":"7504"},{"rt":250.7249999998603,"stimulus":"<p>Bereit?</p>","key_press":32,"trial_type":"html-keyboard-response","trial_index":255,"time_elapsed":576205,"internal_node_id":"0.0-8.0-0.62","subject":"cdjjpz0thacerve","sona":"7504"},{"rt":null,"stimulus":"<div style=\"font-size:60px;\">+</div>","key_press":null,"trial_type":"html-keyboard-response","trial_index":256,"time_elapsed":578211,"internal_node_id":"0.0-8.0-1.62","subject":"cdjjpz0thacerve","sona":"7504"},{"trial_type":"turing-test","trial_index":257,"time_elapsed":581554,"internal_node_id":"0.0-8.0-2.62","subject":"cdjjpz0thacerve","sona":"7504"},{"rt":592.7000000011176,"stimulus":"<p>Welche Sequenz haben Sie als natürlicher empfunden?</p>","key_press":70,"test_part":"response","test_stimulus":{"position":0,"left":"bvh/pass-bottle-hold-training1-lines.txt","right":"bvh/vr_prediction_models/model(vcgpdm)-dataset(pass-bottle-hold)-mode(ELBO)-parts(1)-dyn(35)-lvm(30)-hold(1)/final-lines.txt","att_check":false},"trial_type":"html-keyboard-response","trial_index":258,"time_elapsed":582157,"internal_node_id":"0.0-8.0-3.62","subject":"cdjjpz0thacerve","sona":"7504"},{"rt":226.7549999996554,"stimulus":"<p>Bereit?</p>","key_press":32,"trial_type":"html-keyboard-response","trial_index":259,"time_elapsed":582389,"internal_node_id":"0.0-8.0-0.63","subject":"cdjjpz0thacerve","sona":"7504"},{"rt":null,"stimulus":"<div style=\"font-size:60px;\">+</div>","key_press":null,"trial_type":"html-keyboard-response","trial_index":260,"time_elapsed":584399,"internal_node_id":"0.0-8.0-1.63","subject":"cdjjpz0thacerve","sona":"7504"},{"trial_type":"turing-test","trial_index":261,"time_elapsed":590255,"internal_node_id":"0.0-8.0-2.63","subject":"cdjjpz0thacerve","sona":"7504"},{"rt":277.79000000003725,"stimulus":"<p>Welche Sequenz haben Sie als natürlicher empfunden?</p>","key_press":74,"test_part":"response","test_stimulus":{"position":1,"left":"bvh/vr_prediction_models/model(vcgpdm)-dataset(pass-bottle)-mode(ELBO)-parts(1)-dyn(30)-lvm(35)-hold(4)/final-lines.txt","right":"bvh/pass-bottle-training4-lines.txt","att_check":false},"trial_type":"html-keyboard-response","trial_index":262,"time_elapsed":590540,"internal_node_id":"0.0-8.0-3.63","subject":"cdjjpz0thacerve","sona":"7504"},{"rt":267.7600000005914,"stimulus":"<p>Bereit?</p>","key_press":32,"trial_type":"html-keyboard-response","trial_index":263,"time_elapsed":590812,"internal_node_id":"0.0-8.0-0.64","subject":"cdjjpz0thacerve","sona":"7504"},{"rt":null,"stimulus":"<div style=\"font-size:60px;\">+</div>","key_press":null,"trial_type":"html-keyboard-response","trial_index":264,"time_elapsed":592821,"internal_node_id":"0.0-8.0-1.64","subject":"cdjjpz0thacerve","sona":"7504"},{"trial_type":"turing-test","trial_index":265,"time_elapsed":599061,"internal_node_id":"0.0-8.0-2.64","subject":"cdjjpz0thacerve","sona":"7504"},{"rt":2505.2099999992643,"stimulus":"<p>Welche Sequenz haben Sie als natürlicher empfunden?</p>","key_press":74,"test_part":"response","test_stimulus":{"position":0,"left":"bvh/pass-bottle-training2-lines.txt","right":"bvh/vr_prediction_models/model(vcgpdm)-dataset(pass-bottle)-mode(ELBO)-parts(1)-dyn(20)-lvm(5)-hold(2)/final-lines.txt","att_check":false},"trial_type":"html-keyboard-response","trial_index":266,"time_elapsed":601572,"internal_node_id":"0.0-8.0-3.64","subject":"cdjjpz0thacerve","sona":"7504"},{"rt":283.0450000001583,"stimulus":"<p>Bereit?</p>","key_press":32,"trial_type":"html-keyboard-response","trial_index":267,"time_elapsed":601859,"internal_node_id":"0.0-8.0-0.65","subject":"cdjjpz0thacerve","sona":"7504"},{"rt":null,"stimulus":"<div style=\"font-size:60px;\">+</div>","key_press":null,"trial_type":"html-keyboard-response","trial_index":268,"time_elapsed":603865,"internal_node_id":"0.0-8.0-1.65","subject":"cdjjpz0thacerve","sona":"7504"},{"trial_type":"turing-test","trial_index":269,"time_elapsed":610100,"internal_node_id":"0.0-8.0-2.65","subject":"cdjjpz0thacerve","sona":"7504"},{"rt":552.7200000014855,"stimulus":"<p>Welche Sequenz haben Sie als natürlicher empfunden?</p>","key_press":74,"test_part":"response","test_stimulus":{"position":0,"left":"bvh/return-bottle-training1-lines.txt","right":"bvh/vr_prediction_models/model(vcgpdm)-dataset(return-bottle)-mode(ELBO)-parts(3)-dyn(25)-lvm(25)-hold(1)/final-lines.txt","att_check":false},"trial_type":"html-keyboard-response","trial_index":270,"time_elapsed":610659,"internal_node_id":"0.0-8.0-3.65","subject":"cdjjpz0thacerve","sona":"7504"},{"rt":234.9349999986589,"stimulus":"<p>Bereit?</p>","key_press":32,"trial_type":"html-keyboard-response","trial_index":271,"time_elapsed":610899,"internal_node_id":"0.0-8.0-0.66","subject":"cdjjpz0thacerve","sona":"7504"},{"rt":null,"stimulus":"<div style=\"font-size:60px;\">+</div>","key_press":null,"trial_type":"html-keyboard-response","trial_index":272,"time_elapsed":612906,"internal_node_id":"0.0-8.0-1.66","subject":"cdjjpz0thacerve","sona":"7504"},{"trial_type":"turing-test","trial_index":273,"time_elapsed":616527,"internal_node_id":"0.0-8.0-2.66","subject":"cdjjpz0thacerve","sona":"7504"},{"rt":398.57499999925494,"stimulus":"<p>Welche Sequenz haben Sie als natürlicher empfunden?</p>","key_press":74,"test_part":"response","test_stimulus":{"position":1,"left":"bvh/vr_prediction_models/model(dmp)-dataset(pass-bottle-hold)-npsi(50)-hold(4)/final-lines.txt","right":"bvh/pass-bottle-hold-training4-lines.txt","att_check":false},"trial_type":"html-keyboard-response","trial_index":274,"time_elapsed":616931,"internal_node_id":"0.0-8.0-3.66","subject":"cdjjpz0thacerve","sona":"7504"},{"rt":169.55500000040047,"stimulus":"<p>Bereit?</p>","key_press":32,"trial_type":"html-keyboard-response","trial_index":275,"time_elapsed":617106,"internal_node_id":"0.0-8.0-0.67","subject":"cdjjpz0thacerve","sona":"7504"},{"rt":null,"stimulus":"<div style=\"font-size:60px;\">+</div>","key_press":null,"trial_type":"html-keyboard-response","trial_index":276,"time_elapsed":619113,"internal_node_id":"0.0-8.0-1.67","subject":"cdjjpz0thacerve","sona":"7504"},{"trial_type":"turing-test","trial_index":277,"time_elapsed":626080,"internal_node_id":"0.0-8.0-2.67","subject":"cdjjpz0thacerve","sona":"7504"},{"rt":1100.689999999362,"stimulus":"<p>Welche Sequenz haben Sie als natürlicher empfunden?</p>","key_press":70,"test_part":"response","test_stimulus":{"position":0,"left":"bvh/pass-bottle-training0-lines.txt","right":"bvh/vr_prediction_models/model(vcgpdm)-dataset(pass-bottle)-mode(ELBO)-parts(3)-dyn(15)-lvm(30)-hold(0)/final-lines.txt","att_check":false},"trial_type":"html-keyboard-response","trial_index":278,"time_elapsed":627186,"internal_node_id":"0.0-8.0-3.67","subject":"cdjjpz0thacerve","sona":"7504"},{"rt":257.63000000000466,"stimulus":"<p>Bereit?</p>","key_press":32,"trial_type":"html-keyboard-response","trial_index":279,"time_elapsed":627450,"internal_node_id":"0.0-8.0-0.68","subject":"cdjjpz0thacerve","sona":"7504"},{"rt":null,"stimulus":"<div style=\"font-size:60px;\">+</div>","key_press":null,"trial_type":"html-keyboard-response","trial_index":280,"time_elapsed":629454,"internal_node_id":"0.0-8.0-1.68","subject":"cdjjpz0thacerve","sona":"7504"},{"trial_type":"turing-test","trial_index":281,"time_elapsed":632785,"internal_node_id":"0.0-8.0-2.68","subject":"cdjjpz0thacerve","sona":"7504"},{"rt":585.9299999992363,"stimulus":"<p>Welche Sequenz haben Sie als natürlicher empfunden?</p>","key_press":70,"test_part":"response","test_stimulus":{"position":0,"left":"bvh/pass-bottle-hold-training0-lines.txt","right":"bvh/vr_prediction_models/model(tmp)-dataset(pass-bottle-hold)-numprim(12)-hold(0)/final-lines.txt","att_check":false},"trial_type":"html-keyboard-response","trial_index":282,"time_elapsed":633377,"internal_node_id":"0.0-8.0-3.68","subject":"cdjjpz0thacerve","sona":"7504"},{"rt":298.6999999994878,"stimulus":"<p>Bereit?</p>","key_press":32,"trial_type":"html-keyboard-response","trial_index":283,"time_elapsed":633681,"internal_node_id":"0.0-8.0-0.69","subject":"cdjjpz0thacerve","sona":"7504"},{"rt":null,"stimulus":"<div style=\"font-size:60px;\">+</div>","key_press":null,"trial_type":"html-keyboard-response","trial_index":284,"time_elapsed":635688,"internal_node_id":"0.0-8.0-1.69","subject":"cdjjpz0thacerve","sona":"7504"},{"trial_type":"turing-test","trial_index":285,"time_elapsed":639031,"internal_node_id":"0.0-8.0-2.69","subject":"cdjjpz0thacerve","sona":"7504"},{"rt":316.1450000007171,"stimulus":"<p>Welche Sequenz haben Sie als natürlicher empfunden?</p>","key_press":74,"test_part":"response","test_stimulus":{"position":1,"left":"bvh/vr_prediction_models/model(tmp)-dataset(pass-bottle-hold)-numprim(9)-hold(1)/final-lines.txt","right":"bvh/pass-bottle-hold-training1-lines.txt","att_check":false},"trial_type":"html-keyboard-response","trial_index":286,"time_elapsed":639354,"internal_node_id":"0.0-8.0-3.69","subject":"cdjjpz0thacerve","sona":"7504"},{"rt":202.1350000014063,"stimulus":"<p>Bereit?</p>","key_press":32,"trial_type":"html-keyboard-response","trial_index":287,"time_elapsed":639561,"internal_node_id":"0.0-8.0-0.70","subject":"cdjjpz0thacerve","sona":"7504"},{"rt":null,"stimulus":"<div style=\"font-size:60px;\">+</div>","key_press":null,"trial_type":"html-keyboard-response","trial_index":288,"time_elapsed":641568,"internal_node_id":"0.0-8.0-1.70","subject":"cdjjpz0thacerve","sona":"7504"},{"trial_type":"turing-test","trial_index":289,"time_elapsed":647518,"internal_node_id":"0.0-8.0-2.70","subject":"cdjjpz0thacerve","sona":"7504"},{"rt":485.0449999993434,"stimulus":"<p>Welche Sequenz haben Sie als natürlicher empfunden?</p>","key_press":70,"test_part":"response","test_stimulus":{"position":0,"left":"bvh/pass-bottle-training3-lines.txt","right":"bvh/vr_prediction_models/model(vcgpdm)-dataset(pass-bottle)-mode(ELBO)-parts(3)-dyn(15)-lvm(30)-hold(3)/final-lines.txt","att_check":false},"trial_type":"html-keyboard-response","trial_index":290,"time_elapsed":648009,"internal_node_id":"0.0-8.0-3.70","subject":"cdjjpz0thacerve","sona":"7504"},{"rt":298.4249999989988,"stimulus":"<p>Bereit?</p>","key_press":32,"trial_type":"html-keyboard-response","trial_index":291,"time_elapsed":648313,"internal_node_id":"0.0-8.0-0.71","subject":"cdjjpz0thacerve","sona":"7504"},{"rt":null,"stimulus":"<div style=\"font-size:60px;\">+</div>","key_press":null,"trial_type":"html-keyboard-response","trial_index":292,"time_elapsed":650316,"internal_node_id":"0.0-8.0-1.71","subject":"cdjjpz0thacerve","sona":"7504"},{"trial_type":"turing-test","trial_index":293,"time_elapsed":656196,"internal_node_id":"0.0-8.0-2.71","subject":"cdjjpz0thacerve","sona":"7504"},{"rt":726.6550000003772,"stimulus":"<p>Welche Sequenz haben Sie als natürlicher empfunden?</p>","key_press":70,"test_part":"response","test_stimulus":{"position":1,"left":"bvh/vr_prediction_models/model(vcgpdm)-dataset(pass-bottle)-mode(ELBO)-parts(3)-dyn(25)-lvm(15)-hold(4)/final-lines.txt","right":"bvh/pass-bottle-training4-lines.txt","att_check":false},"trial_type":"html-keyboard-response","trial_index":294,"time_elapsed":656928,"internal_node_id":"0.0-8.0-3.71","subject":"cdjjpz0thacerve","sona":"7504"},{"rt":282.0599999995902,"stimulus":"<p>Bereit?</p>","key_press":32,"trial_type":"html-keyboard-response","trial_index":295,"time_elapsed":657216,"internal_node_id":"0.0-8.0-0.72","subject":"cdjjpz0thacerve","sona":"7504"},{"rt":null,"stimulus":"<div style=\"font-size:60px;\">+</div>","key_press":null,"trial_type":"html-keyboard-response","trial_index":296,"time_elapsed":659220,"internal_node_id":"0.0-8.0-1.72","subject":"cdjjpz0thacerve","sona":"7504"},{"trial_type":"turing-test","trial_index":297,"time_elapsed":665396,"internal_node_id":"0.0-8.0-2.72","subject":"cdjjpz0thacerve","sona":"7504"},{"rt":661.775000000489,"stimulus":"<p>Welche Sequenz haben Sie als natürlicher empfunden?</p>","key_press":74,"test_part":"response","test_stimulus":{"position":0,"left":"bvh/return-bottle-training1-lines.txt","right":"bvh/vr_prediction_models/model(vcgpdm)-dataset(return-bottle)-mode(ELBO)-parts(3)-dyn(10)-lvm(25)-hold(1)/final-lines.txt","att_check":false},"trial_type":"html-keyboard-response","trial_index":298,"time_elapsed":666064,"internal_node_id":"0.0-8.0-3.72","subject":"cdjjpz0thacerve","sona":"7504"},{"rt":899.3900000004796,"stimulus":"<p>Bereit?</p>","key_press":32,"trial_type":"html-keyboard-response","trial_index":299,"time_elapsed":666968,"internal_node_id":"0.0-8.0-0.73","subject":"cdjjpz0thacerve","sona":"7504"},{"rt":null,"stimulus":"<div style=\"font-size:60px;\">+</div>","key_press":null,"trial_type":"html-keyboard-response","trial_index":300,"time_elapsed":668972,"internal_node_id":"0.0-8.0-1.73","subject":"cdjjpz0thacerve","sona":"7504"},{"trial_type":"turing-test","trial_index":301,"time_elapsed":675159,"internal_node_id":"0.0-8.0-2.73","subject":"cdjjpz0thacerve","sona":"7504"},{"rt":297.58499999844935,"stimulus":"<p>Welche Sequenz haben Sie als natürlicher empfunden?</p>","key_press":74,"test_part":"response","test_stimulus":{"position":1,"left":"bvh/vr_prediction_models/model(vcgpdm)-dataset(return-bottle)-mode(ELBO)-parts(1)-dyn(10)-lvm(30)-hold(1)/final-lines.txt","right":"bvh/return-bottle-training1-lines.txt","att_check":false},"trial_type":"html-keyboard-response","trial_index":302,"time_elapsed":675463,"internal_node_id":"0.0-8.0-3.73","subject":"cdjjpz0thacerve","sona":"7504"},{"rt":258.0950000010198,"stimulus":"<p>Bereit?</p>","key_press":32,"trial_type":"html-keyboard-response","trial_index":303,"time_elapsed":675727,"internal_node_id":"0.0-8.0-0.74","subject":"cdjjpz0thacerve","sona":"7504"},{"rt":null,"stimulus":"<div style=\"font-size:60px;\">+</div>","key_press":null,"trial_type":"html-keyboard-response","trial_index":304,"time_elapsed":677737,"internal_node_id":"0.0-8.0-1.74","subject":"cdjjpz0thacerve","sona":"7504"},{"trial_type":"turing-test","trial_index":305,"time_elapsed":681415,"internal_node_id":"0.0-8.0-2.74","subject":"cdjjpz0thacerve","sona":"7504"},{"rt":531.0099999987287,"stimulus":"<p>Welche Sequenz haben Sie als natürlicher empfunden?</p>","key_press":74,"test_part":"response","test_stimulus":{"position":1,"left":"bvh/vr_prediction_models/model(dmp)-dataset(return-bottle-hold)-npsi(10)-hold(3)/final-lines.txt","right":"bvh/return-bottle-hold-training3-lines.txt","att_check":true},"trial_type":"html-keyboard-response","trial_index":306,"time_elapsed":681951,"internal_node_id":"0.0-8.0-3.74","subject":"cdjjpz0thacerve","sona":"7504"},{"rt":409.8299999986775,"stimulus":"<p>Bereit?</p>","key_press":32,"trial_type":"html-keyboard-response","trial_index":307,"time_elapsed":682366,"internal_node_id":"0.0-8.0-0.75","subject":"cdjjpz0thacerve","sona":"7504"},{"rt":null,"stimulus":"<div style=\"font-size:60px;\">+</div>","key_press":null,"trial_type":"html-keyboard-response","trial_index":308,"time_elapsed":684372,"internal_node_id":"0.0-8.0-1.75","subject":"cdjjpz0thacerve","sona":"7504"},{"trial_type":"turing-test","trial_index":309,"time_elapsed":688086,"internal_node_id":"0.0-8.0-2.75","subject":"cdjjpz0thacerve","sona":"7504"},{"rt":105.08000000123866,"stimulus":"<p>Welche Sequenz haben Sie als natürlicher empfunden?</p>","key_press":70,"test_part":"response","test_stimulus":{"position":0,"left":"bvh/pass-bottle-hold-training2-lines.txt","right":"bvh/vr_prediction_models/model(vcgpdm)-dataset(pass-bottle-hold)-mode(ELBO)-parts(3)-dyn(30)-lvm(15)-hold(2)/final-lines.txt","att_check":false},"trial_type":"html-keyboard-response","trial_index":310,"time_elapsed":688206,"internal_node_id":"0.0-8.0-3.75","subject":"cdjjpz0thacerve","sona":"7504"},{"rt":882.5500000002794,"stimulus":"<p>Bereit?</p>","key_press":32,"trial_type":"html-keyboard-response","trial_index":311,"time_elapsed":689094,"internal_node_id":"0.0-8.0-0.76","subject":"cdjjpz0thacerve","sona":"7504"},{"rt":null,"stimulus":"<div style=\"font-size:60px;\">+</div>","key_press":null,"trial_type":"html-keyboard-response","trial_index":312,"time_elapsed":691099,"internal_node_id":"0.0-8.0-1.76","subject":"cdjjpz0thacerve","sona":"7504"},{"trial_type":"turing-test","trial_index":313,"time_elapsed":696758,"internal_node_id":"0.0-8.0-2.76","subject":"cdjjpz0thacerve","sona":"7504"},{"rt":1409.2849999996834,"stimulus":"<p>Welche Sequenz haben Sie als natürlicher empfunden?</p>","key_press":70,"test_part":"response","test_stimulus":{"position":0,"left":"bvh/pass-bottle-training1-lines.txt","right":"bvh/vr_prediction_models/model(vcgpdm)-dataset(pass-bottle)-mode(ELBO)-parts(1)-dyn(35)-lvm(30)-hold(1)/final-lines.txt","att_check":false},"trial_type":"html-keyboard-response","trial_index":314,"time_elapsed":698174,"internal_node_id":"0.0-8.0-3.76","subject":"cdjjpz0thacerve","sona":"7504"},{"rt":755.054999999702,"stimulus":"<p>Bereit?</p>","key_press":32,"trial_type":"html-keyboard-response","trial_index":315,"time_elapsed":698933,"internal_node_id":"0.0-8.0-0.77","subject":"cdjjpz0thacerve","sona":"7504"},{"rt":null,"stimulus":"<div style=\"font-size:60px;\">+</div>","key_press":null,"trial_type":"html-keyboard-response","trial_index":316,"time_elapsed":700944,"internal_node_id":"0.0-8.0-1.77","subject":"cdjjpz0thacerve","sona":"7504"},{"trial_type":"turing-test","trial_index":317,"time_elapsed":706413,"internal_node_id":"0.0-8.0-2.77","subject":"cdjjpz0thacerve","sona":"7504"},{"rt":425.1050000003306,"stimulus":"<p>Welche Sequenz haben Sie als natürlicher empfunden?</p>","key_press":70,"test_part":"response","test_stimulus":{"position":0,"left":"bvh/pass-bottle-training1-lines.txt","right":"bvh/vr_prediction_models/model(dmp)-dataset(pass-bottle)-npsi(100)-hold(1)/final-lines.txt","att_check":false},"trial_type":"html-keyboard-response","trial_index":318,"time_elapsed":706845,"internal_node_id":"0.0-8.0-3.77","subject":"cdjjpz0thacerve","sona":"7504"},{"rt":1001.1300000005867,"stimulus":"<p>Bereit?</p>","key_press":32,"trial_type":"html-keyboard-response","trial_index":319,"time_elapsed":707853,"internal_node_id":"0.0-8.0-0.78","subject":"cdjjpz0thacerve","sona":"7504"},{"rt":null,"stimulus":"<div style=\"font-size:60px;\">+</div>","key_press":null,"trial_type":"html-keyboard-response","trial_index":320,"time_elapsed":709860,"internal_node_id":"0.0-8.0-1.78","subject":"cdjjpz0thacerve","sona":"7504"},{"trial_type":"turing-test","trial_index":321,"time_elapsed":713534,"internal_node_id":"0.0-8.0-2.78","subject":"cdjjpz0thacerve","sona":"7504"},{"rt":521.2000000010012,"stimulus":"<p>Welche Sequenz haben Sie als natürlicher empfunden?</p>","key_press":74,"test_part":"response","test_stimulus":{"position":1,"left":"bvh/vr_prediction_models/model(vcgpdm)-dataset(return-bottle-hold)-mode(ELBO)-parts(3)-dyn(25)-lvm(15)-hold(2)/final-lines.txt","right":"bvh/return-bottle-hold-training2-lines.txt","att_check":false},"trial_type":"html-keyboard-response","trial_index":322,"time_elapsed":714061,"internal_node_id":"0.0-8.0-3.78","subject":"cdjjpz0thacerve","sona":"7504"},{"rt":865.8900000009453,"stimulus":"<p>Bereit?</p>","key_press":32,"trial_type":"html-keyboard-response","trial_index":323,"time_elapsed":714932,"internal_node_id":"0.0-8.0-0.79","subject":"cdjjpz0thacerve","sona":"7504"},{"rt":null,"stimulus":"<div style=\"font-size:60px;\">+</div>","key_press":null,"trial_type":"html-keyboard-response","trial_index":324,"time_elapsed":716939,"internal_node_id":"0.0-8.0-1.79","subject":"cdjjpz0thacerve","sona":"7504"},{"trial_type":"turing-test","trial_index":325,"time_elapsed":722572,"internal_node_id":"0.0-8.0-2.79","subject":"cdjjpz0thacerve","sona":"7504"},{"rt":449.78000000084285,"stimulus":"<p>Welche Sequenz haben Sie als natürlicher empfunden?</p>","key_press":70,"test_part":"response","test_stimulus":{"position":0,"left":"bvh/pass-bottle-training1-lines.txt","right":"bvh/vr_prediction_models/model(vcgpdm)-dataset(pass-bottle)-mode(ELBO)-parts(3)-dyn(10)-lvm(25)-hold(1)/final-lines.txt","att_check":false},"trial_type":"html-keyboard-response","trial_index":326,"time_elapsed":723028,"internal_node_id":"0.0-8.0-3.79","subject":"cdjjpz0thacerve","sona":"7504"},{"rt":11037.66499999992,"responses":"{\"age\":\" 19\",\"gender\":\"weiblich\"}","trial_type":"survey-text","trial_index":327,"time_elapsed":734083,"internal_node_id":"0.0-10.0-0.0","subject":"cdjjpz0thacerve","sona":"7504"},{"rt":64673.3349999995,"responses":"{\"area\":\"Hände, Schultern\",\"Q1\":\"Sie wirkten unnatürlich\",\"Q2\":\"Rotation, Sequenzgeschwindigkeit\"}","trial_type":"survey-text","trial_index":328,"time_elapsed":798891,"internal_node_id":"0.0-10.0-1.0","subject":"cdjjpz0thacerve","sona":"7504"}]