[{"rt":2309,"stimulus":"<p>Welcome!<br> Please choose your language to start the experiment in the chosen language.</p><p>Willkommen!<br> Bitte wählen Sie eine Sprache, um das Experiment in der ausgewählten Sprache zu starten</p>","button_pressed":"1","trial_type":"html-button-response","trial_index":0,"time_elapsed":2324,"internal_node_id":"0.0-0.0","subject":"uthlykyvm6qu3du","sona":"5917"},{"view_history":"[{\"page_index\":0,\"viewing_time\":2099},{\"page_index\":1,\"viewing_time\":1511.000000000001},{\"page_index\":2,\"viewing_time\":3055.999999999999},{\"page_index\":3,\"viewing_time\":3218},{\"page_index\":4,\"viewing_time\":1374.0000000000018}]","rt":11258.000000000002,"trial_type":"instructions","trial_index":1,"time_elapsed":13583,"internal_node_id":"0.0-1.0-0.0","subject":"uthlykyvm6qu3du","sona":"5917"},{"rt":1289,"stimulus":"<p>Bereit?</p>","key_press":32,"trial_type":"html-keyboard-response","trial_index":2,"time_elapsed":14873,"internal_node_id":"0.0-3.0","subject":"uthlykyvm6qu3du","sona":"5917"},{"rt":null,"stimulus":"<div style=\"font-size:60px;\">+</div>","key_press":null,"trial_type":"html-keyboard-response","trial_index":3,"time_elapsed":16876,"internal_node_id":"0.0-4.0","subject":"uthlykyvm6qu3du","sona":"5917"},{"trial_type":"training","trial_index":4,"time_elapsed":20284,"internal_node_id":"0.0-5.0","subject":"uthlykyvm6qu3du","sona":"5917"},{"rt":322.00000000000364,"stimulus":"<p>Welche Sequenz haben Sie als natürlicher empfunden?</p>","key_press":70,"trial_type":"html-keyboard-response","trial_index":5,"time_elapsed":20606,"internal_node_id":"0.0-6.0","subject":"uthlykyvm6qu3du","sona":"5917"},{"rt":3785,"stimulus":"<p>Das Experiment startet nun.</p><p><small>Bitte drücken Sie den Knopf, wenn Sie bereit sind.</small></p>","button_pressed":"0","trial_type":"html-button-response","trial_index":6,"time_elapsed":24392,"internal_node_id":"0.0-7.0","subject":"uthlykyvm6qu3du","sona":"5917"},{"rt":859,"stimulus":"<p>Bereit?</p>","key_press":32,"trial_type":"html-keyboard-response","trial_index":7,"time_elapsed":25252,"internal_node_id":"0.0-8.0-0.0","subject":"uthlykyvm6qu3du","sona":"5917"},{"rt":null,"stimulus":"<div style=\"font-size:60px;\">+</div>","key_press":null,"trial_type":"html-keyboard-response","trial_index":8,"time_elapsed":27256,"internal_node_id":"0.0-8.0-1.0","subject":"uthlykyvm6qu3du","sona":"5917"},{"trial_type":"turing-test","trial_index":9,"time_elapsed":33378,"internal_node_id":"0.0-8.0-2.0","subject":"uthlykyvm6qu3du","sona":"5917"},{"rt":340,"stimulus":"<p>Welche Sequenz haben Sie als natürlicher empfunden?</p>","key_press":70,"test_part":"response","test_stimulus":{"position":0,"left":"bvh/pass-bottle-training2-lines.txt","right":"bvh/vr_prediction_models/model(vcgpdm)-dataset(pass-bottle)-mode(ELBO)-parts(3)-dyn(15)-lvm(30)-hold(2)/final-lines.txt","att_check":false},"trial_type":"html-keyboard-response","trial_index":10,"time_elapsed":33721,"internal_node_id":"0.0-8.0-3.0","subject":"uthlykyvm6qu3du","sona":"5917"},{"rt":517,"stimulus":"<p>Bereit?</p>","key_press":32,"trial_type":"html-keyboard-response","trial_index":11,"time_elapsed":34240,"internal_node_id":"0.0-8.0-0.1","subject":"uthlykyvm6qu3du","sona":"5917"},{"rt":null,"stimulus":"<div style=\"font-size:60px;\">+</div>","key_press":null,"trial_type":"html-keyboard-response","trial_index":12,"time_elapsed":36243,"internal_node_id":"0.0-8.0-1.1","subject":"uthlykyvm6qu3du","sona":"5917"},{"trial_type":"turing-test","trial_index":13,"time_elapsed":42035,"internal_node_id":"0.0-8.0-2.1","subject":"uthlykyvm6qu3du","sona":"5917"},{"rt":334,"stimulus":"<p>Welche Sequenz haben Sie als natürlicher empfunden?</p>","key_press":70,"test_part":"response","test_stimulus":{"position":0,"left":"bvh/return-bottle-training4-lines.txt","right":"bvh/vr_prediction_models/model(vcgpdm)-dataset(return-bottle)-mode(ELBO)-parts(1)-dyn(20)-lvm(20)-hold(4)/final-lines.txt","att_check":false},"trial_type":"html-keyboard-response","trial_index":14,"time_elapsed":42372,"internal_node_id":"0.0-8.0-3.1","subject":"uthlykyvm6qu3du","sona":"5917"},{"rt":442,"stimulus":"<p>Bereit?</p>","key_press":32,"trial_type":"html-keyboard-response","trial_index":15,"time_elapsed":42816,"internal_node_id":"0.0-8.0-0.2","subject":"uthlykyvm6qu3du","sona":"5917"},{"rt":null,"stimulus":"<div style=\"font-size:60px;\">+</div>","key_press":null,"trial_type":"html-keyboard-response","trial_index":16,"time_elapsed":44819,"internal_node_id":"0.0-8.0-1.2","subject":"uthlykyvm6qu3du","sona":"5917"},{"trial_type":"turing-test","trial_index":17,"time_elapsed":48492,"internal_node_id":"0.0-8.0-2.2","subject":"uthlykyvm6qu3du","sona":"5917"},{"rt":775,"stimulus":"<p>Welche Sequenz haben Sie als natürlicher empfunden?</p>","key_press":70,"test_part":"response","test_stimulus":{"position":0,"left":"bvh/return-bottle-hold-training3-lines.txt","right":"bvh/vr_prediction_models/model(vcgpdm)-dataset(return-bottle-hold)-mode(ELBO)-parts(3)-dyn(25)-lvm(25)-hold(3)/final-lines.txt","att_check":false},"trial_type":"html-keyboard-response","trial_index":18,"time_elapsed":49269,"internal_node_id":"0.0-8.0-3.2","subject":"uthlykyvm6qu3du","sona":"5917"},{"rt":296.0000000000073,"stimulus":"<p>Bereit?</p>","key_press":32,"trial_type":"html-keyboard-response","trial_index":19,"time_elapsed":49568,"internal_node_id":"0.0-8.0-0.3","subject":"uthlykyvm6qu3du","sona":"5917"},{"rt":null,"stimulus":"<div style=\"font-size:60px;\">+</div>","key_press":null,"trial_type":"html-keyboard-response","trial_index":20,"time_elapsed":51571,"internal_node_id":"0.0-8.0-1.3","subject":"uthlykyvm6qu3du","sona":"5917"},{"trial_type":"turing-test","trial_index":21,"time_elapsed":57711,"internal_node_id":"0.0-8.0-2.3","subject":"uthlykyvm6qu3du","sona":"5917"},{"rt":544,"stimulus":"<p>Welche Sequenz haben Sie als natürlicher empfunden?</p>","key_press":70,"test_part":"response","test_stimulus":{"position":0,"left":"bvh/pass-bottle-training2-lines.txt","right":"bvh/vr_prediction_models/model(vcgpdm)-dataset(pass-bottle)-mode(ELBO)-parts(3)-dyn(35)-lvm(20)-hold(2)/final-lines.txt","att_check":false},"trial_type":"html-keyboard-response","trial_index":22,"time_elapsed":58257,"internal_node_id":"0.0-8.0-3.3","subject":"uthlykyvm6qu3du","sona":"5917"},{"rt":227,"stimulus":"<p>Bereit?</p>","key_press":32,"trial_type":"html-keyboard-response","trial_index":23,"time_elapsed":58485,"internal_node_id":"0.0-8.0-0.4","subject":"uthlykyvm6qu3du","sona":"5917"},{"rt":null,"stimulus":"<div style=\"font-size:60px;\">+</div>","key_press":null,"trial_type":"html-keyboard-response","trial_index":24,"time_elapsed":60488,"internal_node_id":"0.0-8.0-1.4","subject":"uthlykyvm6qu3du","sona":"5917"},{"trial_type":"turing-test","trial_index":25,"time_elapsed":63688,"internal_node_id":"0.0-8.0-2.4","subject":"uthlykyvm6qu3du","sona":"5917"},{"rt":730.9999999999927,"stimulus":"<p>Welche Sequenz haben Sie als natürlicher empfunden?</p>","key_press":74,"test_part":"response","test_stimulus":{"position":1,"left":"bvh/vr_prediction_models/model(dmp)-dataset(pass-bottle-hold)-npsi(30)-hold(2)/final-lines.txt","right":"bvh/pass-bottle-hold-training2-lines.txt","att_check":false},"trial_type":"html-keyboard-response","trial_index":26,"time_elapsed":64421,"internal_node_id":"0.0-8.0-3.4","subject":"uthlykyvm6qu3du","sona":"5917"},{"rt":268.9999999999927,"stimulus":"<p>Bereit?</p>","key_press":32,"trial_type":"html-keyboard-response","trial_index":27,"time_elapsed":64692,"internal_node_id":"0.0-8.0-0.5","subject":"uthlykyvm6qu3du","sona":"5917"},{"rt":null,"stimulus":"<div style=\"font-size:60px;\">+</div>","key_press":null,"trial_type":"html-keyboard-response","trial_index":28,"time_elapsed":66695,"internal_node_id":"0.0-8.0-1.5","subject":"uthlykyvm6qu3du","sona":"5917"},{"trial_type":"turing-test","trial_index":29,"time_elapsed":70169,"internal_node_id":"0.0-8.0-2.5","subject":"uthlykyvm6qu3du","sona":"5917"},{"rt":559.0000000000146,"stimulus":"<p>Welche Sequenz haben Sie als natürlicher empfunden?</p>","key_press":70,"test_part":"response","test_stimulus":{"position":0,"left":"bvh/pass-bottle-hold-training3-lines.txt","right":"bvh/vr_prediction_models/model(tmp)-dataset(pass-bottle-hold)-numprim(6)-hold(3)/final-lines.txt","att_check":false},"trial_type":"html-keyboard-response","trial_index":30,"time_elapsed":70731,"internal_node_id":"0.0-8.0-3.5","subject":"uthlykyvm6qu3du","sona":"5917"},{"rt":299,"stimulus":"<p>Bereit?</p>","key_press":32,"trial_type":"html-keyboard-response","trial_index":31,"time_elapsed":71032,"internal_node_id":"0.0-8.0-0.6","subject":"uthlykyvm6qu3du","sona":"5917"},{"rt":null,"stimulus":"<div style=\"font-size:60px;\">+</div>","key_press":null,"trial_type":"html-keyboard-response","trial_index":32,"time_elapsed":73035,"internal_node_id":"0.0-8.0-1.6","subject":"uthlykyvm6qu3du","sona":"5917"},{"trial_type":"turing-test","trial_index":33,"time_elapsed":79104,"internal_node_id":"0.0-8.0-2.6","subject":"uthlykyvm6qu3du","sona":"5917"},{"rt":568,"stimulus":"<p>Welche Sequenz haben Sie als natürlicher empfunden?</p>","key_press":70,"test_part":"response","test_stimulus":{"position":0,"left":"bvh/return-bottle-training1-lines.txt","right":"bvh/vr_prediction_models/model(vcgpdm)-dataset(return-bottle)-mode(ELBO)-parts(3)-dyn(25)-lvm(15)-hold(1)/final-lines.txt","att_check":false},"trial_type":"html-keyboard-response","trial_index":34,"time_elapsed":79675,"internal_node_id":"0.0-8.0-3.6","subject":"uthlykyvm6qu3du","sona":"5917"},{"rt":183,"stimulus":"<p>Bereit?</p>","key_press":32,"trial_type":"html-keyboard-response","trial_index":35,"time_elapsed":79859,"internal_node_id":"0.0-8.0-0.7","subject":"uthlykyvm6qu3du","sona":"5917"},{"rt":null,"stimulus":"<div style=\"font-size:60px;\">+</div>","key_press":null,"trial_type":"html-keyboard-response","trial_index":36,"time_elapsed":81862,"internal_node_id":"0.0-8.0-1.7","subject":"uthlykyvm6qu3du","sona":"5917"},{"trial_type":"turing-test","trial_index":37,"time_elapsed":85250,"internal_node_id":"0.0-8.0-2.7","subject":"uthlykyvm6qu3du","sona":"5917"},{"rt":489,"stimulus":"<p>Welche Sequenz haben Sie als natürlicher empfunden?</p>","key_press":74,"test_part":"response","test_stimulus":{"position":1,"left":"bvh/vr_prediction_models/model(vcgpdm)-dataset(pass-bottle-hold)-mode(ELBO)-parts(3)-dyn(10)-lvm(10)-hold(0)/final-lines.txt","right":"bvh/pass-bottle-hold-training0-lines.txt","att_check":false},"trial_type":"html-keyboard-response","trial_index":38,"time_elapsed":85741,"internal_node_id":"0.0-8.0-3.7","subject":"uthlykyvm6qu3du","sona":"5917"},{"rt":526,"stimulus":"<p>Bereit?</p>","key_press":32,"trial_type":"html-keyboard-response","trial_index":39,"time_elapsed":86269,"internal_node_id":"0.0-8.0-0.8","subject":"uthlykyvm6qu3du","sona":"5917"},{"rt":null,"stimulus":"<div style=\"font-size:60px;\">+</div>","key_press":null,"trial_type":"html-keyboard-response","trial_index":40,"time_elapsed":88272,"internal_node_id":"0.0-8.0-1.8","subject":"uthlykyvm6qu3du","sona":"5917"},{"trial_type":"turing-test","trial_index":41,"time_elapsed":91480,"internal_node_id":"0.0-8.0-2.8","subject":"uthlykyvm6qu3du","sona":"5917"},{"rt":406,"stimulus":"<p>Welche Sequenz haben Sie als natürlicher empfunden?</p>","key_press":70,"test_part":"response","test_stimulus":{"position":0,"left":"bvh/pass-bottle-hold-training0-lines.txt","right":"bvh/vr_prediction_models/model(vcgpdm)-dataset(pass-bottle-hold)-mode(ELBO)-parts(3)-dyn(10)-lvm(10)-hold(0)/final-lines.txt","att_check":false},"trial_type":"html-keyboard-response","trial_index":42,"time_elapsed":91888,"internal_node_id":"0.0-8.0-3.8","subject":"uthlykyvm6qu3du","sona":"5917"},{"rt":343.00000000001455,"stimulus":"<p>Bereit?</p>","key_press":32,"trial_type":"html-keyboard-response","trial_index":43,"time_elapsed":92233,"internal_node_id":"0.0-8.0-0.9","subject":"uthlykyvm6qu3du","sona":"5917"},{"rt":null,"stimulus":"<div style=\"font-size:60px;\">+</div>","key_press":null,"trial_type":"html-keyboard-response","trial_index":44,"time_elapsed":94236,"internal_node_id":"0.0-8.0-1.9","subject":"uthlykyvm6qu3du","sona":"5917"},{"trial_type":"turing-test","trial_index":45,"time_elapsed":99678,"internal_node_id":"0.0-8.0-2.9","subject":"uthlykyvm6qu3du","sona":"5917"},{"rt":78,"stimulus":"<p>Welche Sequenz haben Sie als natürlicher empfunden?</p>","key_press":74,"test_part":"response","test_stimulus":{"position":1,"left":"bvh/vr_prediction_models/model(vcgpdm)-dataset(return-bottle)-mode(ELBO)-parts(1)-dyn(20)-lvm(5)-hold(0)/final-lines.txt","right":"bvh/return-bottle-training0-lines.txt","att_check":false},"trial_type":"html-keyboard-response","trial_index":46,"time_elapsed":99759,"internal_node_id":"0.0-8.0-3.9","subject":"uthlykyvm6qu3du","sona":"5917"},{"rt":368.00000000001455,"stimulus":"<p>Bereit?</p>","key_press":32,"trial_type":"html-keyboard-response","trial_index":47,"time_elapsed":100129,"internal_node_id":"0.0-8.0-0.10","subject":"uthlykyvm6qu3du","sona":"5917"},{"rt":null,"stimulus":"<div style=\"font-size:60px;\">+</div>","key_press":null,"trial_type":"html-keyboard-response","trial_index":48,"time_elapsed":102132,"internal_node_id":"0.0-8.0-1.10","subject":"uthlykyvm6qu3du","sona":"5917"},{"trial_type":"turing-test","trial_index":49,"time_elapsed":107959,"internal_node_id":"0.0-8.0-2.10","subject":"uthlykyvm6qu3du","sona":"5917"},{"rt":7226,"stimulus":"<p>Welche Sequenz haben Sie als natürlicher empfunden?</p>","key_press":74,"test_part":"response","test_stimulus":{"position":1,"left":"bvh/vr_prediction_models/model(vcgpdm)-dataset(pass-bottle)-mode(ELBO)-parts(1)-dyn(20)-lvm(5)-hold(3)/final-lines.txt","right":"bvh/pass-bottle-training3-lines.txt","att_check":false},"trial_type":"html-keyboard-response","trial_index":50,"time_elapsed":115186,"internal_node_id":"0.0-8.0-3.10","subject":"uthlykyvm6qu3du","sona":"5917"},{"rt":1296,"stimulus":"<p>Bereit?</p>","key_press":32,"trial_type":"html-keyboard-response","trial_index":51,"time_elapsed":116485,"internal_node_id":"0.0-8.0-0.11","subject":"uthlykyvm6qu3du","sona":"5917"},{"rt":null,"stimulus":"<div style=\"font-size:60px;\">+</div>","key_press":null,"trial_type":"html-keyboard-response","trial_index":52,"time_elapsed":118488,"internal_node_id":"0.0-8.0-1.11","subject":"uthlykyvm6qu3du","sona":"5917"},{"trial_type":"turing-test","trial_index":53,"time_elapsed":122124,"internal_node_id":"0.0-8.0-2.11","subject":"uthlykyvm6qu3du","sona":"5917"}]