[{"rt":3479.2550000129268,"stimulus":"<p>Welcome!<br> Please choose your language to start the experiment in the chosen language.</p><p>Willkommen!<br> Bitte wählen Sie eine Sprache, um das Experiment in der ausgewählten Sprache zu starten</p>","button_pressed":"0","trial_type":"html-button-response","trial_index":0,"time_elapsed":3598,"internal_node_id":"0.0-0.0","subject":"3lnf92mpspqyrlc","sona":"7333"},{"view_history":"[{\"page_index\":0,\"viewing_time\":14616.549999976996},{\"page_index\":1,\"viewing_time\":7170.17500003567},{\"page_index\":2,\"viewing_time\":7020.569999993313},{\"page_index\":3,\"viewing_time\":4331.02499996312},{\"page_index\":4,\"viewing_time\":1874.535000009928}]","rt":35019.23999999417,"trial_type":"instructions","trial_index":1,"time_elapsed":38632,"internal_node_id":"0.0-2.0-0.0","subject":"3lnf92mpspqyrlc","sona":"7333"},{"rt":1374.1850000224076,"stimulus":"<p>Ready?</p>","key_press":32,"trial_type":"html-keyboard-response","trial_index":2,"time_elapsed":40020,"internal_node_id":"0.0-3.0","subject":"3lnf92mpspqyrlc","sona":"7333"},{"rt":null,"stimulus":"<div style=\"font-size:60px;\">+</div>","key_press":null,"trial_type":"html-keyboard-response","trial_index":3,"time_elapsed":42050,"internal_node_id":"0.0-4.0","subject":"3lnf92mpspqyrlc","sona":"7333"},{"trial_type":"training","trial_index":4,"time_elapsed":45771,"internal_node_id":"0.0-5.0","subject":"3lnf92mpspqyrlc","sona":"7333"},{"rt":6092.420000000857,"stimulus":"<p>Which sequence did you perceive as more natural?</p>","key_press":70,"trial_type":"html-keyboard-response","trial_index":5,"time_elapsed":51869,"internal_node_id":"0.0-6.0","subject":"3lnf92mpspqyrlc","sona":"7333"},{"rt":2202.2349999751896,"stimulus":"<p>The experiment starts now.</p><p><small>Please click the button if you are ready.</small></p>","button_pressed":"0","trial_type":"html-button-response","trial_index":6,"time_elapsed":54080,"internal_node_id":"0.0-7.0","subject":"3lnf92mpspqyrlc","sona":"7333"},{"rt":3408.9399999938905,"stimulus":"<p>Ready?</p>","key_press":32,"trial_type":"html-keyboard-response","trial_index":7,"time_elapsed":57505,"internal_node_id":"0.0-8.0-0.0","subject":"3lnf92mpspqyrlc","sona":"7333"},{"rt":null,"stimulus":"<div style=\"font-size:60px;\">+</div>","key_press":null,"trial_type":"html-keyboard-response","trial_index":8,"time_elapsed":59524,"internal_node_id":"0.0-8.0-1.0","subject":"3lnf92mpspqyrlc","sona":"7333"},{"trial_type":"turing-test","trial_index":9,"time_elapsed":65942,"internal_node_id":"0.0-8.0-2.0","subject":"3lnf92mpspqyrlc","sona":"7333"},{"rt":1027.63500000583,"stimulus":"<p>Which sequence did you perceive as more natural?</p>","key_press":70,"test_part":"response","test_stimulus":{"position":1,"left":"bvh/vr_prediction_models/model(tmp)-dataset(pass-bottle)-numprim(15)-hold(2)/final-lines.txt","right":"bvh/pass-bottle-training2-lines.txt","att_check":false},"trial_type":"html-keyboard-response","trial_index":10,"time_elapsed":66983,"internal_node_id":"0.0-8.0-3.0","subject":"3lnf92mpspqyrlc","sona":"7333"},{"rt":699.4599999743514,"stimulus":"<p>Ready?</p>","key_press":32,"trial_type":"html-keyboard-response","trial_index":11,"time_elapsed":67695,"internal_node_id":"0.0-8.0-0.1","subject":"3lnf92mpspqyrlc","sona":"7333"},{"rt":null,"stimulus":"<div style=\"font-size:60px;\">+</div>","key_press":null,"trial_type":"html-keyboard-response","trial_index":12,"time_elapsed":69722,"internal_node_id":"0.0-8.0-1.1","subject":"3lnf92mpspqyrlc","sona":"7333"},{"trial_type":"turing-test","trial_index":13,"time_elapsed":75779,"internal_node_id":"0.0-8.0-2.1","subject":"3lnf92mpspqyrlc","sona":"7333"},{"rt":736.3350000232458,"stimulus":"<p>Which sequence did you perceive as more natural?</p>","key_press":74,"test_part":"response","test_stimulus":{"position":0,"left":"bvh/return-bottle-training4-lines.txt","right":"bvh/vr_prediction_models/model(dmp)-dataset(return-bottle)-npsi(30)-hold(4)/final-lines.txt","att_check":false},"trial_type":"html-keyboard-response","trial_index":14,"time_elapsed":76526,"internal_node_id":"0.0-8.0-3.1","subject":"3lnf92mpspqyrlc","sona":"7333"},{"rt":1767.374999995809,"stimulus":"<p>Ready?</p>","key_press":32,"trial_type":"html-keyboard-response","trial_index":15,"time_elapsed":78303,"internal_node_id":"0.0-8.0-0.2","subject":"3lnf92mpspqyrlc","sona":"7333"},{"rt":null,"stimulus":"<div style=\"font-size:60px;\">+</div>","key_press":null,"trial_type":"html-keyboard-response","trial_index":16,"time_elapsed":80332,"internal_node_id":"0.0-8.0-1.2","subject":"3lnf92mpspqyrlc","sona":"7333"},{"trial_type":"turing-test","trial_index":17,"time_elapsed":84419,"internal_node_id":"0.0-8.0-2.2","subject":"3lnf92mpspqyrlc","sona":"7333"},{"rt":1224.9350000056438,"stimulus":"<p>Which sequence did you perceive as more natural?</p>","key_press":70,"test_part":"response","test_stimulus":{"position":1,"left":"bvh/vr_prediction_models/model(vcgpdm)-dataset(pass-bottle-hold)-mode(ELBO)-parts(3)-dyn(25)-lvm(15)-hold(4)/final-lines.txt","right":"bvh/pass-bottle-hold-training4-lines.txt","att_check":false},"trial_type":"html-keyboard-response","trial_index":18,"time_elapsed":85656,"internal_node_id":"0.0-8.0-3.2","subject":"3lnf92mpspqyrlc","sona":"7333"},{"rt":2781.9800000288524,"stimulus":"<p>Ready?</p>","key_press":32,"trial_type":"html-keyboard-response","trial_index":19,"time_elapsed":88447,"internal_node_id":"0.0-8.0-0.3","subject":"3lnf92mpspqyrlc","sona":"7333"},{"rt":null,"stimulus":"<div style=\"font-size:60px;\">+</div>","key_press":null,"trial_type":"html-keyboard-response","trial_index":20,"time_elapsed":90466,"internal_node_id":"0.0-8.0-1.3","subject":"3lnf92mpspqyrlc","sona":"7333"},{"trial_type":"turing-test","trial_index":21,"time_elapsed":95116,"internal_node_id":"0.0-8.0-2.3","subject":"3lnf92mpspqyrlc","sona":"7333"},{"rt":711.490000016056,"stimulus":"<p>Which sequence did you perceive as more natural?</p>","key_press":70,"test_part":"response","test_stimulus":{"position":0,"left":"bvh/return-bottle-hold-training3-lines.txt","right":"bvh/vr_prediction_models/model(vcgpdm)-dataset(return-bottle-hold)-mode(ELBO)-parts(1)-dyn(30)-lvm(35)-hold(3)/final-lines.txt","att_check":false},"trial_type":"html-keyboard-response","trial_index":22,"time_elapsed":95843,"internal_node_id":"0.0-8.0-3.3","subject":"3lnf92mpspqyrlc","sona":"7333"},{"rt":3928.905000037048,"stimulus":"<p>Ready?</p>","key_press":32,"trial_type":"html-keyboard-response","trial_index":23,"time_elapsed":99783,"internal_node_id":"0.0-8.0-0.4","subject":"3lnf92mpspqyrlc","sona":"7333"},{"rt":null,"stimulus":"<div style=\"font-size:60px;\">+</div>","key_press":null,"trial_type":"html-keyboard-response","trial_index":24,"time_elapsed":101824,"internal_node_id":"0.0-8.0-1.4","subject":"3lnf92mpspqyrlc","sona":"7333"},{"trial_type":"turing-test","trial_index":25,"time_elapsed":107969,"internal_node_id":"0.0-8.0-2.4","subject":"3lnf92mpspqyrlc","sona":"7333"},{"rt":1688.7250000145286,"stimulus":"<p>Which sequence did you perceive as more natural?</p>","key_press":74,"test_part":"response","test_stimulus":{"position":1,"left":"bvh/vr_prediction_models/model(dmp)-dataset(return-bottle)-npsi(80)-hold(4)/final-lines.txt","right":"bvh/return-bottle-training4-lines.txt","att_check":false},"trial_type":"html-keyboard-response","trial_index":26,"time_elapsed":109669,"internal_node_id":"0.0-8.0-3.4","subject":"3lnf92mpspqyrlc","sona":"7333"},{"rt":347.60500001721084,"stimulus":"<p>Ready?</p>","key_press":32,"trial_type":"html-keyboard-response","trial_index":27,"time_elapsed":110027,"internal_node_id":"0.0-8.0-0.5","subject":"3lnf92mpspqyrlc","sona":"7333"},{"rt":null,"stimulus":"<div style=\"font-size:60px;\">+</div>","key_press":null,"trial_type":"html-keyboard-response","trial_index":28,"time_elapsed":112046,"internal_node_id":"0.0-8.0-1.5","subject":"3lnf92mpspqyrlc","sona":"7333"},{"trial_type":"turing-test","trial_index":29,"time_elapsed":116126,"internal_node_id":"0.0-8.0-2.5","subject":"3lnf92mpspqyrlc","sona":"7333"},{"rt":2635.665000008885,"stimulus":"<p>Which sequence did you perceive as more natural?</p>","key_press":70,"test_part":"response","test_stimulus":{"position":0,"left":"bvh/pass-bottle-hold-training4-lines.txt","right":"bvh/vr_prediction_models/model(vcgpdm)-dataset(pass-bottle-hold)-mode(ELBO)-parts(3)-dyn(30)-lvm(15)-hold(4)/final-lines.txt","att_check":false},"trial_type":"html-keyboard-response","trial_index":30,"time_elapsed":118775,"internal_node_id":"0.0-8.0-3.5","subject":"3lnf92mpspqyrlc","sona":"7333"},{"rt":251.67500000679865,"stimulus":"<p>Ready?</p>","key_press":32,"trial_type":"html-keyboard-response","trial_index":31,"time_elapsed":119034,"internal_node_id":"0.0-8.0-0.6","subject":"3lnf92mpspqyrlc","sona":"7333"},{"rt":null,"stimulus":"<div style=\"font-size:60px;\">+</div>","key_press":null,"trial_type":"html-keyboard-response","trial_index":32,"time_elapsed":121058,"internal_node_id":"0.0-8.0-1.6","subject":"3lnf92mpspqyrlc","sona":"7333"},{"trial_type":"turing-test","trial_index":33,"time_elapsed":125004,"internal_node_id":"0.0-8.0-2.6","subject":"3lnf92mpspqyrlc","sona":"7333"},{"rt":574.4500000146218,"stimulus":"<p>Which sequence did you perceive as more natural?</p>","key_press":74,"test_part":"response","test_stimulus":{"position":1,"left":"bvh/vr_prediction_models/model(vcgpdm)-dataset(return-bottle-hold)-mode(ELBO)-parts(1)-dyn(30)-lvm(35)-hold(3)/final-lines.txt","right":"bvh/return-bottle-hold-training3-lines.txt","att_check":false},"trial_type":"html-keyboard-response","trial_index":34,"time_elapsed":125589,"internal_node_id":"0.0-8.0-3.6","subject":"3lnf92mpspqyrlc","sona":"7333"},{"rt":253.87499999487773,"stimulus":"<p>Ready?</p>","key_press":32,"trial_type":"html-keyboard-response","trial_index":35,"time_elapsed":125851,"internal_node_id":"0.0-8.0-0.7","subject":"3lnf92mpspqyrlc","sona":"7333"},{"rt":null,"stimulus":"<div style=\"font-size:60px;\">+</div>","key_press":null,"trial_type":"html-keyboard-response","trial_index":36,"time_elapsed":127873,"internal_node_id":"0.0-8.0-1.7","subject":"3lnf92mpspqyrlc","sona":"7333"},{"trial_type":"turing-test","trial_index":37,"time_elapsed":134704,"internal_node_id":"0.0-8.0-2.7","subject":"3lnf92mpspqyrlc","sona":"7333"},{"rt":1161.4049999625422,"stimulus":"<p>Which sequence did you perceive as more natural?</p>","key_press":74,"test_part":"response","test_stimulus":{"position":1,"left":"bvh/vr_prediction_models/model(vcgpdm)-dataset(return-bottle)-mode(ELBO)-parts(3)-dyn(10)-lvm(30)-hold(3)/final-lines.txt","right":"bvh/return-bottle-training3-lines.txt","att_check":false},"trial_type":"html-keyboard-response","trial_index":38,"time_elapsed":135888,"internal_node_id":"0.0-8.0-3.7","subject":"3lnf92mpspqyrlc","sona":"7333"},{"rt":203.60499998787418,"stimulus":"<p>Ready?</p>","key_press":32,"trial_type":"html-keyboard-response","trial_index":39,"time_elapsed":136099,"internal_node_id":"0.0-8.0-0.8","subject":"3lnf92mpspqyrlc","sona":"7333"},{"rt":null,"stimulus":"<div style=\"font-size:60px;\">+</div>","key_press":null,"trial_type":"html-keyboard-response","trial_index":40,"time_elapsed":138118,"internal_node_id":"0.0-8.0-1.8","subject":"3lnf92mpspqyrlc","sona":"7333"},{"trial_type":"turing-test","trial_index":41,"time_elapsed":142174,"internal_node_id":"0.0-8.0-2.8","subject":"3lnf92mpspqyrlc","sona":"7333"},{"rt":347.5450000260025,"stimulus":"<p>Which sequence did you perceive as more natural?</p>","key_press":74,"test_part":"response","test_stimulus":{"position":1,"left":"bvh/vr_prediction_models/model(dmp)-dataset(return-bottle-hold)-npsi(70)-hold(4)/final-lines.txt","right":"bvh/return-bottle-hold-training4-lines.txt","att_check":false},"trial_type":"html-keyboard-response","trial_index":42,"time_elapsed":142534,"internal_node_id":"0.0-8.0-3.8","subject":"3lnf92mpspqyrlc","sona":"7333"},{"rt":375.850000011269,"stimulus":"<p>Ready?</p>","key_press":32,"trial_type":"html-keyboard-response","trial_index":43,"time_elapsed":142920,"internal_node_id":"0.0-8.0-0.9","subject":"3lnf92mpspqyrlc","sona":"7333"},{"rt":null,"stimulus":"<div style=\"font-size:60px;\">+</div>","key_press":null,"trial_type":"html-keyboard-response","trial_index":44,"time_elapsed":144946,"internal_node_id":"0.0-8.0-1.9","subject":"3lnf92mpspqyrlc","sona":"7333"},{"trial_type":"turing-test","trial_index":45,"time_elapsed":150664,"internal_node_id":"0.0-8.0-2.9","subject":"3lnf92mpspqyrlc","sona":"7333"},{"rt":24.600000004284084,"stimulus":"<p>Which sequence did you perceive as more natural?</p>","key_press":74,"test_part":"response","test_stimulus":{"position":1,"left":"bvh/vr_prediction_models/model(dmp)-dataset(return-bottle)-npsi(90)-hold(0)/final-lines.txt","right":"bvh/return-bottle-training0-lines.txt","att_check":true},"trial_type":"html-keyboard-response","trial_index":46,"time_elapsed":150701,"internal_node_id":"0.0-8.0-3.9","subject":"3lnf92mpspqyrlc","sona":"7333"},{"rt":358.42000000411645,"stimulus":"<p>Ready?</p>","key_press":32,"trial_type":"html-keyboard-response","trial_index":47,"time_elapsed":151073,"internal_node_id":"0.0-8.0-0.10","subject":"3lnf92mpspqyrlc","sona":"7333"},{"rt":null,"stimulus":"<div style=\"font-size:60px;\">+</div>","key_press":null,"trial_type":"html-keyboard-response","trial_index":48,"time_elapsed":153102,"internal_node_id":"0.0-8.0-1.10","subject":"3lnf92mpspqyrlc","sona":"7333"},{"trial_type":"turing-test","trial_index":49,"time_elapsed":159403,"internal_node_id":"0.0-8.0-2.10","subject":"3lnf92mpspqyrlc","sona":"7333"},{"rt":1634.3350000097416,"stimulus":"<p>Which sequence did you perceive as more natural?</p>","key_press":74,"test_part":"response","test_stimulus":{"position":0,"left":"bvh/pass-bottle-training4-lines.txt","right":"bvh/vr_prediction_models/model(vcgpdm)-dataset(pass-bottle)-mode(ELBO)-parts(1)-dyn(10)-lvm(5)-hold(4)/final-lines.txt","att_check":false},"trial_type":"html-keyboard-response","trial_index":50,"time_elapsed":161048,"internal_node_id":"0.0-8.0-3.10","subject":"3lnf92mpspqyrlc","sona":"7333"},{"rt":200.91000001411885,"stimulus":"<p>Ready?</p>","key_press":32,"trial_type":"html-keyboard-response","trial_index":51,"time_elapsed":161259,"internal_node_id":"0.0-8.0-0.11","subject":"3lnf92mpspqyrlc","sona":"7333"},{"rt":null,"stimulus":"<div style=\"font-size:60px;\">+</div>","key_press":null,"trial_type":"html-keyboard-response","trial_index":52,"time_elapsed":163283,"internal_node_id":"0.0-8.0-1.11","subject":"3lnf92mpspqyrlc","sona":"7333"}]