[{"rt":2733.009999850765,"stimulus":"<p>Welcome!<br> Please choose your language to start the experiment in the chosen language.</p><p>Willkommen!<br> Bitte wählen Sie eine Sprache, um das Experiment in der ausgewählten Sprache zu starten</p>","button_pressed":"1","trial_type":"html-button-response","trial_index":0,"time_elapsed":2771,"internal_node_id":"0.0-0.0","subject":"jw3l59uv5arwe4y","sona":"7549"},{"view_history":"[{\"page_index\":0,\"viewing_time\":1261.6949998773634},{\"page_index\":1,\"viewing_time\":1623.7400001846254},{\"page_index\":2,\"viewing_time\":1314.7149998694658},{\"page_index\":3,\"viewing_time\":1586.420000065118},{\"page_index\":4,\"viewing_time\":1784.9699999205768}]","rt":7572.72500009276,"trial_type":"instructions","trial_index":1,"time_elapsed":10345,"internal_node_id":"0.0-1.0-0.0","subject":"jw3l59uv5arwe4y","sona":"7549"},{"rt":1499.5450000278652,"stimulus":"<p>Bereit?</p>","key_press":32,"trial_type":"html-keyboard-response","trial_index":2,"time_elapsed":11847,"internal_node_id":"0.0-3.0","subject":"jw3l59uv5arwe4y","sona":"7549"},{"rt":null,"stimulus":"<div style=\"font-size:60px;\">+</div>","key_press":null,"trial_type":"html-keyboard-response","trial_index":3,"time_elapsed":13849,"internal_node_id":"0.0-4.0","subject":"jw3l59uv5arwe4y","sona":"7549"},{"trial_type":"training","trial_index":4,"time_elapsed":17128,"internal_node_id":"0.0-5.0","subject":"jw3l59uv5arwe4y","sona":"7549"},{"rt":2019.1399999894202,"stimulus":"<p>Welche Sequenz haben Sie als natürlicher empfunden?</p>","key_press":70,"trial_type":"html-keyboard-response","trial_index":5,"time_elapsed":19149,"internal_node_id":"0.0-6.0","subject":"jw3l59uv5arwe4y","sona":"7549"},{"rt":7373.799999943003,"stimulus":"<p>Das Experiment startet nun.</p><p><small>Bitte drücken Sie den Knopf, wenn Sie bereit sind.</small></p>","button_pressed":"0","trial_type":"html-button-response","trial_index":6,"time_elapsed":26524,"internal_node_id":"0.0-7.0","subject":"jw3l59uv5arwe4y","sona":"7549"},{"rt":1240.680000046268,"stimulus":"<p>Bereit?</p>","key_press":32,"trial_type":"html-keyboard-response","trial_index":7,"time_elapsed":27766,"internal_node_id":"0.0-8.0-0.0","subject":"jw3l59uv5arwe4y","sona":"7549"},{"rt":null,"stimulus":"<div style=\"font-size:60px;\">+</div>","key_press":null,"trial_type":"html-keyboard-response","trial_index":8,"time_elapsed":29771,"internal_node_id":"0.0-8.0-1.0","subject":"jw3l59uv5arwe4y","sona":"7549"},{"trial_type":"turing-test","trial_index":9,"time_elapsed":33210,"internal_node_id":"0.0-8.0-2.0","subject":"jw3l59uv5arwe4y","sona":"7549"},{"rt":1758.780000032857,"stimulus":"<p>Welche Sequenz haben Sie als natürlicher empfunden?</p>","key_press":74,"test_part":"response","test_stimulus":{"position":1,"left":"bvh/vr_prediction_models/model(dmp)-dataset(return-bottle-hold)-npsi(80)-hold(2)/final-lines.txt","right":"bvh/return-bottle-hold-training2-lines.txt","att_check":false},"trial_type":"html-keyboard-response","trial_index":10,"time_elapsed":34973,"internal_node_id":"0.0-8.0-3.0","subject":"jw3l59uv5arwe4y","sona":"7549"},{"rt":380.52999996580184,"stimulus":"<p>Bereit?</p>","key_press":32,"trial_type":"html-keyboard-response","trial_index":11,"time_elapsed":35357,"internal_node_id":"0.0-8.0-0.1","subject":"jw3l59uv5arwe4y","sona":"7549"},{"rt":null,"stimulus":"<div style=\"font-size:60px;\">+</div>","key_press":null,"trial_type":"html-keyboard-response","trial_index":12,"time_elapsed":37361,"internal_node_id":"0.0-8.0-1.1","subject":"jw3l59uv5arwe4y","sona":"7549"},{"trial_type":"turing-test","trial_index":13,"time_elapsed":41052,"internal_node_id":"0.0-8.0-2.1","subject":"jw3l59uv5arwe4y","sona":"7549"},{"rt":3869.2550000268966,"stimulus":"<p>Welche Sequenz haben Sie als natürlicher empfunden?</p>","key_press":70,"test_part":"response","test_stimulus":{"position":0,"left":"bvh/pass-bottle-hold-training3-lines.txt","right":"bvh/vr_prediction_models/model(vcgpdm)-dataset(pass-bottle-hold)-mode(ELBO)-parts(3)-dyn(10)-lvm(25)-hold(3)/final-lines.txt","att_check":false},"trial_type":"html-keyboard-response","trial_index":14,"time_elapsed":44926,"internal_node_id":"0.0-8.0-3.1","subject":"jw3l59uv5arwe4y","sona":"7549"},{"rt":852.1849999669939,"stimulus":"<p>Bereit?</p>","key_press":32,"trial_type":"html-keyboard-response","trial_index":15,"time_elapsed":45781,"internal_node_id":"0.0-8.0-0.2","subject":"jw3l59uv5arwe4y","sona":"7549"},{"rt":null,"stimulus":"<div style=\"font-size:60px;\">+</div>","key_press":null,"trial_type":"html-keyboard-response","trial_index":16,"time_elapsed":47785,"internal_node_id":"0.0-8.0-1.2","subject":"jw3l59uv5arwe4y","sona":"7549"},{"trial_type":"turing-test","trial_index":17,"time_elapsed":53871,"internal_node_id":"0.0-8.0-2.2","subject":"jw3l59uv5arwe4y","sona":"7549"},{"rt":1876.3949999120086,"stimulus":"<p>Welche Sequenz haben Sie als natürlicher empfunden?</p>","key_press":74,"test_part":"response","test_stimulus":{"position":1,"left":"bvh/vr_prediction_models/model(tmp)-dataset(return-bottle)-numprim(10)-hold(1)/final-lines.txt","right":"bvh/return-bottle-training1-lines.txt","att_check":false},"trial_type":"html-keyboard-response","trial_index":18,"time_elapsed":55751,"internal_node_id":"0.0-8.0-3.2","subject":"jw3l59uv5arwe4y","sona":"7549"},{"rt":459.705000044778,"stimulus":"<p>Bereit?</p>","key_press":32,"trial_type":"html-keyboard-response","trial_index":19,"time_elapsed":56214,"internal_node_id":"0.0-8.0-0.3","subject":"jw3l59uv5arwe4y","sona":"7549"},{"rt":null,"stimulus":"<div style=\"font-size:60px;\">+</div>","key_press":null,"trial_type":"html-keyboard-response","trial_index":20,"time_elapsed":58217,"internal_node_id":"0.0-8.0-1.3","subject":"jw3l59uv5arwe4y","sona":"7549"},{"trial_type":"turing-test","trial_index":21,"time_elapsed":62030,"internal_node_id":"0.0-8.0-2.3","subject":"jw3l59uv5arwe4y","sona":"7549"},{"rt":4493.844999931753,"stimulus":"<p>Welche Sequenz haben Sie als natürlicher empfunden?</p>","key_press":70,"test_part":"response","test_stimulus":{"position":0,"left":"bvh/return-bottle-hold-training3-lines.txt","right":"bvh/vr_prediction_models/model(vcgpdm)-dataset(return-bottle-hold)-mode(ELBO)-parts(1)-dyn(10)-lvm(25)-hold(3)/final-lines.txt","att_check":false},"trial_type":"html-keyboard-response","trial_index":22,"time_elapsed":66527,"internal_node_id":"0.0-8.0-3.3","subject":"jw3l59uv5arwe4y","sona":"7549"},{"rt":467.0099997892976,"stimulus":"<p>Bereit?</p>","key_press":32,"trial_type":"html-keyboard-response","trial_index":23,"time_elapsed":66998,"internal_node_id":"0.0-8.0-0.4","subject":"jw3l59uv5arwe4y","sona":"7549"},{"rt":null,"stimulus":"<div style=\"font-size:60px;\">+</div>","key_press":null,"trial_type":"html-keyboard-response","trial_index":24,"time_elapsed":69002,"internal_node_id":"0.0-8.0-1.4","subject":"jw3l59uv5arwe4y","sona":"7549"},{"trial_type":"turing-test","trial_index":25,"time_elapsed":75380,"internal_node_id":"0.0-8.0-2.4","subject":"jw3l59uv5arwe4y","sona":"7549"},{"rt":2767.7250001579523,"stimulus":"<p>Welche Sequenz haben Sie als natürlicher empfunden?</p>","key_press":74,"test_part":"response","test_stimulus":{"position":0,"left":"bvh/pass-bottle-training2-lines.txt","right":"bvh/vr_prediction_models/model(vcgpdm)-dataset(pass-bottle)-mode(ELBO)-parts(1)-dyn(35)-lvm(30)-hold(2)/final-lines.txt","att_check":false},"trial_type":"html-keyboard-response","trial_index":26,"time_elapsed":78152,"internal_node_id":"0.0-8.0-3.4","subject":"jw3l59uv5arwe4y","sona":"7549"},{"rt":363.2100000977516,"stimulus":"<p>Bereit?</p>","key_press":32,"trial_type":"html-keyboard-response","trial_index":27,"time_elapsed":78519,"internal_node_id":"0.0-8.0-0.5","subject":"jw3l59uv5arwe4y","sona":"7549"},{"rt":null,"stimulus":"<div style=\"font-size:60px;\">+</div>","key_press":null,"trial_type":"html-keyboard-response","trial_index":28,"time_elapsed":80522,"internal_node_id":"0.0-8.0-1.5","subject":"jw3l59uv5arwe4y","sona":"7549"},{"trial_type":"turing-test","trial_index":29,"time_elapsed":86509,"internal_node_id":"0.0-8.0-2.5","subject":"jw3l59uv5arwe4y","sona":"7549"},{"rt":2847.62499993667,"stimulus":"<p>Welche Sequenz haben Sie als natürlicher empfunden?</p>","key_press":70,"test_part":"response","test_stimulus":{"position":0,"left":"bvh/return-bottle-training1-lines.txt","right":"bvh/vr_prediction_models/model(dmp)-dataset(return-bottle)-npsi(20)-hold(1)/final-lines.txt","att_check":false},"trial_type":"html-keyboard-response","trial_index":30,"time_elapsed":89361,"internal_node_id":"0.0-8.0-3.5","subject":"jw3l59uv5arwe4y","sona":"7549"},{"rt":491.53999984264374,"stimulus":"<p>Bereit?</p>","key_press":32,"trial_type":"html-keyboard-response","trial_index":31,"time_elapsed":89856,"internal_node_id":"0.0-8.0-0.6","subject":"jw3l59uv5arwe4y","sona":"7549"},{"rt":null,"stimulus":"<div style=\"font-size:60px;\">+</div>","key_press":null,"trial_type":"html-keyboard-response","trial_index":32,"time_elapsed":91860,"internal_node_id":"0.0-8.0-1.6","subject":"jw3l59uv5arwe4y","sona":"7549"},{"trial_type":"turing-test","trial_index":33,"time_elapsed":95615,"internal_node_id":"0.0-8.0-2.6","subject":"jw3l59uv5arwe4y","sona":"7549"},{"rt":3147.5800001062453,"stimulus":"<p>Welche Sequenz haben Sie als natürlicher empfunden?</p>","key_press":70,"test_part":"response","test_stimulus":{"position":0,"left":"bvh/pass-bottle-hold-training3-lines.txt","right":"bvh/vr_prediction_models/model(vcgpdm)-dataset(pass-bottle-hold)-mode(MAP)-parts(1)-hold(3)/final-lines.txt","att_check":false},"trial_type":"html-keyboard-response","trial_index":34,"time_elapsed":98767,"internal_node_id":"0.0-8.0-3.6","subject":"jw3l59uv5arwe4y","sona":"7549"},{"rt":686.530000064522,"stimulus":"<p>Bereit?</p>","key_press":32,"trial_type":"html-keyboard-response","trial_index":35,"time_elapsed":99457,"internal_node_id":"0.0-8.0-0.7","subject":"jw3l59uv5arwe4y","sona":"7549"},{"rt":null,"stimulus":"<div style=\"font-size:60px;\">+</div>","key_press":null,"trial_type":"html-keyboard-response","trial_index":36,"time_elapsed":101461,"internal_node_id":"0.0-8.0-1.7","subject":"jw3l59uv5arwe4y","sona":"7549"},{"trial_type":"turing-test","trial_index":37,"time_elapsed":106704,"internal_node_id":"0.0-8.0-2.7","subject":"jw3l59uv5arwe4y","sona":"7549"},{"rt":1258.7700001895428,"stimulus":"<p>Welche Sequenz haben Sie als natürlicher empfunden?</p>","key_press":70,"test_part":"response","test_stimulus":{"position":0,"left":"bvh/return-bottle-hold-training0-lines.txt","right":"bvh/vr_prediction_models/model(vcgpdm)-dataset(return-bottle-hold)-mode(ELBO)-parts(1)-dyn(25)-lvm(35)-hold(0)/final-lines.txt","att_check":false},"trial_type":"html-keyboard-response","trial_index":38,"time_elapsed":107967,"internal_node_id":"0.0-8.0-3.7","subject":"jw3l59uv5arwe4y","sona":"7549"},{"rt":420.5849999561906,"stimulus":"<p>Bereit?</p>","key_press":32,"trial_type":"html-keyboard-response","trial_index":39,"time_elapsed":108391,"internal_node_id":"0.0-8.0-0.8","subject":"jw3l59uv5arwe4y","sona":"7549"},{"rt":null,"stimulus":"<div style=\"font-size:60px;\">+</div>","key_press":null,"trial_type":"html-keyboard-response","trial_index":40,"time_elapsed":110396,"internal_node_id":"0.0-8.0-1.8","subject":"jw3l59uv5arwe4y","sona":"7549"},{"trial_type":"turing-test","trial_index":41,"time_elapsed":114038,"internal_node_id":"0.0-8.0-2.8","subject":"jw3l59uv5arwe4y","sona":"7549"},{"rt":1028.2550000119954,"stimulus":"<p>Welche Sequenz haben Sie als natürlicher empfunden?</p>","key_press":74,"test_part":"response","test_stimulus":{"position":0,"left":"bvh/return-bottle-hold-training2-lines.txt","right":"bvh/vr_prediction_models/model(vcgpdm)-dataset(return-bottle-hold)-mode(ELBO)-parts(3)-dyn(35)-lvm(20)-hold(2)/final-lines.txt","att_check":false},"trial_type":"html-keyboard-response","trial_index":42,"time_elapsed":115071,"internal_node_id":"0.0-8.0-3.8","subject":"jw3l59uv5arwe4y","sona":"7549"},{"rt":363.12499991618097,"stimulus":"<p>Bereit?</p>","key_press":32,"trial_type":"html-keyboard-response","trial_index":43,"time_elapsed":115438,"internal_node_id":"0.0-8.0-0.9","subject":"jw3l59uv5arwe4y","sona":"7549"},{"rt":null,"stimulus":"<div style=\"font-size:60px;\">+</div>","key_press":null,"trial_type":"html-keyboard-response","trial_index":44,"time_elapsed":117442,"internal_node_id":"0.0-8.0-1.9","subject":"jw3l59uv5arwe4y","sona":"7549"},{"trial_type":"turing-test","trial_index":45,"time_elapsed":121171,"internal_node_id":"0.0-8.0-2.9","subject":"jw3l59uv5arwe4y","sona":"7549"},{"rt":1869.7699999902397,"stimulus":"<p>Welche Sequenz haben Sie als natürlicher empfunden?</p>","key_press":74,"test_part":"response","test_stimulus":{"position":1,"left":"bvh/vr_prediction_models/model(vcgpdm)-dataset(pass-bottle-hold)-mode(ELBO)-parts(1)-dyn(20)-lvm(20)-hold(4)/final-lines.txt","right":"bvh/pass-bottle-hold-training4-lines.txt","att_check":false},"trial_type":"html-keyboard-response","trial_index":46,"time_elapsed":123045,"internal_node_id":"0.0-8.0-3.9","subject":"jw3l59uv5arwe4y","sona":"7549"},{"rt":316.0999999381602,"stimulus":"<p>Bereit?</p>","key_press":32,"trial_type":"html-keyboard-response","trial_index":47,"time_elapsed":123365,"internal_node_id":"0.0-8.0-0.10","subject":"jw3l59uv5arwe4y","sona":"7549"},{"rt":null,"stimulus":"<div style=\"font-size:60px;\">+</div>","key_press":null,"trial_type":"html-keyboard-response","trial_index":48,"time_elapsed":125368,"internal_node_id":"0.0-8.0-1.10","subject":"jw3l59uv5arwe4y","sona":"7549"},{"trial_type":"turing-test","trial_index":49,"time_elapsed":131144,"internal_node_id":"0.0-8.0-2.10","subject":"jw3l59uv5arwe4y","sona":"7549"},{"rt":1209.1500000096858,"stimulus":"<p>Welche Sequenz haben Sie als natürlicher empfunden?</p>","key_press":70,"test_part":"response","test_stimulus":{"position":0,"left":"bvh/return-bottle-training3-lines.txt","right":"bvh/vr_prediction_models/model(vcgpdm)-dataset(return-bottle)-mode(ELBO)-parts(3)-dyn(25)-lvm(25)-hold(3)/final-lines.txt","att_check":false},"trial_type":"html-keyboard-response","trial_index":50,"time_elapsed":132358,"internal_node_id":"0.0-8.0-3.10","subject":"jw3l59uv5arwe4y","sona":"7549"},{"rt":371.6250001452863,"stimulus":"<p>Bereit?</p>","key_press":32,"trial_type":"html-keyboard-response","trial_index":51,"time_elapsed":132733,"internal_node_id":"0.0-8.0-0.11","subject":"jw3l59uv5arwe4y","sona":"7549"},{"rt":null,"stimulus":"<div style=\"font-size:60px;\">+</div>","key_press":null,"trial_type":"html-keyboard-response","trial_index":52,"time_elapsed":134737,"internal_node_id":"0.0-8.0-1.11","subject":"jw3l59uv5arwe4y","sona":"7549"},{"trial_type":"turing-test","trial_index":53,"time_elapsed":137940,"internal_node_id":"0.0-8.0-2.11","subject":"jw3l59uv5arwe4y","sona":"7549"},{"rt":1395.6849998794496,"stimulus":"<p>Welche Sequenz haben Sie als natürlicher empfunden?</p>","key_press":74,"test_part":"response","test_stimulus":{"position":1,"left":"bvh/vr_prediction_models/model(vcgpdm)-dataset(pass-bottle-hold)-mode(ELBO)-parts(1)-dyn(30)-lvm(35)-hold(1)/final-lines.txt","right":"bvh/pass-bottle-hold-training1-lines.txt","att_check":false},"trial_type":"html-keyboard-response","trial_index":54,"time_elapsed":139340,"internal_node_id":"0.0-8.0-3.11","subject":"jw3l59uv5arwe4y","sona":"7549"},{"rt":364.4650001078844,"stimulus":"<p>Bereit?</p>","key_press":32,"trial_type":"html-keyboard-response","trial_index":55,"time_elapsed":139708,"internal_node_id":"0.0-8.0-0.12","subject":"jw3l59uv5arwe4y","sona":"7549"},{"rt":null,"stimulus":"<div style=\"font-size:60px;\">+</div>","key_press":null,"trial_type":"html-keyboard-response","trial_index":56,"time_elapsed":141712,"internal_node_id":"0.0-8.0-1.12","subject":"jw3l59uv5arwe4y","sona":"7549"},{"trial_type":"turing-test","trial_index":57,"time_elapsed":145228,"internal_node_id":"0.0-8.0-2.12","subject":"jw3l59uv5arwe4y","sona":"7549"},{"rt":2279.375000158325,"stimulus":"<p>Welche Sequenz haben Sie als natürlicher empfunden?</p>","key_press":74,"test_part":"response","test_stimulus":{"position":1,"left":"bvh/vr_prediction_models/model(tmp)-dataset(pass-bottle-hold)-numprim(7)-hold(4)/final-lines.txt","right":"bvh/pass-bottle-hold-training4-lines.txt","att_check":false},"trial_type":"html-keyboard-response","trial_index":58,"time_elapsed":147516,"internal_node_id":"0.0-8.0-3.12","subject":"jw3l59uv5arwe4y","sona":"7549"},{"rt":435.00000005587935,"stimulus":"<p>Bereit?</p>","key_press":32,"trial_type":"html-keyboard-response","trial_index":59,"time_elapsed":147955,"internal_node_id":"0.0-8.0-0.13","subject":"jw3l59uv5arwe4y","sona":"7549"},{"rt":null,"stimulus":"<div style=\"font-size:60px;\">+</div>","key_press":null,"trial_type":"html-keyboard-response","trial_index":60,"time_elapsed":149958,"internal_node_id":"0.0-8.0-1.13","subject":"jw3l59uv5arwe4y","sona":"7549"},{"trial_type":"turing-test","trial_index":61,"time_elapsed":153301,"internal_node_id":"0.0-8.0-2.13","subject":"jw3l59uv5arwe4y","sona":"7549"},{"rt":3289.6799999289215,"stimulus":"<p>Welche Sequenz haben Sie als natürlicher empfunden?</p>","key_press":74,"test_part":"response","test_stimulus":{"position":1,"left":"bvh/vr_prediction_models/model(vcgpdm)-dataset(pass-bottle-hold)-mode(ELBO)-parts(1)-dyn(20)-lvm(5)-hold(1)/final-lines.txt","right":"bvh/pass-bottle-hold-training1-lines.txt","att_check":false},"trial_type":"html-keyboard-response","trial_index":62,"time_elapsed":156595,"internal_node_id":"0.0-8.0-3.13","subject":"jw3l59uv5arwe4y","sona":"7549"},{"rt":332.3299998883158,"stimulus":"<p>Bereit?</p>","key_press":32,"trial_type":"html-keyboard-response","trial_index":63,"time_elapsed":156931,"internal_node_id":"0.0-8.0-0.14","subject":"jw3l59uv5arwe4y","sona":"7549"},{"rt":null,"stimulus":"<div style=\"font-size:60px;\">+</div>","key_press":null,"trial_type":"html-keyboard-response","trial_index":64,"time_elapsed":158934,"internal_node_id":"0.0-8.0-1.14","subject":"jw3l59uv5arwe4y","sona":"7549"},{"trial_type":"turing-test","trial_index":65,"time_elapsed":162791,"internal_node_id":"0.0-8.0-2.14","subject":"jw3l59uv5arwe4y","sona":"7549"},{"rt":1496.155000058934,"stimulus":"<p>Welche Sequenz haben Sie als natürlicher empfunden?</p>","key_press":70,"test_part":"response","test_stimulus":{"position":0,"left":"bvh/return-bottle-hold-training4-lines.txt","right":"bvh/vr_prediction_models/model(vcgpdm)-dataset(return-bottle-hold)-mode(ELBO)-parts(1)-dyn(30)-lvm(35)-hold(4)/final-lines.txt","att_check":false},"trial_type":"html-keyboard-response","trial_index":66,"time_elapsed":164290,"internal_node_id":"0.0-8.0-3.14","subject":"jw3l59uv5arwe4y","sona":"7549"},{"rt":467.77500002644956,"stimulus":"<p>Bereit?</p>","key_press":32,"trial_type":"html-keyboard-response","trial_index":67,"time_elapsed":164762,"internal_node_id":"0.0-8.0-0.15","subject":"jw3l59uv5arwe4y","sona":"7549"},{"rt":null,"stimulus":"<div style=\"font-size:60px;\">+</div>","key_press":null,"trial_type":"html-keyboard-response","trial_index":68,"time_elapsed":166766,"internal_node_id":"0.0-8.0-1.15","subject":"jw3l59uv5arwe4y","sona":"7549"},{"trial_type":"turing-test","trial_index":69,"time_elapsed":170108,"internal_node_id":"0.0-8.0-2.15","subject":"jw3l59uv5arwe4y","sona":"7549"},{"rt":1328.474999871105,"stimulus":"<p>Welche Sequenz haben Sie als natürlicher empfunden?</p>","key_press":74,"test_part":"response","test_stimulus":{"position":0,"left":"bvh/pass-bottle-hold-training0-lines.txt","right":"bvh/vr_prediction_models/model(tmp)-dataset(pass-bottle-hold)-numprim(7)-hold(0)/final-lines.txt","att_check":false},"trial_type":"html-keyboard-response","trial_index":70,"time_elapsed":171441,"internal_node_id":"0.0-8.0-3.15","subject":"jw3l59uv5arwe4y","sona":"7549"},{"rt":330.72500000707805,"stimulus":"<p>Bereit?</p>","key_press":32,"trial_type":"html-keyboard-response","trial_index":71,"time_elapsed":171777,"internal_node_id":"0.0-8.0-0.16","subject":"jw3l59uv5arwe4y","sona":"7549"},{"rt":null,"stimulus":"<div style=\"font-size:60px;\">+</div>","key_press":null,"trial_type":"html-keyboard-response","trial_index":72,"time_elapsed":173781,"internal_node_id":"0.0-8.0-1.16","subject":"jw3l59uv5arwe4y","sona":"7549"},{"trial_type":"turing-test","trial_index":73,"time_elapsed":176984,"internal_node_id":"0.0-8.0-2.16","subject":"jw3l59uv5arwe4y","sona":"7549"},{"rt":915.8799999859184,"stimulus":"<p>Welche Sequenz haben Sie als natürlicher empfunden?</p>","key_press":74,"test_part":"response","test_stimulus":{"position":1,"left":"bvh/vr_prediction_models/model(dmp)-dataset(pass-bottle-hold)-npsi(100)-hold(1)/final-lines.txt","right":"bvh/pass-bottle-hold-training1-lines.txt","att_check":true},"trial_type":"html-keyboard-response","trial_index":74,"time_elapsed":177905,"internal_node_id":"0.0-8.0-3.16","subject":"jw3l59uv5arwe4y","sona":"7549"},{"rt":298.9250000100583,"stimulus":"<p>Bereit?</p>","key_press":32,"trial_type":"html-keyboard-response","trial_index":75,"time_elapsed":178207,"internal_node_id":"0.0-8.0-0.17","subject":"jw3l59uv5arwe4y","sona":"7549"},{"rt":null,"stimulus":"<div style=\"font-size:60px;\">+</div>","key_press":null,"trial_type":"html-keyboard-response","trial_index":76,"time_elapsed":180211,"internal_node_id":"0.0-8.0-1.17","subject":"jw3l59uv5arwe4y","sona":"7549"},{"trial_type":"turing-test","trial_index":77,"time_elapsed":185625,"internal_node_id":"0.0-8.0-2.17","subject":"jw3l59uv5arwe4y","sona":"7549"},{"rt":889.1100001055747,"stimulus":"<p>Welche Sequenz haben Sie als natürlicher empfunden?</p>","key_press":70,"test_part":"response","test_stimulus":{"position":0,"left":"bvh/return-bottle-training0-lines.txt","right":"bvh/vr_prediction_models/model(tmp)-dataset(return-bottle)-numprim(7)-hold(0)/final-lines.txt","att_check":false},"trial_type":"html-keyboard-response","trial_index":78,"time_elapsed":186519,"internal_node_id":"0.0-8.0-3.17","subject":"jw3l59uv5arwe4y","sona":"7549"},{"rt":492.4300001002848,"stimulus":"<p>Bereit?</p>","key_press":32,"trial_type":"html-keyboard-response","trial_index":79,"time_elapsed":187015,"internal_node_id":"0.0-8.0-0.18","subject":"jw3l59uv5arwe4y","sona":"7549"},{"rt":null,"stimulus":"<div style=\"font-size:60px;\">+</div>","key_press":null,"trial_type":"html-keyboard-response","trial_index":80,"time_elapsed":189018,"internal_node_id":"0.0-8.0-1.18","subject":"jw3l59uv5arwe4y","sona":"7549"},{"trial_type":"turing-test","trial_index":81,"time_elapsed":192387,"internal_node_id":"0.0-8.0-2.18","subject":"jw3l59uv5arwe4y","sona":"7549"},{"rt":1472.4449999630451,"stimulus":"<p>Welche Sequenz haben Sie als natürlicher empfunden?</p>","key_press":70,"test_part":"response","test_stimulus":{"position":0,"left":"bvh/pass-bottle-hold-training2-lines.txt","right":"bvh/vr_prediction_models/model(tmp)-dataset(pass-bottle-hold)-numprim(7)-hold(2)/final-lines.txt","att_check":false},"trial_type":"html-keyboard-response","trial_index":82,"time_elapsed":193863,"internal_node_id":"0.0-8.0-3.18","subject":"jw3l59uv5arwe4y","sona":"7549"},{"rt":587.400000076741,"stimulus":"<p>Bereit?</p>","key_press":32,"trial_type":"html-keyboard-response","trial_index":83,"time_elapsed":194454,"internal_node_id":"0.0-8.0-0.19","subject":"jw3l59uv5arwe4y","sona":"7549"},{"rt":null,"stimulus":"<div style=\"font-size:60px;\">+</div>","key_press":null,"trial_type":"html-keyboard-response","trial_index":84,"time_elapsed":196459,"internal_node_id":"0.0-8.0-1.19","subject":"jw3l59uv5arwe4y","sona":"7549"},{"trial_type":"turing-test","trial_index":85,"time_elapsed":202117,"internal_node_id":"0.0-8.0-2.19","subject":"jw3l59uv5arwe4y","sona":"7549"},{"rt":779.5749998185784,"stimulus":"<p>Welche Sequenz haben Sie als natürlicher empfunden?</p>","key_press":70,"test_part":"response","test_stimulus":{"position":0,"left":"bvh/pass-bottle-training1-lines.txt","right":"bvh/vr_prediction_models/model(vcgpdm)-dataset(pass-bottle)-mode(MAP)-parts(3)-hold(1)/final-lines.txt","att_check":false},"trial_type":"html-keyboard-response","trial_index":86,"time_elapsed":202901,"internal_node_id":"0.0-8.0-3.19","subject":"jw3l59uv5arwe4y","sona":"7549"},{"rt":372.3499998450279,"stimulus":"<p>Bereit?</p>","key_press":32,"trial_type":"html-keyboard-response","trial_index":87,"time_elapsed":203278,"internal_node_id":"0.0-8.0-0.20","subject":"jw3l59uv5arwe4y","sona":"7549"},{"rt":null,"stimulus":"<div style=\"font-size:60px;\">+</div>","key_press":null,"trial_type":"html-keyboard-response","trial_index":88,"time_elapsed":205281,"internal_node_id":"0.0-8.0-1.20","subject":"jw3l59uv5arwe4y","sona":"7549"},{"trial_type":"turing-test","trial_index":89,"time_elapsed":211978,"internal_node_id":"0.0-8.0-2.20","subject":"jw3l59uv5arwe4y","sona":"7549"},{"rt":1104.4749999418855,"stimulus":"<p>Welche Sequenz haben Sie als natürlicher empfunden?</p>","key_press":70,"test_part":"response","test_stimulus":{"position":0,"left":"bvh/pass-bottle-training0-lines.txt","right":"bvh/vr_prediction_models/model(vcgpdm)-dataset(pass-bottle)-mode(ELBO)-parts(3)-dyn(20)-lvm(15)-hold(0)/final-lines.txt","att_check":false},"trial_type":"html-keyboard-response","trial_index":90,"time_elapsed":213087,"internal_node_id":"0.0-8.0-3.20","subject":"jw3l59uv5arwe4y","sona":"7549"},{"rt":235.32500001601875,"stimulus":"<p>Bereit?</p>","key_press":32,"trial_type":"html-keyboard-response","trial_index":91,"time_elapsed":213326,"internal_node_id":"0.0-8.0-0.21","subject":"jw3l59uv5arwe4y","sona":"7549"},{"rt":null,"stimulus":"<div style=\"font-size:60px;\">+</div>","key_press":null,"trial_type":"html-keyboard-response","trial_index":92,"time_elapsed":215330,"internal_node_id":"0.0-8.0-1.21","subject":"jw3l59uv5arwe4y","sona":"7549"},{"trial_type":"turing-test","trial_index":93,"time_elapsed":221411,"internal_node_id":"0.0-8.0-2.21","subject":"jw3l59uv5arwe4y","sona":"7549"},{"rt":2903.065000195056,"stimulus":"<p>Welche Sequenz haben Sie als natürlicher empfunden?</p>","key_press":74,"test_part":"response","test_stimulus":{"position":1,"left":"bvh/vr_prediction_models/model(tmp)-dataset(return-bottle)-numprim(12)-hold(1)/final-lines.txt","right":"bvh/return-bottle-training1-lines.txt","att_check":false},"trial_type":"html-keyboard-response","trial_index":94,"time_elapsed":224320,"internal_node_id":"0.0-8.0-3.21","subject":"jw3l59uv5arwe4y","sona":"7549"},{"rt":226.11499996855855,"stimulus":"<p>Bereit?</p>","key_press":32,"trial_type":"html-keyboard-response","trial_index":95,"time_elapsed":224551,"internal_node_id":"0.0-8.0-0.22","subject":"jw3l59uv5arwe4y","sona":"7549"},{"rt":null,"stimulus":"<div style=\"font-size:60px;\">+</div>","key_press":null,"trial_type":"html-keyboard-response","trial_index":96,"time_elapsed":226555,"internal_node_id":"0.0-8.0-1.22","subject":"jw3l59uv5arwe4y","sona":"7549"},{"trial_type":"turing-test","trial_index":97,"time_elapsed":230094,"internal_node_id":"0.0-8.0-2.22","subject":"jw3l59uv5arwe4y","sona":"7549"},{"rt":1289.9400000460446,"stimulus":"<p>Welche Sequenz haben Sie als natürlicher empfunden?</p>","key_press":74,"test_part":"response","test_stimulus":{"position":1,"left":"bvh/vr_prediction_models/model(vcgpdm)-dataset(return-bottle-hold)-mode(ELBO)-parts(3)-dyn(25)-lvm(30)-hold(1)/final-lines.txt","right":"bvh/return-bottle-hold-training1-lines.txt","att_check":false},"trial_type":"html-keyboard-response","trial_index":98,"time_elapsed":231389,"internal_node_id":"0.0-8.0-3.22","subject":"jw3l59uv5arwe4y","sona":"7549"},{"rt":275.774999987334,"stimulus":"<p>Bereit?</p>","key_press":32,"trial_type":"html-keyboard-response","trial_index":99,"time_elapsed":231669,"internal_node_id":"0.0-8.0-0.23","subject":"jw3l59uv5arwe4y","sona":"7549"},{"rt":null,"stimulus":"<div style=\"font-size:60px;\">+</div>","key_press":null,"trial_type":"html-keyboard-response","trial_index":100,"time_elapsed":233674,"internal_node_id":"0.0-8.0-1.23","subject":"jw3l59uv5arwe4y","sona":"7549"},{"trial_type":"turing-test","trial_index":101,"time_elapsed":239948,"internal_node_id":"0.0-8.0-2.23","subject":"jw3l59uv5arwe4y","sona":"7549"},{"rt":525.5849999375641,"stimulus":"<p>Welche Sequenz haben Sie als natürlicher empfunden?</p>","key_press":74,"test_part":"response","test_stimulus":{"position":1,"left":"bvh/vr_prediction_models/model(vcgpdm)-dataset(return-bottle)-mode(ELBO)-parts(1)-dyn(25)-lvm(35)-hold(1)/final-lines.txt","right":"bvh/return-bottle-training1-lines.txt","att_check":false},"trial_type":"html-keyboard-response","trial_index":102,"time_elapsed":240478,"internal_node_id":"0.0-8.0-3.23","subject":"jw3l59uv5arwe4y","sona":"7549"},{"rt":322.4350002128631,"stimulus":"<p>Bereit?</p>","key_press":32,"trial_type":"html-keyboard-response","trial_index":103,"time_elapsed":240805,"internal_node_id":"0.0-8.0-0.24","subject":"jw3l59uv5arwe4y","sona":"7549"},{"rt":null,"stimulus":"<div style=\"font-size:60px;\">+</div>","key_press":null,"trial_type":"html-keyboard-response","trial_index":104,"time_elapsed":242808,"internal_node_id":"0.0-8.0-1.24","subject":"jw3l59uv5arwe4y","sona":"7549"},{"trial_type":"turing-test","trial_index":105,"time_elapsed":246439,"internal_node_id":"0.0-8.0-2.24","subject":"jw3l59uv5arwe4y","sona":"7549"},{"rt":2039.765000110492,"stimulus":"<p>Welche Sequenz haben Sie als natürlicher empfunden?</p>","key_press":74,"test_part":"response","test_stimulus":{"position":1,"left":"bvh/vr_prediction_models/model(dmp)-dataset(return-bottle-hold)-npsi(80)-hold(3)/final-lines.txt","right":"bvh/return-bottle-hold-training3-lines.txt","att_check":false},"trial_type":"html-keyboard-response","trial_index":106,"time_elapsed":248484,"internal_node_id":"0.0-8.0-3.24","subject":"jw3l59uv5arwe4y","sona":"7549"},{"rt":299.91999990306795,"stimulus":"<p>Bereit?</p>","key_press":32,"trial_type":"html-keyboard-response","trial_index":107,"time_elapsed":248788,"internal_node_id":"0.0-8.0-0.25","subject":"jw3l59uv5arwe4y","sona":"7549"},{"rt":null,"stimulus":"<div style=\"font-size:60px;\">+</div>","key_press":null,"trial_type":"html-keyboard-response","trial_index":108,"time_elapsed":250793,"internal_node_id":"0.0-8.0-1.25","subject":"jw3l59uv5arwe4y","sona":"7549"},{"trial_type":"turing-test","trial_index":109,"time_elapsed":256922,"internal_node_id":"0.0-8.0-2.25","subject":"jw3l59uv5arwe4y","sona":"7549"},{"rt":925.7700000889599,"stimulus":"<p>Welche Sequenz haben Sie als natürlicher empfunden?</p>","key_press":74,"test_part":"response","test_stimulus":{"position":1,"left":"bvh/vr_prediction_models/model(tmp)-dataset(pass-bottle)-numprim(8)-hold(2)/final-lines.txt","right":"bvh/pass-bottle-training2-lines.txt","att_check":false},"trial_type":"html-keyboard-response","trial_index":110,"time_elapsed":257853,"internal_node_id":"0.0-8.0-3.25","subject":"jw3l59uv5arwe4y","sona":"7549"},{"rt":274.2149999830872,"stimulus":"<p>Bereit?</p>","key_press":32,"trial_type":"html-keyboard-response","trial_index":111,"time_elapsed":258132,"internal_node_id":"0.0-8.0-0.26","subject":"jw3l59uv5arwe4y","sona":"7549"},{"rt":null,"stimulus":"<div style=\"font-size:60px;\">+</div>","key_press":null,"trial_type":"html-keyboard-response","trial_index":112,"time_elapsed":260136,"internal_node_id":"0.0-8.0-1.26","subject":"jw3l59uv5arwe4y","sona":"7549"},{"trial_type":"turing-test","trial_index":113,"time_elapsed":263462,"internal_node_id":"0.0-8.0-2.26","subject":"jw3l59uv5arwe4y","sona":"7549"},{"rt":1095.035000005737,"stimulus":"<p>Welche Sequenz haben Sie als natürlicher empfunden?</p>","key_press":70,"test_part":"response","test_stimulus":{"position":1,"left":"bvh/vr_prediction_models/model(tmp)-dataset(pass-bottle-hold)-numprim(13)-hold(2)/final-lines.txt","right":"bvh/pass-bottle-hold-training2-lines.txt","att_check":false},"trial_type":"html-keyboard-response","trial_index":114,"time_elapsed":264562,"internal_node_id":"0.0-8.0-3.26","subject":"jw3l59uv5arwe4y","sona":"7549"},{"rt":243.24500001966953,"stimulus":"<p>Bereit?</p>","key_press":32,"trial_type":"html-keyboard-response","trial_index":115,"time_elapsed":264811,"internal_node_id":"0.0-8.0-0.27","subject":"jw3l59uv5arwe4y","sona":"7549"},{"rt":null,"stimulus":"<div style=\"font-size:60px;\">+</div>","key_press":null,"trial_type":"html-keyboard-response","trial_index":116,"time_elapsed":266815,"internal_node_id":"0.0-8.0-1.27","subject":"jw3l59uv5arwe4y","sona":"7549"},{"trial_type":"turing-test","trial_index":117,"time_elapsed":270549,"internal_node_id":"0.0-8.0-2.27","subject":"jw3l59uv5arwe4y","sona":"7549"},{"rt":664.6050000563264,"stimulus":"<p>Welche Sequenz haben Sie als natürlicher empfunden?</p>","key_press":74,"test_part":"response","test_stimulus":{"position":1,"left":"bvh/vr_prediction_models/model(vcgpdm)-dataset(pass-bottle-hold)-mode(ELBO)-parts(3)-dyn(15)-lvm(30)-hold(4)/final-lines.txt","right":"bvh/pass-bottle-hold-training4-lines.txt","att_check":false},"trial_type":"html-keyboard-response","trial_index":118,"time_elapsed":271219,"internal_node_id":"0.0-8.0-3.27","subject":"jw3l59uv5arwe4y","sona":"7549"},{"rt":353.03499992005527,"stimulus":"<p>Bereit?</p>","key_press":32,"trial_type":"html-keyboard-response","trial_index":119,"time_elapsed":271577,"internal_node_id":"0.0-8.0-0.28","subject":"jw3l59uv5arwe4y","sona":"7549"},{"rt":null,"stimulus":"<div style=\"font-size:60px;\">+</div>","key_press":null,"trial_type":"html-keyboard-response","trial_index":120,"time_elapsed":273581,"internal_node_id":"0.0-8.0-1.28","subject":"jw3l59uv5arwe4y","sona":"7549"},{"trial_type":"turing-test","trial_index":121,"time_elapsed":277208,"internal_node_id":"0.0-8.0-2.28","subject":"jw3l59uv5arwe4y","sona":"7549"},{"rt":1258.7349999230355,"stimulus":"<p>Welche Sequenz haben Sie als natürlicher empfunden?</p>","key_press":74,"test_part":"response","test_stimulus":{"position":1,"left":"bvh/vr_prediction_models/model(vcgpdm)-dataset(pass-bottle-hold)-mode(ELBO)-parts(3)-dyn(10)-lvm(10)-hold(0)/final-lines.txt","right":"bvh/pass-bottle-hold-training0-lines.txt","att_check":false},"trial_type":"html-keyboard-response","trial_index":122,"time_elapsed":278472,"internal_node_id":"0.0-8.0-3.28","subject":"jw3l59uv5arwe4y","sona":"7549"},{"rt":315.7599999103695,"stimulus":"<p>Bereit?</p>","key_press":32,"trial_type":"html-keyboard-response","trial_index":123,"time_elapsed":278792,"internal_node_id":"0.0-8.0-0.29","subject":"jw3l59uv5arwe4y","sona":"7549"},{"rt":null,"stimulus":"<div style=\"font-size:60px;\">+</div>","key_press":null,"trial_type":"html-keyboard-response","trial_index":124,"time_elapsed":280796,"internal_node_id":"0.0-8.0-1.29","subject":"jw3l59uv5arwe4y","sona":"7549"},{"trial_type":"turing-test","trial_index":125,"time_elapsed":284333,"internal_node_id":"0.0-8.0-2.29","subject":"jw3l59uv5arwe4y","sona":"7549"},{"rt":1811.7099998053163,"stimulus":"<p>Welche Sequenz haben Sie als natürlicher empfunden?</p>","key_press":70,"test_part":"response","test_stimulus":{"position":0,"left":"bvh/pass-bottle-hold-training0-lines.txt","right":"bvh/vr_prediction_models/model(vcgpdm)-dataset(pass-bottle-hold)-mode(ELBO)-parts(1)-dyn(10)-lvm(30)-hold(0)/final-lines.txt","att_check":false},"trial_type":"html-keyboard-response","trial_index":126,"time_elapsed":286152,"internal_node_id":"0.0-8.0-3.29","subject":"jw3l59uv5arwe4y","sona":"7549"},{"rt":466.19499986991286,"stimulus":"<p>Bereit?</p>","key_press":32,"trial_type":"html-keyboard-response","trial_index":127,"time_elapsed":286623,"internal_node_id":"0.0-8.0-0.30","subject":"jw3l59uv5arwe4y","sona":"7549"},{"rt":null,"stimulus":"<div style=\"font-size:60px;\">+</div>","key_press":null,"trial_type":"html-keyboard-response","trial_index":128,"time_elapsed":288628,"internal_node_id":"0.0-8.0-1.30","subject":"jw3l59uv5arwe4y","sona":"7549"},{"trial_type":"turing-test","trial_index":129,"time_elapsed":293953,"internal_node_id":"0.0-8.0-2.30","subject":"jw3l59uv5arwe4y","sona":"7549"},{"rt":848.0549999512732,"stimulus":"<p>Welche Sequenz haben Sie als natürlicher empfunden?</p>","key_press":70,"test_part":"response","test_stimulus":{"position":0,"left":"bvh/return-bottle-training0-lines.txt","right":"bvh/vr_prediction_models/model(tmp)-dataset(return-bottle)-numprim(10)-hold(0)/final-lines.txt","att_check":false},"trial_type":"html-keyboard-response","trial_index":130,"time_elapsed":294807,"internal_node_id":"0.0-8.0-3.30","subject":"jw3l59uv5arwe4y","sona":"7549"},{"rt":266.07999997213483,"stimulus":"<p>Bereit?</p>","key_press":32,"trial_type":"html-keyboard-response","trial_index":131,"time_elapsed":295079,"internal_node_id":"0.0-8.0-0.31","subject":"jw3l59uv5arwe4y","sona":"7549"},{"rt":null,"stimulus":"<div style=\"font-size:60px;\">+</div>","key_press":null,"trial_type":"html-keyboard-response","trial_index":132,"time_elapsed":297082,"internal_node_id":"0.0-8.0-1.31","subject":"jw3l59uv5arwe4y","sona":"7549"},{"trial_type":"turing-test","trial_index":133,"time_elapsed":300785,"internal_node_id":"0.0-8.0-2.31","subject":"jw3l59uv5arwe4y","sona":"7549"},{"rt":913.7450000271201,"stimulus":"<p>Welche Sequenz haben Sie als natürlicher empfunden?</p>","key_press":74,"test_part":"response","test_stimulus":{"position":0,"left":"bvh/pass-bottle-hold-training3-lines.txt","right":"bvh/vr_prediction_models/model(vcgpdm)-dataset(pass-bottle-hold)-mode(ELBO)-parts(1)-dyn(20)-lvm(5)-hold(3)/final-lines.txt","att_check":false},"trial_type":"html-keyboard-response","trial_index":134,"time_elapsed":301704,"internal_node_id":"0.0-8.0-3.31","subject":"jw3l59uv5arwe4y","sona":"7549"},{"rt":265.81499981693923,"stimulus":"<p>Bereit?</p>","key_press":32,"trial_type":"html-keyboard-response","trial_index":135,"time_elapsed":301974,"internal_node_id":"0.0-8.0-0.32","subject":"jw3l59uv5arwe4y","sona":"7549"},{"rt":null,"stimulus":"<div style=\"font-size:60px;\">+</div>","key_press":null,"trial_type":"html-keyboard-response","trial_index":136,"time_elapsed":303977,"internal_node_id":"0.0-8.0-1.32","subject":"jw3l59uv5arwe4y","sona":"7549"},{"trial_type":"turing-test","trial_index":137,"time_elapsed":307718,"internal_node_id":"0.0-8.0-2.32","subject":"jw3l59uv5arwe4y","sona":"7549"},{"rt":849.3449999950826,"stimulus":"<p>Welche Sequenz haben Sie als natürlicher empfunden?</p>","key_press":74,"test_part":"response","test_stimulus":{"position":0,"left":"bvh/pass-bottle-hold-training4-lines.txt","right":"bvh/vr_prediction_models/model(vcgpdm)-dataset(pass-bottle-hold)-mode(ELBO)-parts(3)-dyn(20)-lvm(35)-hold(4)/final-lines.txt","att_check":false},"trial_type":"html-keyboard-response","trial_index":138,"time_elapsed":308573,"internal_node_id":"0.0-8.0-3.32","subject":"jw3l59uv5arwe4y","sona":"7549"},{"rt":244.28999982774258,"stimulus":"<p>Bereit?</p>","key_press":32,"trial_type":"html-keyboard-response","trial_index":139,"time_elapsed":308822,"internal_node_id":"0.0-8.0-0.33","subject":"jw3l59uv5arwe4y","sona":"7549"},{"rt":null,"stimulus":"<div style=\"font-size:60px;\">+</div>","key_press":null,"trial_type":"html-keyboard-response","trial_index":140,"time_elapsed":310827,"internal_node_id":"0.0-8.0-1.33","subject":"jw3l59uv5arwe4y","sona":"7549"},{"trial_type":"turing-test","trial_index":141,"time_elapsed":317776,"internal_node_id":"0.0-8.0-2.33","subject":"jw3l59uv5arwe4y","sona":"7549"},{"rt":1543.485000031069,"stimulus":"<p>Welche Sequenz haben Sie als natürlicher empfunden?</p>","key_press":70,"test_part":"response","test_stimulus":{"position":1,"left":"bvh/vr_prediction_models/model(vcgpdm)-dataset(pass-bottle)-mode(MAP)-parts(3)-hold(0)/final-lines.txt","right":"bvh/pass-bottle-training0-lines.txt","att_check":false},"trial_type":"html-keyboard-response","trial_index":142,"time_elapsed":319327,"internal_node_id":"0.0-8.0-3.33","subject":"jw3l59uv5arwe4y","sona":"7549"},{"rt":289.45499984547496,"stimulus":"<p>Bereit?</p>","key_press":32,"trial_type":"html-keyboard-response","trial_index":143,"time_elapsed":319622,"internal_node_id":"0.0-8.0-0.34","subject":"jw3l59uv5arwe4y","sona":"7549"},{"rt":null,"stimulus":"<div style=\"font-size:60px;\">+</div>","key_press":null,"trial_type":"html-keyboard-response","trial_index":144,"time_elapsed":321625,"internal_node_id":"0.0-8.0-1.34","subject":"jw3l59uv5arwe4y","sona":"7549"},{"trial_type":"turing-test","trial_index":145,"time_elapsed":328207,"internal_node_id":"0.0-8.0-2.34","subject":"jw3l59uv5arwe4y","sona":"7549"},{"rt":792.8300001658499,"stimulus":"<p>Welche Sequenz haben Sie als natürlicher empfunden?</p>","key_press":70,"test_part":"response","test_stimulus":{"position":0,"left":"bvh/return-bottle-training2-lines.txt","right":"bvh/vr_prediction_models/model(tmp)-dataset(return-bottle)-numprim(4)-hold(2)/final-lines.txt","att_check":false},"trial_type":"html-keyboard-response","trial_index":146,"time_elapsed":329005,"internal_node_id":"0.0-8.0-3.34","subject":"jw3l59uv5arwe4y","sona":"7549"},{"rt":241.00999999791384,"stimulus":"<p>Bereit?</p>","key_press":32,"trial_type":"html-keyboard-response","trial_index":147,"time_elapsed":329253,"internal_node_id":"0.0-8.0-0.35","subject":"jw3l59uv5arwe4y","sona":"7549"},{"rt":null,"stimulus":"<div style=\"font-size:60px;\">+</div>","key_press":null,"trial_type":"html-keyboard-response","trial_index":148,"time_elapsed":331258,"internal_node_id":"0.0-8.0-1.35","subject":"jw3l59uv5arwe4y","sona":"7549"},{"trial_type":"turing-test","trial_index":149,"time_elapsed":337233,"internal_node_id":"0.0-8.0-2.35","subject":"jw3l59uv5arwe4y","sona":"7549"},{"rt":1775.8500000927597,"stimulus":"<p>Welche Sequenz haben Sie als natürlicher empfunden?</p>","key_press":74,"test_part":"response","test_stimulus":{"position":1,"left":"bvh/vr_prediction_models/model(vcgpdm)-dataset(pass-bottle)-mode(ELBO)-parts(1)-dyn(30)-lvm(30)-hold(3)/final-lines.txt","right":"bvh/pass-bottle-training3-lines.txt","att_check":false},"trial_type":"html-keyboard-response","trial_index":150,"time_elapsed":339016,"internal_node_id":"0.0-8.0-3.35","subject":"jw3l59uv5arwe4y","sona":"7549"},{"rt":195.0199999846518,"stimulus":"<p>Bereit?</p>","key_press":32,"trial_type":"html-keyboard-response","trial_index":151,"time_elapsed":339216,"internal_node_id":"0.0-8.0-0.36","subject":"jw3l59uv5arwe4y","sona":"7549"},{"rt":null,"stimulus":"<div style=\"font-size:60px;\">+</div>","key_press":null,"trial_type":"html-keyboard-response","trial_index":152,"time_elapsed":341219,"internal_node_id":"0.0-8.0-1.36","subject":"jw3l59uv5arwe4y","sona":"7549"},{"trial_type":"turing-test","trial_index":153,"time_elapsed":344718,"internal_node_id":"0.0-8.0-2.36","subject":"jw3l59uv5arwe4y","sona":"7549"},{"rt":1210.5400001164526,"stimulus":"<p>Welche Sequenz haben Sie als natürlicher empfunden?</p>","key_press":74,"test_part":"response","test_stimulus":{"position":1,"left":"bvh/vr_prediction_models/model(vcgpdm)-dataset(pass-bottle-hold)-mode(ELBO)-parts(1)-dyn(20)-lvm(30)-hold(0)/final-lines.txt","right":"bvh/pass-bottle-hold-training0-lines.txt","att_check":false},"trial_type":"html-keyboard-response","trial_index":154,"time_elapsed":345935,"internal_node_id":"0.0-8.0-3.36","subject":"jw3l59uv5arwe4y","sona":"7549"},{"rt":362.9150001797825,"stimulus":"<p>Bereit?</p>","key_press":32,"trial_type":"html-keyboard-response","trial_index":155,"time_elapsed":346303,"internal_node_id":"0.0-8.0-0.37","subject":"jw3l59uv5arwe4y","sona":"7549"},{"rt":null,"stimulus":"<div style=\"font-size:60px;\">+</div>","key_press":null,"trial_type":"html-keyboard-response","trial_index":156,"time_elapsed":348307,"internal_node_id":"0.0-8.0-1.37","subject":"jw3l59uv5arwe4y","sona":"7549"},{"trial_type":"turing-test","trial_index":157,"time_elapsed":354064,"internal_node_id":"0.0-8.0-2.37","subject":"jw3l59uv5arwe4y","sona":"7549"},{"rt":1785.2000000420958,"stimulus":"<p>Welche Sequenz haben Sie als natürlicher empfunden?</p>","key_press":70,"test_part":"response","test_stimulus":{"position":0,"left":"bvh/pass-bottle-training1-lines.txt","right":"bvh/vr_prediction_models/model(vcgpdm)-dataset(pass-bottle)-mode(ELBO)-parts(3)-dyn(20)-lvm(15)-hold(1)/final-lines.txt","att_check":false},"trial_type":"html-keyboard-response","trial_index":158,"time_elapsed":355856,"internal_node_id":"0.0-8.0-3.37","subject":"jw3l59uv5arwe4y","sona":"7549"},{"rt":898.4850000124425,"stimulus":"<p>Bereit?</p>","key_press":32,"trial_type":"html-keyboard-response","trial_index":159,"time_elapsed":356759,"internal_node_id":"0.0-8.0-0.38","subject":"jw3l59uv5arwe4y","sona":"7549"},{"rt":null,"stimulus":"<div style=\"font-size:60px;\">+</div>","key_press":null,"trial_type":"html-keyboard-response","trial_index":160,"time_elapsed":358763,"internal_node_id":"0.0-8.0-1.38","subject":"jw3l59uv5arwe4y","sona":"7549"},{"trial_type":"turing-test","trial_index":161,"time_elapsed":362307,"internal_node_id":"0.0-8.0-2.38","subject":"jw3l59uv5arwe4y","sona":"7549"},{"rt":1220.4499999061227,"stimulus":"<p>Welche Sequenz haben Sie als natürlicher empfunden?</p>","key_press":70,"test_part":"response","test_stimulus":{"position":0,"left":"bvh/pass-bottle-hold-training3-lines.txt","right":"bvh/vr_prediction_models/model(tmp)-dataset(pass-bottle-hold)-numprim(3)-hold(3)/final-lines.txt","att_check":false},"trial_type":"html-keyboard-response","trial_index":162,"time_elapsed":363533,"internal_node_id":"0.0-8.0-3.38","subject":"jw3l59uv5arwe4y","sona":"7549"},{"rt":539.7999999113381,"stimulus":"<p>Bereit?</p>","key_press":32,"trial_type":"html-keyboard-response","trial_index":163,"time_elapsed":364078,"internal_node_id":"0.0-8.0-0.39","subject":"jw3l59uv5arwe4y","sona":"7549"},{"rt":null,"stimulus":"<div style=\"font-size:60px;\">+</div>","key_press":null,"trial_type":"html-keyboard-response","trial_index":164,"time_elapsed":366082,"internal_node_id":"0.0-8.0-1.39","subject":"jw3l59uv5arwe4y","sona":"7549"},{"trial_type":"turing-test","trial_index":165,"time_elapsed":369806,"internal_node_id":"0.0-8.0-2.39","subject":"jw3l59uv5arwe4y","sona":"7549"},{"rt":1322.3250000737607,"stimulus":"<p>Welche Sequenz haben Sie als natürlicher empfunden?</p>","key_press":74,"test_part":"response","test_stimulus":{"position":1,"left":"bvh/vr_prediction_models/model(vcgpdm)-dataset(return-bottle-hold)-mode(ELBO)-parts(1)-dyn(20)-lvm(5)-hold(4)/final-lines.txt","right":"bvh/return-bottle-hold-training4-lines.txt","att_check":false},"trial_type":"html-keyboard-response","trial_index":166,"time_elapsed":371134,"internal_node_id":"0.0-8.0-3.39","subject":"jw3l59uv5arwe4y","sona":"7549"},{"rt":601.6400000080466,"stimulus":"<p>Bereit?</p>","key_press":32,"trial_type":"html-keyboard-response","trial_index":167,"time_elapsed":371741,"internal_node_id":"0.0-8.0-0.40","subject":"jw3l59uv5arwe4y","sona":"7549"},{"rt":null,"stimulus":"<div style=\"font-size:60px;\">+</div>","key_press":null,"trial_type":"html-keyboard-response","trial_index":168,"time_elapsed":373746,"internal_node_id":"0.0-8.0-1.40","subject":"jw3l59uv5arwe4y","sona":"7549"},{"trial_type":"turing-test","trial_index":169,"time_elapsed":377698,"internal_node_id":"0.0-8.0-2.40","subject":"jw3l59uv5arwe4y","sona":"7549"},{"rt":1091.4849999826401,"stimulus":"<p>Welche Sequenz haben Sie als natürlicher empfunden?</p>","key_press":74,"test_part":"response","test_stimulus":{"position":1,"left":"bvh/vr_prediction_models/model(vcgpdm)-dataset(return-bottle-hold)-mode(ELBO)-parts(3)-dyn(25)-lvm(25)-hold(3)/final-lines.txt","right":"bvh/return-bottle-hold-training3-lines.txt","att_check":false},"trial_type":"html-keyboard-response","trial_index":170,"time_elapsed":378796,"internal_node_id":"0.0-8.0-3.40","subject":"jw3l59uv5arwe4y","sona":"7549"},{"rt":539.070000173524,"stimulus":"<p>Bereit?</p>","key_press":32,"trial_type":"html-keyboard-response","trial_index":171,"time_elapsed":379340,"internal_node_id":"0.0-8.0-0.41","subject":"jw3l59uv5arwe4y","sona":"7549"},{"rt":null,"stimulus":"<div style=\"font-size:60px;\">+</div>","key_press":null,"trial_type":"html-keyboard-response","trial_index":172,"time_elapsed":381344,"internal_node_id":"0.0-8.0-1.41","subject":"jw3l59uv5arwe4y","sona":"7549"},{"trial_type":"turing-test","trial_index":173,"time_elapsed":385019,"internal_node_id":"0.0-8.0-2.41","subject":"jw3l59uv5arwe4y","sona":"7549"},{"rt":1539.7499999962747,"stimulus":"<p>Welche Sequenz haben Sie als natürlicher empfunden?</p>","key_press":74,"test_part":"response","test_stimulus":{"position":0,"left":"bvh/pass-bottle-hold-training3-lines.txt","right":"bvh/vr_prediction_models/model(vcgpdm)-dataset(pass-bottle-hold)-mode(ELBO)-parts(1)-dyn(30)-lvm(20)-hold(3)/final-lines.txt","att_check":false},"trial_type":"html-keyboard-response","trial_index":174,"time_elapsed":386565,"internal_node_id":"0.0-8.0-3.41","subject":"jw3l59uv5arwe4y","sona":"7549"},{"rt":481.6600000485778,"stimulus":"<p>Bereit?</p>","key_press":32,"trial_type":"html-keyboard-response","trial_index":175,"time_elapsed":387051,"internal_node_id":"0.0-8.0-0.42","subject":"jw3l59uv5arwe4y","sona":"7549"},{"rt":null,"stimulus":"<div style=\"font-size:60px;\">+</div>","key_press":null,"trial_type":"html-keyboard-response","trial_index":176,"time_elapsed":389056,"internal_node_id":"0.0-8.0-1.42","subject":"jw3l59uv5arwe4y","sona":"7549"},{"trial_type":"turing-test","trial_index":177,"time_elapsed":392533,"internal_node_id":"0.0-8.0-2.42","subject":"jw3l59uv5arwe4y","sona":"7549"},{"rt":1030.5649999063462,"stimulus":"<p>Welche Sequenz haben Sie als natürlicher empfunden?</p>","key_press":70,"test_part":"response","test_stimulus":{"position":0,"left":"bvh/return-bottle-hold-training2-lines.txt","right":"bvh/vr_prediction_models/model(tmp)-dataset(return-bottle-hold)-numprim(7)-hold(2)/final-lines.txt","att_check":false},"trial_type":"html-keyboard-response","trial_index":178,"time_elapsed":393570,"internal_node_id":"0.0-8.0-3.42","subject":"jw3l59uv5arwe4y","sona":"7549"},{"rt":491.81500007398427,"stimulus":"<p>Bereit?</p>","key_press":32,"trial_type":"html-keyboard-response","trial_index":179,"time_elapsed":394066,"internal_node_id":"0.0-8.0-0.43","subject":"jw3l59uv5arwe4y","sona":"7549"},{"rt":null,"stimulus":"<div style=\"font-size:60px;\">+</div>","key_press":null,"trial_type":"html-keyboard-response","trial_index":180,"time_elapsed":396070,"internal_node_id":"0.0-8.0-1.43","subject":"jw3l59uv5arwe4y","sona":"7549"},{"trial_type":"turing-test","trial_index":181,"time_elapsed":399619,"internal_node_id":"0.0-8.0-2.43","subject":"jw3l59uv5arwe4y","sona":"7549"},{"rt":1689.5699999295175,"stimulus":"<p>Welche Sequenz haben Sie als natürlicher empfunden?</p>","key_press":74,"test_part":"response","test_stimulus":{"position":1,"left":"bvh/vr_prediction_models/model(tmp)-dataset(pass-bottle-hold)-numprim(9)-hold(3)/final-lines.txt","right":"bvh/pass-bottle-hold-training3-lines.txt","att_check":false},"trial_type":"html-keyboard-response","trial_index":182,"time_elapsed":401315,"internal_node_id":"0.0-8.0-3.43","subject":"jw3l59uv5arwe4y","sona":"7549"},{"rt":456.93999994546175,"stimulus":"<p>Bereit?</p>","key_press":32,"trial_type":"html-keyboard-response","trial_index":183,"time_elapsed":401777,"internal_node_id":"0.0-8.0-0.44","subject":"jw3l59uv5arwe4y","sona":"7549"},{"rt":null,"stimulus":"<div style=\"font-size:60px;\">+</div>","key_press":null,"trial_type":"html-keyboard-response","trial_index":184,"time_elapsed":403781,"internal_node_id":"0.0-8.0-1.44","subject":"jw3l59uv5arwe4y","sona":"7549"},{"trial_type":"turing-test","trial_index":185,"time_elapsed":409801,"internal_node_id":"0.0-8.0-2.44","subject":"jw3l59uv5arwe4y","sona":"7549"},{"rt":1089.9350000545382,"stimulus":"<p>Welche Sequenz haben Sie als natürlicher empfunden?</p>","key_press":74,"test_part":"response","test_stimulus":{"position":1,"left":"bvh/vr_prediction_models/model(tmp)-dataset(pass-bottle)-numprim(4)-hold(2)/final-lines.txt","right":"bvh/pass-bottle-training2-lines.txt","att_check":false},"trial_type":"html-keyboard-response","trial_index":186,"time_elapsed":410897,"internal_node_id":"0.0-8.0-3.44","subject":"jw3l59uv5arwe4y","sona":"7549"},{"rt":537.6999999862164,"stimulus":"<p>Bereit?</p>","key_press":32,"trial_type":"html-keyboard-response","trial_index":187,"time_elapsed":411443,"internal_node_id":"0.0-8.0-0.45","subject":"jw3l59uv5arwe4y","sona":"7549"},{"rt":null,"stimulus":"<div style=\"font-size:60px;\">+</div>","key_press":null,"trial_type":"html-keyboard-response","trial_index":188,"time_elapsed":413447,"internal_node_id":"0.0-8.0-1.45","subject":"jw3l59uv5arwe4y","sona":"7549"},{"trial_type":"turing-test","trial_index":189,"time_elapsed":417160,"internal_node_id":"0.0-8.0-2.45","subject":"jw3l59uv5arwe4y","sona":"7549"},{"rt":1337.7149999141693,"stimulus":"<p>Welche Sequenz haben Sie als natürlicher empfunden?</p>","key_press":70,"test_part":"response","test_stimulus":{"position":0,"left":"bvh/pass-bottle-hold-training3-lines.txt","right":"bvh/vr_prediction_models/model(vcgpdm)-dataset(pass-bottle-hold)-mode(ELBO)-parts(3)-dyn(25)-lvm(30)-hold(3)/final-lines.txt","att_check":false},"trial_type":"html-keyboard-response","trial_index":190,"time_elapsed":418504,"internal_node_id":"0.0-8.0-3.45","subject":"jw3l59uv5arwe4y","sona":"7549"},{"rt":947.3149999976158,"stimulus":"<p>Bereit?</p>","key_press":32,"trial_type":"html-keyboard-response","trial_index":191,"time_elapsed":419457,"internal_node_id":"0.0-8.0-0.46","subject":"jw3l59uv5arwe4y","sona":"7549"},{"rt":null,"stimulus":"<div style=\"font-size:60px;\">+</div>","key_press":null,"trial_type":"html-keyboard-response","trial_index":192,"time_elapsed":421461,"internal_node_id":"0.0-8.0-1.46","subject":"jw3l59uv5arwe4y","sona":"7549"},{"trial_type":"turing-test","trial_index":193,"time_elapsed":427352,"internal_node_id":"0.0-8.0-2.46","subject":"jw3l59uv5arwe4y","sona":"7549"},{"rt":832.9850002191961,"stimulus":"<p>Welche Sequenz haben Sie als natürlicher empfunden?</p>","key_press":74,"test_part":"response","test_stimulus":{"position":1,"left":"bvh/vr_prediction_models/model(dmp)-dataset(pass-bottle)-npsi(90)-hold(3)/final-lines.txt","right":"bvh/pass-bottle-training3-lines.txt","att_check":false},"trial_type":"html-keyboard-response","trial_index":194,"time_elapsed":428194,"internal_node_id":"0.0-8.0-3.46","subject":"jw3l59uv5arwe4y","sona":"7549"},{"rt":793.4149999637157,"stimulus":"<p>Bereit?</p>","key_press":32,"trial_type":"html-keyboard-response","trial_index":195,"time_elapsed":428993,"internal_node_id":"0.0-8.0-0.47","subject":"jw3l59uv5arwe4y","sona":"7549"},{"rt":null,"stimulus":"<div style=\"font-size:60px;\">+</div>","key_press":null,"trial_type":"html-keyboard-response","trial_index":196,"time_elapsed":430996,"internal_node_id":"0.0-8.0-1.47","subject":"jw3l59uv5arwe4y","sona":"7549"},{"trial_type":"turing-test","trial_index":197,"time_elapsed":436966,"internal_node_id":"0.0-8.0-2.47","subject":"jw3l59uv5arwe4y","sona":"7549"},{"rt":723.9399999380112,"stimulus":"<p>Welche Sequenz haben Sie als natürlicher empfunden?</p>","key_press":74,"test_part":"response","test_stimulus":{"position":1,"left":"bvh/vr_prediction_models/model(vcgpdm)-dataset(return-bottle)-mode(ELBO)-parts(1)-dyn(20)-lvm(5)-hold(4)/final-lines.txt","right":"bvh/return-bottle-training4-lines.txt","att_check":false},"trial_type":"html-keyboard-response","trial_index":198,"time_elapsed":437696,"internal_node_id":"0.0-8.0-3.47","subject":"jw3l59uv5arwe4y","sona":"7549"},{"rt":424.5299999602139,"stimulus":"<p>Bereit?</p>","key_press":32,"trial_type":"html-keyboard-response","trial_index":199,"time_elapsed":438128,"internal_node_id":"0.0-8.0-0.48","subject":"jw3l59uv5arwe4y","sona":"7549"},{"rt":null,"stimulus":"<div style=\"font-size:60px;\">+</div>","key_press":null,"trial_type":"html-keyboard-response","trial_index":200,"time_elapsed":440132,"internal_node_id":"0.0-8.0-1.48","subject":"jw3l59uv5arwe4y","sona":"7549"},{"trial_type":"turing-test","trial_index":201,"time_elapsed":445717,"internal_node_id":"0.0-8.0-2.48","subject":"jw3l59uv5arwe4y","sona":"7549"},{"rt":724.4400000199676,"stimulus":"<p>Welche Sequenz haben Sie als natürlicher empfunden?</p>","key_press":74,"test_part":"response","test_stimulus":{"position":1,"left":"bvh/vr_prediction_models/model(vcgpdm)-dataset(pass-bottle)-mode(ELBO)-parts(1)-dyn(35)-lvm(10)-hold(1)/final-lines.txt","right":"bvh/pass-bottle-training1-lines.txt","att_check":false},"trial_type":"html-keyboard-response","trial_index":202,"time_elapsed":446449,"internal_node_id":"0.0-8.0-3.48","subject":"jw3l59uv5arwe4y","sona":"7549"},{"rt":385.07999991998076,"stimulus":"<p>Bereit?</p>","key_press":32,"trial_type":"html-keyboard-response","trial_index":203,"time_elapsed":446840,"internal_node_id":"0.0-8.0-0.49","subject":"jw3l59uv5arwe4y","sona":"7549"},{"rt":null,"stimulus":"<div style=\"font-size:60px;\">+</div>","key_press":null,"trial_type":"html-keyboard-response","trial_index":204,"time_elapsed":448843,"internal_node_id":"0.0-8.0-1.49","subject":"jw3l59uv5arwe4y","sona":"7549"},{"trial_type":"turing-test","trial_index":205,"time_elapsed":452376,"internal_node_id":"0.0-8.0-2.49","subject":"jw3l59uv5arwe4y","sona":"7549"},{"rt":1183.0700000282377,"stimulus":"<p>Welche Sequenz haben Sie als natürlicher empfunden?</p>","key_press":70,"test_part":"response","test_stimulus":{"position":0,"left":"bvh/pass-bottle-hold-training3-lines.txt","right":"bvh/vr_prediction_models/model(tmp)-dataset(pass-bottle-hold)-numprim(13)-hold(3)/final-lines.txt","att_check":false},"trial_type":"html-keyboard-response","trial_index":206,"time_elapsed":453566,"internal_node_id":"0.0-8.0-3.49","subject":"jw3l59uv5arwe4y","sona":"7549"},{"rt":555.1500001456589,"stimulus":"<p>Bereit?</p>","key_press":32,"trial_type":"html-keyboard-response","trial_index":207,"time_elapsed":454127,"internal_node_id":"0.0-8.0-0.50","subject":"jw3l59uv5arwe4y","sona":"7549"},{"rt":null,"stimulus":"<div style=\"font-size:60px;\">+</div>","key_press":null,"trial_type":"html-keyboard-response","trial_index":208,"time_elapsed":456131,"internal_node_id":"0.0-8.0-1.50","subject":"jw3l59uv5arwe4y","sona":"7549"},{"trial_type":"turing-test","trial_index":209,"time_elapsed":461899,"internal_node_id":"0.0-8.0-2.50","subject":"jw3l59uv5arwe4y","sona":"7549"},{"rt":837.3450001236051,"stimulus":"<p>Welche Sequenz haben Sie als natürlicher empfunden?</p>","key_press":74,"test_part":"response","test_stimulus":{"position":1,"left":"bvh/vr_prediction_models/model(dmp)-dataset(pass-bottle)-npsi(20)-hold(4)/final-lines.txt","right":"bvh/pass-bottle-training4-lines.txt","att_check":false},"trial_type":"html-keyboard-response","trial_index":210,"time_elapsed":462744,"internal_node_id":"0.0-8.0-3.50","subject":"jw3l59uv5arwe4y","sona":"7549"},{"rt":681.2499999068677,"stimulus":"<p>Bereit?</p>","key_press":32,"trial_type":"html-keyboard-response","trial_index":211,"time_elapsed":463431,"internal_node_id":"0.0-8.0-0.51","subject":"jw3l59uv5arwe4y","sona":"7549"},{"rt":null,"stimulus":"<div style=\"font-size:60px;\">+</div>","key_press":null,"trial_type":"html-keyboard-response","trial_index":212,"time_elapsed":465434,"internal_node_id":"0.0-8.0-1.51","subject":"jw3l59uv5arwe4y","sona":"7549"},{"trial_type":"turing-test","trial_index":213,"time_elapsed":468774,"internal_node_id":"0.0-8.0-2.51","subject":"jw3l59uv5arwe4y","sona":"7549"},{"rt":1584.7699998412281,"stimulus":"<p>Welche Sequenz haben Sie als natürlicher empfunden?</p>","key_press":70,"test_part":"response","test_stimulus":{"position":0,"left":"bvh/return-bottle-hold-training1-lines.txt","right":"bvh/vr_prediction_models/model(dmp)-dataset(return-bottle-hold)-npsi(40)-hold(1)/final-lines.txt","att_check":false},"trial_type":"html-keyboard-response","trial_index":214,"time_elapsed":470365,"internal_node_id":"0.0-8.0-3.51","subject":"jw3l59uv5arwe4y","sona":"7549"},{"rt":506.8749999627471,"stimulus":"<p>Bereit?</p>","key_press":32,"trial_type":"html-keyboard-response","trial_index":215,"time_elapsed":470877,"internal_node_id":"0.0-8.0-0.52","subject":"jw3l59uv5arwe4y","sona":"7549"},{"rt":null,"stimulus":"<div style=\"font-size:60px;\">+</div>","key_press":null,"trial_type":"html-keyboard-response","trial_index":216,"time_elapsed":472882,"internal_node_id":"0.0-8.0-1.52","subject":"jw3l59uv5arwe4y","sona":"7549"},{"trial_type":"turing-test","trial_index":217,"time_elapsed":479117,"internal_node_id":"0.0-8.0-2.52","subject":"jw3l59uv5arwe4y","sona":"7549"},{"rt":1530.9649999253452,"stimulus":"<p>Welche Sequenz haben Sie als natürlicher empfunden?</p>","key_press":74,"test_part":"response","test_stimulus":{"position":1,"left":"bvh/vr_prediction_models/model(vcgpdm)-dataset(return-bottle)-mode(ELBO)-parts(1)-dyn(20)-lvm(30)-hold(1)/final-lines.txt","right":"bvh/return-bottle-training1-lines.txt","att_check":false},"trial_type":"html-keyboard-response","trial_index":218,"time_elapsed":480655,"internal_node_id":"0.0-8.0-3.52","subject":"jw3l59uv5arwe4y","sona":"7549"},{"rt":512.9700000397861,"stimulus":"<p>Bereit?</p>","key_press":32,"trial_type":"html-keyboard-response","trial_index":219,"time_elapsed":481174,"internal_node_id":"0.0-8.0-0.53","subject":"jw3l59uv5arwe4y","sona":"7549"},{"rt":null,"stimulus":"<div style=\"font-size:60px;\">+</div>","key_press":null,"trial_type":"html-keyboard-response","trial_index":220,"time_elapsed":483178,"internal_node_id":"0.0-8.0-1.53","subject":"jw3l59uv5arwe4y","sona":"7549"},{"trial_type":"turing-test","trial_index":221,"time_elapsed":489294,"internal_node_id":"0.0-8.0-2.53","subject":"jw3l59uv5arwe4y","sona":"7549"},{"rt":1039.6350000519305,"stimulus":"<p>Welche Sequenz haben Sie als natürlicher empfunden?</p>","key_press":70,"test_part":"response","test_stimulus":{"position":0,"left":"bvh/pass-bottle-training2-lines.txt","right":"bvh/vr_prediction_models/model(dmp)-dataset(pass-bottle)-npsi(30)-hold(2)/final-lines.txt","att_check":false},"trial_type":"html-keyboard-response","trial_index":222,"time_elapsed":490341,"internal_node_id":"0.0-8.0-3.53","subject":"jw3l59uv5arwe4y","sona":"7549"},{"rt":410.3800000157207,"stimulus":"<p>Bereit?</p>","key_press":32,"trial_type":"html-keyboard-response","trial_index":223,"time_elapsed":490759,"internal_node_id":"0.0-8.0-0.54","subject":"jw3l59uv5arwe4y","sona":"7549"},{"rt":null,"stimulus":"<div style=\"font-size:60px;\">+</div>","key_press":null,"trial_type":"html-keyboard-response","trial_index":224,"time_elapsed":492762,"internal_node_id":"0.0-8.0-1.54","subject":"jw3l59uv5arwe4y","sona":"7549"},{"trial_type":"turing-test","trial_index":225,"time_elapsed":497891,"internal_node_id":"0.0-8.0-2.54","subject":"jw3l59uv5arwe4y","sona":"7549"},{"rt":1587.180000031367,"stimulus":"<p>Welche Sequenz haben Sie als natürlicher empfunden?</p>","key_press":74,"test_part":"response","test_stimulus":{"position":1,"left":"bvh/vr_prediction_models/model(tmp)-dataset(return-bottle-hold)-numprim(14)-hold(0)/final-lines.txt","right":"bvh/return-bottle-hold-training0-lines.txt","att_check":false},"trial_type":"html-keyboard-response","trial_index":226,"time_elapsed":499485,"internal_node_id":"0.0-8.0-3.54","subject":"jw3l59uv5arwe4y","sona":"7549"},{"rt":496.0450001526624,"stimulus":"<p>Bereit?</p>","key_press":32,"trial_type":"html-keyboard-response","trial_index":227,"time_elapsed":499989,"internal_node_id":"0.0-8.0-0.55","subject":"jw3l59uv5arwe4y","sona":"7549"},{"rt":null,"stimulus":"<div style=\"font-size:60px;\">+</div>","key_press":null,"trial_type":"html-keyboard-response","trial_index":228,"time_elapsed":501993,"internal_node_id":"0.0-8.0-1.55","subject":"jw3l59uv5arwe4y","sona":"7549"},{"trial_type":"turing-test","trial_index":229,"time_elapsed":505343,"internal_node_id":"0.0-8.0-2.55","subject":"jw3l59uv5arwe4y","sona":"7549"},{"rt":1118.4049998410046,"stimulus":"<p>Welche Sequenz haben Sie als natürlicher empfunden?</p>","key_press":70,"test_part":"response","test_stimulus":{"position":1,"left":"bvh/vr_prediction_models/model(tmp)-dataset(pass-bottle-hold)-numprim(4)-hold(0)/final-lines.txt","right":"bvh/pass-bottle-hold-training0-lines.txt","att_check":false},"trial_type":"html-keyboard-response","trial_index":230,"time_elapsed":506469,"internal_node_id":"0.0-8.0-3.55","subject":"jw3l59uv5arwe4y","sona":"7549"},{"rt":449.1399999242276,"stimulus":"<p>Bereit?</p>","key_press":32,"trial_type":"html-keyboard-response","trial_index":231,"time_elapsed":506924,"internal_node_id":"0.0-8.0-0.56","subject":"jw3l59uv5arwe4y","sona":"7549"},{"rt":null,"stimulus":"<div style=\"font-size:60px;\">+</div>","key_press":null,"trial_type":"html-keyboard-response","trial_index":232,"time_elapsed":508929,"internal_node_id":"0.0-8.0-1.56","subject":"jw3l59uv5arwe4y","sona":"7549"},{"trial_type":"turing-test","trial_index":233,"time_elapsed":515668,"internal_node_id":"0.0-8.0-2.56","subject":"jw3l59uv5arwe4y","sona":"7549"},{"rt":640.9849999472499,"stimulus":"<p>Welche Sequenz haben Sie als natürlicher empfunden?</p>","key_press":74,"test_part":"response","test_stimulus":{"position":1,"left":"bvh/vr_prediction_models/model(vcgpdm)-dataset(return-bottle)-mode(ELBO)-parts(1)-dyn(10)-lvm(25)-hold(2)/final-lines.txt","right":"bvh/return-bottle-training2-lines.txt","att_check":false},"trial_type":"html-keyboard-response","trial_index":234,"time_elapsed":516316,"internal_node_id":"0.0-8.0-3.56","subject":"jw3l59uv5arwe4y","sona":"7549"},{"rt":675.1999999396503,"stimulus":"<p>Bereit?</p>","key_press":32,"trial_type":"html-keyboard-response","trial_index":235,"time_elapsed":516997,"internal_node_id":"0.0-8.0-0.57","subject":"jw3l59uv5arwe4y","sona":"7549"},{"rt":null,"stimulus":"<div style=\"font-size:60px;\">+</div>","key_press":null,"trial_type":"html-keyboard-response","trial_index":236,"time_elapsed":519001,"internal_node_id":"0.0-8.0-1.57","subject":"jw3l59uv5arwe4y","sona":"7549"},{"trial_type":"turing-test","trial_index":237,"time_elapsed":522213,"internal_node_id":"0.0-8.0-2.57","subject":"jw3l59uv5arwe4y","sona":"7549"},{"rt":824.5849998202175,"stimulus":"<p>Welche Sequenz haben Sie als natürlicher empfunden?</p>","key_press":74,"test_part":"response","test_stimulus":{"position":1,"left":"bvh/vr_prediction_models/model(vcgpdm)-dataset(pass-bottle-hold)-mode(MAP)-parts(3)-hold(1)/final-lines.txt","right":"bvh/pass-bottle-hold-training1-lines.txt","att_check":false},"trial_type":"html-keyboard-response","trial_index":238,"time_elapsed":523043,"internal_node_id":"0.0-8.0-3.57","subject":"jw3l59uv5arwe4y","sona":"7549"},{"rt":384.5100000035018,"stimulus":"<p>Bereit?</p>","key_press":32,"trial_type":"html-keyboard-response","trial_index":239,"time_elapsed":523435,"internal_node_id":"0.0-8.0-0.58","subject":"jw3l59uv5arwe4y","sona":"7549"},{"rt":null,"stimulus":"<div style=\"font-size:60px;\">+</div>","key_press":null,"trial_type":"html-keyboard-response","trial_index":240,"time_elapsed":525438,"internal_node_id":"0.0-8.0-1.58","subject":"jw3l59uv5arwe4y","sona":"7549"},{"trial_type":"turing-test","trial_index":241,"time_elapsed":531230,"internal_node_id":"0.0-8.0-2.58","subject":"jw3l59uv5arwe4y","sona":"7549"},{"rt":1142.3649999778718,"stimulus":"<p>Welche Sequenz haben Sie als natürlicher empfunden?</p>","key_press":70,"test_part":"response","test_stimulus":{"position":0,"left":"bvh/pass-bottle-training3-lines.txt","right":"bvh/vr_prediction_models/model(vcgpdm)-dataset(pass-bottle)-mode(ELBO)-parts(3)-dyn(10)-lvm(10)-hold(3)/final-lines.txt","att_check":false},"trial_type":"html-keyboard-response","trial_index":242,"time_elapsed":532380,"internal_node_id":"0.0-8.0-3.58","subject":"jw3l59uv5arwe4y","sona":"7549"},{"rt":504.59499983116984,"stimulus":"<p>Bereit?</p>","key_press":32,"trial_type":"html-keyboard-response","trial_index":243,"time_elapsed":532890,"internal_node_id":"0.0-8.0-0.59","subject":"jw3l59uv5arwe4y","sona":"7549"},{"rt":null,"stimulus":"<div style=\"font-size:60px;\">+</div>","key_press":null,"trial_type":"html-keyboard-response","trial_index":244,"time_elapsed":534894,"internal_node_id":"0.0-8.0-1.59","subject":"jw3l59uv5arwe4y","sona":"7549"},{"trial_type":"turing-test","trial_index":245,"time_elapsed":538412,"internal_node_id":"0.0-8.0-2.59","subject":"jw3l59uv5arwe4y","sona":"7549"},{"rt":1503.8599998224527,"stimulus":"<p>Welche Sequenz haben Sie als natürlicher empfunden?</p>","key_press":74,"test_part":"response","test_stimulus":{"position":1,"left":"bvh/vr_prediction_models/model(vcgpdm)-dataset(pass-bottle-hold)-mode(ELBO)-parts(3)-dyn(20)-lvm(20)-hold(0)/final-lines.txt","right":"bvh/pass-bottle-hold-training0-lines.txt","att_check":false},"trial_type":"html-keyboard-response","trial_index":246,"time_elapsed":539922,"internal_node_id":"0.0-8.0-3.59","subject":"jw3l59uv5arwe4y","sona":"7549"},{"rt":434.2000000178814,"stimulus":"<p>Bereit?</p>","key_press":32,"trial_type":"html-keyboard-response","trial_index":247,"time_elapsed":540361,"internal_node_id":"0.0-8.0-0.60","subject":"jw3l59uv5arwe4y","sona":"7549"},{"rt":null,"stimulus":"<div style=\"font-size:60px;\">+</div>","key_press":null,"trial_type":"html-keyboard-response","trial_index":248,"time_elapsed":542366,"internal_node_id":"0.0-8.0-1.60","subject":"jw3l59uv5arwe4y","sona":"7549"},{"trial_type":"turing-test","trial_index":249,"time_elapsed":548579,"internal_node_id":"0.0-8.0-2.60","subject":"jw3l59uv5arwe4y","sona":"7549"},{"rt":1240.565000101924,"stimulus":"<p>Welche Sequenz haben Sie als natürlicher empfunden?</p>","key_press":70,"test_part":"response","test_stimulus":{"position":0,"left":"bvh/pass-bottle-training2-lines.txt","right":"bvh/vr_prediction_models/model(vcgpdm)-dataset(pass-bottle)-mode(MAP)-parts(3)-hold(2)/final-lines.txt","att_check":false},"trial_type":"html-keyboard-response","trial_index":250,"time_elapsed":549827,"internal_node_id":"0.0-8.0-3.60","subject":"jw3l59uv5arwe4y","sona":"7549"},{"rt":439.22999990172684,"stimulus":"<p>Bereit?</p>","key_press":32,"trial_type":"html-keyboard-response","trial_index":251,"time_elapsed":550274,"internal_node_id":"0.0-8.0-0.61","subject":"jw3l59uv5arwe4y","sona":"7549"},{"rt":null,"stimulus":"<div style=\"font-size:60px;\">+</div>","key_press":null,"trial_type":"html-keyboard-response","trial_index":252,"time_elapsed":552278,"internal_node_id":"0.0-8.0-1.61","subject":"jw3l59uv5arwe4y","sona":"7549"},{"trial_type":"turing-test","trial_index":253,"time_elapsed":557637,"internal_node_id":"0.0-8.0-2.61","subject":"jw3l59uv5arwe4y","sona":"7549"},{"rt":1029.0999999269843,"stimulus":"<p>Welche Sequenz haben Sie als natürlicher empfunden?</p>","key_press":70,"test_part":"response","test_stimulus":{"position":0,"left":"bvh/pass-bottle-training1-lines.txt","right":"bvh/vr_prediction_models/model(dmp)-dataset(pass-bottle)-npsi(100)-hold(1)/final-lines.txt","att_check":false},"trial_type":"html-keyboard-response","trial_index":254,"time_elapsed":558673,"internal_node_id":"0.0-8.0-3.61","subject":"jw3l59uv5arwe4y","sona":"7549"},{"rt":402.62000006623566,"stimulus":"<p>Bereit?</p>","key_press":32,"trial_type":"html-keyboard-response","trial_index":255,"time_elapsed":559082,"internal_node_id":"0.0-8.0-0.62","subject":"jw3l59uv5arwe4y","sona":"7549"},{"rt":null,"stimulus":"<div style=\"font-size:60px;\">+</div>","key_press":null,"trial_type":"html-keyboard-response","trial_index":256,"time_elapsed":561085,"internal_node_id":"0.0-8.0-1.62","subject":"jw3l59uv5arwe4y","sona":"7549"},{"trial_type":"turing-test","trial_index":257,"time_elapsed":566215,"internal_node_id":"0.0-8.0-2.62","subject":"jw3l59uv5arwe4y","sona":"7549"},{"rt":882.8700000885874,"stimulus":"<p>Welche Sequenz haben Sie als natürlicher empfunden?</p>","key_press":70,"test_part":"response","test_stimulus":{"position":0,"left":"bvh/return-bottle-hold-training0-lines.txt","right":"bvh/vr_prediction_models/model(dmp)-dataset(return-bottle-hold)-npsi(50)-hold(0)/final-lines.txt","att_check":false},"trial_type":"html-keyboard-response","trial_index":258,"time_elapsed":567106,"internal_node_id":"0.0-8.0-3.62","subject":"jw3l59uv5arwe4y","sona":"7549"},{"rt":398.80499988794327,"stimulus":"<p>Bereit?</p>","key_press":32,"trial_type":"html-keyboard-response","trial_index":259,"time_elapsed":567512,"internal_node_id":"0.0-8.0-0.63","subject":"jw3l59uv5arwe4y","sona":"7549"},{"rt":null,"stimulus":"<div style=\"font-size:60px;\">+</div>","key_press":null,"trial_type":"html-keyboard-response","trial_index":260,"time_elapsed":569516,"internal_node_id":"0.0-8.0-1.63","subject":"jw3l59uv5arwe4y","sona":"7549"},{"trial_type":"turing-test","trial_index":261,"time_elapsed":572826,"internal_node_id":"0.0-8.0-2.63","subject":"jw3l59uv5arwe4y","sona":"7549"},{"rt":1447.2850000020117,"stimulus":"<p>Welche Sequenz haben Sie als natürlicher empfunden?</p>","key_press":74,"test_part":"response","test_stimulus":{"position":1,"left":"bvh/vr_prediction_models/model(vcgpdm)-dataset(pass-bottle-hold)-mode(ELBO)-parts(1)-dyn(30)-lvm(35)-hold(2)/final-lines.txt","right":"bvh/pass-bottle-hold-training2-lines.txt","att_check":false},"trial_type":"html-keyboard-response","trial_index":262,"time_elapsed":574280,"internal_node_id":"0.0-8.0-3.63","subject":"jw3l59uv5arwe4y","sona":"7549"},{"rt":457.9949998296797,"stimulus":"<p>Bereit?</p>","key_press":32,"trial_type":"html-keyboard-response","trial_index":263,"time_elapsed":574743,"internal_node_id":"0.0-8.0-0.64","subject":"jw3l59uv5arwe4y","sona":"7549"},{"rt":null,"stimulus":"<div style=\"font-size:60px;\">+</div>","key_press":null,"trial_type":"html-keyboard-response","trial_index":264,"time_elapsed":576747,"internal_node_id":"0.0-8.0-1.64","subject":"jw3l59uv5arwe4y","sona":"7549"},{"trial_type":"turing-test","trial_index":265,"time_elapsed":582920,"internal_node_id":"0.0-8.0-2.64","subject":"jw3l59uv5arwe4y","sona":"7549"},{"rt":1431.1850001104176,"stimulus":"<p>Welche Sequenz haben Sie als natürlicher empfunden?</p>","key_press":74,"test_part":"response","test_stimulus":{"position":0,"left":"bvh/pass-bottle-training2-lines.txt","right":"bvh/vr_prediction_models/model(tmp)-dataset(pass-bottle)-numprim(12)-hold(2)/final-lines.txt","att_check":false},"trial_type":"html-keyboard-response","trial_index":266,"time_elapsed":584361,"internal_node_id":"0.0-8.0-3.64","subject":"jw3l59uv5arwe4y","sona":"7549"},{"rt":384.84499999322,"stimulus":"<p>Bereit?</p>","key_press":32,"trial_type":"html-keyboard-response","trial_index":267,"time_elapsed":584752,"internal_node_id":"0.0-8.0-0.65","subject":"jw3l59uv5arwe4y","sona":"7549"},{"rt":null,"stimulus":"<div style=\"font-size:60px;\">+</div>","key_press":null,"trial_type":"html-keyboard-response","trial_index":268,"time_elapsed":586757,"internal_node_id":"0.0-8.0-1.65","subject":"jw3l59uv5arwe4y","sona":"7549"},{"trial_type":"turing-test","trial_index":269,"time_elapsed":592638,"internal_node_id":"0.0-8.0-2.65","subject":"jw3l59uv5arwe4y","sona":"7549"},{"rt":1296.4699999429286,"stimulus":"<p>Welche Sequenz haben Sie als natürlicher empfunden?</p>","key_press":74,"test_part":"response","test_stimulus":{"position":1,"left":"bvh/vr_prediction_models/model(vcgpdm)-dataset(pass-bottle)-mode(ELBO)-parts(1)-dyn(30)-lvm(35)-hold(4)/final-lines.txt","right":"bvh/pass-bottle-training4-lines.txt","att_check":false},"trial_type":"html-keyboard-response","trial_index":270,"time_elapsed":593944,"internal_node_id":"0.0-8.0-3.65","subject":"jw3l59uv5arwe4y","sona":"7549"},{"rt":435.18500006757677,"stimulus":"<p>Bereit?</p>","key_press":32,"trial_type":"html-keyboard-response","trial_index":271,"time_elapsed":594385,"internal_node_id":"0.0-8.0-0.66","subject":"jw3l59uv5arwe4y","sona":"7549"},{"rt":null,"stimulus":"<div style=\"font-size:60px;\">+</div>","key_press":null,"trial_type":"html-keyboard-response","trial_index":272,"time_elapsed":596389,"internal_node_id":"0.0-8.0-1.66","subject":"jw3l59uv5arwe4y","sona":"7549"},{"trial_type":"turing-test","trial_index":273,"time_elapsed":601950,"internal_node_id":"0.0-8.0-2.66","subject":"jw3l59uv5arwe4y","sona":"7549"},{"rt":1567.9800000507385,"stimulus":"<p>Welche Sequenz haben Sie als natürlicher empfunden?</p>","key_press":74,"test_part":"response","test_stimulus":{"position":1,"left":"bvh/vr_prediction_models/model(vcgpdm)-dataset(return-bottle)-mode(ELBO)-parts(1)-dyn(10)-lvm(25)-hold(0)/final-lines.txt","right":"bvh/return-bottle-training0-lines.txt","att_check":false},"trial_type":"html-keyboard-response","trial_index":274,"time_elapsed":603527,"internal_node_id":"0.0-8.0-3.66","subject":"jw3l59uv5arwe4y","sona":"7549"},{"rt":410.0099999923259,"stimulus":"<p>Bereit?</p>","key_press":32,"trial_type":"html-keyboard-response","trial_index":275,"time_elapsed":603943,"internal_node_id":"0.0-8.0-0.67","subject":"jw3l59uv5arwe4y","sona":"7549"},{"rt":null,"stimulus":"<div style=\"font-size:60px;\">+</div>","key_press":null,"trial_type":"html-keyboard-response","trial_index":276,"time_elapsed":605947,"internal_node_id":"0.0-8.0-1.67","subject":"jw3l59uv5arwe4y","sona":"7549"},{"trial_type":"turing-test","trial_index":277,"time_elapsed":609547,"internal_node_id":"0.0-8.0-2.67","subject":"jw3l59uv5arwe4y","sona":"7549"},{"rt":1509.1500000562519,"stimulus":"<p>Welche Sequenz haben Sie als natürlicher empfunden?</p>","key_press":74,"test_part":"response","test_stimulus":{"position":0,"left":"bvh/pass-bottle-hold-training4-lines.txt","right":"bvh/vr_prediction_models/model(dmp)-dataset(pass-bottle-hold)-npsi(60)-hold(4)/final-lines.txt","att_check":true},"trial_type":"html-keyboard-response","trial_index":278,"time_elapsed":611064,"internal_node_id":"0.0-8.0-3.67","subject":"jw3l59uv5arwe4y","sona":"7549"},{"rt":928.624999942258,"stimulus":"<p>Bereit?</p>","key_press":32,"trial_type":"html-keyboard-response","trial_index":279,"time_elapsed":611999,"internal_node_id":"0.0-8.0-0.68","subject":"jw3l59uv5arwe4y","sona":"7549"},{"rt":null,"stimulus":"<div style=\"font-size:60px;\">+</div>","key_press":null,"trial_type":"html-keyboard-response","trial_index":280,"time_elapsed":614002,"internal_node_id":"0.0-8.0-1.68","subject":"jw3l59uv5arwe4y","sona":"7549"},{"trial_type":"turing-test","trial_index":281,"time_elapsed":619112,"internal_node_id":"0.0-8.0-2.68","subject":"jw3l59uv5arwe4y","sona":"7549"},{"rt":1254.3799998238683,"stimulus":"<p>Welche Sequenz haben Sie als natürlicher empfunden?</p>","key_press":70,"test_part":"response","test_stimulus":{"position":0,"left":"bvh/return-bottle-hold-training0-lines.txt","right":"bvh/vr_prediction_models/model(vcgpdm)-dataset(return-bottle-hold)-mode(ELBO)-parts(1)-dyn(25)-lvm(35)-hold(0)/final-lines.txt","att_check":false},"trial_type":"html-keyboard-response","trial_index":282,"time_elapsed":620374,"internal_node_id":"0.0-8.0-3.68","subject":"jw3l59uv5arwe4y","sona":"7549"},{"rt":361.99999996460974,"stimulus":"<p>Bereit?</p>","key_press":32,"trial_type":"html-keyboard-response","trial_index":283,"time_elapsed":620742,"internal_node_id":"0.0-8.0-0.69","subject":"jw3l59uv5arwe4y","sona":"7549"},{"rt":null,"stimulus":"<div style=\"font-size:60px;\">+</div>","key_press":null,"trial_type":"html-keyboard-response","trial_index":284,"time_elapsed":622746,"internal_node_id":"0.0-8.0-1.69","subject":"jw3l59uv5arwe4y","sona":"7549"},{"trial_type":"turing-test","trial_index":285,"time_elapsed":628019,"internal_node_id":"0.0-8.0-2.69","subject":"jw3l59uv5arwe4y","sona":"7549"},{"rt":3836.864999961108,"stimulus":"<p>Welche Sequenz haben Sie als natürlicher empfunden?</p>","key_press":74,"test_part":"response","test_stimulus":{"position":1,"left":"bvh/vr_prediction_models/model(vcgpdm)-dataset(return-bottle-hold)-mode(ELBO)-parts(1)-dyn(20)-lvm(30)-hold(0)/final-lines.txt","right":"bvh/return-bottle-hold-training0-lines.txt","att_check":false},"trial_type":"html-keyboard-response","trial_index":286,"time_elapsed":631864,"internal_node_id":"0.0-8.0-3.69","subject":"jw3l59uv5arwe4y","sona":"7549"},{"rt":335.92500002123415,"stimulus":"<p>Bereit?</p>","key_press":32,"trial_type":"html-keyboard-response","trial_index":287,"time_elapsed":632207,"internal_node_id":"0.0-8.0-0.70","subject":"jw3l59uv5arwe4y","sona":"7549"},{"rt":null,"stimulus":"<div style=\"font-size:60px;\">+</div>","key_press":null,"trial_type":"html-keyboard-response","trial_index":288,"time_elapsed":634211,"internal_node_id":"0.0-8.0-1.70","subject":"jw3l59uv5arwe4y","sona":"7549"},{"trial_type":"turing-test","trial_index":289,"time_elapsed":640269,"internal_node_id":"0.0-8.0-2.70","subject":"jw3l59uv5arwe4y","sona":"7549"},{"rt":1247.5000000558794,"stimulus":"<p>Welche Sequenz haben Sie als natürlicher empfunden?</p>","key_press":70,"test_part":"response","test_stimulus":{"position":0,"left":"bvh/return-bottle-training3-lines.txt","right":"bvh/vr_prediction_models/model(vcgpdm)-dataset(return-bottle)-mode(ELBO)-parts(3)-dyn(20)-lvm(35)-hold(3)/final-lines.txt","att_check":false},"trial_type":"html-keyboard-response","trial_index":290,"time_elapsed":641526,"internal_node_id":"0.0-8.0-3.70","subject":"jw3l59uv5arwe4y","sona":"7549"},{"rt":393.88500014320016,"stimulus":"<p>Bereit?</p>","key_press":32,"trial_type":"html-keyboard-response","trial_index":291,"time_elapsed":641928,"internal_node_id":"0.0-8.0-0.71","subject":"jw3l59uv5arwe4y","sona":"7549"},{"rt":null,"stimulus":"<div style=\"font-size:60px;\">+</div>","key_press":null,"trial_type":"html-keyboard-response","trial_index":292,"time_elapsed":643932,"internal_node_id":"0.0-8.0-1.71","subject":"jw3l59uv5arwe4y","sona":"7549"},{"trial_type":"turing-test","trial_index":293,"time_elapsed":647578,"internal_node_id":"0.0-8.0-2.71","subject":"jw3l59uv5arwe4y","sona":"7549"},{"rt":4613.175000064075,"stimulus":"<p>Welche Sequenz haben Sie als natürlicher empfunden?</p>","key_press":74,"test_part":"response","test_stimulus":{"position":0,"left":"bvh/return-bottle-hold-training3-lines.txt","right":"bvh/vr_prediction_models/model(dmp)-dataset(return-bottle-hold)-npsi(60)-hold(3)/final-lines.txt","att_check":false},"trial_type":"html-keyboard-response","trial_index":294,"time_elapsed":652201,"internal_node_id":"0.0-8.0-3.71","subject":"jw3l59uv5arwe4y","sona":"7549"},{"rt":262.0250000618398,"stimulus":"<p>Bereit?</p>","key_press":32,"trial_type":"html-keyboard-response","trial_index":295,"time_elapsed":652471,"internal_node_id":"0.0-8.0-0.72","subject":"jw3l59uv5arwe4y","sona":"7549"},{"rt":null,"stimulus":"<div style=\"font-size:60px;\">+</div>","key_press":null,"trial_type":"html-keyboard-response","trial_index":296,"time_elapsed":654475,"internal_node_id":"0.0-8.0-1.72","subject":"jw3l59uv5arwe4y","sona":"7549"},{"trial_type":"turing-test","trial_index":297,"time_elapsed":657938,"internal_node_id":"0.0-8.0-2.72","subject":"jw3l59uv5arwe4y","sona":"7549"},{"rt":5063.330000033602,"stimulus":"<p>Welche Sequenz haben Sie als natürlicher empfunden?</p>","key_press":74,"test_part":"response","test_stimulus":{"position":0,"left":"bvh/return-bottle-hold-training2-lines.txt","right":"bvh/vr_prediction_models/model(tmp)-dataset(return-bottle-hold)-numprim(5)-hold(2)/final-lines.txt","att_check":false},"trial_type":"html-keyboard-response","trial_index":298,"time_elapsed":663009,"internal_node_id":"0.0-8.0-3.72","subject":"jw3l59uv5arwe4y","sona":"7549"},{"rt":318.90999991446733,"stimulus":"<p>Bereit?</p>","key_press":32,"trial_type":"html-keyboard-response","trial_index":299,"time_elapsed":663335,"internal_node_id":"0.0-8.0-0.73","subject":"jw3l59uv5arwe4y","sona":"7549"},{"rt":null,"stimulus":"<div style=\"font-size:60px;\">+</div>","key_press":null,"trial_type":"html-keyboard-response","trial_index":300,"time_elapsed":665339,"internal_node_id":"0.0-8.0-1.73","subject":"jw3l59uv5arwe4y","sona":"7549"},{"trial_type":"turing-test","trial_index":301,"time_elapsed":671308,"internal_node_id":"0.0-8.0-2.73","subject":"jw3l59uv5arwe4y","sona":"7549"},{"rt":848.7499998882413,"stimulus":"<p>Welche Sequenz haben Sie als natürlicher empfunden?</p>","key_press":70,"test_part":"response","test_stimulus":{"position":1,"left":"bvh/vr_prediction_models/model(vcgpdm)-dataset(pass-bottle)-mode(ELBO)-parts(3)-dyn(25)-lvm(25)-hold(4)/final-lines.txt","right":"bvh/pass-bottle-training4-lines.txt","att_check":false},"trial_type":"html-keyboard-response","trial_index":302,"time_elapsed":672167,"internal_node_id":"0.0-8.0-3.73","subject":"jw3l59uv5arwe4y","sona":"7549"},{"rt":449.71499987877905,"stimulus":"<p>Bereit?</p>","key_press":32,"trial_type":"html-keyboard-response","trial_index":303,"time_elapsed":672623,"internal_node_id":"0.0-8.0-0.74","subject":"jw3l59uv5arwe4y","sona":"7549"},{"rt":null,"stimulus":"<div style=\"font-size:60px;\">+</div>","key_press":null,"trial_type":"html-keyboard-response","trial_index":304,"time_elapsed":674626,"internal_node_id":"0.0-8.0-1.74","subject":"jw3l59uv5arwe4y","sona":"7549"},{"trial_type":"turing-test","trial_index":305,"time_elapsed":680263,"internal_node_id":"0.0-8.0-2.74","subject":"jw3l59uv5arwe4y","sona":"7549"},{"rt":1697.440000018105,"stimulus":"<p>Welche Sequenz haben Sie als natürlicher empfunden?</p>","key_press":74,"test_part":"response","test_stimulus":{"position":0,"left":"bvh/pass-bottle-training1-lines.txt","right":"bvh/vr_prediction_models/model(vcgpdm)-dataset(pass-bottle)-mode(ELBO)-parts(3)-dyn(15)-lvm(30)-hold(1)/final-lines.txt","att_check":false},"trial_type":"html-keyboard-response","trial_index":306,"time_elapsed":681968,"internal_node_id":"0.0-8.0-3.74","subject":"jw3l59uv5arwe4y","sona":"7549"},{"rt":287.1549997944385,"stimulus":"<p>Bereit?</p>","key_press":32,"trial_type":"html-keyboard-response","trial_index":307,"time_elapsed":682263,"internal_node_id":"0.0-8.0-0.75","subject":"jw3l59uv5arwe4y","sona":"7549"},{"rt":null,"stimulus":"<div style=\"font-size:60px;\">+</div>","key_press":null,"trial_type":"html-keyboard-response","trial_index":308,"time_elapsed":684267,"internal_node_id":"0.0-8.0-1.75","subject":"jw3l59uv5arwe4y","sona":"7549"},{"trial_type":"turing-test","trial_index":309,"time_elapsed":690845,"internal_node_id":"0.0-8.0-2.75","subject":"jw3l59uv5arwe4y","sona":"7549"},{"rt":1203.7499998696148,"stimulus":"<p>Welche Sequenz haben Sie als natürlicher empfunden?</p>","key_press":70,"test_part":"response","test_stimulus":{"position":0,"left":"bvh/return-bottle-training2-lines.txt","right":"bvh/vr_prediction_models/model(tmp)-dataset(return-bottle)-numprim(8)-hold(2)/final-lines.txt","att_check":false},"trial_type":"html-keyboard-response","trial_index":310,"time_elapsed":692056,"internal_node_id":"0.0-8.0-3.75","subject":"jw3l59uv5arwe4y","sona":"7549"},{"rt":190.06999977864325,"stimulus":"<p>Bereit?</p>","key_press":32,"trial_type":"html-keyboard-response","trial_index":311,"time_elapsed":692255,"internal_node_id":"0.0-8.0-0.76","subject":"jw3l59uv5arwe4y","sona":"7549"},{"rt":null,"stimulus":"<div style=\"font-size:60px;\">+</div>","key_press":null,"trial_type":"html-keyboard-response","trial_index":312,"time_elapsed":694259,"internal_node_id":"0.0-8.0-1.76","subject":"jw3l59uv5arwe4y","sona":"7549"},{"trial_type":"turing-test","trial_index":313,"time_elapsed":697623,"internal_node_id":"0.0-8.0-2.76","subject":"jw3l59uv5arwe4y","sona":"7549"},{"rt":2839.0999999828637,"stimulus":"<p>Welche Sequenz haben Sie als natürlicher empfunden?</p>","key_press":74,"test_part":"response","test_stimulus":{"position":0,"left":"bvh/pass-bottle-hold-training1-lines.txt","right":"bvh/vr_prediction_models/model(vcgpdm)-dataset(pass-bottle-hold)-mode(ELBO)-parts(3)-dyn(15)-lvm(30)-hold(1)/final-lines.txt","att_check":false},"trial_type":"html-keyboard-response","trial_index":314,"time_elapsed":700471,"internal_node_id":"0.0-8.0-3.76","subject":"jw3l59uv5arwe4y","sona":"7549"},{"rt":353.6100001074374,"stimulus":"<p>Bereit?</p>","key_press":32,"trial_type":"html-keyboard-response","trial_index":315,"time_elapsed":700830,"internal_node_id":"0.0-8.0-0.77","subject":"jw3l59uv5arwe4y","sona":"7549"},{"rt":null,"stimulus":"<div style=\"font-size:60px;\">+</div>","key_press":null,"trial_type":"html-keyboard-response","trial_index":316,"time_elapsed":702834,"internal_node_id":"0.0-8.0-1.77","subject":"jw3l59uv5arwe4y","sona":"7549"},{"trial_type":"turing-test","trial_index":317,"time_elapsed":706350,"internal_node_id":"0.0-8.0-2.77","subject":"jw3l59uv5arwe4y","sona":"7549"},{"rt":1008.5050000343472,"stimulus":"<p>Welche Sequenz haben Sie als natürlicher empfunden?</p>","key_press":74,"test_part":"response","test_stimulus":{"position":0,"left":"bvh/pass-bottle-hold-training4-lines.txt","right":"bvh/vr_prediction_models/model(tmp)-dataset(pass-bottle-hold)-numprim(7)-hold(4)/final-lines.txt","att_check":false},"trial_type":"html-keyboard-response","trial_index":318,"time_elapsed":707367,"internal_node_id":"0.0-8.0-3.77","subject":"jw3l59uv5arwe4y","sona":"7549"},{"rt":517.920000012964,"stimulus":"<p>Bereit?</p>","key_press":32,"trial_type":"html-keyboard-response","trial_index":319,"time_elapsed":707893,"internal_node_id":"0.0-8.0-0.78","subject":"jw3l59uv5arwe4y","sona":"7549"},{"rt":null,"stimulus":"<div style=\"font-size:60px;\">+</div>","key_press":null,"trial_type":"html-keyboard-response","trial_index":320,"time_elapsed":709897,"internal_node_id":"0.0-8.0-1.78","subject":"jw3l59uv5arwe4y","sona":"7549"},{"trial_type":"turing-test","trial_index":321,"time_elapsed":715661,"internal_node_id":"0.0-8.0-2.78","subject":"jw3l59uv5arwe4y","sona":"7549"},{"rt":645.3050000127405,"stimulus":"<p>Welche Sequenz haben Sie als natürlicher empfunden?</p>","key_press":70,"test_part":"response","test_stimulus":{"position":0,"left":"bvh/pass-bottle-training4-lines.txt","right":"bvh/vr_prediction_models/model(dmp)-dataset(pass-bottle)-npsi(100)-hold(4)/final-lines.txt","att_check":true},"trial_type":"html-keyboard-response","trial_index":322,"time_elapsed":716317,"internal_node_id":"0.0-8.0-3.78","subject":"jw3l59uv5arwe4y","sona":"7549"},{"rt":455.7550000026822,"stimulus":"<p>Bereit?</p>","key_press":32,"trial_type":"html-keyboard-response","trial_index":323,"time_elapsed":716781,"internal_node_id":"0.0-8.0-0.79","subject":"jw3l59uv5arwe4y","sona":"7549"},{"rt":null,"stimulus":"<div style=\"font-size:60px;\">+</div>","key_press":null,"trial_type":"html-keyboard-response","trial_index":324,"time_elapsed":718784,"internal_node_id":"0.0-8.0-1.79","subject":"jw3l59uv5arwe4y","sona":"7549"},{"trial_type":"turing-test","trial_index":325,"time_elapsed":722713,"internal_node_id":"0.0-8.0-2.79","subject":"jw3l59uv5arwe4y","sona":"7549"},{"rt":1051.499999826774,"stimulus":"<p>Welche Sequenz haben Sie als natürlicher empfunden?</p>","key_press":70,"test_part":"response","test_stimulus":{"position":0,"left":"bvh/return-bottle-hold-training3-lines.txt","right":"bvh/vr_prediction_models/model(vcgpdm)-dataset(return-bottle-hold)-mode(ELBO)-parts(3)-dyn(30)-lvm(15)-hold(3)/final-lines.txt","att_check":false},"trial_type":"html-keyboard-response","trial_index":326,"time_elapsed":723773,"internal_node_id":"0.0-8.0-3.79","subject":"jw3l59uv5arwe4y","sona":"7549"},{"rt":7967.045000055805,"responses":"{\"age\":\"20\",\"gender\":\"weiblich\"}","trial_type":"survey-text","trial_index":327,"time_elapsed":731759,"internal_node_id":"0.0-10.0-0.0","subject":"jw3l59uv5arwe4y","sona":"7549"},{"rt":47021.25500002876,"responses":"{\"area\":\"auf den Hals\",\"Q1\":\"wenn die kopfbewegung nicht mit der Armbewegung übereinstimmt\",\"Q2\":\"wenn das Strichmännchen \\\"weggeflogen\\\" ist\"}","trial_type":"survey-text","trial_index":328,"time_elapsed":778802,"internal_node_id":"0.0-10.0-1.0","subject":"jw3l59uv5arwe4y","sona":"7549"}]