[{"rt":7523,"stimulus":"<p>Welcome!<br> Please choose your language to start the experiment in the chosen language.</p><p>Willkommen!<br> Bitte wählen Sie eine Sprache um das Experiment in der ausgewählten Sprache zu starten</p>","button_pressed":"1","trial_type":"html-button-response","trial_index":0,"time_elapsed":7525,"internal_node_id":"0.0-0.0","subject":"yymubxyq9g5eene","sona":"THNS"},{"view_history":"[{\"page_index\":0,\"viewing_time\":8669},{\"page_index\":1,\"viewing_time\":10993},{\"page_index\":2,\"viewing_time\":7287},{\"page_index\":3,\"viewing_time\":5416}]","rt":32366,"trial_type":"instructions","trial_index":1,"time_elapsed":39893,"internal_node_id":"0.0-1.0-0.0","subject":"yymubxyq9g5eene","sona":"THNS"},{"rt":1005,"stimulus":"<p>Bereit?</p>","button_pressed":"0","trial_type":"html-button-response","trial_index":2,"time_elapsed":40901,"internal_node_id":"0.0-3.0","subject":"yymubxyq9g5eene","sona":"THNS"},{"rt":null,"stimulus":"<div style=\"font-size:60px;\">+</div>","key_press":null,"trial_type":"html-keyboard-response","trial_index":3,"time_elapsed":42905,"internal_node_id":"0.0-4.0","subject":"yymubxyq9g5eene","sona":"THNS"},{"trial_type":"training","trial_index":4,"time_elapsed":46235,"internal_node_id":"0.0-5.0","subject":"yymubxyq9g5eene","sona":"THNS"},{"rt":3502,"stimulus":"<p>Welche Sequenz haben Sie als natürlicher empfunden?</p>","button_pressed":"0","trial_type":"html-button-response","trial_index":5,"time_elapsed":49740,"internal_node_id":"0.0-6.0","subject":"yymubxyq9g5eene","sona":"THNS"},{"rt":2759,"stimulus":"<p>Das Experiment startet nun.</p><p> Bitte drücken Sie den Knopf, wenn Sie bereit sind.</p>","button_pressed":"0","trial_type":"html-button-response","trial_index":6,"time_elapsed":52501,"internal_node_id":"0.0-7.0","subject":"yymubxyq9g5eene","sona":"THNS"},{"rt":1382,"stimulus":"<p>Bereit?</p>","button_pressed":"0","trial_type":"html-button-response","trial_index":7,"time_elapsed":53885,"internal_node_id":"0.0-8.0-0.0","subject":"yymubxyq9g5eene","sona":"THNS"},{"rt":null,"stimulus":"<div style=\"font-size:60px;\">+</div>","key_press":null,"trial_type":"html-keyboard-response","trial_index":8,"time_elapsed":55889,"internal_node_id":"0.0-8.0-1.0","subject":"yymubxyq9g5eene","sona":"THNS"},{"trial_type":"turing-test","trial_index":9,"time_elapsed":61439,"internal_node_id":"0.0-8.0-2.0","subject":"yymubxyq9g5eene","sona":"THNS"},{"rt":1564,"stimulus":"<p>Welche Sequenz haben Sie als natürlicher empfunden?</p>","button_pressed":"1","test_part":"response","test_stimulus":{"position":1,"left":"bvh/vr_prediction_models/model(dmp)-dataset(pass-bottle)-npsi(60)-hold(1)/final-lines.txt","right":"bvh/pass-bottle-training1-lines.txt","att_check":true},"trial_type":"html-button-response","trial_index":10,"time_elapsed":63005,"internal_node_id":"0.0-8.0-3.0","subject":"yymubxyq9g5eene","sona":"THNS"},{"rt":1150,"stimulus":"<p>Bereit?</p>","button_pressed":"0","trial_type":"html-button-response","trial_index":11,"time_elapsed":64157,"internal_node_id":"0.0-8.0-0.1","subject":"yymubxyq9g5eene","sona":"THNS"},{"rt":null,"stimulus":"<div style=\"font-size:60px;\">+</div>","key_press":null,"trial_type":"html-keyboard-response","trial_index":12,"time_elapsed":66161,"internal_node_id":"0.0-8.0-1.1","subject":"yymubxyq9g5eene","sona":"THNS"},{"trial_type":"turing-test","trial_index":13,"time_elapsed":73026,"internal_node_id":"0.0-8.0-2.1","subject":"yymubxyq9g5eene","sona":"THNS"},{"rt":1823,"stimulus":"<p>Welche Sequenz haben Sie als natürlicher empfunden?</p>","button_pressed":"0","test_part":"response","test_stimulus":{"position":0,"left":"bvh/pass-bottle-training0-lines.txt","right":"bvh/vr_prediction_models/model(vcgpdm)-dataset(pass-bottle)-mode(ELBO)-parts(3)-dyn(25)-lvm(25)-hold(0)/final-lines.txt","att_check":false},"trial_type":"html-button-response","trial_index":14,"time_elapsed":74853,"internal_node_id":"0.0-8.0-3.1","subject":"yymubxyq9g5eene","sona":"THNS"},{"rt":981,"stimulus":"<p>Bereit?</p>","button_pressed":"0","trial_type":"html-button-response","trial_index":15,"time_elapsed":75837,"internal_node_id":"0.0-8.0-0.2","subject":"yymubxyq9g5eene","sona":"THNS"},{"rt":null,"stimulus":"<div style=\"font-size:60px;\">+</div>","key_press":null,"trial_type":"html-keyboard-response","trial_index":16,"time_elapsed":77839,"internal_node_id":"0.0-8.0-1.2","subject":"yymubxyq9g5eene","sona":"THNS"},{"trial_type":"turing-test","trial_index":17,"time_elapsed":81198,"internal_node_id":"0.0-8.0-2.2","subject":"yymubxyq9g5eene","sona":"THNS"},{"rt":1667,"stimulus":"<p>Welche Sequenz haben Sie als natürlicher empfunden?</p>","button_pressed":"1","test_part":"response","test_stimulus":{"position":1,"left":"bvh/vr_prediction_models/model(vcgpdm)-dataset(return-bottle-hold)-mode(MAP)-parts(3)-hold(1)/final-lines.txt","right":"bvh/return-bottle-hold-training1-lines.txt","att_check":false},"trial_type":"html-button-response","trial_index":18,"time_elapsed":82868,"internal_node_id":"0.0-8.0-3.2","subject":"yymubxyq9g5eene","sona":"THNS"},{"rt":798,"stimulus":"<p>Bereit?</p>","button_pressed":"0","trial_type":"html-button-response","trial_index":19,"time_elapsed":83669,"internal_node_id":"0.0-8.0-0.3","subject":"yymubxyq9g5eene","sona":"THNS"},{"rt":null,"stimulus":"<div style=\"font-size:60px;\">+</div>","key_press":null,"trial_type":"html-keyboard-response","trial_index":20,"time_elapsed":85670,"internal_node_id":"0.0-8.0-1.3","subject":"yymubxyq9g5eene","sona":"THNS"},{"trial_type":"turing-test","trial_index":21,"time_elapsed":89230,"internal_node_id":"0.0-8.0-2.3","subject":"yymubxyq9g5eene","sona":"THNS"},{"rt":1028,"stimulus":"<p>Welche Sequenz haben Sie als natürlicher empfunden?</p>","button_pressed":"0","test_part":"response","test_stimulus":{"position":1,"left":"bvh/vr_prediction_models/model(vcgpdm)-dataset(pass-bottle-hold)-mode(ELBO)-parts(1)-dyn(20)-lvm(20)-hold(3)/final-lines.txt","right":"bvh/pass-bottle-hold-training3-lines.txt","att_check":false},"trial_type":"html-button-response","trial_index":22,"time_elapsed":90261,"internal_node_id":"0.0-8.0-3.3","subject":"yymubxyq9g5eene","sona":"THNS"},{"rt":942,"stimulus":"<p>Bereit?</p>","button_pressed":"0","trial_type":"html-button-response","trial_index":23,"time_elapsed":91204,"internal_node_id":"0.0-8.0-0.4","subject":"yymubxyq9g5eene","sona":"THNS"},{"rt":null,"stimulus":"<div style=\"font-size:60px;\">+</div>","key_press":null,"trial_type":"html-keyboard-response","trial_index":24,"time_elapsed":93208,"internal_node_id":"0.0-8.0-1.4","subject":"yymubxyq9g5eene","sona":"THNS"},{"trial_type":"turing-test","trial_index":25,"time_elapsed":98711,"internal_node_id":"0.0-8.0-2.4","subject":"yymubxyq9g5eene","sona":"THNS"},{"rt":1523,"stimulus":"<p>Welche Sequenz haben Sie als natürlicher empfunden?</p>","button_pressed":"1","test_part":"response","test_stimulus":{"position":0,"left":"bvh/return-bottle-training0-lines.txt","right":"bvh/vr_prediction_models/model(tmp)-dataset(return-bottle)-numprim(14)-hold(0)/final-lines.txt","att_check":false},"trial_type":"html-button-response","trial_index":26,"time_elapsed":100236,"internal_node_id":"0.0-8.0-3.4","subject":"yymubxyq9g5eene","sona":"THNS"},{"rt":750,"stimulus":"<p>Bereit?</p>","button_pressed":"0","trial_type":"html-button-response","trial_index":27,"time_elapsed":100989,"internal_node_id":"0.0-8.0-0.5","subject":"yymubxyq9g5eene","sona":"THNS"},{"rt":null,"stimulus":"<div style=\"font-size:60px;\">+</div>","key_press":null,"trial_type":"html-keyboard-response","trial_index":28,"time_elapsed":102992,"internal_node_id":"0.0-8.0-1.5","subject":"yymubxyq9g5eene","sona":"THNS"},{"trial_type":"turing-test","trial_index":29,"time_elapsed":108788,"internal_node_id":"0.0-8.0-2.5","subject":"yymubxyq9g5eene","sona":"THNS"},{"rt":2838,"stimulus":"<p>Welche Sequenz haben Sie als natürlicher empfunden?</p>","button_pressed":"0","test_part":"response","test_stimulus":{"position":0,"left":"bvh/return-bottle-training4-lines.txt","right":"bvh/vr_prediction_models/model(vcgpdm)-dataset(return-bottle)-mode(ELBO)-parts(3)-dyn(15)-lvm(30)-hold(4)/final-lines.txt","att_check":false},"trial_type":"html-button-response","trial_index":30,"time_elapsed":111628,"internal_node_id":"0.0-8.0-3.5","subject":"yymubxyq9g5eene","sona":"THNS"},{"rt":710,"stimulus":"<p>Bereit?</p>","button_pressed":"0","trial_type":"html-button-response","trial_index":31,"time_elapsed":112341,"internal_node_id":"0.0-8.0-0.6","subject":"yymubxyq9g5eene","sona":"THNS"},{"rt":null,"stimulus":"<div style=\"font-size:60px;\">+</div>","key_press":null,"trial_type":"html-keyboard-response","trial_index":32,"time_elapsed":114343,"internal_node_id":"0.0-8.0-1.6","subject":"yymubxyq9g5eene","sona":"THNS"},{"trial_type":"turing-test","trial_index":33,"time_elapsed":117624,"internal_node_id":"0.0-8.0-2.6","subject":"yymubxyq9g5eene","sona":"THNS"},{"rt":1321,"stimulus":"<p>Welche Sequenz haben Sie als natürlicher empfunden?</p>","button_pressed":"0","test_part":"response","test_stimulus":{"position":0,"left":"bvh/return-bottle-hold-training1-lines.txt","right":"bvh/vr_prediction_models/model(dmp)-dataset(return-bottle-hold)-npsi(10)-hold(1)/final-lines.txt","att_check":false},"trial_type":"html-button-response","trial_index":34,"time_elapsed":118948,"internal_node_id":"0.0-8.0-3.6","subject":"yymubxyq9g5eene","sona":"THNS"},{"rt":669,"stimulus":"<p>Bereit?</p>","button_pressed":"0","trial_type":"html-button-response","trial_index":35,"time_elapsed":119620,"internal_node_id":"0.0-8.0-0.7","subject":"yymubxyq9g5eene","sona":"THNS"},{"rt":null,"stimulus":"<div style=\"font-size:60px;\">+</div>","key_press":null,"trial_type":"html-keyboard-response","trial_index":36,"time_elapsed":121625,"internal_node_id":"0.0-8.0-1.7","subject":"yymubxyq9g5eene","sona":"THNS"},{"trial_type":"turing-test","trial_index":37,"time_elapsed":127809,"internal_node_id":"0.0-8.0-2.7","subject":"yymubxyq9g5eene","sona":"THNS"},{"rt":849,"stimulus":"<p>Welche Sequenz haben Sie als natürlicher empfunden?</p>","button_pressed":"1","test_part":"response","test_stimulus":{"position":1,"left":"bvh/vr_prediction_models/model(vcgpdm)-dataset(return-bottle)-mode(ELBO)-parts(1)-dyn(35)-lvm(10)-hold(1)/final-lines.txt","right":"bvh/return-bottle-training1-lines.txt","att_check":false},"trial_type":"html-button-response","trial_index":38,"time_elapsed":128661,"internal_node_id":"0.0-8.0-3.7","subject":"yymubxyq9g5eene","sona":"THNS"},{"rt":614,"stimulus":"<p>Bereit?</p>","button_pressed":"0","trial_type":"html-button-response","trial_index":39,"time_elapsed":129276,"internal_node_id":"0.0-8.0-0.8","subject":"yymubxyq9g5eene","sona":"THNS"},{"rt":null,"stimulus":"<div style=\"font-size:60px;\">+</div>","key_press":null,"trial_type":"html-keyboard-response","trial_index":40,"time_elapsed":131280,"internal_node_id":"0.0-8.0-1.8","subject":"yymubxyq9g5eene","sona":"THNS"},{"trial_type":"turing-test","trial_index":41,"time_elapsed":134980,"internal_node_id":"0.0-8.0-2.8","subject":"yymubxyq9g5eene","sona":"THNS"},{"rt":861,"stimulus":"<p>Welche Sequenz haben Sie als natürlicher empfunden?</p>","button_pressed":"1","test_part":"response","test_stimulus":{"position":1,"left":"bvh/vr_prediction_models/model(tmp)-dataset(return-bottle-hold)-numprim(9)-hold(4)/final-lines.txt","right":"bvh/return-bottle-hold-training4-lines.txt","att_check":false},"trial_type":"html-button-response","trial_index":42,"time_elapsed":135845,"internal_node_id":"0.0-8.0-3.8","subject":"yymubxyq9g5eene","sona":"THNS"},{"rt":581,"stimulus":"<p>Bereit?</p>","button_pressed":"0","trial_type":"html-button-response","trial_index":43,"time_elapsed":136428,"internal_node_id":"0.0-8.0-0.9","subject":"yymubxyq9g5eene","sona":"THNS"},{"rt":null,"stimulus":"<div style=\"font-size:60px;\">+</div>","key_press":null,"trial_type":"html-keyboard-response","trial_index":44,"time_elapsed":138430,"internal_node_id":"0.0-8.0-1.9","subject":"yymubxyq9g5eene","sona":"THNS"},{"trial_type":"turing-test","trial_index":45,"time_elapsed":144242,"internal_node_id":"0.0-8.0-2.9","subject":"yymubxyq9g5eene","sona":"THNS"},{"rt":1247,"stimulus":"<p>Welche Sequenz haben Sie als natürlicher empfunden?</p>","button_pressed":"1","test_part":"response","test_stimulus":{"position":1,"left":"bvh/vr_prediction_models/model(vcgpdm)-dataset(pass-bottle)-mode(ELBO)-parts(1)-dyn(30)-lvm(30)-hold(4)/final-lines.txt","right":"bvh/pass-bottle-training4-lines.txt","att_check":false},"trial_type":"html-button-response","trial_index":46,"time_elapsed":145493,"internal_node_id":"0.0-8.0-3.9","subject":"yymubxyq9g5eene","sona":"THNS"},{"rt":606,"stimulus":"<p>Bereit?</p>","button_pressed":"0","trial_type":"html-button-response","trial_index":47,"time_elapsed":146100,"internal_node_id":"0.0-8.0-0.10","subject":"yymubxyq9g5eene","sona":"THNS"},{"rt":null,"stimulus":"<div style=\"font-size:60px;\">+</div>","key_press":null,"trial_type":"html-keyboard-response","trial_index":48,"time_elapsed":148105,"internal_node_id":"0.0-8.0-1.10","subject":"yymubxyq9g5eene","sona":"THNS"},{"trial_type":"turing-test","trial_index":49,"time_elapsed":151824,"internal_node_id":"0.0-8.0-2.10","subject":"yymubxyq9g5eene","sona":"THNS"},{"rt":1432,"stimulus":"<p>Welche Sequenz haben Sie als natürlicher empfunden?</p>","button_pressed":"0","test_part":"response","test_stimulus":{"position":0,"left":"bvh/return-bottle-hold-training3-lines.txt","right":"bvh/vr_prediction_models/model(dmp)-dataset(return-bottle-hold)-npsi(20)-hold(3)/final-lines.txt","att_check":true},"trial_type":"html-button-response","trial_index":50,"time_elapsed":153261,"internal_node_id":"0.0-8.0-3.10","subject":"yymubxyq9g5eene","sona":"THNS"},{"rt":589,"stimulus":"<p>Bereit?</p>","button_pressed":"0","trial_type":"html-button-response","trial_index":51,"time_elapsed":153853,"internal_node_id":"0.0-8.0-0.11","subject":"yymubxyq9g5eene","sona":"THNS"},{"rt":null,"stimulus":"<div style=\"font-size:60px;\">+</div>","key_press":null,"trial_type":"html-keyboard-response","trial_index":52,"time_elapsed":155856,"internal_node_id":"0.0-8.0-1.11","subject":"yymubxyq9g5eene","sona":"THNS"},{"trial_type":"turing-test","trial_index":53,"time_elapsed":161285,"internal_node_id":"0.0-8.0-2.11","subject":"yymubxyq9g5eene","sona":"THNS"},{"rt":1556,"stimulus":"<p>Welche Sequenz haben Sie als natürlicher empfunden?</p>","button_pressed":"0","test_part":"response","test_stimulus":{"position":0,"left":"bvh/pass-bottle-training1-lines.txt","right":"bvh/vr_prediction_models/model(vcgpdm)-dataset(pass-bottle)-mode(ELBO)-parts(1)-dyn(35)-lvm(30)-hold(1)/final-lines.txt","att_check":false},"trial_type":"html-button-response","trial_index":54,"time_elapsed":162845,"internal_node_id":"0.0-8.0-3.11","subject":"yymubxyq9g5eene","sona":"THNS"},{"rt":1213,"stimulus":"<p>Bereit?</p>","button_pressed":"0","trial_type":"html-button-response","trial_index":55,"time_elapsed":164060,"internal_node_id":"0.0-8.0-0.12","subject":"yymubxyq9g5eene","sona":"THNS"},{"rt":null,"stimulus":"<div style=\"font-size:60px;\">+</div>","key_press":null,"trial_type":"html-keyboard-response","trial_index":56,"time_elapsed":166063,"internal_node_id":"0.0-8.0-1.12","subject":"yymubxyq9g5eene","sona":"THNS"},{"trial_type":"turing-test","trial_index":57,"time_elapsed":169394,"internal_node_id":"0.0-8.0-2.12","subject":"yymubxyq9g5eene","sona":"THNS"},{"rt":960,"stimulus":"<p>Welche Sequenz haben Sie als natürlicher empfunden?</p>","button_pressed":"1","test_part":"response","test_stimulus":{"position":1,"left":"bvh/vr_prediction_models/model(tmp)-dataset(pass-bottle-hold)-numprim(13)-hold(2)/final-lines.txt","right":"bvh/pass-bottle-hold-training2-lines.txt","att_check":false},"trial_type":"html-button-response","trial_index":58,"time_elapsed":170357,"internal_node_id":"0.0-8.0-3.12","subject":"yymubxyq9g5eene","sona":"THNS"},{"rt":742,"stimulus":"<p>Bereit?</p>","button_pressed":"0","trial_type":"html-button-response","trial_index":59,"time_elapsed":171101,"internal_node_id":"0.0-8.0-0.13","subject":"yymubxyq9g5eene","sona":"THNS"},{"rt":null,"stimulus":"<div style=\"font-size:60px;\">+</div>","key_press":null,"trial_type":"html-keyboard-response","trial_index":60,"time_elapsed":173104,"internal_node_id":"0.0-8.0-1.13","subject":"yymubxyq9g5eene","sona":"THNS"},{"trial_type":"turing-test","trial_index":61,"time_elapsed":178819,"internal_node_id":"0.0-8.0-2.13","subject":"yymubxyq9g5eene","sona":"THNS"},{"rt":847,"stimulus":"<p>Welche Sequenz haben Sie als natürlicher empfunden?</p>","button_pressed":"0","test_part":"response","test_stimulus":{"position":0,"left":"bvh/return-bottle-training4-lines.txt","right":"bvh/vr_prediction_models/model(dmp)-dataset(return-bottle)-npsi(40)-hold(4)/final-lines.txt","att_check":false},"trial_type":"html-button-response","trial_index":62,"time_elapsed":179669,"internal_node_id":"0.0-8.0-3.13","subject":"yymubxyq9g5eene","sona":"THNS"},{"rt":662,"stimulus":"<p>Bereit?</p>","button_pressed":"0","trial_type":"html-button-response","trial_index":63,"time_elapsed":180332,"internal_node_id":"0.0-8.0-0.14","subject":"yymubxyq9g5eene","sona":"THNS"},{"rt":null,"stimulus":"<div style=\"font-size:60px;\">+</div>","key_press":null,"trial_type":"html-keyboard-response","trial_index":64,"time_elapsed":182336,"internal_node_id":"0.0-8.0-1.14","subject":"yymubxyq9g5eene","sona":"THNS"},{"trial_type":"turing-test","trial_index":65,"time_elapsed":185957,"internal_node_id":"0.0-8.0-2.14","subject":"yymubxyq9g5eene","sona":"THNS"},{"rt":2428,"stimulus":"<p>Welche Sequenz haben Sie als natürlicher empfunden?</p>","button_pressed":"1","test_part":"response","test_stimulus":{"position":1,"left":"bvh/vr_prediction_models/model(vcgpdm)-dataset(return-bottle-hold)-mode(ELBO)-parts(1)-dyn(10)-lvm(5)-hold(3)/final-lines.txt","right":"bvh/return-bottle-hold-training3-lines.txt","att_check":false},"trial_type":"html-button-response","trial_index":66,"time_elapsed":188388,"internal_node_id":"0.0-8.0-3.14","subject":"yymubxyq9g5eene","sona":"THNS"},{"rt":861,"stimulus":"<p>Bereit?</p>","button_pressed":"0","trial_type":"html-button-response","trial_index":67,"time_elapsed":189253,"internal_node_id":"0.0-8.0-0.15","subject":"yymubxyq9g5eene","sona":"THNS"},{"rt":null,"stimulus":"<div style=\"font-size:60px;\">+</div>","key_press":null,"trial_type":"html-keyboard-response","trial_index":68,"time_elapsed":191256,"internal_node_id":"0.0-8.0-1.15","subject":"yymubxyq9g5eene","sona":"THNS"},{"trial_type":"turing-test","trial_index":69,"time_elapsed":194537,"internal_node_id":"0.0-8.0-2.15","subject":"yymubxyq9g5eene","sona":"THNS"},{"rt":859,"stimulus":"<p>Welche Sequenz haben Sie als natürlicher empfunden?</p>","button_pressed":"0","test_part":"response","test_stimulus":{"position":1,"left":"bvh/vr_prediction_models/model(dmp)-dataset(pass-bottle-hold)-npsi(70)-hold(0)/final-lines.txt","right":"bvh/pass-bottle-hold-training0-lines.txt","att_check":false},"trial_type":"html-button-response","trial_index":70,"time_elapsed":195396,"internal_node_id":"0.0-8.0-3.15","subject":"yymubxyq9g5eene","sona":"THNS"},{"rt":567,"stimulus":"<p>Bereit?</p>","button_pressed":"0","trial_type":"html-button-response","trial_index":71,"time_elapsed":195964,"internal_node_id":"0.0-8.0-0.16","subject":"yymubxyq9g5eene","sona":"THNS"},{"rt":null,"stimulus":"<div style=\"font-size:60px;\">+</div>","key_press":null,"trial_type":"html-keyboard-response","trial_index":72,"time_elapsed":197967,"internal_node_id":"0.0-8.0-1.16","subject":"yymubxyq9g5eene","sona":"THNS"},{"trial_type":"turing-test","trial_index":73,"time_elapsed":203142,"internal_node_id":"0.0-8.0-2.16","subject":"yymubxyq9g5eene","sona":"THNS"},{"rt":1213,"stimulus":"<p>Welche Sequenz haben Sie als natürlicher empfunden?</p>","button_pressed":"1","test_part":"response","test_stimulus":{"position":1,"left":"bvh/vr_prediction_models/model(vcgpdm)-dataset(return-bottle-hold)-mode(ELBO)-parts(1)-dyn(20)-lvm(20)-hold(0)/final-lines.txt","right":"bvh/return-bottle-hold-training0-lines.txt","att_check":false},"trial_type":"html-button-response","trial_index":74,"time_elapsed":204357,"internal_node_id":"0.0-8.0-3.16","subject":"yymubxyq9g5eene","sona":"THNS"},{"rt":534,"stimulus":"<p>Bereit?</p>","button_pressed":"0","trial_type":"html-button-response","trial_index":75,"time_elapsed":204892,"internal_node_id":"0.0-8.0-0.17","subject":"yymubxyq9g5eene","sona":"THNS"},{"rt":null,"stimulus":"<div style=\"font-size:60px;\">+</div>","key_press":null,"trial_type":"html-keyboard-response","trial_index":76,"time_elapsed":206895,"internal_node_id":"0.0-8.0-1.17","subject":"yymubxyq9g5eene","sona":"THNS"},{"trial_type":"turing-test","trial_index":77,"time_elapsed":210615,"internal_node_id":"0.0-8.0-2.17","subject":"yymubxyq9g5eene","sona":"THNS"},{"rt":725,"stimulus":"<p>Welche Sequenz haben Sie als natürlicher empfunden?</p>","button_pressed":"1","test_part":"response","test_stimulus":{"position":1,"left":"bvh/vr_prediction_models/model(dmp)-dataset(pass-bottle-hold)-npsi(80)-hold(4)/final-lines.txt","right":"bvh/pass-bottle-hold-training4-lines.txt","att_check":false},"trial_type":"html-button-response","trial_index":78,"time_elapsed":211341,"internal_node_id":"0.0-8.0-3.17","subject":"yymubxyq9g5eene","sona":"THNS"},{"rt":630,"stimulus":"<p>Bereit?</p>","button_pressed":"0","trial_type":"html-button-response","trial_index":79,"time_elapsed":211972,"internal_node_id":"0.0-8.0-0.18","subject":"yymubxyq9g5eene","sona":"THNS"},{"rt":null,"stimulus":"<div style=\"font-size:60px;\">+</div>","key_press":null,"trial_type":"html-keyboard-response","trial_index":80,"time_elapsed":213976,"internal_node_id":"0.0-8.0-1.18","subject":"yymubxyq9g5eene","sona":"THNS"},{"trial_type":"turing-test","trial_index":81,"time_elapsed":217214,"internal_node_id":"0.0-8.0-2.18","subject":"yymubxyq9g5eene","sona":"THNS"},{"rt":779,"stimulus":"<p>Welche Sequenz haben Sie als natürlicher empfunden?</p>","button_pressed":"0","test_part":"response","test_stimulus":{"position":1,"left":"bvh/vr_prediction_models/model(tmp)-dataset(pass-bottle-hold)-numprim(13)-hold(2)/final-lines.txt","right":"bvh/pass-bottle-hold-training2-lines.txt","att_check":false},"trial_type":"html-button-response","trial_index":82,"time_elapsed":217997,"internal_node_id":"0.0-8.0-3.18","subject":"yymubxyq9g5eene","sona":"THNS"},{"rt":478,"stimulus":"<p>Bereit?</p>","button_pressed":"0","trial_type":"html-button-response","trial_index":83,"time_elapsed":218477,"internal_node_id":"0.0-8.0-0.19","subject":"yymubxyq9g5eene","sona":"THNS"},{"rt":null,"stimulus":"<div style=\"font-size:60px;\">+</div>","key_press":null,"trial_type":"html-keyboard-response","trial_index":84,"time_elapsed":220481,"internal_node_id":"0.0-8.0-1.19","subject":"yymubxyq9g5eene","sona":"THNS"},{"trial_type":"turing-test","trial_index":85,"time_elapsed":226378,"internal_node_id":"0.0-8.0-2.19","subject":"yymubxyq9g5eene","sona":"THNS"},{"rt":1064,"stimulus":"<p>Welche Sequenz haben Sie als natürlicher empfunden?</p>","button_pressed":"0","test_part":"response","test_stimulus":{"position":0,"left":"bvh/pass-bottle-training3-lines.txt","right":"bvh/vr_prediction_models/model(vcgpdm)-dataset(pass-bottle)-mode(ELBO)-parts(3)-dyn(10)-lvm(25)-hold(3)/final-lines.txt","att_check":false},"trial_type":"html-button-response","trial_index":86,"time_elapsed":227445,"internal_node_id":"0.0-8.0-3.19","subject":"yymubxyq9g5eene","sona":"THNS"},{"rt":661,"stimulus":"<p>Bereit?</p>","button_pressed":"0","trial_type":"html-button-response","trial_index":87,"time_elapsed":228109,"internal_node_id":"0.0-8.0-0.20","subject":"yymubxyq9g5eene","sona":"THNS"},{"rt":null,"stimulus":"<div style=\"font-size:60px;\">+</div>","key_press":null,"trial_type":"html-keyboard-response","trial_index":88,"time_elapsed":230112,"internal_node_id":"0.0-8.0-1.20","subject":"yymubxyq9g5eene","sona":"THNS"},{"trial_type":"turing-test","trial_index":89,"time_elapsed":233629,"internal_node_id":"0.0-8.0-2.20","subject":"yymubxyq9g5eene","sona":"THNS"},{"rt":1133,"stimulus":"<p>Welche Sequenz haben Sie als natürlicher empfunden?</p>","button_pressed":"0","test_part":"response","test_stimulus":{"position":1,"left":"bvh/vr_prediction_models/model(vcgpdm)-dataset(pass-bottle-hold)-mode(ELBO)-parts(1)-dyn(30)-lvm(35)-hold(3)/final-lines.txt","right":"bvh/pass-bottle-hold-training3-lines.txt","att_check":false},"trial_type":"html-button-response","trial_index":90,"time_elapsed":234764,"internal_node_id":"0.0-8.0-3.20","subject":"yymubxyq9g5eene","sona":"THNS"},{"rt":493,"stimulus":"<p>Bereit?</p>","button_pressed":"0","trial_type":"html-button-response","trial_index":91,"time_elapsed":235261,"internal_node_id":"0.0-8.0-0.21","subject":"yymubxyq9g5eene","sona":"THNS"},{"rt":null,"stimulus":"<div style=\"font-size:60px;\">+</div>","key_press":null,"trial_type":"html-keyboard-response","trial_index":92,"time_elapsed":237263,"internal_node_id":"0.0-8.0-1.21","subject":"yymubxyq9g5eene","sona":"THNS"},{"trial_type":"turing-test","trial_index":93,"time_elapsed":240875,"internal_node_id":"0.0-8.0-2.21","subject":"yymubxyq9g5eene","sona":"THNS"},{"rt":1407,"stimulus":"<p>Welche Sequenz haben Sie als natürlicher empfunden?</p>","button_pressed":"0","test_part":"response","test_stimulus":{"position":0,"left":"bvh/return-bottle-hold-training2-lines.txt","right":"bvh/vr_prediction_models/model(vcgpdm)-dataset(return-bottle-hold)-mode(ELBO)-parts(1)-dyn(30)-lvm(30)-hold(2)/final-lines.txt","att_check":false},"trial_type":"html-button-response","trial_index":94,"time_elapsed":242284,"internal_node_id":"0.0-8.0-3.21","subject":"yymubxyq9g5eene","sona":"THNS"},{"rt":669,"stimulus":"<p>Bereit?</p>","button_pressed":"0","trial_type":"html-button-response","trial_index":95,"time_elapsed":242957,"internal_node_id":"0.0-8.0-0.22","subject":"yymubxyq9g5eene","sona":"THNS"},{"rt":null,"stimulus":"<div style=\"font-size:60px;\">+</div>","key_press":null,"trial_type":"html-keyboard-response","trial_index":96,"time_elapsed":244959,"internal_node_id":"0.0-8.0-1.22","subject":"yymubxyq9g5eene","sona":"THNS"},{"trial_type":"turing-test","trial_index":97,"time_elapsed":248538,"internal_node_id":"0.0-8.0-2.22","subject":"yymubxyq9g5eene","sona":"THNS"},{"rt":1198,"stimulus":"<p>Welche Sequenz haben Sie als natürlicher empfunden?</p>","button_pressed":"1","test_part":"response","test_stimulus":{"position":1,"left":"bvh/vr_prediction_models/model(vcgpdm)-dataset(pass-bottle-hold)-mode(ELBO)-parts(1)-dyn(30)-lvm(20)-hold(3)/final-lines.txt","right":"bvh/pass-bottle-hold-training3-lines.txt","att_check":false},"trial_type":"html-button-response","trial_index":98,"time_elapsed":249742,"internal_node_id":"0.0-8.0-3.22","subject":"yymubxyq9g5eene","sona":"THNS"},{"rt":589,"stimulus":"<p>Bereit?</p>","button_pressed":"0","trial_type":"html-button-response","trial_index":99,"time_elapsed":250333,"internal_node_id":"0.0-8.0-0.23","subject":"yymubxyq9g5eene","sona":"THNS"},{"rt":null,"stimulus":"<div style=\"font-size:60px;\">+</div>","key_press":null,"trial_type":"html-keyboard-response","trial_index":100,"time_elapsed":252336,"internal_node_id":"0.0-8.0-1.23","subject":"yymubxyq9g5eene","sona":"THNS"},{"trial_type":"turing-test","trial_index":101,"time_elapsed":257991,"internal_node_id":"0.0-8.0-2.23","subject":"yymubxyq9g5eene","sona":"THNS"},{"rt":916,"stimulus":"<p>Welche Sequenz haben Sie als natürlicher empfunden?</p>","button_pressed":"0","test_part":"response","test_stimulus":{"position":0,"left":"bvh/return-bottle-training4-lines.txt","right":"bvh/vr_prediction_models/model(vcgpdm)-dataset(return-bottle)-mode(ELBO)-parts(3)-dyn(15)-lvm(30)-hold(4)/final-lines.txt","att_check":false},"trial_type":"html-button-response","trial_index":102,"time_elapsed":258909,"internal_node_id":"0.0-8.0-3.23","subject":"yymubxyq9g5eene","sona":"THNS"},{"rt":694,"stimulus":"<p>Bereit?</p>","button_pressed":"0","trial_type":"html-button-response","trial_index":103,"time_elapsed":259604,"internal_node_id":"0.0-8.0-0.24","subject":"yymubxyq9g5eene","sona":"THNS"},{"rt":null,"stimulus":"<div style=\"font-size:60px;\">+</div>","key_press":null,"trial_type":"html-keyboard-response","trial_index":104,"time_elapsed":261606,"internal_node_id":"0.0-8.0-1.24","subject":"yymubxyq9g5eene","sona":"THNS"},{"trial_type":"turing-test","trial_index":105,"time_elapsed":267368,"internal_node_id":"0.0-8.0-2.24","subject":"yymubxyq9g5eene","sona":"THNS"},{"rt":601,"stimulus":"<p>Welche Sequenz haben Sie als natürlicher empfunden?</p>","button_pressed":"0","test_part":"response","test_stimulus":{"position":0,"left":"bvh/pass-bottle-training3-lines.txt","right":"bvh/vr_prediction_models/model(dmp)-dataset(pass-bottle)-npsi(80)-hold(3)/final-lines.txt","att_check":false},"trial_type":"html-button-response","trial_index":106,"time_elapsed":267973,"internal_node_id":"0.0-8.0-3.24","subject":"yymubxyq9g5eene","sona":"THNS"},{"rt":669,"stimulus":"<p>Bereit?</p>","button_pressed":"0","trial_type":"html-button-response","trial_index":107,"time_elapsed":268645,"internal_node_id":"0.0-8.0-0.25","subject":"yymubxyq9g5eene","sona":"THNS"},{"rt":null,"stimulus":"<div style=\"font-size:60px;\">+</div>","key_press":null,"trial_type":"html-keyboard-response","trial_index":108,"time_elapsed":270647,"internal_node_id":"0.0-8.0-1.25","subject":"yymubxyq9g5eene","sona":"THNS"},{"trial_type":"turing-test","trial_index":109,"time_elapsed":274424,"internal_node_id":"0.0-8.0-2.25","subject":"yymubxyq9g5eene","sona":"THNS"},{"rt":1138,"stimulus":"<p>Welche Sequenz haben Sie als natürlicher empfunden?</p>","button_pressed":"1","test_part":"response","test_stimulus":{"position":1,"left":"bvh/vr_prediction_models/model(vcgpdm)-dataset(return-bottle-hold)-mode(ELBO)-parts(1)-dyn(20)-lvm(30)-hold(3)/final-lines.txt","right":"bvh/return-bottle-hold-training3-lines.txt","att_check":false},"trial_type":"html-button-response","trial_index":110,"time_elapsed":275564,"internal_node_id":"0.0-8.0-3.25","subject":"yymubxyq9g5eene","sona":"THNS"},{"rt":1214,"stimulus":"<p>Bereit?</p>","button_pressed":"0","trial_type":"html-button-response","trial_index":111,"time_elapsed":276780,"internal_node_id":"0.0-8.0-0.26","subject":"yymubxyq9g5eene","sona":"THNS"},{"rt":null,"stimulus":"<div style=\"font-size:60px;\">+</div>","key_press":null,"trial_type":"html-keyboard-response","trial_index":112,"time_elapsed":278784,"internal_node_id":"0.0-8.0-1.26","subject":"yymubxyq9g5eene","sona":"THNS"},{"trial_type":"turing-test","trial_index":113,"time_elapsed":282626,"internal_node_id":"0.0-8.0-2.26","subject":"yymubxyq9g5eene","sona":"THNS"},{"rt":750,"stimulus":"<p>Welche Sequenz haben Sie als natürlicher empfunden?</p>","button_pressed":"1","test_part":"response","test_stimulus":{"position":1,"left":"bvh/vr_prediction_models/model(vcgpdm)-dataset(return-bottle-hold)-mode(ELBO)-parts(1)-dyn(10)-lvm(5)-hold(4)/final-lines.txt","right":"bvh/return-bottle-hold-training4-lines.txt","att_check":false},"trial_type":"html-button-response","trial_index":114,"time_elapsed":283380,"internal_node_id":"0.0-8.0-3.26","subject":"yymubxyq9g5eene","sona":"THNS"},{"rt":422,"stimulus":"<p>Bereit?</p>","button_pressed":"0","trial_type":"html-button-response","trial_index":115,"time_elapsed":283804,"internal_node_id":"0.0-8.0-0.27","subject":"yymubxyq9g5eene","sona":"THNS"},{"rt":null,"stimulus":"<div style=\"font-size:60px;\">+</div>","key_press":null,"trial_type":"html-keyboard-response","trial_index":116,"time_elapsed":285808,"internal_node_id":"0.0-8.0-1.27","subject":"yymubxyq9g5eene","sona":"THNS"},{"trial_type":"turing-test","trial_index":117,"time_elapsed":291467,"internal_node_id":"0.0-8.0-2.27","subject":"yymubxyq9g5eene","sona":"THNS"},{"rt":871,"stimulus":"<p>Welche Sequenz haben Sie als natürlicher empfunden?</p>","button_pressed":"1","test_part":"response","test_stimulus":{"position":1,"left":"bvh/vr_prediction_models/model(vcgpdm)-dataset(return-bottle)-mode(ELBO)-parts(3)-dyn(15)-lvm(30)-hold(4)/final-lines.txt","right":"bvh/return-bottle-training4-lines.txt","att_check":false},"trial_type":"html-button-response","trial_index":118,"time_elapsed":292341,"internal_node_id":"0.0-8.0-3.27","subject":"yymubxyq9g5eene","sona":"THNS"},{"rt":829,"stimulus":"<p>Bereit?</p>","button_pressed":"0","trial_type":"html-button-response","trial_index":119,"time_elapsed":293172,"internal_node_id":"0.0-8.0-0.28","subject":"yymubxyq9g5eene","sona":"THNS"},{"rt":null,"stimulus":"<div style=\"font-size:60px;\">+</div>","key_press":null,"trial_type":"html-keyboard-response","trial_index":120,"time_elapsed":295173,"internal_node_id":"0.0-8.0-1.28","subject":"yymubxyq9g5eene","sona":"THNS"},{"trial_type":"turing-test","trial_index":121,"time_elapsed":298923,"internal_node_id":"0.0-8.0-2.28","subject":"yymubxyq9g5eene","sona":"THNS"},{"rt":767,"stimulus":"<p>Welche Sequenz haben Sie als natürlicher empfunden?</p>","button_pressed":"1","test_part":"response","test_stimulus":{"position":0,"left":"bvh/return-bottle-hold-training4-lines.txt","right":"bvh/vr_prediction_models/model(tmp)-dataset(return-bottle-hold)-numprim(10)-hold(4)/final-lines.txt","att_check":false},"trial_type":"html-button-response","trial_index":122,"time_elapsed":299693,"internal_node_id":"0.0-8.0-3.28","subject":"yymubxyq9g5eene","sona":"THNS"},{"rt":525,"stimulus":"<p>Bereit?</p>","button_pressed":"0","trial_type":"html-button-response","trial_index":123,"time_elapsed":300222,"internal_node_id":"0.0-8.0-0.29","subject":"yymubxyq9g5eene","sona":"THNS"},{"rt":null,"stimulus":"<div style=\"font-size:60px;\">+</div>","key_press":null,"trial_type":"html-keyboard-response","trial_index":124,"time_elapsed":302224,"internal_node_id":"0.0-8.0-1.29","subject":"yymubxyq9g5eene","sona":"THNS"},{"trial_type":"turing-test","trial_index":125,"time_elapsed":305494,"internal_node_id":"0.0-8.0-2.29","subject":"yymubxyq9g5eene","sona":"THNS"},{"rt":651,"stimulus":"<p>Welche Sequenz haben Sie als natürlicher empfunden?</p>","button_pressed":"1","test_part":"response","test_stimulus":{"position":1,"left":"bvh/vr_prediction_models/model(dmp)-dataset(pass-bottle-hold)-npsi(90)-hold(0)/final-lines.txt","right":"bvh/pass-bottle-hold-training0-lines.txt","att_check":true},"trial_type":"html-button-response","trial_index":126,"time_elapsed":306148,"internal_node_id":"0.0-8.0-3.29","subject":"yymubxyq9g5eene","sona":"THNS"},{"rt":486,"stimulus":"<p>Bereit?</p>","button_pressed":"0","trial_type":"html-button-response","trial_index":127,"time_elapsed":306636,"internal_node_id":"0.0-8.0-0.30","subject":"yymubxyq9g5eene","sona":"THNS"},{"rt":null,"stimulus":"<div style=\"font-size:60px;\">+</div>","key_press":null,"trial_type":"html-keyboard-response","trial_index":128,"time_elapsed":308639,"internal_node_id":"0.0-8.0-1.30","subject":"yymubxyq9g5eene","sona":"THNS"},{"trial_type":"turing-test","trial_index":129,"time_elapsed":315365,"internal_node_id":"0.0-8.0-2.30","subject":"yymubxyq9g5eene","sona":"THNS"},{"rt":692,"stimulus":"<p>Welche Sequenz haben Sie als natürlicher empfunden?</p>","button_pressed":"1","test_part":"response","test_stimulus":{"position":1,"left":"bvh/vr_prediction_models/model(tmp)-dataset(pass-bottle)-numprim(14)-hold(0)/final-lines.txt","right":"bvh/pass-bottle-training0-lines.txt","att_check":false},"trial_type":"html-button-response","trial_index":130,"time_elapsed":316061,"internal_node_id":"0.0-8.0-3.30","subject":"yymubxyq9g5eene","sona":"THNS"},{"rt":717,"stimulus":"<p>Bereit?</p>","button_pressed":"0","trial_type":"html-button-response","trial_index":131,"time_elapsed":316781,"internal_node_id":"0.0-8.0-0.31","subject":"yymubxyq9g5eene","sona":"THNS"},{"rt":null,"stimulus":"<div style=\"font-size:60px;\">+</div>","key_press":null,"trial_type":"html-keyboard-response","trial_index":132,"time_elapsed":318784,"internal_node_id":"0.0-8.0-1.31","subject":"yymubxyq9g5eene","sona":"THNS"},{"trial_type":"turing-test","trial_index":133,"time_elapsed":324855,"internal_node_id":"0.0-8.0-2.31","subject":"yymubxyq9g5eene","sona":"THNS"},{"rt":757,"stimulus":"<p>Welche Sequenz haben Sie als natürlicher empfunden?</p>","button_pressed":"1","test_part":"response","test_stimulus":{"position":1,"left":"bvh/vr_prediction_models/model(dmp)-dataset(pass-bottle)-npsi(60)-hold(2)/final-lines.txt","right":"bvh/pass-bottle-training2-lines.txt","att_check":false},"trial_type":"html-button-response","trial_index":134,"time_elapsed":325612,"internal_node_id":"0.0-8.0-3.31","subject":"yymubxyq9g5eene","sona":"THNS"},{"rt":574,"stimulus":"<p>Bereit?</p>","button_pressed":"0","trial_type":"html-button-response","trial_index":135,"time_elapsed":326189,"internal_node_id":"0.0-8.0-0.32","subject":"yymubxyq9g5eene","sona":"THNS"},{"rt":null,"stimulus":"<div style=\"font-size:60px;\">+</div>","key_press":null,"trial_type":"html-keyboard-response","trial_index":136,"time_elapsed":328191,"internal_node_id":"0.0-8.0-1.32","subject":"yymubxyq9g5eene","sona":"THNS"},{"trial_type":"turing-test","trial_index":137,"time_elapsed":331796,"internal_node_id":"0.0-8.0-2.32","subject":"yymubxyq9g5eene","sona":"THNS"},{"rt":828,"stimulus":"<p>Welche Sequenz haben Sie als natürlicher empfunden?</p>","button_pressed":"1","test_part":"response","test_stimulus":{"position":1,"left":"bvh/vr_prediction_models/model(tmp)-dataset(return-bottle-hold)-numprim(10)-hold(4)/final-lines.txt","right":"bvh/return-bottle-hold-training4-lines.txt","att_check":false},"trial_type":"html-button-response","trial_index":138,"time_elapsed":332628,"internal_node_id":"0.0-8.0-3.32","subject":"yymubxyq9g5eene","sona":"THNS"},{"rt":477,"stimulus":"<p>Bereit?</p>","button_pressed":"0","trial_type":"html-button-response","trial_index":139,"time_elapsed":333108,"internal_node_id":"0.0-8.0-0.33","subject":"yymubxyq9g5eene","sona":"THNS"},{"rt":null,"stimulus":"<div style=\"font-size:60px;\">+</div>","key_press":null,"trial_type":"html-keyboard-response","trial_index":140,"time_elapsed":335112,"internal_node_id":"0.0-8.0-1.33","subject":"yymubxyq9g5eene","sona":"THNS"},{"trial_type":"turing-test","trial_index":141,"time_elapsed":338533,"internal_node_id":"0.0-8.0-2.33","subject":"yymubxyq9g5eene","sona":"THNS"},{"rt":964,"stimulus":"<p>Welche Sequenz haben Sie als natürlicher empfunden?</p>","button_pressed":"1","test_part":"response","test_stimulus":{"position":1,"left":"bvh/vr_prediction_models/model(vcgpdm)-dataset(return-bottle-hold)-mode(ELBO)-parts(3)-dyn(25)-lvm(30)-hold(1)/final-lines.txt","right":"bvh/return-bottle-hold-training1-lines.txt","att_check":false},"trial_type":"html-button-response","trial_index":142,"time_elapsed":339500,"internal_node_id":"0.0-8.0-3.33","subject":"yymubxyq9g5eene","sona":"THNS"},{"rt":670,"stimulus":"<p>Bereit?</p>","button_pressed":"0","trial_type":"html-button-response","trial_index":143,"time_elapsed":340173,"internal_node_id":"0.0-8.0-0.34","subject":"yymubxyq9g5eene","sona":"THNS"},{"rt":null,"stimulus":"<div style=\"font-size:60px;\">+</div>","key_press":null,"trial_type":"html-keyboard-response","trial_index":144,"time_elapsed":342176,"internal_node_id":"0.0-8.0-1.34","subject":"yymubxyq9g5eene","sona":"THNS"},{"trial_type":"turing-test","trial_index":145,"time_elapsed":347237,"internal_node_id":"0.0-8.0-2.34","subject":"yymubxyq9g5eene","sona":"THNS"},{"rt":908,"stimulus":"<p>Welche Sequenz haben Sie als natürlicher empfunden?</p>","button_pressed":"1","test_part":"response","test_stimulus":{"position":1,"left":"bvh/vr_prediction_models/model(vcgpdm)-dataset(return-bottle-hold)-mode(ELBO)-parts(3)-dyn(30)-lvm(15)-hold(0)/final-lines.txt","right":"bvh/return-bottle-hold-training0-lines.txt","att_check":false},"trial_type":"html-button-response","trial_index":146,"time_elapsed":348149,"internal_node_id":"0.0-8.0-3.34","subject":"yymubxyq9g5eene","sona":"THNS"},{"rt":397,"stimulus":"<p>Bereit?</p>","button_pressed":"0","trial_type":"html-button-response","trial_index":147,"time_elapsed":348549,"internal_node_id":"0.0-8.0-0.35","subject":"yymubxyq9g5eene","sona":"THNS"},{"rt":null,"stimulus":"<div style=\"font-size:60px;\">+</div>","key_press":null,"trial_type":"html-keyboard-response","trial_index":148,"time_elapsed":350551,"internal_node_id":"0.0-8.0-1.35","subject":"yymubxyq9g5eene","sona":"THNS"},{"trial_type":"turing-test","trial_index":149,"time_elapsed":356257,"internal_node_id":"0.0-8.0-2.35","subject":"yymubxyq9g5eene","sona":"THNS"},{"rt":840,"stimulus":"<p>Welche Sequenz haben Sie als natürlicher empfunden?</p>","button_pressed":"0","test_part":"response","test_stimulus":{"position":0,"left":"bvh/pass-bottle-training3-lines.txt","right":"bvh/vr_prediction_models/model(dmp)-dataset(pass-bottle)-npsi(50)-hold(3)/final-lines.txt","att_check":false},"trial_type":"html-button-response","trial_index":150,"time_elapsed":357101,"internal_node_id":"0.0-8.0-3.35","subject":"yymubxyq9g5eene","sona":"THNS"},{"rt":509,"stimulus":"<p>Bereit?</p>","button_pressed":"0","trial_type":"html-button-response","trial_index":151,"time_elapsed":357613,"internal_node_id":"0.0-8.0-0.36","subject":"yymubxyq9g5eene","sona":"THNS"},{"rt":null,"stimulus":"<div style=\"font-size:60px;\">+</div>","key_press":null,"trial_type":"html-keyboard-response","trial_index":152,"time_elapsed":359616,"internal_node_id":"0.0-8.0-1.36","subject":"yymubxyq9g5eene","sona":"THNS"},{"trial_type":"turing-test","trial_index":153,"time_elapsed":365330,"internal_node_id":"0.0-8.0-2.36","subject":"yymubxyq9g5eene","sona":"THNS"},{"rt":1118,"stimulus":"<p>Welche Sequenz haben Sie als natürlicher empfunden?</p>","button_pressed":"0","test_part":"response","test_stimulus":{"position":0,"left":"bvh/return-bottle-training3-lines.txt","right":"bvh/vr_prediction_models/model(tmp)-dataset(return-bottle)-numprim(15)-hold(3)/final-lines.txt","att_check":false},"trial_type":"html-button-response","trial_index":154,"time_elapsed":366452,"internal_node_id":"0.0-8.0-3.36","subject":"yymubxyq9g5eene","sona":"THNS"},{"rt":495,"stimulus":"<p>Bereit?</p>","button_pressed":"0","trial_type":"html-button-response","trial_index":155,"time_elapsed":366949,"internal_node_id":"0.0-8.0-0.37","subject":"yymubxyq9g5eene","sona":"THNS"},{"rt":null,"stimulus":"<div style=\"font-size:60px;\">+</div>","key_press":null,"trial_type":"html-keyboard-response","trial_index":156,"time_elapsed":368951,"internal_node_id":"0.0-8.0-1.37","subject":"yymubxyq9g5eene","sona":"THNS"},{"trial_type":"turing-test","trial_index":157,"time_elapsed":373392,"internal_node_id":"0.0-8.0-2.37","subject":"yymubxyq9g5eene","sona":"THNS"},{"rt":927,"stimulus":"<p>Welche Sequenz haben Sie als natürlicher empfunden?</p>","button_pressed":"0","test_part":"response","test_stimulus":{"position":1,"left":"bvh/vr_prediction_models/model(tmp)-dataset(return-bottle-hold)-numprim(6)-hold(2)/final-lines.txt","right":"bvh/return-bottle-hold-training2-lines.txt","att_check":false},"trial_type":"html-button-response","trial_index":158,"time_elapsed":374324,"internal_node_id":"0.0-8.0-3.37","subject":"yymubxyq9g5eene","sona":"THNS"},{"rt":420,"stimulus":"<p>Bereit?</p>","button_pressed":"0","trial_type":"html-button-response","trial_index":159,"time_elapsed":374748,"internal_node_id":"0.0-8.0-0.38","subject":"yymubxyq9g5eene","sona":"THNS"},{"rt":null,"stimulus":"<div style=\"font-size:60px;\">+</div>","key_press":null,"trial_type":"html-keyboard-response","trial_index":160,"time_elapsed":376751,"internal_node_id":"0.0-8.0-1.38","subject":"yymubxyq9g5eene","sona":"THNS"},{"trial_type":"turing-test","trial_index":161,"time_elapsed":381763,"internal_node_id":"0.0-8.0-2.38","subject":"yymubxyq9g5eene","sona":"THNS"},{"rt":932,"stimulus":"<p>Welche Sequenz haben Sie als natürlicher empfunden?</p>","button_pressed":"0","test_part":"response","test_stimulus":{"position":0,"left":"bvh/return-bottle-hold-training0-lines.txt","right":"bvh/vr_prediction_models/model(dmp)-dataset(return-bottle-hold)-npsi(40)-hold(0)/final-lines.txt","att_check":true},"trial_type":"html-button-response","trial_index":162,"time_elapsed":382700,"internal_node_id":"0.0-8.0-3.38","subject":"yymubxyq9g5eene","sona":"THNS"},{"rt":414,"stimulus":"<p>Bereit?</p>","button_pressed":"0","trial_type":"html-button-response","trial_index":163,"time_elapsed":383116,"internal_node_id":"0.0-8.0-0.39","subject":"yymubxyq9g5eene","sona":"THNS"},{"rt":null,"stimulus":"<div style=\"font-size:60px;\">+</div>","key_press":null,"trial_type":"html-keyboard-response","trial_index":164,"time_elapsed":385119,"internal_node_id":"0.0-8.0-1.39","subject":"yymubxyq9g5eene","sona":"THNS"},{"trial_type":"turing-test","trial_index":165,"time_elapsed":391726,"internal_node_id":"0.0-8.0-2.39","subject":"yymubxyq9g5eene","sona":"THNS"},{"rt":905,"stimulus":"<p>Welche Sequenz haben Sie als natürlicher empfunden?</p>","button_pressed":"0","test_part":"response","test_stimulus":{"position":0,"left":"bvh/return-bottle-training2-lines.txt","right":"bvh/vr_prediction_models/model(tmp)-dataset(return-bottle)-numprim(14)-hold(2)/final-lines.txt","att_check":false},"trial_type":"html-button-response","trial_index":166,"time_elapsed":392636,"internal_node_id":"0.0-8.0-3.39","subject":"yymubxyq9g5eene","sona":"THNS"},{"rt":373,"stimulus":"<p>Bereit?</p>","button_pressed":"0","trial_type":"html-button-response","trial_index":167,"time_elapsed":393012,"internal_node_id":"0.0-8.0-0.40","subject":"yymubxyq9g5eene","sona":"THNS"},{"rt":null,"stimulus":"<div style=\"font-size:60px;\">+</div>","key_press":null,"trial_type":"html-keyboard-response","trial_index":168,"time_elapsed":395015,"internal_node_id":"0.0-8.0-1.40","subject":"yymubxyq9g5eene","sona":"THNS"},{"trial_type":"turing-test","trial_index":169,"time_elapsed":398435,"internal_node_id":"0.0-8.0-2.40","subject":"yymubxyq9g5eene","sona":"THNS"},{"rt":1093,"stimulus":"<p>Welche Sequenz haben Sie als natürlicher empfunden?</p>","button_pressed":"1","test_part":"response","test_stimulus":{"position":0,"left":"bvh/return-bottle-hold-training2-lines.txt","right":"bvh/vr_prediction_models/model(vcgpdm)-dataset(return-bottle-hold)-mode(ELBO)-parts(3)-dyn(35)-lvm(20)-hold(2)/final-lines.txt","att_check":false},"trial_type":"html-button-response","trial_index":170,"time_elapsed":399533,"internal_node_id":"0.0-8.0-3.40","subject":"yymubxyq9g5eene","sona":"THNS"},{"rt":397,"stimulus":"<p>Bereit?</p>","button_pressed":"0","trial_type":"html-button-response","trial_index":171,"time_elapsed":399933,"internal_node_id":"0.0-8.0-0.41","subject":"yymubxyq9g5eene","sona":"THNS"},{"rt":null,"stimulus":"<div style=\"font-size:60px;\">+</div>","key_press":null,"trial_type":"html-keyboard-response","trial_index":172,"time_elapsed":401937,"internal_node_id":"0.0-8.0-1.41","subject":"yymubxyq9g5eene","sona":"THNS"},{"trial_type":"turing-test","trial_index":173,"time_elapsed":408554,"internal_node_id":"0.0-8.0-2.41","subject":"yymubxyq9g5eene","sona":"THNS"},{"rt":821,"stimulus":"<p>Welche Sequenz haben Sie als natürlicher empfunden?</p>","button_pressed":"0","test_part":"response","test_stimulus":{"position":0,"left":"bvh/return-bottle-training2-lines.txt","right":"bvh/vr_prediction_models/model(vcgpdm)-dataset(return-bottle)-mode(ELBO)-parts(3)-dyn(25)-lvm(15)-hold(2)/final-lines.txt","att_check":false},"trial_type":"html-button-response","trial_index":174,"time_elapsed":409380,"internal_node_id":"0.0-8.0-3.41","subject":"yymubxyq9g5eene","sona":"THNS"},{"rt":342,"stimulus":"<p>Bereit?</p>","button_pressed":"0","trial_type":"html-button-response","trial_index":175,"time_elapsed":409725,"internal_node_id":"0.0-8.0-0.42","subject":"yymubxyq9g5eene","sona":"THNS"},{"rt":null,"stimulus":"<div style=\"font-size:60px;\">+</div>","key_press":null,"trial_type":"html-keyboard-response","trial_index":176,"time_elapsed":411728,"internal_node_id":"0.0-8.0-1.42","subject":"yymubxyq9g5eene","sona":"THNS"},{"trial_type":"turing-test","trial_index":177,"time_elapsed":417736,"internal_node_id":"0.0-8.0-2.42","subject":"yymubxyq9g5eene","sona":"THNS"},{"rt":758,"stimulus":"<p>Welche Sequenz haben Sie als natürlicher empfunden?</p>","button_pressed":"0","test_part":"response","test_stimulus":{"position":0,"left":"bvh/return-bottle-training1-lines.txt","right":"bvh/vr_prediction_models/model(dmp)-dataset(return-bottle)-npsi(50)-hold(1)/final-lines.txt","att_check":false},"trial_type":"html-button-response","trial_index":178,"time_elapsed":418500,"internal_node_id":"0.0-8.0-3.42","subject":"yymubxyq9g5eene","sona":"THNS"},{"rt":789,"stimulus":"<p>Bereit?</p>","button_pressed":"0","trial_type":"html-button-response","trial_index":179,"time_elapsed":419293,"internal_node_id":"0.0-8.0-0.43","subject":"yymubxyq9g5eene","sona":"THNS"},{"rt":null,"stimulus":"<div style=\"font-size:60px;\">+</div>","key_press":null,"trial_type":"html-keyboard-response","trial_index":180,"time_elapsed":421295,"internal_node_id":"0.0-8.0-1.43","subject":"yymubxyq9g5eene","sona":"THNS"}]