[{"rt":1489.7800000035204,"stimulus":"<p>Welcome!<br> Please choose your language to start the experiment in the chosen language.</p><p>Willkommen!<br> Bitte wählen Sie eine Sprache, um das Experiment in der ausgewählten Sprache zu starten</p>","button_pressed":"1","trial_type":"html-button-response","trial_index":0,"time_elapsed":1494,"internal_node_id":"0.0-0.0","subject":"7xynmkycnvln074","sona":"7450"},{"view_history":"[{\"page_index\":0,\"viewing_time\":813.7649999989662},{\"page_index\":1,\"viewing_time\":744.6999999810942},{\"page_index\":2,\"viewing_time\":470.4900000069756},{\"page_index\":3,\"viewing_time\":592.640000017127},{\"page_index\":4,\"viewing_time\":655.8199999853969}]","rt":3278.244999994058,"trial_type":"instructions","trial_index":1,"time_elapsed":4773,"internal_node_id":"0.0-1.0-0.0","subject":"7xynmkycnvln074","sona":"7450"},{"rt":1268.000000010943,"stimulus":"<p>Bereit?</p>","key_press":32,"trial_type":"html-keyboard-response","trial_index":2,"time_elapsed":6043,"internal_node_id":"0.0-3.0","subject":"7xynmkycnvln074","sona":"7450"},{"rt":null,"stimulus":"<div style=\"font-size:60px;\">+</div>","key_press":null,"trial_type":"html-keyboard-response","trial_index":3,"time_elapsed":8063,"internal_node_id":"0.0-4.0","subject":"7xynmkycnvln074","sona":"7450"},{"trial_type":"training","trial_index":4,"time_elapsed":11524,"internal_node_id":"0.0-5.0","subject":"7xynmkycnvln074","sona":"7450"},{"rt":23.010000004433095,"stimulus":"<p>Welche Sequenz haben Sie als natürlicher empfunden?</p>","key_press":70,"trial_type":"html-keyboard-response","trial_index":5,"time_elapsed":11550,"internal_node_id":"0.0-6.0","subject":"7xynmkycnvln074","sona":"7450"},{"rt":4310.260000027483,"stimulus":"<p>Das Experiment startet nun.</p><p><small>Bitte drücken Sie den Knopf, wenn Sie bereit sind.</small></p>","button_pressed":"0","trial_type":"html-button-response","trial_index":6,"time_elapsed":15862,"internal_node_id":"0.0-7.0","subject":"7xynmkycnvln074","sona":"7450"},{"rt":1117.3150000104215,"stimulus":"<p>Bereit?</p>","key_press":32,"trial_type":"html-keyboard-response","trial_index":7,"time_elapsed":16981,"internal_node_id":"0.0-8.0-0.0","subject":"7xynmkycnvln074","sona":"7450"},{"rt":null,"stimulus":"<div style=\"font-size:60px;\">+</div>","key_press":null,"trial_type":"html-keyboard-response","trial_index":8,"time_elapsed":19004,"internal_node_id":"0.0-8.0-1.0","subject":"7xynmkycnvln074","sona":"7450"},{"trial_type":"turing-test","trial_index":9,"time_elapsed":22301,"internal_node_id":"0.0-8.0-2.0","subject":"7xynmkycnvln074","sona":"7450"},{"rt":4987.759999989066,"stimulus":"<p>Welche Sequenz haben Sie als natürlicher empfunden?</p>","key_press":74,"test_part":"response","test_stimulus":{"position":1,"left":"bvh/vr_prediction_models/model(tmp)-dataset(pass-bottle-hold)-numprim(7)-hold(1)/final-lines.txt","right":"bvh/pass-bottle-hold-training1-lines.txt","att_check":false},"trial_type":"html-keyboard-response","trial_index":10,"time_elapsed":27296,"internal_node_id":"0.0-8.0-3.0","subject":"7xynmkycnvln074","sona":"7450"},{"rt":449.9950000026729,"stimulus":"<p>Bereit?</p>","key_press":32,"trial_type":"html-keyboard-response","trial_index":11,"time_elapsed":27753,"internal_node_id":"0.0-8.0-0.1","subject":"7xynmkycnvln074","sona":"7450"},{"rt":null,"stimulus":"<div style=\"font-size:60px;\">+</div>","key_press":null,"trial_type":"html-keyboard-response","trial_index":12,"time_elapsed":29775,"internal_node_id":"0.0-8.0-1.1","subject":"7xynmkycnvln074","sona":"7450"},{"trial_type":"turing-test","trial_index":13,"time_elapsed":33340,"internal_node_id":"0.0-8.0-2.1","subject":"7xynmkycnvln074","sona":"7450"},{"rt":1105.3700000047684,"stimulus":"<p>Welche Sequenz haben Sie als natürlicher empfunden?</p>","key_press":74,"test_part":"response","test_stimulus":{"position":0,"left":"bvh/return-bottle-hold-training1-lines.txt","right":"bvh/vr_prediction_models/model(vcgpdm)-dataset(return-bottle-hold)-mode(ELBO)-parts(3)-dyn(10)-lvm(25)-hold(1)/final-lines.txt","att_check":false},"trial_type":"html-keyboard-response","trial_index":14,"time_elapsed":34452,"internal_node_id":"0.0-8.0-3.1","subject":"7xynmkycnvln074","sona":"7450"},{"rt":132.06999999238178,"stimulus":"<p>Bereit?</p>","key_press":32,"trial_type":"html-keyboard-response","trial_index":15,"time_elapsed":34590,"internal_node_id":"0.0-8.0-0.2","subject":"7xynmkycnvln074","sona":"7450"},{"rt":null,"stimulus":"<div style=\"font-size:60px;\">+</div>","key_press":null,"trial_type":"html-keyboard-response","trial_index":16,"time_elapsed":36611,"internal_node_id":"0.0-8.0-1.2","subject":"7xynmkycnvln074","sona":"7450"},{"trial_type":"turing-test","trial_index":17,"time_elapsed":42860,"internal_node_id":"0.0-8.0-2.2","subject":"7xynmkycnvln074","sona":"7450"},{"rt":332.48499999172054,"stimulus":"<p>Welche Sequenz haben Sie als natürlicher empfunden?</p>","key_press":70,"test_part":"response","test_stimulus":{"position":0,"left":"bvh/pass-bottle-training2-lines.txt","right":"bvh/vr_prediction_models/model(dmp)-dataset(pass-bottle)-npsi(90)-hold(2)/final-lines.txt","att_check":false},"trial_type":"html-keyboard-response","trial_index":18,"time_elapsed":43200,"internal_node_id":"0.0-8.0-3.2","subject":"7xynmkycnvln074","sona":"7450"},{"rt":164.33500000857748,"stimulus":"<p>Bereit?</p>","key_press":32,"trial_type":"html-keyboard-response","trial_index":19,"time_elapsed":43370,"internal_node_id":"0.0-8.0-0.3","subject":"7xynmkycnvln074","sona":"7450"},{"rt":null,"stimulus":"<div style=\"font-size:60px;\">+</div>","key_press":null,"trial_type":"html-keyboard-response","trial_index":20,"time_elapsed":45384,"internal_node_id":"0.0-8.0-1.3","subject":"7xynmkycnvln074","sona":"7450"},{"trial_type":"turing-test","trial_index":21,"time_elapsed":51400,"internal_node_id":"0.0-8.0-2.3","subject":"7xynmkycnvln074","sona":"7450"},{"rt":509.22999999602325,"stimulus":"<p>Welche Sequenz haben Sie als natürlicher empfunden?</p>","key_press":74,"test_part":"response","test_stimulus":{"position":1,"left":"bvh/vr_prediction_models/model(vcgpdm)-dataset(pass-bottle)-mode(ELBO)-parts(1)-dyn(30)-lvm(30)-hold(4)/final-lines.txt","right":"bvh/pass-bottle-training4-lines.txt","att_check":false},"trial_type":"html-keyboard-response","trial_index":22,"time_elapsed":51915,"internal_node_id":"0.0-8.0-3.3","subject":"7xynmkycnvln074","sona":"7450"},{"rt":59.984999999869615,"stimulus":"<p>Bereit?</p>","key_press":32,"trial_type":"html-keyboard-response","trial_index":23,"time_elapsed":51981,"internal_node_id":"0.0-8.0-0.4","subject":"7xynmkycnvln074","sona":"7450"},{"rt":null,"stimulus":"<div style=\"font-size:60px;\">+</div>","key_press":null,"trial_type":"html-keyboard-response","trial_index":24,"time_elapsed":54012,"internal_node_id":"0.0-8.0-1.4","subject":"7xynmkycnvln074","sona":"7450"},{"trial_type":"turing-test","trial_index":25,"time_elapsed":57930,"internal_node_id":"0.0-8.0-2.4","subject":"7xynmkycnvln074","sona":"7450"},{"rt":447.15500000165775,"stimulus":"<p>Welche Sequenz haben Sie als natürlicher empfunden?</p>","key_press":70,"test_part":"response","test_stimulus":{"position":1,"left":"bvh/vr_prediction_models/model(vcgpdm)-dataset(return-bottle-hold)-mode(ELBO)-parts(3)-dyn(25)-lvm(15)-hold(3)/final-lines.txt","right":"bvh/return-bottle-hold-training3-lines.txt","att_check":false},"trial_type":"html-keyboard-response","trial_index":26,"time_elapsed":58383,"internal_node_id":"0.0-8.0-3.4","subject":"7xynmkycnvln074","sona":"7450"},{"rt":52.324999996926636,"stimulus":"<p>Bereit?</p>","key_press":32,"trial_type":"html-keyboard-response","trial_index":27,"time_elapsed":58443,"internal_node_id":"0.0-8.0-0.5","subject":"7xynmkycnvln074","sona":"7450"},{"rt":null,"stimulus":"<div style=\"font-size:60px;\">+</div>","key_press":null,"trial_type":"html-keyboard-response","trial_index":28,"time_elapsed":60455,"internal_node_id":"0.0-8.0-1.5","subject":"7xynmkycnvln074","sona":"7450"},{"trial_type":"turing-test","trial_index":29,"time_elapsed":66130,"internal_node_id":"0.0-8.0-2.5","subject":"7xynmkycnvln074","sona":"7450"},{"rt":106.40499999863096,"stimulus":"<p>Welche Sequenz haben Sie als natürlicher empfunden?</p>","key_press":70,"test_part":"response","test_stimulus":{"position":0,"left":"bvh/return-bottle-training0-lines.txt","right":"bvh/vr_prediction_models/model(vcgpdm)-dataset(return-bottle)-mode(ELBO)-parts(1)-dyn(10)-lvm(25)-hold(0)/final-lines.txt","att_check":false},"trial_type":"html-keyboard-response","trial_index":30,"time_elapsed":66245,"internal_node_id":"0.0-8.0-3.5","subject":"7xynmkycnvln074","sona":"7450"},{"rt":221.98500001104549,"stimulus":"<p>Bereit?</p>","key_press":32,"trial_type":"html-keyboard-response","trial_index":31,"time_elapsed":66474,"internal_node_id":"0.0-8.0-0.6","subject":"7xynmkycnvln074","sona":"7450"},{"rt":null,"stimulus":"<div style=\"font-size:60px;\">+</div>","key_press":null,"trial_type":"html-keyboard-response","trial_index":32,"time_elapsed":68492,"internal_node_id":"0.0-8.0-1.6","subject":"7xynmkycnvln074","sona":"7450"},{"trial_type":"turing-test","trial_index":33,"time_elapsed":71905,"internal_node_id":"0.0-8.0-2.6","subject":"7xynmkycnvln074","sona":"7450"},{"rt":91.10499999951571,"stimulus":"<p>Welche Sequenz haben Sie als natürlicher empfunden?</p>","key_press":70,"test_part":"response","test_stimulus":{"position":1,"left":"bvh/vr_prediction_models/model(dmp)-dataset(pass-bottle-hold)-npsi(30)-hold(2)/final-lines.txt","right":"bvh/pass-bottle-hold-training2-lines.txt","att_check":false},"trial_type":"html-keyboard-response","trial_index":34,"time_elapsed":72004,"internal_node_id":"0.0-8.0-3.6","subject":"7xynmkycnvln074","sona":"7450"},{"rt":395.3349999792408,"stimulus":"<p>Bereit?</p>","key_press":32,"trial_type":"html-keyboard-response","trial_index":35,"time_elapsed":72405,"internal_node_id":"0.0-8.0-0.7","subject":"7xynmkycnvln074","sona":"7450"},{"rt":null,"stimulus":"<div style=\"font-size:60px;\">+</div>","key_press":null,"trial_type":"html-keyboard-response","trial_index":36,"time_elapsed":74434,"internal_node_id":"0.0-8.0-1.7","subject":"7xynmkycnvln074","sona":"7450"},{"trial_type":"turing-test","trial_index":37,"time_elapsed":77765,"internal_node_id":"0.0-8.0-2.7","subject":"7xynmkycnvln074","sona":"7450"},{"rt":178.6650000140071,"stimulus":"<p>Welche Sequenz haben Sie als natürlicher empfunden?</p>","key_press":70,"test_part":"response","test_stimulus":{"position":1,"left":"bvh/vr_prediction_models/model(dmp)-dataset(pass-bottle-hold)-npsi(90)-hold(0)/final-lines.txt","right":"bvh/pass-bottle-hold-training0-lines.txt","att_check":false},"trial_type":"html-keyboard-response","trial_index":38,"time_elapsed":77952,"internal_node_id":"0.0-8.0-3.7","subject":"7xynmkycnvln074","sona":"7450"},{"rt":582.5899999763351,"stimulus":"<p>Bereit?</p>","key_press":32,"trial_type":"html-keyboard-response","trial_index":39,"time_elapsed":78543,"internal_node_id":"0.0-8.0-0.8","subject":"7xynmkycnvln074","sona":"7450"},{"rt":null,"stimulus":"<div style=\"font-size:60px;\">+</div>","key_press":null,"trial_type":"html-keyboard-response","trial_index":40,"time_elapsed":80550,"internal_node_id":"0.0-8.0-1.8","subject":"7xynmkycnvln074","sona":"7450"},{"trial_type":"turing-test","trial_index":41,"time_elapsed":86520,"internal_node_id":"0.0-8.0-2.8","subject":"7xynmkycnvln074","sona":"7450"},{"rt":294.29000001982786,"stimulus":"<p>Welche Sequenz haben Sie als natürlicher empfunden?</p>","key_press":74,"test_part":"response","test_stimulus":{"position":0,"left":"bvh/return-bottle-training3-lines.txt","right":"bvh/vr_prediction_models/model(vcgpdm)-dataset(return-bottle)-mode(ELBO)-parts(3)-dyn(30)-lvm(15)-hold(3)/final-lines.txt","att_check":false},"trial_type":"html-keyboard-response","trial_index":42,"time_elapsed":86823,"internal_node_id":"0.0-8.0-3.8","subject":"7xynmkycnvln074","sona":"7450"},{"rt":433.10500000370666,"stimulus":"<p>Bereit?</p>","key_press":32,"trial_type":"html-keyboard-response","trial_index":43,"time_elapsed":87263,"internal_node_id":"0.0-8.0-0.9","subject":"7xynmkycnvln074","sona":"7450"},{"rt":null,"stimulus":"<div style=\"font-size:60px;\">+</div>","key_press":null,"trial_type":"html-keyboard-response","trial_index":44,"time_elapsed":89277,"internal_node_id":"0.0-8.0-1.9","subject":"7xynmkycnvln074","sona":"7450"},{"trial_type":"turing-test","trial_index":45,"time_elapsed":95454,"internal_node_id":"0.0-8.0-2.9","subject":"7xynmkycnvln074","sona":"7450"},{"rt":4.979999997885898,"stimulus":"<p>Welche Sequenz haben Sie als natürlicher empfunden?</p>","key_press":74,"test_part":"response","test_stimulus":{"position":1,"left":"bvh/vr_prediction_models/model(dmp)-dataset(pass-bottle)-npsi(40)-hold(2)/final-lines.txt","right":"bvh/pass-bottle-training2-lines.txt","att_check":false},"trial_type":"html-keyboard-response","trial_index":46,"time_elapsed":95468,"internal_node_id":"0.0-8.0-3.9","subject":"7xynmkycnvln074","sona":"7450"},{"rt":476.9150000065565,"stimulus":"<p>Bereit?</p>","key_press":32,"trial_type":"html-keyboard-response","trial_index":47,"time_elapsed":95953,"internal_node_id":"0.0-8.0-0.10","subject":"7xynmkycnvln074","sona":"7450"},{"rt":null,"stimulus":"<div style=\"font-size:60px;\">+</div>","key_press":null,"trial_type":"html-keyboard-response","trial_index":48,"time_elapsed":97981,"internal_node_id":"0.0-8.0-1.10","subject":"7xynmkycnvln074","sona":"7450"},{"trial_type":"turing-test","trial_index":49,"time_elapsed":101510,"internal_node_id":"0.0-8.0-2.10","subject":"7xynmkycnvln074","sona":"7450"},{"rt":666.9350000156555,"stimulus":"<p>Welche Sequenz haben Sie als natürlicher empfunden?</p>","key_press":74,"test_part":"response","test_stimulus":{"position":0,"left":"bvh/return-bottle-hold-training2-lines.txt","right":"bvh/vr_prediction_models/model(tmp)-dataset(return-bottle-hold)-numprim(6)-hold(2)/final-lines.txt","att_check":false},"trial_type":"html-keyboard-response","trial_index":50,"time_elapsed":102186,"internal_node_id":"0.0-8.0-3.10","subject":"7xynmkycnvln074","sona":"7450"},{"rt":110.29500002041459,"stimulus":"<p>Bereit?</p>","key_press":32,"trial_type":"html-keyboard-response","trial_index":51,"time_elapsed":102304,"internal_node_id":"0.0-8.0-0.11","subject":"7xynmkycnvln074","sona":"7450"},{"rt":null,"stimulus":"<div style=\"font-size:60px;\">+</div>","key_press":null,"trial_type":"html-keyboard-response","trial_index":52,"time_elapsed":104334,"internal_node_id":"0.0-8.0-1.11","subject":"7xynmkycnvln074","sona":"7450"}]