[{"rt":1257,"stimulus":"<p>Welcome!<br> Please choose your language to start the experiment in the chosen language.</p><p>Willkommen!<br> Bitte wählen Sie eine Sprache, um das Experiment in der ausgewählten Sprache zu starten</p>","button_pressed":"1","trial_type":"html-button-response","trial_index":0,"time_elapsed":1267,"internal_node_id":"0.0-0.0","subject":"hollg1nytwf62um","sona":"9265"},{"view_history":"[{\"page_index\":0,\"viewing_time\":977},{\"page_index\":1,\"viewing_time\":1192},{\"page_index\":2,\"viewing_time\":1002},{\"page_index\":3,\"viewing_time\":765},{\"page_index\":4,\"viewing_time\":1035}]","rt":4971,"trial_type":"instructions","trial_index":1,"time_elapsed":6239,"internal_node_id":"0.0-1.0-0.0","subject":"hollg1nytwf62um","sona":"9265"},{"rt":1080,"stimulus":"<p>Bereit?</p>","key_press":32,"trial_type":"html-keyboard-response","trial_index":2,"time_elapsed":7322,"internal_node_id":"0.0-3.0","subject":"hollg1nytwf62um","sona":"9265"},{"rt":null,"stimulus":"<div style=\"font-size:60px;\">+</div>","key_press":null,"trial_type":"html-keyboard-response","trial_index":3,"time_elapsed":9341,"internal_node_id":"0.0-4.0","subject":"hollg1nytwf62um","sona":"9265"},{"trial_type":"training","trial_index":4,"time_elapsed":12665,"internal_node_id":"0.0-5.0","subject":"hollg1nytwf62um","sona":"9265"},{"rt":268,"stimulus":"<p>Welche Sequenz haben Sie als natürlicher empfunden?</p>","key_press":70,"trial_type":"html-keyboard-response","trial_index":5,"time_elapsed":12936,"internal_node_id":"0.0-6.0","subject":"hollg1nytwf62um","sona":"9265"},{"rt":3947,"stimulus":"<p>Das Experiment startet nun.</p><p><small>Bitte drücken Sie den Knopf, wenn Sie bereit sind.</small></p>","button_pressed":"0","trial_type":"html-button-response","trial_index":6,"time_elapsed":16885,"internal_node_id":"0.0-7.0","subject":"hollg1nytwf62um","sona":"9265"},{"rt":2823,"stimulus":"<p>Bereit?</p>","key_press":32,"trial_type":"html-keyboard-response","trial_index":7,"time_elapsed":19709,"internal_node_id":"0.0-8.0-0.0","subject":"hollg1nytwf62um","sona":"9265"},{"rt":null,"stimulus":"<div style=\"font-size:60px;\">+</div>","key_press":null,"trial_type":"html-keyboard-response","trial_index":8,"time_elapsed":21727,"internal_node_id":"0.0-8.0-1.0","subject":"hollg1nytwf62um","sona":"9265"},{"trial_type":"turing-test","trial_index":9,"time_elapsed":25215,"internal_node_id":"0.0-8.0-2.0","subject":"hollg1nytwf62um","sona":"9265"},{"rt":200,"stimulus":"<p>Welche Sequenz haben Sie als natürlicher empfunden?</p>","key_press":74,"test_part":"response","test_stimulus":{"position":0,"left":"bvh/return-bottle-hold-training1-lines.txt","right":"bvh/vr_prediction_models/model(vcgpdm)-dataset(return-bottle-hold)-mode(ELBO)-parts(1)-dyn(10)-lvm(25)-hold(1)/final-lines.txt","att_check":false},"trial_type":"html-keyboard-response","trial_index":10,"time_elapsed":25418,"internal_node_id":"0.0-8.0-3.0","subject":"hollg1nytwf62um","sona":"9265"},{"rt":154,"stimulus":"<p>Bereit?</p>","key_press":32,"trial_type":"html-keyboard-response","trial_index":11,"time_elapsed":25573,"internal_node_id":"0.0-8.0-0.1","subject":"hollg1nytwf62um","sona":"9265"},{"rt":null,"stimulus":"<div style=\"font-size:60px;\">+</div>","key_press":null,"trial_type":"html-keyboard-response","trial_index":12,"time_elapsed":27589,"internal_node_id":"0.0-8.0-1.1","subject":"hollg1nytwf62um","sona":"9265"},{"trial_type":"turing-test","trial_index":13,"time_elapsed":33298,"internal_node_id":"0.0-8.0-2.1","subject":"hollg1nytwf62um","sona":"9265"},{"rt":1335,"stimulus":"<p>Welche Sequenz haben Sie als natürlicher empfunden?</p>","key_press":70,"test_part":"response","test_stimulus":{"position":0,"left":"bvh/pass-bottle-training4-lines.txt","right":"bvh/vr_prediction_models/model(tmp)-dataset(pass-bottle)-numprim(7)-hold(4)/final-lines.txt","att_check":false},"trial_type":"html-keyboard-response","trial_index":14,"time_elapsed":34635,"internal_node_id":"0.0-8.0-3.1","subject":"hollg1nytwf62um","sona":"9265"},{"rt":138,"stimulus":"<p>Bereit?</p>","key_press":32,"trial_type":"html-keyboard-response","trial_index":15,"time_elapsed":34776,"internal_node_id":"0.0-8.0-0.2","subject":"hollg1nytwf62um","sona":"9265"},{"rt":null,"stimulus":"<div style=\"font-size:60px;\">+</div>","key_press":null,"trial_type":"html-keyboard-response","trial_index":16,"time_elapsed":36790,"internal_node_id":"0.0-8.0-1.2","subject":"hollg1nytwf62um","sona":"9265"},{"trial_type":"turing-test","trial_index":17,"time_elapsed":41953,"internal_node_id":"0.0-8.0-2.2","subject":"hollg1nytwf62um","sona":"9265"},{"rt":486,"stimulus":"<p>Welche Sequenz haben Sie als natürlicher empfunden?</p>","key_press":70,"test_part":"response","test_stimulus":{"position":0,"left":"bvh/return-bottle-hold-training0-lines.txt","right":"bvh/vr_prediction_models/model(vcgpdm)-dataset(return-bottle-hold)-mode(MAP)-parts(3)-hold(0)/final-lines.txt","att_check":false},"trial_type":"html-keyboard-response","trial_index":18,"time_elapsed":42441,"internal_node_id":"0.0-8.0-3.2","subject":"hollg1nytwf62um","sona":"9265"},{"rt":205,"stimulus":"<p>Bereit?</p>","key_press":32,"trial_type":"html-keyboard-response","trial_index":19,"time_elapsed":42647,"internal_node_id":"0.0-8.0-0.3","subject":"hollg1nytwf62um","sona":"9265"},{"rt":null,"stimulus":"<div style=\"font-size:60px;\">+</div>","key_press":null,"trial_type":"html-keyboard-response","trial_index":20,"time_elapsed":44657,"internal_node_id":"0.0-8.0-1.3","subject":"hollg1nytwf62um","sona":"9265"},{"trial_type":"turing-test","trial_index":21,"time_elapsed":48068,"internal_node_id":"0.0-8.0-2.3","subject":"hollg1nytwf62um","sona":"9265"},{"rt":539,"stimulus":"<p>Welche Sequenz haben Sie als natürlicher empfunden?</p>","key_press":74,"test_part":"response","test_stimulus":{"position":0,"left":"bvh/pass-bottle-hold-training2-lines.txt","right":"bvh/vr_prediction_models/model(vcgpdm)-dataset(pass-bottle-hold)-mode(ELBO)-parts(1)-dyn(20)-lvm(20)-hold(2)/final-lines.txt","att_check":false},"trial_type":"html-keyboard-response","trial_index":22,"time_elapsed":48611,"internal_node_id":"0.0-8.0-3.3","subject":"hollg1nytwf62um","sona":"9265"},{"rt":82,"stimulus":"<p>Bereit?</p>","key_press":32,"trial_type":"html-keyboard-response","trial_index":23,"time_elapsed":48695,"internal_node_id":"0.0-8.0-0.4","subject":"hollg1nytwf62um","sona":"9265"},{"rt":null,"stimulus":"<div style=\"font-size:60px;\">+</div>","key_press":null,"trial_type":"html-keyboard-response","trial_index":24,"time_elapsed":50715,"internal_node_id":"0.0-8.0-1.4","subject":"hollg1nytwf62um","sona":"9265"},{"trial_type":"turing-test","trial_index":25,"time_elapsed":56416,"internal_node_id":"0.0-8.0-2.4","subject":"hollg1nytwf62um","sona":"9265"},{"rt":371,"stimulus":"<p>Welche Sequenz haben Sie als natürlicher empfunden?</p>","key_press":70,"test_part":"response","test_stimulus":{"position":0,"left":"bvh/return-bottle-training3-lines.txt","right":"bvh/vr_prediction_models/model(tmp)-dataset(return-bottle)-numprim(4)-hold(3)/final-lines.txt","att_check":false},"trial_type":"html-keyboard-response","trial_index":26,"time_elapsed":56788,"internal_node_id":"0.0-8.0-3.4","subject":"hollg1nytwf62um","sona":"9265"},{"rt":155,"stimulus":"<p>Bereit?</p>","key_press":32,"trial_type":"html-keyboard-response","trial_index":27,"time_elapsed":56945,"internal_node_id":"0.0-8.0-0.5","subject":"hollg1nytwf62um","sona":"9265"},{"rt":null,"stimulus":"<div style=\"font-size:60px;\">+</div>","key_press":null,"trial_type":"html-keyboard-response","trial_index":28,"time_elapsed":58965,"internal_node_id":"0.0-8.0-1.5","subject":"hollg1nytwf62um","sona":"9265"},{"trial_type":"turing-test","trial_index":29,"time_elapsed":62472,"internal_node_id":"0.0-8.0-2.5","subject":"hollg1nytwf62um","sona":"9265"},{"rt":305,"stimulus":"<p>Welche Sequenz haben Sie als natürlicher empfunden?</p>","key_press":70,"test_part":"response","test_stimulus":{"position":0,"left":"bvh/pass-bottle-hold-training3-lines.txt","right":"bvh/vr_prediction_models/model(vcgpdm)-dataset(pass-bottle-hold)-mode(ELBO)-parts(3)-dyn(30)-lvm(15)-hold(3)/final-lines.txt","att_check":false},"trial_type":"html-keyboard-response","trial_index":30,"time_elapsed":62778,"internal_node_id":"0.0-8.0-3.5","subject":"hollg1nytwf62um","sona":"9265"},{"rt":132,"stimulus":"<p>Bereit?</p>","key_press":32,"trial_type":"html-keyboard-response","trial_index":31,"time_elapsed":62913,"internal_node_id":"0.0-8.0-0.6","subject":"hollg1nytwf62um","sona":"9265"},{"rt":null,"stimulus":"<div style=\"font-size:60px;\">+</div>","key_press":null,"trial_type":"html-keyboard-response","trial_index":32,"time_elapsed":64931,"internal_node_id":"0.0-8.0-1.6","subject":"hollg1nytwf62um","sona":"9265"},{"trial_type":"turing-test","trial_index":33,"time_elapsed":71015,"internal_node_id":"0.0-8.0-2.6","subject":"hollg1nytwf62um","sona":"9265"},{"rt":362,"stimulus":"<p>Welche Sequenz haben Sie als natürlicher empfunden?</p>","key_press":70,"test_part":"response","test_stimulus":{"position":0,"left":"bvh/pass-bottle-training2-lines.txt","right":"bvh/vr_prediction_models/model(tmp)-dataset(pass-bottle)-numprim(14)-hold(2)/final-lines.txt","att_check":false},"trial_type":"html-keyboard-response","trial_index":34,"time_elapsed":71380,"internal_node_id":"0.0-8.0-3.6","subject":"hollg1nytwf62um","sona":"9265"},{"rt":81,"stimulus":"<p>Bereit?</p>","key_press":32,"trial_type":"html-keyboard-response","trial_index":35,"time_elapsed":71464,"internal_node_id":"0.0-8.0-0.7","subject":"hollg1nytwf62um","sona":"9265"},{"rt":null,"stimulus":"<div style=\"font-size:60px;\">+</div>","key_press":null,"trial_type":"html-keyboard-response","trial_index":36,"time_elapsed":73476,"internal_node_id":"0.0-8.0-1.7","subject":"hollg1nytwf62um","sona":"9265"},{"trial_type":"turing-test","trial_index":37,"time_elapsed":76618,"internal_node_id":"0.0-8.0-2.7","subject":"hollg1nytwf62um","sona":"9265"},{"rt":901,"stimulus":"<p>Welche Sequenz haben Sie als natürlicher empfunden?</p>","key_press":70,"test_part":"response","test_stimulus":{"position":1,"left":"bvh/vr_prediction_models/model(dmp)-dataset(pass-bottle-hold)-npsi(10)-hold(1)/final-lines.txt","right":"bvh/pass-bottle-hold-training1-lines.txt","att_check":true},"trial_type":"html-keyboard-response","trial_index":38,"time_elapsed":77523,"internal_node_id":"0.0-8.0-3.7","subject":"hollg1nytwf62um","sona":"9265"},{"rt":113,"stimulus":"<p>Bereit?</p>","key_press":32,"trial_type":"html-keyboard-response","trial_index":39,"time_elapsed":77639,"internal_node_id":"0.0-8.0-0.8","subject":"hollg1nytwf62um","sona":"9265"},{"rt":null,"stimulus":"<div style=\"font-size:60px;\">+</div>","key_press":null,"trial_type":"html-keyboard-response","trial_index":40,"time_elapsed":79656,"internal_node_id":"0.0-8.0-1.8","subject":"hollg1nytwf62um","sona":"9265"},{"trial_type":"turing-test","trial_index":41,"time_elapsed":83106,"internal_node_id":"0.0-8.0-2.8","subject":"hollg1nytwf62um","sona":"9265"},{"rt":245,"stimulus":"<p>Welche Sequenz haben Sie als natürlicher empfunden?</p>","key_press":74,"test_part":"response","test_stimulus":{"position":1,"left":"bvh/vr_prediction_models/model(vcgpdm)-dataset(pass-bottle-hold)-mode(ELBO)-parts(1)-dyn(20)-lvm(30)-hold(0)/final-lines.txt","right":"bvh/pass-bottle-hold-training0-lines.txt","att_check":false},"trial_type":"html-keyboard-response","trial_index":42,"time_elapsed":83352,"internal_node_id":"0.0-8.0-3.8","subject":"hollg1nytwf62um","sona":"9265"},{"rt":113,"stimulus":"<p>Bereit?</p>","key_press":32,"trial_type":"html-keyboard-response","trial_index":43,"time_elapsed":83467,"internal_node_id":"0.0-8.0-0.9","subject":"hollg1nytwf62um","sona":"9265"},{"rt":null,"stimulus":"<div style=\"font-size:60px;\">+</div>","key_press":null,"trial_type":"html-keyboard-response","trial_index":44,"time_elapsed":85481,"internal_node_id":"0.0-8.0-1.9","subject":"hollg1nytwf62um","sona":"9265"},{"trial_type":"turing-test","trial_index":45,"time_elapsed":90970,"internal_node_id":"0.0-8.0-2.9","subject":"hollg1nytwf62um","sona":"9265"},{"rt":292,"stimulus":"<p>Welche Sequenz haben Sie als natürlicher empfunden?</p>","key_press":70,"test_part":"response","test_stimulus":{"position":0,"left":"bvh/pass-bottle-training1-lines.txt","right":"bvh/vr_prediction_models/model(vcgpdm)-dataset(pass-bottle)-mode(ELBO)-parts(1)-dyn(35)-lvm(10)-hold(1)/final-lines.txt","att_check":false},"trial_type":"html-keyboard-response","trial_index":46,"time_elapsed":91265,"internal_node_id":"0.0-8.0-3.9","subject":"hollg1nytwf62um","sona":"9265"},{"rt":81,"stimulus":"<p>Bereit?</p>","key_press":32,"trial_type":"html-keyboard-response","trial_index":47,"time_elapsed":91350,"internal_node_id":"0.0-8.0-0.10","subject":"hollg1nytwf62um","sona":"9265"},{"rt":null,"stimulus":"<div style=\"font-size:60px;\">+</div>","key_press":null,"trial_type":"html-keyboard-response","trial_index":48,"time_elapsed":93361,"internal_node_id":"0.0-8.0-1.10","subject":"hollg1nytwf62um","sona":"9265"},{"trial_type":"turing-test","trial_index":49,"time_elapsed":96757,"internal_node_id":"0.0-8.0-2.10","subject":"hollg1nytwf62um","sona":"9265"},{"rt":358,"stimulus":"<p>Welche Sequenz haben Sie als natürlicher empfunden?</p>","key_press":74,"test_part":"response","test_stimulus":{"position":1,"left":"bvh/vr_prediction_models/model(vcgpdm)-dataset(return-bottle-hold)-mode(ELBO)-parts(3)-dyn(20)-lvm(15)-hold(2)/final-lines.txt","right":"bvh/return-bottle-hold-training2-lines.txt","att_check":false},"trial_type":"html-keyboard-response","trial_index":50,"time_elapsed":97118,"internal_node_id":"0.0-8.0-3.10","subject":"hollg1nytwf62um","sona":"9265"},{"rt":123,"stimulus":"<p>Bereit?</p>","key_press":32,"trial_type":"html-keyboard-response","trial_index":51,"time_elapsed":97243,"internal_node_id":"0.0-8.0-0.11","subject":"hollg1nytwf62um","sona":"9265"},{"rt":null,"stimulus":"<div style=\"font-size:60px;\">+</div>","key_press":null,"trial_type":"html-keyboard-response","trial_index":52,"time_elapsed":99257,"internal_node_id":"0.0-8.0-1.11","subject":"hollg1nytwf62um","sona":"9265"},{"trial_type":"turing-test","trial_index":53,"time_elapsed":105018,"internal_node_id":"0.0-8.0-2.11","subject":"hollg1nytwf62um","sona":"9265"}]