[{"rt":2319.364999886602,"stimulus":"<p>Welcome!<br> Please choose your language to start the experiment in the chosen language.</p><p>Willkommen!<br> Bitte wählen Sie eine Sprache, um das Experiment in der ausgewählten Sprache zu starten</p>","button_pressed":"1","trial_type":"html-button-response","trial_index":0,"time_elapsed":2356,"internal_node_id":"0.0-0.0","subject":"4s453hz1x03guz8","sona":"8794"},{"view_history":"[{\"page_index\":0,\"viewing_time\":2361.734999809414},{\"page_index\":1,\"viewing_time\":1671.625000424683},{\"page_index\":2,\"viewing_time\":1209.1249995864928},{\"page_index\":3,\"viewing_time\":1450.320000294596},{\"page_index\":4,\"viewing_time\":2542.1599997207522}]","rt":9237.110000103712,"trial_type":"instructions","trial_index":1,"time_elapsed":11596,"internal_node_id":"0.0-1.0-0.0","subject":"4s453hz1x03guz8","sona":"8794"},{"rt":1085.5949996039271,"stimulus":"<p>Bereit?</p>","key_press":32,"trial_type":"html-keyboard-response","trial_index":2,"time_elapsed":12688,"internal_node_id":"0.0-3.0","subject":"4s453hz1x03guz8","sona":"8794"},{"rt":null,"stimulus":"<div style=\"font-size:60px;\">+</div>","key_press":null,"trial_type":"html-keyboard-response","trial_index":3,"time_elapsed":14708,"internal_node_id":"0.0-4.0","subject":"4s453hz1x03guz8","sona":"8794"},{"trial_type":"training","trial_index":4,"time_elapsed":18045,"internal_node_id":"0.0-5.0","subject":"4s453hz1x03guz8","sona":"8794"},{"rt":158.71999971568584,"stimulus":"<p>Welche Sequenz haben Sie als natürlicher empfunden?</p>","key_press":70,"trial_type":"html-keyboard-response","trial_index":5,"time_elapsed":18206,"internal_node_id":"0.0-6.0","subject":"4s453hz1x03guz8","sona":"8794"},{"rt":3313.9700000174344,"stimulus":"<p>Das Experiment startet nun.</p><p><small>Bitte drücken Sie den Knopf, wenn Sie bereit sind.</small></p>","button_pressed":"0","trial_type":"html-button-response","trial_index":6,"time_elapsed":21522,"internal_node_id":"0.0-7.0","subject":"4s453hz1x03guz8","sona":"8794"},{"rt":883.2700001075864,"stimulus":"<p>Bereit?</p>","key_press":32,"trial_type":"html-keyboard-response","trial_index":7,"time_elapsed":22407,"internal_node_id":"0.0-8.0-0.0","subject":"4s453hz1x03guz8","sona":"8794"},{"rt":null,"stimulus":"<div style=\"font-size:60px;\">+</div>","key_press":null,"trial_type":"html-keyboard-response","trial_index":8,"time_elapsed":24427,"internal_node_id":"0.0-8.0-1.0","subject":"4s453hz1x03guz8","sona":"8794"},{"trial_type":"turing-test","trial_index":9,"time_elapsed":30563,"internal_node_id":"0.0-8.0-2.0","subject":"4s453hz1x03guz8","sona":"8794"},{"rt":579.799999948591,"stimulus":"<p>Welche Sequenz haben Sie als natürlicher empfunden?</p>","key_press":70,"test_part":"response","test_stimulus":{"position":0,"left":"bvh/pass-bottle-training4-lines.txt","right":"bvh/vr_prediction_models/model(vcgpdm)-dataset(pass-bottle)-mode(MAP)-parts(1)-hold(4)/final-lines.txt","att_check":false},"trial_type":"html-keyboard-response","trial_index":10,"time_elapsed":31146,"internal_node_id":"0.0-8.0-3.0","subject":"4s453hz1x03guz8","sona":"8794"},{"rt":669.1549997776747,"stimulus":"<p>Bereit?</p>","key_press":32,"trial_type":"html-keyboard-response","trial_index":11,"time_elapsed":31818,"internal_node_id":"0.0-8.0-0.1","subject":"4s453hz1x03guz8","sona":"8794"},{"rt":null,"stimulus":"<div style=\"font-size:60px;\">+</div>","key_press":null,"trial_type":"html-keyboard-response","trial_index":12,"time_elapsed":33836,"internal_node_id":"0.0-8.0-1.1","subject":"4s453hz1x03guz8","sona":"8794"},{"trial_type":"turing-test","trial_index":13,"time_elapsed":40247,"internal_node_id":"0.0-8.0-2.1","subject":"4s453hz1x03guz8","sona":"8794"},{"rt":238.96500002592802,"stimulus":"<p>Welche Sequenz haben Sie als natürlicher empfunden?</p>","key_press":74,"test_part":"response","test_stimulus":{"position":1,"left":"bvh/vr_prediction_models/model(vcgpdm)-dataset(pass-bottle)-mode(ELBO)-parts(3)-dyn(25)-lvm(15)-hold(2)/final-lines.txt","right":"bvh/pass-bottle-training2-lines.txt","att_check":false},"trial_type":"html-keyboard-response","trial_index":14,"time_elapsed":40489,"internal_node_id":"0.0-8.0-3.1","subject":"4s453hz1x03guz8","sona":"8794"},{"rt":604.180000256747,"stimulus":"<p>Bereit?</p>","key_press":32,"trial_type":"html-keyboard-response","trial_index":15,"time_elapsed":41096,"internal_node_id":"0.0-8.0-0.2","subject":"4s453hz1x03guz8","sona":"8794"},{"rt":null,"stimulus":"<div style=\"font-size:60px;\">+</div>","key_press":null,"trial_type":"html-keyboard-response","trial_index":16,"time_elapsed":43110,"internal_node_id":"0.0-8.0-1.2","subject":"4s453hz1x03guz8","sona":"8794"},{"trial_type":"turing-test","trial_index":17,"time_elapsed":48819,"internal_node_id":"0.0-8.0-2.2","subject":"4s453hz1x03guz8","sona":"8794"},{"rt":574.4449999183416,"stimulus":"<p>Welche Sequenz haben Sie als natürlicher empfunden?</p>","key_press":74,"test_part":"response","test_stimulus":{"position":0,"left":"bvh/return-bottle-training4-lines.txt","right":"bvh/vr_prediction_models/model(tmp)-dataset(return-bottle)-numprim(8)-hold(4)/final-lines.txt","att_check":false},"trial_type":"html-keyboard-response","trial_index":18,"time_elapsed":49397,"internal_node_id":"0.0-8.0-3.2","subject":"4s453hz1x03guz8","sona":"8794"},{"rt":336.99500001966953,"stimulus":"<p>Bereit?</p>","key_press":32,"trial_type":"html-keyboard-response","trial_index":19,"time_elapsed":49736,"internal_node_id":"0.0-8.0-0.3","subject":"4s453hz1x03guz8","sona":"8794"},{"rt":null,"stimulus":"<div style=\"font-size:60px;\">+</div>","key_press":null,"trial_type":"html-keyboard-response","trial_index":20,"time_elapsed":51742,"internal_node_id":"0.0-8.0-1.3","subject":"4s453hz1x03guz8","sona":"8794"},{"trial_type":"turing-test","trial_index":21,"time_elapsed":55011,"internal_node_id":"0.0-8.0-2.3","subject":"4s453hz1x03guz8","sona":"8794"},{"rt":464.7200000472367,"stimulus":"<p>Welche Sequenz haben Sie als natürlicher empfunden?</p>","key_press":74,"test_part":"response","test_stimulus":{"position":1,"left":"bvh/vr_prediction_models/model(dmp)-dataset(pass-bottle-hold)-npsi(90)-hold(2)/final-lines.txt","right":"bvh/pass-bottle-hold-training2-lines.txt","att_check":false},"trial_type":"html-keyboard-response","trial_index":22,"time_elapsed":55478,"internal_node_id":"0.0-8.0-3.3","subject":"4s453hz1x03guz8","sona":"8794"},{"rt":867.8000001236796,"stimulus":"<p>Bereit?</p>","key_press":32,"trial_type":"html-keyboard-response","trial_index":23,"time_elapsed":56347,"internal_node_id":"0.0-8.0-0.4","subject":"4s453hz1x03guz8","sona":"8794"},{"rt":null,"stimulus":"<div style=\"font-size:60px;\">+</div>","key_press":null,"trial_type":"html-keyboard-response","trial_index":24,"time_elapsed":58367,"internal_node_id":"0.0-8.0-1.4","subject":"4s453hz1x03guz8","sona":"8794"},{"trial_type":"turing-test","trial_index":25,"time_elapsed":63715,"internal_node_id":"0.0-8.0-2.4","subject":"4s453hz1x03guz8","sona":"8794"},{"rt":378.75499995425344,"stimulus":"<p>Welche Sequenz haben Sie als natürlicher empfunden?</p>","key_press":70,"test_part":"response","test_stimulus":{"position":0,"left":"bvh/return-bottle-training0-lines.txt","right":"bvh/vr_prediction_models/model(tmp)-dataset(return-bottle)-numprim(7)-hold(0)/final-lines.txt","att_check":false},"trial_type":"html-keyboard-response","trial_index":26,"time_elapsed":64097,"internal_node_id":"0.0-8.0-3.4","subject":"4s453hz1x03guz8","sona":"8794"},{"rt":277.11999975144863,"stimulus":"<p>Bereit?</p>","key_press":32,"trial_type":"html-keyboard-response","trial_index":27,"time_elapsed":64377,"internal_node_id":"0.0-8.0-0.5","subject":"4s453hz1x03guz8","sona":"8794"},{"rt":null,"stimulus":"<div style=\"font-size:60px;\">+</div>","key_press":null,"trial_type":"html-keyboard-response","trial_index":28,"time_elapsed":66391,"internal_node_id":"0.0-8.0-1.5","subject":"4s453hz1x03guz8","sona":"8794"},{"trial_type":"turing-test","trial_index":29,"time_elapsed":72874,"internal_node_id":"0.0-8.0-2.5","subject":"4s453hz1x03guz8","sona":"8794"},{"rt":682.204999960959,"stimulus":"<p>Welche Sequenz haben Sie als natürlicher empfunden?</p>","key_press":74,"test_part":"response","test_stimulus":{"position":1,"left":"bvh/vr_prediction_models/model(vcgpdm)-dataset(pass-bottle)-mode(ELBO)-parts(1)-dyn(35)-lvm(30)-hold(2)/final-lines.txt","right":"bvh/pass-bottle-training2-lines.txt","att_check":false},"trial_type":"html-keyboard-response","trial_index":30,"time_elapsed":73560,"internal_node_id":"0.0-8.0-3.5","subject":"4s453hz1x03guz8","sona":"8794"},{"rt":374.6699998155236,"stimulus":"<p>Bereit?</p>","key_press":32,"trial_type":"html-keyboard-response","trial_index":31,"time_elapsed":73937,"internal_node_id":"0.0-8.0-0.6","subject":"4s453hz1x03guz8","sona":"8794"},{"rt":null,"stimulus":"<div style=\"font-size:60px;\">+</div>","key_press":null,"trial_type":"html-keyboard-response","trial_index":32,"time_elapsed":75952,"internal_node_id":"0.0-8.0-1.6","subject":"4s453hz1x03guz8","sona":"8794"},{"trial_type":"turing-test","trial_index":33,"time_elapsed":81865,"internal_node_id":"0.0-8.0-2.6","subject":"4s453hz1x03guz8","sona":"8794"},{"rt":307.194999884814,"stimulus":"<p>Welche Sequenz haben Sie als natürlicher empfunden?</p>","key_press":74,"test_part":"response","test_stimulus":{"position":1,"left":"bvh/vr_prediction_models/model(vcgpdm)-dataset(pass-bottle)-mode(ELBO)-parts(3)-dyn(10)-lvm(30)-hold(1)/final-lines.txt","right":"bvh/pass-bottle-training1-lines.txt","att_check":false},"trial_type":"html-keyboard-response","trial_index":34,"time_elapsed":82177,"internal_node_id":"0.0-8.0-3.6","subject":"4s453hz1x03guz8","sona":"8794"},{"rt":257.34000001102686,"stimulus":"<p>Bereit?</p>","key_press":32,"trial_type":"html-keyboard-response","trial_index":35,"time_elapsed":82437,"internal_node_id":"0.0-8.0-0.7","subject":"4s453hz1x03guz8","sona":"8794"},{"rt":null,"stimulus":"<div style=\"font-size:60px;\">+</div>","key_press":null,"trial_type":"html-keyboard-response","trial_index":36,"time_elapsed":84456,"internal_node_id":"0.0-8.0-1.7","subject":"4s453hz1x03guz8","sona":"8794"},{"trial_type":"turing-test","trial_index":37,"time_elapsed":88555,"internal_node_id":"0.0-8.0-2.7","subject":"4s453hz1x03guz8","sona":"8794"},{"rt":580.0600000657141,"stimulus":"<p>Welche Sequenz haben Sie als natürlicher empfunden?</p>","key_press":74,"test_part":"response","test_stimulus":{"position":1,"left":"bvh/vr_prediction_models/model(vcgpdm)-dataset(return-bottle-hold)-mode(ELBO)-parts(1)-dyn(10)-lvm(5)-hold(4)/final-lines.txt","right":"bvh/return-bottle-hold-training4-lines.txt","att_check":false},"trial_type":"html-keyboard-response","trial_index":38,"time_elapsed":89142,"internal_node_id":"0.0-8.0-3.7","subject":"4s453hz1x03guz8","sona":"8794"},{"rt":240.98500004038215,"stimulus":"<p>Bereit?</p>","key_press":32,"trial_type":"html-keyboard-response","trial_index":39,"time_elapsed":89388,"internal_node_id":"0.0-8.0-0.8","subject":"4s453hz1x03guz8","sona":"8794"},{"rt":null,"stimulus":"<div style=\"font-size:60px;\">+</div>","key_press":null,"trial_type":"html-keyboard-response","trial_index":40,"time_elapsed":91404,"internal_node_id":"0.0-8.0-1.8","subject":"4s453hz1x03guz8","sona":"8794"},{"trial_type":"turing-test","trial_index":41,"time_elapsed":94694,"internal_node_id":"0.0-8.0-2.8","subject":"4s453hz1x03guz8","sona":"8794"},{"rt":498.8299999386072,"stimulus":"<p>Welche Sequenz haben Sie als natürlicher empfunden?</p>","key_press":70,"test_part":"response","test_stimulus":{"position":0,"left":"bvh/pass-bottle-hold-training0-lines.txt","right":"bvh/vr_prediction_models/model(dmp)-dataset(pass-bottle-hold)-npsi(50)-hold(0)/final-lines.txt","att_check":false},"trial_type":"html-keyboard-response","trial_index":42,"time_elapsed":95198,"internal_node_id":"0.0-8.0-3.8","subject":"4s453hz1x03guz8","sona":"8794"},{"rt":222.11500024423003,"stimulus":"<p>Bereit?</p>","key_press":32,"trial_type":"html-keyboard-response","trial_index":43,"time_elapsed":95428,"internal_node_id":"0.0-8.0-0.9","subject":"4s453hz1x03guz8","sona":"8794"},{"rt":null,"stimulus":"<div style=\"font-size:60px;\">+</div>","key_press":null,"trial_type":"html-keyboard-response","trial_index":44,"time_elapsed":97433,"internal_node_id":"0.0-8.0-1.9","subject":"4s453hz1x03guz8","sona":"8794"},{"trial_type":"turing-test","trial_index":45,"time_elapsed":100778,"internal_node_id":"0.0-8.0-2.9","subject":"4s453hz1x03guz8","sona":"8794"},{"rt":409.3200000934303,"stimulus":"<p>Welche Sequenz haben Sie als natürlicher empfunden?</p>","key_press":74,"test_part":"response","test_stimulus":{"position":0,"left":"bvh/pass-bottle-hold-training2-lines.txt","right":"bvh/vr_prediction_models/model(tmp)-dataset(pass-bottle-hold)-numprim(3)-hold(2)/final-lines.txt","att_check":false},"trial_type":"html-keyboard-response","trial_index":46,"time_elapsed":101193,"internal_node_id":"0.0-8.0-3.9","subject":"4s453hz1x03guz8","sona":"8794"},{"rt":151.57500002533197,"stimulus":"<p>Bereit?</p>","key_press":32,"trial_type":"html-keyboard-response","trial_index":47,"time_elapsed":101352,"internal_node_id":"0.0-8.0-0.10","subject":"4s453hz1x03guz8","sona":"8794"},{"rt":null,"stimulus":"<div style=\"font-size:60px;\">+</div>","key_press":null,"trial_type":"html-keyboard-response","trial_index":48,"time_elapsed":103366,"internal_node_id":"0.0-8.0-1.10","subject":"4s453hz1x03guz8","sona":"8794"},{"trial_type":"turing-test","trial_index":49,"time_elapsed":109536,"internal_node_id":"0.0-8.0-2.10","subject":"4s453hz1x03guz8","sona":"8794"},{"rt":366.46499997004867,"stimulus":"<p>Welche Sequenz haben Sie als natürlicher empfunden?</p>","key_press":70,"test_part":"response","test_stimulus":{"position":1,"left":"bvh/vr_prediction_models/model(tmp)-dataset(pass-bottle)-numprim(6)-hold(2)/final-lines.txt","right":"bvh/pass-bottle-training2-lines.txt","att_check":false},"trial_type":"html-keyboard-response","trial_index":50,"time_elapsed":109908,"internal_node_id":"0.0-8.0-3.10","subject":"4s453hz1x03guz8","sona":"8794"},{"rt":222.2750000655651,"stimulus":"<p>Bereit?</p>","key_press":32,"trial_type":"html-keyboard-response","trial_index":51,"time_elapsed":110138,"internal_node_id":"0.0-8.0-0.11","subject":"4s453hz1x03guz8","sona":"8794"},{"rt":null,"stimulus":"<div style=\"font-size:60px;\">+</div>","key_press":null,"trial_type":"html-keyboard-response","trial_index":52,"time_elapsed":112153,"internal_node_id":"0.0-8.0-1.11","subject":"4s453hz1x03guz8","sona":"8794"}]