[{"rt":12658.264999976382,"stimulus":"<p>Welcome!<br> Please choose your language to start the experiment in the chosen language.</p><p>Willkommen!<br> Bitte wählen Sie eine Sprache, um das Experiment in der ausgewählten Sprache zu starten</p>","button_pressed":"1","trial_type":"html-button-response","trial_index":0,"time_elapsed":12686,"internal_node_id":"0.0-0.0","subject":"6xmt766ldgatjm8","sona":"7474"},{"view_history":"[{\"page_index\":0,\"viewing_time\":10007.334999972954},{\"page_index\":1,\"viewing_time\":4360.175000037998},{\"page_index\":2,\"viewing_time\":5874.245000071824},{\"page_index\":3,\"viewing_time\":4939.529999857768},{\"page_index\":4,\"viewing_time\":8097.410000162199}]","rt":33279.55499989912,"trial_type":"instructions","trial_index":1,"time_elapsed":45966,"internal_node_id":"0.0-1.0-0.0","subject":"6xmt766ldgatjm8","sona":"7474"},{"rt":1906.3500000629574,"stimulus":"<p>Bereit?</p>","key_press":32,"trial_type":"html-keyboard-response","trial_index":2,"time_elapsed":47874,"internal_node_id":"0.0-3.0","subject":"6xmt766ldgatjm8","sona":"7474"},{"rt":null,"stimulus":"<div style=\"font-size:60px;\">+</div>","key_press":null,"trial_type":"html-keyboard-response","trial_index":3,"time_elapsed":49886,"internal_node_id":"0.0-4.0","subject":"6xmt766ldgatjm8","sona":"7474"},{"trial_type":"training","trial_index":4,"time_elapsed":56229,"internal_node_id":"0.0-5.0","subject":"6xmt766ldgatjm8","sona":"7474"},{"rt":3274.2049999069422,"stimulus":"<p>Welche Sequenz haben Sie als natürlicher empfunden?</p>","key_press":70,"trial_type":"html-keyboard-response","trial_index":5,"time_elapsed":59505,"internal_node_id":"0.0-6.0","subject":"6xmt766ldgatjm8","sona":"7474"},{"rt":34243.09500004165,"stimulus":"<p>Das Experiment startet nun.</p><p><small>Bitte drücken Sie den Knopf, wenn Sie bereit sind.</small></p>","button_pressed":"0","trial_type":"html-button-response","trial_index":6,"time_elapsed":93749,"internal_node_id":"0.0-7.0","subject":"6xmt766ldgatjm8","sona":"7474"},{"rt":1216.2399999797344,"stimulus":"<p>Bereit?</p>","key_press":32,"trial_type":"html-keyboard-response","trial_index":7,"time_elapsed":94967,"internal_node_id":"0.0-8.0-0.0","subject":"6xmt766ldgatjm8","sona":"7474"},{"rt":null,"stimulus":"<div style=\"font-size:60px;\">+</div>","key_press":null,"trial_type":"html-keyboard-response","trial_index":8,"time_elapsed":96977,"internal_node_id":"0.0-8.0-1.0","subject":"6xmt766ldgatjm8","sona":"7474"},{"trial_type":"turing-test","trial_index":9,"time_elapsed":102640,"internal_node_id":"0.0-8.0-2.0","subject":"6xmt766ldgatjm8","sona":"7474"},{"rt":3714.5350000355393,"stimulus":"<p>Welche Sequenz haben Sie als natürlicher empfunden?</p>","key_press":74,"test_part":"response","test_stimulus":{"position":1,"left":"bvh/vr_prediction_models/model(vcgpdm)-dataset(return-bottle)-mode(ELBO)-parts(3)-dyn(15)-lvm(30)-hold(0)/final-lines.txt","right":"bvh/return-bottle-training0-lines.txt","att_check":false},"trial_type":"html-keyboard-response","trial_index":10,"time_elapsed":106357,"internal_node_id":"0.0-8.0-3.0","subject":"6xmt766ldgatjm8","sona":"7474"},{"rt":1137.0900000911206,"stimulus":"<p>Bereit?</p>","key_press":32,"trial_type":"html-keyboard-response","trial_index":11,"time_elapsed":107496,"internal_node_id":"0.0-8.0-0.1","subject":"6xmt766ldgatjm8","sona":"7474"},{"rt":null,"stimulus":"<div style=\"font-size:60px;\">+</div>","key_press":null,"trial_type":"html-keyboard-response","trial_index":12,"time_elapsed":109499,"internal_node_id":"0.0-8.0-1.1","subject":"6xmt766ldgatjm8","sona":"7474"},{"trial_type":"turing-test","trial_index":13,"time_elapsed":118019,"internal_node_id":"0.0-8.0-2.1","subject":"6xmt766ldgatjm8","sona":"7474"},{"rt":956.1600000597537,"stimulus":"<p>Welche Sequenz haben Sie als natürlicher empfunden?</p>","key_press":74,"test_part":"response","test_stimulus":{"position":1,"left":"bvh/vr_prediction_models/model(vcgpdm)-dataset(return-bottle-hold)-mode(ELBO)-parts(3)-dyn(30)-lvm(15)-hold(0)/final-lines.txt","right":"bvh/return-bottle-hold-training0-lines.txt","att_check":false},"trial_type":"html-keyboard-response","trial_index":14,"time_elapsed":118978,"internal_node_id":"0.0-8.0-3.1","subject":"6xmt766ldgatjm8","sona":"7474"},{"rt":897.4200000520796,"stimulus":"<p>Bereit?</p>","key_press":32,"trial_type":"html-keyboard-response","trial_index":15,"time_elapsed":119875,"internal_node_id":"0.0-8.0-0.2","subject":"6xmt766ldgatjm8","sona":"7474"},{"rt":null,"stimulus":"<div style=\"font-size:60px;\">+</div>","key_press":null,"trial_type":"html-keyboard-response","trial_index":16,"time_elapsed":121880,"internal_node_id":"0.0-8.0-1.2","subject":"6xmt766ldgatjm8","sona":"7474"},{"trial_type":"turing-test","trial_index":17,"time_elapsed":128764,"internal_node_id":"0.0-8.0-2.2","subject":"6xmt766ldgatjm8","sona":"7474"},{"rt":2939.204999944195,"stimulus":"<p>Welche Sequenz haben Sie als natürlicher empfunden?</p>","key_press":70,"test_part":"response","test_stimulus":{"position":1,"left":"bvh/vr_prediction_models/model(vcgpdm)-dataset(return-bottle-hold)-mode(ELBO)-parts(3)-dyn(10)-lvm(25)-hold(1)/final-lines.txt","right":"bvh/return-bottle-hold-training1-lines.txt","att_check":false},"trial_type":"html-keyboard-response","trial_index":18,"time_elapsed":131706,"internal_node_id":"0.0-8.0-3.2","subject":"6xmt766ldgatjm8","sona":"7474"},{"rt":1277.4549999739975,"stimulus":"<p>Bereit?</p>","key_press":32,"trial_type":"html-keyboard-response","trial_index":19,"time_elapsed":132985,"internal_node_id":"0.0-8.0-0.3","subject":"6xmt766ldgatjm8","sona":"7474"},{"rt":null,"stimulus":"<div style=\"font-size:60px;\">+</div>","key_press":null,"trial_type":"html-keyboard-response","trial_index":20,"time_elapsed":134998,"internal_node_id":"0.0-8.0-1.3","subject":"6xmt766ldgatjm8","sona":"7474"},{"trial_type":"turing-test","trial_index":21,"time_elapsed":143139,"internal_node_id":"0.0-8.0-2.3","subject":"6xmt766ldgatjm8","sona":"7474"},{"rt":1444.944999879226,"stimulus":"<p>Welche Sequenz haben Sie als natürlicher empfunden?</p>","key_press":74,"test_part":"response","test_stimulus":{"position":1,"left":"bvh/vr_prediction_models/model(vcgpdm)-dataset(pass-bottle)-mode(ELBO)-parts(3)-dyn(20)-lvm(35)-hold(4)/final-lines.txt","right":"bvh/pass-bottle-training4-lines.txt","att_check":false},"trial_type":"html-keyboard-response","trial_index":22,"time_elapsed":144586,"internal_node_id":"0.0-8.0-3.3","subject":"6xmt766ldgatjm8","sona":"7474"},{"rt":1028.0349999666214,"stimulus":"<p>Bereit?</p>","key_press":32,"trial_type":"html-keyboard-response","trial_index":23,"time_elapsed":145616,"internal_node_id":"0.0-8.0-0.4","subject":"6xmt766ldgatjm8","sona":"7474"},{"rt":null,"stimulus":"<div style=\"font-size:60px;\">+</div>","key_press":null,"trial_type":"html-keyboard-response","trial_index":24,"time_elapsed":147627,"internal_node_id":"0.0-8.0-1.4","subject":"6xmt766ldgatjm8","sona":"7474"},{"trial_type":"turing-test","trial_index":25,"time_elapsed":163900,"internal_node_id":"0.0-8.0-2.4","subject":"6xmt766ldgatjm8","sona":"7474"},{"rt":2557.014999911189,"stimulus":"<p>Welche Sequenz haben Sie als natürlicher empfunden?</p>","key_press":70,"test_part":"response","test_stimulus":{"position":1,"left":"bvh/vr_prediction_models/model(vcgpdm)-dataset(return-bottle-hold)-mode(ELBO)-parts(3)-dyn(15)-lvm(30)-hold(1)/final-lines.txt","right":"bvh/return-bottle-hold-training1-lines.txt","att_check":false},"trial_type":"html-keyboard-response","trial_index":26,"time_elapsed":166460,"internal_node_id":"0.0-8.0-3.4","subject":"6xmt766ldgatjm8","sona":"7474"},{"rt":894.194999942556,"stimulus":"<p>Bereit?</p>","key_press":32,"trial_type":"html-keyboard-response","trial_index":27,"time_elapsed":167357,"internal_node_id":"0.0-8.0-0.5","subject":"6xmt766ldgatjm8","sona":"7474"},{"rt":null,"stimulus":"<div style=\"font-size:60px;\">+</div>","key_press":null,"trial_type":"html-keyboard-response","trial_index":28,"time_elapsed":169363,"internal_node_id":"0.0-8.0-1.5","subject":"6xmt766ldgatjm8","sona":"7474"},{"trial_type":"turing-test","trial_index":29,"time_elapsed":173651,"internal_node_id":"0.0-8.0-2.5","subject":"6xmt766ldgatjm8","sona":"7474"},{"rt":1802.1449998486787,"stimulus":"<p>Welche Sequenz haben Sie als natürlicher empfunden?</p>","key_press":74,"test_part":"response","test_stimulus":{"position":0,"left":"bvh/pass-bottle-hold-training4-lines.txt","right":"bvh/vr_prediction_models/model(vcgpdm)-dataset(pass-bottle-hold)-mode(ELBO)-parts(1)-dyn(35)-lvm(10)-hold(4)/final-lines.txt","att_check":false},"trial_type":"html-keyboard-response","trial_index":30,"time_elapsed":175457,"internal_node_id":"0.0-8.0-3.5","subject":"6xmt766ldgatjm8","sona":"7474"},{"rt":1609.2350000981241,"stimulus":"<p>Bereit?</p>","key_press":32,"trial_type":"html-keyboard-response","trial_index":31,"time_elapsed":177068,"internal_node_id":"0.0-8.0-0.6","subject":"6xmt766ldgatjm8","sona":"7474"},{"rt":null,"stimulus":"<div style=\"font-size:60px;\">+</div>","key_press":null,"trial_type":"html-keyboard-response","trial_index":32,"time_elapsed":179077,"internal_node_id":"0.0-8.0-1.6","subject":"6xmt766ldgatjm8","sona":"7474"},{"trial_type":"turing-test","trial_index":33,"time_elapsed":185048,"internal_node_id":"0.0-8.0-2.6","subject":"6xmt766ldgatjm8","sona":"7474"},{"rt":882.4799999129027,"stimulus":"<p>Welche Sequenz haben Sie als natürlicher empfunden?</p>","key_press":70,"test_part":"response","test_stimulus":{"position":0,"left":"bvh/pass-bottle-training3-lines.txt","right":"bvh/vr_prediction_models/model(dmp)-dataset(pass-bottle)-npsi(60)-hold(3)/final-lines.txt","att_check":false},"trial_type":"html-keyboard-response","trial_index":34,"time_elapsed":185934,"internal_node_id":"0.0-8.0-3.6","subject":"6xmt766ldgatjm8","sona":"7474"},{"rt":589.244999922812,"stimulus":"<p>Bereit?</p>","key_press":32,"trial_type":"html-keyboard-response","trial_index":35,"time_elapsed":186525,"internal_node_id":"0.0-8.0-0.7","subject":"6xmt766ldgatjm8","sona":"7474"},{"rt":null,"stimulus":"<div style=\"font-size:60px;\">+</div>","key_press":null,"trial_type":"html-keyboard-response","trial_index":36,"time_elapsed":188535,"internal_node_id":"0.0-8.0-1.7","subject":"6xmt766ldgatjm8","sona":"7474"},{"trial_type":"turing-test","trial_index":37,"time_elapsed":195014,"internal_node_id":"0.0-8.0-2.7","subject":"6xmt766ldgatjm8","sona":"7474"},{"rt":1098.5799999907613,"stimulus":"<p>Welche Sequenz haben Sie als natürlicher empfunden?</p>","key_press":74,"test_part":"response","test_stimulus":{"position":1,"left":"bvh/vr_prediction_models/model(vcgpdm)-dataset(pass-bottle)-mode(MAP)-parts(1)-hold(2)/final-lines.txt","right":"bvh/pass-bottle-training2-lines.txt","att_check":false},"trial_type":"html-keyboard-response","trial_index":38,"time_elapsed":196115,"internal_node_id":"0.0-8.0-3.7","subject":"6xmt766ldgatjm8","sona":"7474"},{"rt":727.4200001265854,"stimulus":"<p>Bereit?</p>","key_press":32,"trial_type":"html-keyboard-response","trial_index":39,"time_elapsed":196844,"internal_node_id":"0.0-8.0-0.8","subject":"6xmt766ldgatjm8","sona":"7474"},{"rt":null,"stimulus":"<div style=\"font-size:60px;\">+</div>","key_press":null,"trial_type":"html-keyboard-response","trial_index":40,"time_elapsed":198853,"internal_node_id":"0.0-8.0-1.8","subject":"6xmt766ldgatjm8","sona":"7474"},{"trial_type":"turing-test","trial_index":41,"time_elapsed":217073,"internal_node_id":"0.0-8.0-2.8","subject":"6xmt766ldgatjm8","sona":"7474"},{"rt":1213.549999985844,"stimulus":"<p>Welche Sequenz haben Sie als natürlicher empfunden?</p>","key_press":74,"test_part":"response","test_stimulus":{"position":0,"left":"bvh/return-bottle-training3-lines.txt","right":"bvh/vr_prediction_models/model(vcgpdm)-dataset(return-bottle)-mode(ELBO)-parts(3)-dyn(25)-lvm(15)-hold(3)/final-lines.txt","att_check":false},"trial_type":"html-keyboard-response","trial_index":42,"time_elapsed":218289,"internal_node_id":"0.0-8.0-3.8","subject":"6xmt766ldgatjm8","sona":"7474"},{"rt":7742.510000010952,"stimulus":"<p>Bereit?</p>","key_press":32,"trial_type":"html-keyboard-response","trial_index":43,"time_elapsed":226036,"internal_node_id":"0.0-8.0-0.9","subject":"6xmt766ldgatjm8","sona":"7474"},{"rt":null,"stimulus":"<div style=\"font-size:60px;\">+</div>","key_press":null,"trial_type":"html-keyboard-response","trial_index":44,"time_elapsed":228047,"internal_node_id":"0.0-8.0-1.9","subject":"6xmt766ldgatjm8","sona":"7474"},{"trial_type":"turing-test","trial_index":45,"time_elapsed":245663,"internal_node_id":"0.0-8.0-2.9","subject":"6xmt766ldgatjm8","sona":"7474"},{"rt":557.4749999213964,"stimulus":"<p>Welche Sequenz haben Sie als natürlicher empfunden?</p>","key_press":70,"test_part":"response","test_stimulus":{"position":1,"left":"bvh/vr_prediction_models/model(vcgpdm)-dataset(pass-bottle)-mode(ELBO)-parts(3)-dyn(25)-lvm(25)-hold(2)/final-lines.txt","right":"bvh/pass-bottle-training2-lines.txt","att_check":false},"trial_type":"html-keyboard-response","trial_index":46,"time_elapsed":246223,"internal_node_id":"0.0-8.0-3.9","subject":"6xmt766ldgatjm8","sona":"7474"},{"rt":877.8099999763072,"stimulus":"<p>Bereit?</p>","key_press":32,"trial_type":"html-keyboard-response","trial_index":47,"time_elapsed":247102,"internal_node_id":"0.0-8.0-0.10","subject":"6xmt766ldgatjm8","sona":"7474"},{"rt":null,"stimulus":"<div style=\"font-size:60px;\">+</div>","key_press":null,"trial_type":"html-keyboard-response","trial_index":48,"time_elapsed":249113,"internal_node_id":"0.0-8.0-1.10","subject":"6xmt766ldgatjm8","sona":"7474"},{"trial_type":"turing-test","trial_index":49,"time_elapsed":263357,"internal_node_id":"0.0-8.0-2.10","subject":"6xmt766ldgatjm8","sona":"7474"},{"rt":905.0750001333654,"stimulus":"<p>Welche Sequenz haben Sie als natürlicher empfunden?</p>","key_press":74,"test_part":"response","test_stimulus":{"position":1,"left":"bvh/vr_prediction_models/model(vcgpdm)-dataset(pass-bottle)-mode(ELBO)-parts(1)-dyn(30)-lvm(30)-hold(3)/final-lines.txt","right":"bvh/pass-bottle-training3-lines.txt","att_check":false},"trial_type":"html-keyboard-response","trial_index":50,"time_elapsed":264264,"internal_node_id":"0.0-8.0-3.10","subject":"6xmt766ldgatjm8","sona":"7474"},{"rt":747.1700001042336,"stimulus":"<p>Bereit?</p>","key_press":32,"trial_type":"html-keyboard-response","trial_index":51,"time_elapsed":265013,"internal_node_id":"0.0-8.0-0.11","subject":"6xmt766ldgatjm8","sona":"7474"},{"rt":null,"stimulus":"<div style=\"font-size:60px;\">+</div>","key_press":null,"trial_type":"html-keyboard-response","trial_index":52,"time_elapsed":267030,"internal_node_id":"0.0-8.0-1.11","subject":"6xmt766ldgatjm8","sona":"7474"},{"trial_type":"turing-test","trial_index":53,"time_elapsed":272870,"internal_node_id":"0.0-8.0-2.11","subject":"6xmt766ldgatjm8","sona":"7474"},{"rt":1290.7400000840425,"stimulus":"<p>Welche Sequenz haben Sie als natürlicher empfunden?</p>","key_press":74,"test_part":"response","test_stimulus":{"position":1,"left":"bvh/vr_prediction_models/model(vcgpdm)-dataset(return-bottle)-mode(MAP)-parts(3)-hold(0)/final-lines.txt","right":"bvh/return-bottle-training0-lines.txt","att_check":false},"trial_type":"html-keyboard-response","trial_index":54,"time_elapsed":274163,"internal_node_id":"0.0-8.0-3.11","subject":"6xmt766ldgatjm8","sona":"7474"},{"rt":2758.915000129491,"stimulus":"<p>Bereit?</p>","key_press":32,"trial_type":"html-keyboard-response","trial_index":55,"time_elapsed":276924,"internal_node_id":"0.0-8.0-0.12","subject":"6xmt766ldgatjm8","sona":"7474"},{"rt":null,"stimulus":"<div style=\"font-size:60px;\">+</div>","key_press":null,"trial_type":"html-keyboard-response","trial_index":56,"time_elapsed":278935,"internal_node_id":"0.0-8.0-1.12","subject":"6xmt766ldgatjm8","sona":"7474"},{"trial_type":"turing-test","trial_index":57,"time_elapsed":290417,"internal_node_id":"0.0-8.0-2.12","subject":"6xmt766ldgatjm8","sona":"7474"},{"rt":875.6599999032915,"stimulus":"<p>Welche Sequenz haben Sie als natürlicher empfunden?</p>","key_press":70,"test_part":"response","test_stimulus":{"position":0,"left":"bvh/return-bottle-hold-training2-lines.txt","right":"bvh/vr_prediction_models/model(tmp)-dataset(return-bottle-hold)-numprim(3)-hold(2)/final-lines.txt","att_check":false},"trial_type":"html-keyboard-response","trial_index":58,"time_elapsed":291295,"internal_node_id":"0.0-8.0-3.12","subject":"6xmt766ldgatjm8","sona":"7474"},{"rt":557.8300000634044,"stimulus":"<p>Bereit?</p>","key_press":32,"trial_type":"html-keyboard-response","trial_index":59,"time_elapsed":291854,"internal_node_id":"0.0-8.0-0.13","subject":"6xmt766ldgatjm8","sona":"7474"},{"rt":null,"stimulus":"<div style=\"font-size:60px;\">+</div>","key_press":null,"trial_type":"html-keyboard-response","trial_index":60,"time_elapsed":293863,"internal_node_id":"0.0-8.0-1.13","subject":"6xmt766ldgatjm8","sona":"7474"},{"trial_type":"turing-test","trial_index":61,"time_elapsed":300611,"internal_node_id":"0.0-8.0-2.13","subject":"6xmt766ldgatjm8","sona":"7474"},{"rt":470.14499991200864,"stimulus":"<p>Welche Sequenz haben Sie als natürlicher empfunden?</p>","key_press":74,"test_part":"response","test_stimulus":{"position":0,"left":"bvh/pass-bottle-hold-training1-lines.txt","right":"bvh/vr_prediction_models/model(tmp)-dataset(pass-bottle-hold)-numprim(3)-hold(1)/final-lines.txt","att_check":false},"trial_type":"html-keyboard-response","trial_index":62,"time_elapsed":301084,"internal_node_id":"0.0-8.0-3.13","subject":"6xmt766ldgatjm8","sona":"7474"},{"rt":338.53500010445714,"stimulus":"<p>Bereit?</p>","key_press":32,"trial_type":"html-keyboard-response","trial_index":63,"time_elapsed":301425,"internal_node_id":"0.0-8.0-0.14","subject":"6xmt766ldgatjm8","sona":"7474"},{"rt":null,"stimulus":"<div style=\"font-size:60px;\">+</div>","key_press":null,"trial_type":"html-keyboard-response","trial_index":64,"time_elapsed":303436,"internal_node_id":"0.0-8.0-1.14","subject":"6xmt766ldgatjm8","sona":"7474"},{"trial_type":"turing-test","trial_index":65,"time_elapsed":311822,"internal_node_id":"0.0-8.0-2.14","subject":"6xmt766ldgatjm8","sona":"7474"},{"rt":347.61499986052513,"stimulus":"<p>Welche Sequenz haben Sie als natürlicher empfunden?</p>","key_press":70,"test_part":"response","test_stimulus":{"position":1,"left":"bvh/vr_prediction_models/model(tmp)-dataset(return-bottle)-numprim(4)-hold(2)/final-lines.txt","right":"bvh/return-bottle-training2-lines.txt","att_check":false},"trial_type":"html-keyboard-response","trial_index":66,"time_elapsed":312172,"internal_node_id":"0.0-8.0-3.14","subject":"6xmt766ldgatjm8","sona":"7474"},{"rt":496.79500004276633,"stimulus":"<p>Bereit?</p>","key_press":32,"trial_type":"html-keyboard-response","trial_index":67,"time_elapsed":312671,"internal_node_id":"0.0-8.0-0.15","subject":"6xmt766ldgatjm8","sona":"7474"},{"rt":null,"stimulus":"<div style=\"font-size:60px;\">+</div>","key_press":null,"trial_type":"html-keyboard-response","trial_index":68,"time_elapsed":314688,"internal_node_id":"0.0-8.0-1.15","subject":"6xmt766ldgatjm8","sona":"7474"},{"trial_type":"turing-test","trial_index":69,"time_elapsed":324972,"internal_node_id":"0.0-8.0-2.15","subject":"6xmt766ldgatjm8","sona":"7474"},{"rt":74.6750000398606,"stimulus":"<p>Welche Sequenz haben Sie als natürlicher empfunden?</p>","key_press":74,"test_part":"response","test_stimulus":{"position":1,"left":"bvh/vr_prediction_models/model(dmp)-dataset(return-bottle)-npsi(30)-hold(1)/final-lines.txt","right":"bvh/return-bottle-training1-lines.txt","att_check":false},"trial_type":"html-keyboard-response","trial_index":70,"time_elapsed":325051,"internal_node_id":"0.0-8.0-3.15","subject":"6xmt766ldgatjm8","sona":"7474"},{"rt":848.3850001357496,"stimulus":"<p>Bereit?</p>","key_press":32,"trial_type":"html-keyboard-response","trial_index":71,"time_elapsed":325901,"internal_node_id":"0.0-8.0-0.16","subject":"6xmt766ldgatjm8","sona":"7474"},{"rt":null,"stimulus":"<div style=\"font-size:60px;\">+</div>","key_press":null,"trial_type":"html-keyboard-response","trial_index":72,"time_elapsed":327907,"internal_node_id":"0.0-8.0-1.16","subject":"6xmt766ldgatjm8","sona":"7474"},{"trial_type":"turing-test","trial_index":73,"time_elapsed":336403,"internal_node_id":"0.0-8.0-2.16","subject":"6xmt766ldgatjm8","sona":"7474"},{"rt":124.67499985359609,"stimulus":"<p>Welche Sequenz haben Sie als natürlicher empfunden?</p>","key_press":74,"test_part":"response","test_stimulus":{"position":1,"left":"bvh/vr_prediction_models/model(dmp)-dataset(return-bottle)-npsi(90)-hold(3)/final-lines.txt","right":"bvh/return-bottle-training3-lines.txt","att_check":false},"trial_type":"html-keyboard-response","trial_index":74,"time_elapsed":336532,"internal_node_id":"0.0-8.0-3.16","subject":"6xmt766ldgatjm8","sona":"7474"},{"rt":757.5750001706183,"stimulus":"<p>Bereit?</p>","key_press":32,"trial_type":"html-keyboard-response","trial_index":75,"time_elapsed":337292,"internal_node_id":"0.0-8.0-0.17","subject":"6xmt766ldgatjm8","sona":"7474"},{"rt":null,"stimulus":"<div style=\"font-size:60px;\">+</div>","key_press":null,"trial_type":"html-keyboard-response","trial_index":76,"time_elapsed":339298,"internal_node_id":"0.0-8.0-1.17","subject":"6xmt766ldgatjm8","sona":"7474"},{"trial_type":"turing-test","trial_index":77,"time_elapsed":343439,"internal_node_id":"0.0-8.0-2.17","subject":"6xmt766ldgatjm8","sona":"7474"},{"rt":490.2299998793751,"stimulus":"<p>Welche Sequenz haben Sie als natürlicher empfunden?</p>","key_press":74,"test_part":"response","test_stimulus":{"position":0,"left":"bvh/return-bottle-hold-training3-lines.txt","right":"bvh/vr_prediction_models/model(dmp)-dataset(return-bottle-hold)-npsi(80)-hold(3)/final-lines.txt","att_check":false},"trial_type":"html-keyboard-response","trial_index":78,"time_elapsed":343932,"internal_node_id":"0.0-8.0-3.17","subject":"6xmt766ldgatjm8","sona":"7474"},{"rt":679.0050000417978,"stimulus":"<p>Bereit?</p>","key_press":32,"trial_type":"html-keyboard-response","trial_index":79,"time_elapsed":344613,"internal_node_id":"0.0-8.0-0.18","subject":"6xmt766ldgatjm8","sona":"7474"},{"rt":null,"stimulus":"<div style=\"font-size:60px;\">+</div>","key_press":null,"trial_type":"html-keyboard-response","trial_index":80,"time_elapsed":346622,"internal_node_id":"0.0-8.0-1.18","subject":"6xmt766ldgatjm8","sona":"7474"},{"trial_type":"turing-test","trial_index":81,"time_elapsed":355770,"internal_node_id":"0.0-8.0-2.18","subject":"6xmt766ldgatjm8","sona":"7474"},{"rt":491.55499995686114,"stimulus":"<p>Welche Sequenz haben Sie als natürlicher empfunden?</p>","key_press":74,"test_part":"response","test_stimulus":{"position":1,"left":"bvh/vr_prediction_models/model(vcgpdm)-dataset(return-bottle)-mode(ELBO)-parts(3)-dyn(10)-lvm(30)-hold(1)/final-lines.txt","right":"bvh/return-bottle-training1-lines.txt","att_check":false},"trial_type":"html-keyboard-response","trial_index":82,"time_elapsed":356264,"internal_node_id":"0.0-8.0-3.18","subject":"6xmt766ldgatjm8","sona":"7474"},{"rt":634.8550000693649,"stimulus":"<p>Bereit?</p>","key_press":32,"trial_type":"html-keyboard-response","trial_index":83,"time_elapsed":356903,"internal_node_id":"0.0-8.0-0.19","subject":"6xmt766ldgatjm8","sona":"7474"},{"rt":null,"stimulus":"<div style=\"font-size:60px;\">+</div>","key_press":null,"trial_type":"html-keyboard-response","trial_index":84,"time_elapsed":358911,"internal_node_id":"0.0-8.0-1.19","subject":"6xmt766ldgatjm8","sona":"7474"},{"trial_type":"turing-test","trial_index":85,"time_elapsed":375058,"internal_node_id":"0.0-8.0-2.19","subject":"6xmt766ldgatjm8","sona":"7474"},{"rt":1736.1550000496209,"stimulus":"<p>Welche Sequenz haben Sie als natürlicher empfunden?</p>","key_press":70,"test_part":"response","test_stimulus":{"position":0,"left":"bvh/return-bottle-training4-lines.txt","right":"bvh/vr_prediction_models/model(dmp)-dataset(return-bottle)-npsi(90)-hold(4)/final-lines.txt","att_check":false},"trial_type":"html-keyboard-response","trial_index":86,"time_elapsed":376797,"internal_node_id":"0.0-8.0-3.19","subject":"6xmt766ldgatjm8","sona":"7474"},{"rt":434.63000003248453,"stimulus":"<p>Bereit?</p>","key_press":32,"trial_type":"html-keyboard-response","trial_index":87,"time_elapsed":377234,"internal_node_id":"0.0-8.0-0.20","subject":"6xmt766ldgatjm8","sona":"7474"},{"rt":null,"stimulus":"<div style=\"font-size:60px;\">+</div>","key_press":null,"trial_type":"html-keyboard-response","trial_index":88,"time_elapsed":379244,"internal_node_id":"0.0-8.0-1.20","subject":"6xmt766ldgatjm8","sona":"7474"},{"trial_type":"turing-test","trial_index":89,"time_elapsed":388913,"internal_node_id":"0.0-8.0-2.20","subject":"6xmt766ldgatjm8","sona":"7474"},{"rt":349.73999997600913,"stimulus":"<p>Welche Sequenz haben Sie als natürlicher empfunden?</p>","key_press":74,"test_part":"response","test_stimulus":{"position":1,"left":"bvh/vr_prediction_models/model(vcgpdm)-dataset(pass-bottle)-mode(ELBO)-parts(1)-dyn(20)-lvm(20)-hold(3)/final-lines.txt","right":"bvh/pass-bottle-training3-lines.txt","att_check":false},"trial_type":"html-keyboard-response","trial_index":90,"time_elapsed":389265,"internal_node_id":"0.0-8.0-3.20","subject":"6xmt766ldgatjm8","sona":"7474"},{"rt":816.9099998194724,"stimulus":"<p>Bereit?</p>","key_press":32,"trial_type":"html-keyboard-response","trial_index":91,"time_elapsed":390084,"internal_node_id":"0.0-8.0-0.21","subject":"6xmt766ldgatjm8","sona":"7474"},{"rt":null,"stimulus":"<div style=\"font-size:60px;\">+</div>","key_press":null,"trial_type":"html-keyboard-response","trial_index":92,"time_elapsed":392097,"internal_node_id":"0.0-8.0-1.21","subject":"6xmt766ldgatjm8","sona":"7474"},{"trial_type":"turing-test","trial_index":93,"time_elapsed":401413,"internal_node_id":"0.0-8.0-2.21","subject":"6xmt766ldgatjm8","sona":"7474"},{"rt":398.8550000358373,"stimulus":"<p>Welche Sequenz haben Sie als natürlicher empfunden?</p>","key_press":74,"test_part":"response","test_stimulus":{"position":0,"left":"bvh/return-bottle-training4-lines.txt","right":"bvh/vr_prediction_models/model(vcgpdm)-dataset(return-bottle)-mode(ELBO)-parts(1)-dyn(25)-lvm(35)-hold(4)/final-lines.txt","att_check":false},"trial_type":"html-keyboard-response","trial_index":94,"time_elapsed":401815,"internal_node_id":"0.0-8.0-3.21","subject":"6xmt766ldgatjm8","sona":"7474"},{"rt":585.2699999231845,"stimulus":"<p>Bereit?</p>","key_press":32,"trial_type":"html-keyboard-response","trial_index":95,"time_elapsed":402405,"internal_node_id":"0.0-8.0-0.22","subject":"6xmt766ldgatjm8","sona":"7474"},{"rt":null,"stimulus":"<div style=\"font-size:60px;\">+</div>","key_press":null,"trial_type":"html-keyboard-response","trial_index":96,"time_elapsed":404410,"internal_node_id":"0.0-8.0-1.22","subject":"6xmt766ldgatjm8","sona":"7474"},{"trial_type":"turing-test","trial_index":97,"time_elapsed":413405,"internal_node_id":"0.0-8.0-2.22","subject":"6xmt766ldgatjm8","sona":"7474"},{"rt":448.4099999535829,"stimulus":"<p>Welche Sequenz haben Sie als natürlicher empfunden?</p>","key_press":70,"test_part":"response","test_stimulus":{"position":0,"left":"bvh/return-bottle-training0-lines.txt","right":"bvh/vr_prediction_models/model(vcgpdm)-dataset(return-bottle)-mode(ELBO)-parts(3)-dyn(20)-lvm(20)-hold(0)/final-lines.txt","att_check":false},"trial_type":"html-keyboard-response","trial_index":98,"time_elapsed":413856,"internal_node_id":"0.0-8.0-3.22","subject":"6xmt766ldgatjm8","sona":"7474"},{"rt":467.19500003382564,"stimulus":"<p>Bereit?</p>","key_press":32,"trial_type":"html-keyboard-response","trial_index":99,"time_elapsed":414325,"internal_node_id":"0.0-8.0-0.23","subject":"6xmt766ldgatjm8","sona":"7474"},{"rt":null,"stimulus":"<div style=\"font-size:60px;\">+</div>","key_press":null,"trial_type":"html-keyboard-response","trial_index":100,"time_elapsed":416335,"internal_node_id":"0.0-8.0-1.23","subject":"6xmt766ldgatjm8","sona":"7474"},{"trial_type":"turing-test","trial_index":101,"time_elapsed":421937,"internal_node_id":"0.0-8.0-2.23","subject":"6xmt766ldgatjm8","sona":"7474"},{"rt":1807.3499999009073,"stimulus":"<p>Welche Sequenz haben Sie als natürlicher empfunden?</p>","key_press":70,"test_part":"response","test_stimulus":{"position":0,"left":"bvh/pass-bottle-training4-lines.txt","right":"bvh/vr_prediction_models/model(dmp)-dataset(pass-bottle)-npsi(40)-hold(4)/final-lines.txt","att_check":false},"trial_type":"html-keyboard-response","trial_index":102,"time_elapsed":423747,"internal_node_id":"0.0-8.0-3.23","subject":"6xmt766ldgatjm8","sona":"7474"},{"rt":1375.4350000526756,"stimulus":"<p>Bereit?</p>","key_press":32,"trial_type":"html-keyboard-response","trial_index":103,"time_elapsed":425126,"internal_node_id":"0.0-8.0-0.24","subject":"6xmt766ldgatjm8","sona":"7474"},{"rt":null,"stimulus":"<div style=\"font-size:60px;\">+</div>","key_press":null,"trial_type":"html-keyboard-response","trial_index":104,"time_elapsed":427131,"internal_node_id":"0.0-8.0-1.24","subject":"6xmt766ldgatjm8","sona":"7474"},{"trial_type":"turing-test","trial_index":105,"time_elapsed":443989,"internal_node_id":"0.0-8.0-2.24","subject":"6xmt766ldgatjm8","sona":"7474"},{"rt":1457.179999910295,"stimulus":"<p>Welche Sequenz haben Sie als natürlicher empfunden?</p>","key_press":70,"test_part":"response","test_stimulus":{"position":0,"left":"bvh/pass-bottle-training2-lines.txt","right":"bvh/vr_prediction_models/model(vcgpdm)-dataset(pass-bottle)-mode(ELBO)-parts(3)-dyn(25)-lvm(15)-hold(2)/final-lines.txt","att_check":false},"trial_type":"html-keyboard-response","trial_index":106,"time_elapsed":445448,"internal_node_id":"0.0-8.0-3.24","subject":"6xmt766ldgatjm8","sona":"7474"},{"rt":706.5700001548976,"stimulus":"<p>Bereit?</p>","key_press":32,"trial_type":"html-keyboard-response","trial_index":107,"time_elapsed":446158,"internal_node_id":"0.0-8.0-0.25","subject":"6xmt766ldgatjm8","sona":"7474"},{"rt":null,"stimulus":"<div style=\"font-size:60px;\">+</div>","key_press":null,"trial_type":"html-keyboard-response","trial_index":108,"time_elapsed":448172,"internal_node_id":"0.0-8.0-1.25","subject":"6xmt766ldgatjm8","sona":"7474"},{"trial_type":"turing-test","trial_index":109,"time_elapsed":463199,"internal_node_id":"0.0-8.0-2.25","subject":"6xmt766ldgatjm8","sona":"7474"},{"rt":316.5049999952316,"stimulus":"<p>Welche Sequenz haben Sie als natürlicher empfunden?</p>","key_press":70,"test_part":"response","test_stimulus":{"position":1,"left":"bvh/vr_prediction_models/model(vcgpdm)-dataset(return-bottle-hold)-mode(ELBO)-parts(3)-dyn(25)-lvm(25)-hold(4)/final-lines.txt","right":"bvh/return-bottle-hold-training4-lines.txt","att_check":false},"trial_type":"html-keyboard-response","trial_index":110,"time_elapsed":463519,"internal_node_id":"0.0-8.0-3.25","subject":"6xmt766ldgatjm8","sona":"7474"},{"rt":276.8550000619143,"stimulus":"<p>Bereit?</p>","key_press":32,"trial_type":"html-keyboard-response","trial_index":111,"time_elapsed":463798,"internal_node_id":"0.0-8.0-0.26","subject":"6xmt766ldgatjm8","sona":"7474"},{"rt":null,"stimulus":"<div style=\"font-size:60px;\">+</div>","key_press":null,"trial_type":"html-keyboard-response","trial_index":112,"time_elapsed":465810,"internal_node_id":"0.0-8.0-1.26","subject":"6xmt766ldgatjm8","sona":"7474"},{"trial_type":"turing-test","trial_index":113,"time_elapsed":478527,"internal_node_id":"0.0-8.0-2.26","subject":"6xmt766ldgatjm8","sona":"7474"},{"rt":450.1949998084456,"stimulus":"<p>Welche Sequenz haben Sie als natürlicher empfunden?</p>","key_press":70,"test_part":"response","test_stimulus":{"position":1,"left":"bvh/vr_prediction_models/model(tmp)-dataset(return-bottle-hold)-numprim(12)-hold(0)/final-lines.txt","right":"bvh/return-bottle-hold-training0-lines.txt","att_check":false},"trial_type":"html-keyboard-response","trial_index":114,"time_elapsed":478980,"internal_node_id":"0.0-8.0-3.26","subject":"6xmt766ldgatjm8","sona":"7474"},{"rt":476.9599998835474,"stimulus":"<p>Bereit?</p>","key_press":32,"trial_type":"html-keyboard-response","trial_index":115,"time_elapsed":479459,"internal_node_id":"0.0-8.0-0.27","subject":"6xmt766ldgatjm8","sona":"7474"},{"rt":null,"stimulus":"<div style=\"font-size:60px;\">+</div>","key_press":null,"trial_type":"html-keyboard-response","trial_index":116,"time_elapsed":481473,"internal_node_id":"0.0-8.0-1.27","subject":"6xmt766ldgatjm8","sona":"7474"},{"trial_type":"turing-test","trial_index":117,"time_elapsed":488474,"internal_node_id":"0.0-8.0-2.27","subject":"6xmt766ldgatjm8","sona":"7474"},{"rt":1234.5400000922382,"stimulus":"<p>Welche Sequenz haben Sie als natürlicher empfunden?</p>","key_press":74,"test_part":"response","test_stimulus":{"position":1,"left":"bvh/vr_prediction_models/model(tmp)-dataset(return-bottle)-numprim(3)-hold(1)/final-lines.txt","right":"bvh/return-bottle-training1-lines.txt","att_check":false},"trial_type":"html-keyboard-response","trial_index":118,"time_elapsed":489711,"internal_node_id":"0.0-8.0-3.27","subject":"6xmt766ldgatjm8","sona":"7474"},{"rt":355.20999995060265,"stimulus":"<p>Bereit?</p>","key_press":32,"trial_type":"html-keyboard-response","trial_index":119,"time_elapsed":490069,"internal_node_id":"0.0-8.0-0.28","subject":"6xmt766ldgatjm8","sona":"7474"},{"rt":null,"stimulus":"<div style=\"font-size:60px;\">+</div>","key_press":null,"trial_type":"html-keyboard-response","trial_index":120,"time_elapsed":492078,"internal_node_id":"0.0-8.0-1.28","subject":"6xmt766ldgatjm8","sona":"7474"},{"trial_type":"turing-test","trial_index":121,"time_elapsed":508240,"internal_node_id":"0.0-8.0-2.28","subject":"6xmt766ldgatjm8","sona":"7474"},{"rt":1029.3649998493493,"stimulus":"<p>Welche Sequenz haben Sie als natürlicher empfunden?</p>","key_press":74,"test_part":"response","test_stimulus":{"position":0,"left":"bvh/return-bottle-training4-lines.txt","right":"bvh/vr_prediction_models/model(vcgpdm)-dataset(return-bottle)-mode(ELBO)-parts(3)-dyn(20)-lvm(15)-hold(4)/final-lines.txt","att_check":false},"trial_type":"html-keyboard-response","trial_index":122,"time_elapsed":509272,"internal_node_id":"0.0-8.0-3.28","subject":"6xmt766ldgatjm8","sona":"7474"},{"rt":307.3199999053031,"stimulus":"<p>Bereit?</p>","key_press":32,"trial_type":"html-keyboard-response","trial_index":123,"time_elapsed":509581,"internal_node_id":"0.0-8.0-0.29","subject":"6xmt766ldgatjm8","sona":"7474"},{"rt":null,"stimulus":"<div style=\"font-size:60px;\">+</div>","key_press":null,"trial_type":"html-keyboard-response","trial_index":124,"time_elapsed":511591,"internal_node_id":"0.0-8.0-1.29","subject":"6xmt766ldgatjm8","sona":"7474"},{"trial_type":"turing-test","trial_index":125,"time_elapsed":519195,"internal_node_id":"0.0-8.0-2.29","subject":"6xmt766ldgatjm8","sona":"7474"},{"rt":486.049999948591,"stimulus":"<p>Welche Sequenz haben Sie als natürlicher empfunden?</p>","key_press":74,"test_part":"response","test_stimulus":{"position":0,"left":"bvh/pass-bottle-training0-lines.txt","right":"bvh/vr_prediction_models/model(dmp)-dataset(pass-bottle)-npsi(100)-hold(0)/final-lines.txt","att_check":false},"trial_type":"html-keyboard-response","trial_index":126,"time_elapsed":519684,"internal_node_id":"0.0-8.0-3.29","subject":"6xmt766ldgatjm8","sona":"7474"},{"rt":384.7799999639392,"stimulus":"<p>Bereit?</p>","key_press":32,"trial_type":"html-keyboard-response","trial_index":127,"time_elapsed":520072,"internal_node_id":"0.0-8.0-0.30","subject":"6xmt766ldgatjm8","sona":"7474"},{"rt":null,"stimulus":"<div style=\"font-size:60px;\">+</div>","key_press":null,"trial_type":"html-keyboard-response","trial_index":128,"time_elapsed":522086,"internal_node_id":"0.0-8.0-1.30","subject":"6xmt766ldgatjm8","sona":"7474"},{"trial_type":"turing-test","trial_index":129,"time_elapsed":535390,"internal_node_id":"0.0-8.0-2.30","subject":"6xmt766ldgatjm8","sona":"7474"}]