[{"rt":4130,"stimulus":"<p>Welcome!<br> Please choose your language to start the experiment in the chosen language.</p><p>Willkommen!<br> Bitte wählen Sie eine Sprache um das Experiment in der ausgewählten Sprache zu starten</p>","button_pressed":"1","trial_type":"html-button-response","trial_index":0,"time_elapsed":4138,"internal_node_id":"0.0-0.0","subject":"lynundkl3z6g33s","sona":"THNS"},{"view_history":"[{\"page_index\":0,\"viewing_time\":12562},{\"page_index\":1,\"viewing_time\":6003},{\"page_index\":2,\"viewing_time\":2783},{\"page_index\":3,\"viewing_time\":4366}]","rt":25714,"trial_type":"instructions","trial_index":1,"time_elapsed":29853,"internal_node_id":"0.0-1.0-0.0","subject":"lynundkl3z6g33s","sona":"THNS"},{"rt":1172,"stimulus":"<p>Bereit?</p>","button_pressed":"0","trial_type":"html-button-response","trial_index":2,"time_elapsed":31026,"internal_node_id":"0.0-3.0","subject":"lynundkl3z6g33s","sona":"THNS"},{"rt":null,"stimulus":"<div style=\"font-size:60px;\">+</div>","key_press":null,"trial_type":"html-keyboard-response","trial_index":3,"time_elapsed":33045,"internal_node_id":"0.0-4.0","subject":"lynundkl3z6g33s","sona":"THNS"},{"trial_type":"training","trial_index":4,"time_elapsed":36735,"internal_node_id":"0.0-5.0","subject":"lynundkl3z6g33s","sona":"THNS"},{"rt":1108,"stimulus":"<p>Welche Sequenz haben Sie als natürlicher empfunden?</p>","button_pressed":"0","trial_type":"html-button-response","trial_index":5,"time_elapsed":37845,"internal_node_id":"0.0-6.0","subject":"lynundkl3z6g33s","sona":"THNS"},{"rt":1930,"stimulus":"<p>Das Experiment startet nun.</p><p> Bitte drücken Sie den Knopf, wenn Sie bereit sind.</p>","button_pressed":"0","trial_type":"html-button-response","trial_index":6,"time_elapsed":39779,"internal_node_id":"0.0-7.0","subject":"lynundkl3z6g33s","sona":"THNS"},{"rt":1240,"stimulus":"<p>Bereit?</p>","button_pressed":"0","trial_type":"html-button-response","trial_index":7,"time_elapsed":41021,"internal_node_id":"0.0-8.0-0.0","subject":"lynundkl3z6g33s","sona":"THNS"},{"rt":null,"stimulus":"<div style=\"font-size:60px;\">+</div>","key_press":null,"trial_type":"html-keyboard-response","trial_index":8,"time_elapsed":43036,"internal_node_id":"0.0-8.0-1.0","subject":"lynundkl3z6g33s","sona":"THNS"},{"trial_type":"turing-test","trial_index":9,"time_elapsed":46904,"internal_node_id":"0.0-8.0-2.0","subject":"lynundkl3z6g33s","sona":"THNS"},{"rt":1091,"stimulus":"<p>Welche Sequenz haben Sie als natürlicher empfunden?</p>","button_pressed":"1","test_part":"response","test_stimulus":{"position":1,"left":"bvh/vr_prediction_models/model(tmp)-dataset(return-bottle-hold)-numprim(13)-hold(3)/final-lines.txt","right":"bvh/return-bottle-hold-training3-lines.txt","att_check":false},"trial_type":"html-button-response","trial_index":10,"time_elapsed":47998,"internal_node_id":"0.0-8.0-3.0","subject":"lynundkl3z6g33s","sona":"THNS"},{"rt":1058,"stimulus":"<p>Bereit?</p>","button_pressed":"0","trial_type":"html-button-response","trial_index":11,"time_elapsed":49061,"internal_node_id":"0.0-8.0-0.1","subject":"lynundkl3z6g33s","sona":"THNS"},{"rt":null,"stimulus":"<div style=\"font-size:60px;\">+</div>","key_press":null,"trial_type":"html-keyboard-response","trial_index":12,"time_elapsed":51095,"internal_node_id":"0.0-8.0-1.1","subject":"lynundkl3z6g33s","sona":"THNS"},{"trial_type":"turing-test","trial_index":13,"time_elapsed":54611,"internal_node_id":"0.0-8.0-2.1","subject":"lynundkl3z6g33s","sona":"THNS"},{"rt":1371,"stimulus":"<p>Welche Sequenz haben Sie als natürlicher empfunden?</p>","button_pressed":"0","test_part":"response","test_stimulus":{"position":0,"left":"bvh/pass-bottle-hold-training0-lines.txt","right":"bvh/vr_prediction_models/model(tmp)-dataset(pass-bottle-hold)-numprim(15)-hold(0)/final-lines.txt","att_check":false},"trial_type":"html-button-response","trial_index":14,"time_elapsed":55985,"internal_node_id":"0.0-8.0-3.1","subject":"lynundkl3z6g33s","sona":"THNS"},{"rt":902,"stimulus":"<p>Bereit?</p>","button_pressed":"0","trial_type":"html-button-response","trial_index":15,"time_elapsed":56889,"internal_node_id":"0.0-8.0-0.2","subject":"lynundkl3z6g33s","sona":"THNS"},{"rt":null,"stimulus":"<div style=\"font-size:60px;\">+</div>","key_press":null,"trial_type":"html-keyboard-response","trial_index":16,"time_elapsed":58914,"internal_node_id":"0.0-8.0-1.2","subject":"lynundkl3z6g33s","sona":"THNS"},{"trial_type":"turing-test","trial_index":17,"time_elapsed":62776,"internal_node_id":"0.0-8.0-2.2","subject":"lynundkl3z6g33s","sona":"THNS"},{"rt":1129,"stimulus":"<p>Welche Sequenz haben Sie als natürlicher empfunden?</p>","button_pressed":"1","test_part":"response","test_stimulus":{"position":0,"left":"bvh/pass-bottle-hold-training2-lines.txt","right":"bvh/vr_prediction_models/model(vcgpdm)-dataset(pass-bottle-hold)-mode(ELBO)-parts(1)-dyn(10)-lvm(30)-hold(2)/final-lines.txt","att_check":false},"trial_type":"html-button-response","trial_index":18,"time_elapsed":63909,"internal_node_id":"0.0-8.0-3.2","subject":"lynundkl3z6g33s","sona":"THNS"},{"rt":935,"stimulus":"<p>Bereit?</p>","button_pressed":"0","trial_type":"html-button-response","trial_index":19,"time_elapsed":64849,"internal_node_id":"0.0-8.0-0.3","subject":"lynundkl3z6g33s","sona":"THNS"},{"rt":null,"stimulus":"<div style=\"font-size:60px;\">+</div>","key_press":null,"trial_type":"html-keyboard-response","trial_index":20,"time_elapsed":66856,"internal_node_id":"0.0-8.0-1.3","subject":"lynundkl3z6g33s","sona":"THNS"},{"trial_type":"turing-test","trial_index":21,"time_elapsed":70503,"internal_node_id":"0.0-8.0-2.3","subject":"lynundkl3z6g33s","sona":"THNS"},{"rt":1172,"stimulus":"<p>Welche Sequenz haben Sie als natürlicher empfunden?</p>","button_pressed":"1","test_part":"response","test_stimulus":{"position":1,"left":"bvh/vr_prediction_models/model(vcgpdm)-dataset(pass-bottle-hold)-mode(ELBO)-parts(1)-dyn(35)-lvm(30)-hold(2)/final-lines.txt","right":"bvh/pass-bottle-hold-training2-lines.txt","att_check":false},"trial_type":"html-button-response","trial_index":22,"time_elapsed":71680,"internal_node_id":"0.0-8.0-3.3","subject":"lynundkl3z6g33s","sona":"THNS"},{"rt":772,"stimulus":"<p>Bereit?</p>","button_pressed":"0","trial_type":"html-button-response","trial_index":23,"time_elapsed":72460,"internal_node_id":"0.0-8.0-0.4","subject":"lynundkl3z6g33s","sona":"THNS"},{"rt":null,"stimulus":"<div style=\"font-size:60px;\">+</div>","key_press":null,"trial_type":"html-keyboard-response","trial_index":24,"time_elapsed":74483,"internal_node_id":"0.0-8.0-1.4","subject":"lynundkl3z6g33s","sona":"THNS"},{"trial_type":"turing-test","trial_index":25,"time_elapsed":80859,"internal_node_id":"0.0-8.0-2.4","subject":"lynundkl3z6g33s","sona":"THNS"},{"rt":1024,"stimulus":"<p>Welche Sequenz haben Sie als natürlicher empfunden?</p>","button_pressed":"0","test_part":"response","test_stimulus":{"position":0,"left":"bvh/return-bottle-training1-lines.txt","right":"bvh/vr_prediction_models/model(tmp)-dataset(return-bottle)-numprim(11)-hold(1)/final-lines.txt","att_check":false},"trial_type":"html-button-response","trial_index":26,"time_elapsed":81889,"internal_node_id":"0.0-8.0-3.4","subject":"lynundkl3z6g33s","sona":"THNS"},{"rt":1009,"stimulus":"<p>Bereit?</p>","button_pressed":"0","trial_type":"html-button-response","trial_index":27,"time_elapsed":82904,"internal_node_id":"0.0-8.0-0.5","subject":"lynundkl3z6g33s","sona":"THNS"},{"rt":null,"stimulus":"<div style=\"font-size:60px;\">+</div>","key_press":null,"trial_type":"html-keyboard-response","trial_index":28,"time_elapsed":84929,"internal_node_id":"0.0-8.0-1.5","subject":"lynundkl3z6g33s","sona":"THNS"},{"trial_type":"turing-test","trial_index":29,"time_elapsed":90964,"internal_node_id":"0.0-8.0-2.5","subject":"lynundkl3z6g33s","sona":"THNS"},{"rt":1276,"stimulus":"<p>Welche Sequenz haben Sie als natürlicher empfunden?</p>","button_pressed":"1","test_part":"response","test_stimulus":{"position":1,"left":"bvh/vr_prediction_models/model(tmp)-dataset(pass-bottle)-numprim(4)-hold(3)/final-lines.txt","right":"bvh/pass-bottle-training3-lines.txt","att_check":false},"trial_type":"html-button-response","trial_index":30,"time_elapsed":92243,"internal_node_id":"0.0-8.0-3.5","subject":"lynundkl3z6g33s","sona":"THNS"},{"rt":983,"stimulus":"<p>Bereit?</p>","button_pressed":"0","trial_type":"html-button-response","trial_index":31,"time_elapsed":93230,"internal_node_id":"0.0-8.0-0.6","subject":"lynundkl3z6g33s","sona":"THNS"},{"rt":null,"stimulus":"<div style=\"font-size:60px;\">+</div>","key_press":null,"trial_type":"html-keyboard-response","trial_index":32,"time_elapsed":95244,"internal_node_id":"0.0-8.0-1.6","subject":"lynundkl3z6g33s","sona":"THNS"},{"trial_type":"turing-test","trial_index":33,"time_elapsed":98865,"internal_node_id":"0.0-8.0-2.6","subject":"lynundkl3z6g33s","sona":"THNS"},{"rt":1111,"stimulus":"<p>Welche Sequenz haben Sie als natürlicher empfunden?</p>","button_pressed":"1","test_part":"response","test_stimulus":{"position":0,"left":"bvh/return-bottle-hold-training1-lines.txt","right":"bvh/vr_prediction_models/model(dmp)-dataset(return-bottle-hold)-npsi(60)-hold(1)/final-lines.txt","att_check":false},"trial_type":"html-button-response","trial_index":34,"time_elapsed":99980,"internal_node_id":"0.0-8.0-3.6","subject":"lynundkl3z6g33s","sona":"THNS"},{"rt":666,"stimulus":"<p>Bereit?</p>","button_pressed":"0","trial_type":"html-button-response","trial_index":35,"time_elapsed":100649,"internal_node_id":"0.0-8.0-0.7","subject":"lynundkl3z6g33s","sona":"THNS"},{"rt":null,"stimulus":"<div style=\"font-size:60px;\">+</div>","key_press":null,"trial_type":"html-keyboard-response","trial_index":36,"time_elapsed":102676,"internal_node_id":"0.0-8.0-1.7","subject":"lynundkl3z6g33s","sona":"THNS"},{"trial_type":"turing-test","trial_index":37,"time_elapsed":108609,"internal_node_id":"0.0-8.0-2.7","subject":"lynundkl3z6g33s","sona":"THNS"},{"rt":1018,"stimulus":"<p>Welche Sequenz haben Sie als natürlicher empfunden?</p>","button_pressed":"0","test_part":"response","test_stimulus":{"position":0,"left":"bvh/return-bottle-training0-lines.txt","right":"bvh/vr_prediction_models/model(vcgpdm)-dataset(return-bottle)-mode(MAP)-parts(1)-hold(0)/final-lines.txt","att_check":false},"trial_type":"html-button-response","trial_index":38,"time_elapsed":109631,"internal_node_id":"0.0-8.0-3.7","subject":"lynundkl3z6g33s","sona":"THNS"},{"rt":1688,"stimulus":"<p>Bereit?</p>","button_pressed":"0","trial_type":"html-button-response","trial_index":39,"time_elapsed":111323,"internal_node_id":"0.0-8.0-0.8","subject":"lynundkl3z6g33s","sona":"THNS"},{"rt":null,"stimulus":"<div style=\"font-size:60px;\">+</div>","key_press":null,"trial_type":"html-keyboard-response","trial_index":40,"time_elapsed":113359,"internal_node_id":"0.0-8.0-1.8","subject":"lynundkl3z6g33s","sona":"THNS"},{"trial_type":"turing-test","trial_index":41,"time_elapsed":117279,"internal_node_id":"0.0-8.0-2.8","subject":"lynundkl3z6g33s","sona":"THNS"},{"rt":899,"stimulus":"<p>Welche Sequenz haben Sie als natürlicher empfunden?</p>","button_pressed":"1","test_part":"response","test_stimulus":{"position":0,"left":"bvh/pass-bottle-hold-training3-lines.txt","right":"bvh/vr_prediction_models/model(tmp)-dataset(pass-bottle-hold)-numprim(11)-hold(3)/final-lines.txt","att_check":false},"trial_type":"html-button-response","trial_index":42,"time_elapsed":118183,"internal_node_id":"0.0-8.0-3.8","subject":"lynundkl3z6g33s","sona":"THNS"},{"rt":933,"stimulus":"<p>Bereit?</p>","button_pressed":"0","trial_type":"html-button-response","trial_index":43,"time_elapsed":119120,"internal_node_id":"0.0-8.0-0.9","subject":"lynundkl3z6g33s","sona":"THNS"},{"rt":null,"stimulus":"<div style=\"font-size:60px;\">+</div>","key_press":null,"trial_type":"html-keyboard-response","trial_index":44,"time_elapsed":121159,"internal_node_id":"0.0-8.0-1.9","subject":"lynundkl3z6g33s","sona":"THNS"},{"trial_type":"turing-test","trial_index":45,"time_elapsed":128485,"internal_node_id":"0.0-8.0-2.9","subject":"lynundkl3z6g33s","sona":"THNS"},{"rt":680,"stimulus":"<p>Welche Sequenz haben Sie als natürlicher empfunden?</p>","button_pressed":"0","test_part":"response","test_stimulus":{"position":1,"left":"bvh/vr_prediction_models/model(vcgpdm)-dataset(pass-bottle)-mode(ELBO)-parts(3)-dyn(15)-lvm(30)-hold(0)/final-lines.txt","right":"bvh/pass-bottle-training0-lines.txt","att_check":false},"trial_type":"html-button-response","trial_index":46,"time_elapsed":129169,"internal_node_id":"0.0-8.0-3.9","subject":"lynundkl3z6g33s","sona":"THNS"},{"rt":894,"stimulus":"<p>Bereit?</p>","button_pressed":"0","trial_type":"html-button-response","trial_index":47,"time_elapsed":130066,"internal_node_id":"0.0-8.0-0.10","subject":"lynundkl3z6g33s","sona":"THNS"},{"rt":null,"stimulus":"<div style=\"font-size:60px;\">+</div>","key_press":null,"trial_type":"html-keyboard-response","trial_index":48,"time_elapsed":132095,"internal_node_id":"0.0-8.0-1.10","subject":"lynundkl3z6g33s","sona":"THNS"},{"trial_type":"turing-test","trial_index":49,"time_elapsed":135940,"internal_node_id":"0.0-8.0-2.10","subject":"lynundkl3z6g33s","sona":"THNS"},{"rt":650,"stimulus":"<p>Welche Sequenz haben Sie als natürlicher empfunden?</p>","button_pressed":"0","test_part":"response","test_stimulus":{"position":1,"left":"bvh/vr_prediction_models/model(tmp)-dataset(return-bottle-hold)-numprim(12)-hold(3)/final-lines.txt","right":"bvh/return-bottle-hold-training3-lines.txt","att_check":false},"trial_type":"html-button-response","trial_index":50,"time_elapsed":136593,"internal_node_id":"0.0-8.0-3.10","subject":"lynundkl3z6g33s","sona":"THNS"},{"rt":964,"stimulus":"<p>Bereit?</p>","button_pressed":"0","trial_type":"html-button-response","trial_index":51,"time_elapsed":137561,"internal_node_id":"0.0-8.0-0.11","subject":"lynundkl3z6g33s","sona":"THNS"},{"rt":null,"stimulus":"<div style=\"font-size:60px;\">+</div>","key_press":null,"trial_type":"html-keyboard-response","trial_index":52,"time_elapsed":139590,"internal_node_id":"0.0-8.0-1.11","subject":"lynundkl3z6g33s","sona":"THNS"},{"trial_type":"turing-test","trial_index":53,"time_elapsed":145573,"internal_node_id":"0.0-8.0-2.11","subject":"lynundkl3z6g33s","sona":"THNS"},{"rt":835,"stimulus":"<p>Welche Sequenz haben Sie als natürlicher empfunden?</p>","button_pressed":"0","test_part":"response","test_stimulus":{"position":0,"left":"bvh/pass-bottle-training3-lines.txt","right":"bvh/vr_prediction_models/model(dmp)-dataset(pass-bottle)-npsi(60)-hold(3)/final-lines.txt","att_check":true},"trial_type":"html-button-response","trial_index":54,"time_elapsed":146411,"internal_node_id":"0.0-8.0-3.11","subject":"lynundkl3z6g33s","sona":"THNS"},{"rt":781,"stimulus":"<p>Bereit?</p>","button_pressed":"0","trial_type":"html-button-response","trial_index":55,"time_elapsed":147197,"internal_node_id":"0.0-8.0-0.12","subject":"lynundkl3z6g33s","sona":"THNS"},{"rt":null,"stimulus":"<div style=\"font-size:60px;\">+</div>","key_press":null,"trial_type":"html-keyboard-response","trial_index":56,"time_elapsed":149213,"internal_node_id":"0.0-8.0-1.12","subject":"lynundkl3z6g33s","sona":"THNS"},{"trial_type":"turing-test","trial_index":57,"time_elapsed":155185,"internal_node_id":"0.0-8.0-2.12","subject":"lynundkl3z6g33s","sona":"THNS"},{"rt":836,"stimulus":"<p>Welche Sequenz haben Sie als natürlicher empfunden?</p>","button_pressed":"0","test_part":"response","test_stimulus":{"position":0,"left":"bvh/pass-bottle-training3-lines.txt","right":"bvh/vr_prediction_models/model(tmp)-dataset(pass-bottle)-numprim(14)-hold(3)/final-lines.txt","att_check":false},"trial_type":"html-button-response","trial_index":58,"time_elapsed":156026,"internal_node_id":"0.0-8.0-3.12","subject":"lynundkl3z6g33s","sona":"THNS"},{"rt":871,"stimulus":"<p>Bereit?</p>","button_pressed":"0","trial_type":"html-button-response","trial_index":59,"time_elapsed":156902,"internal_node_id":"0.0-8.0-0.13","subject":"lynundkl3z6g33s","sona":"THNS"},{"rt":null,"stimulus":"<div style=\"font-size:60px;\">+</div>","key_press":null,"trial_type":"html-keyboard-response","trial_index":60,"time_elapsed":158926,"internal_node_id":"0.0-8.0-1.13","subject":"lynundkl3z6g33s","sona":"THNS"},{"trial_type":"turing-test","trial_index":61,"time_elapsed":164892,"internal_node_id":"0.0-8.0-2.13","subject":"lynundkl3z6g33s","sona":"THNS"},{"rt":1125,"stimulus":"<p>Welche Sequenz haben Sie als natürlicher empfunden?</p>","button_pressed":"0","test_part":"response","test_stimulus":{"position":0,"left":"bvh/pass-bottle-training3-lines.txt","right":"bvh/vr_prediction_models/model(dmp)-dataset(pass-bottle)-npsi(50)-hold(3)/final-lines.txt","att_check":true},"trial_type":"html-button-response","trial_index":62,"time_elapsed":166022,"internal_node_id":"0.0-8.0-3.13","subject":"lynundkl3z6g33s","sona":"THNS"},{"rt":2673,"stimulus":"<p>Bereit?</p>","button_pressed":"0","trial_type":"html-button-response","trial_index":63,"time_elapsed":168699,"internal_node_id":"0.0-8.0-0.14","subject":"lynundkl3z6g33s","sona":"THNS"},{"rt":null,"stimulus":"<div style=\"font-size:60px;\">+</div>","key_press":null,"trial_type":"html-keyboard-response","trial_index":64,"time_elapsed":170732,"internal_node_id":"0.0-8.0-1.14","subject":"lynundkl3z6g33s","sona":"THNS"},{"trial_type":"turing-test","trial_index":65,"time_elapsed":177240,"internal_node_id":"0.0-8.0-2.14","subject":"lynundkl3z6g33s","sona":"THNS"},{"rt":1029,"stimulus":"<p>Welche Sequenz haben Sie als natürlicher empfunden?</p>","button_pressed":"0","test_part":"response","test_stimulus":{"position":0,"left":"bvh/pass-bottle-training2-lines.txt","right":"bvh/vr_prediction_models/model(vcgpdm)-dataset(pass-bottle)-mode(ELBO)-parts(1)-dyn(25)-lvm(35)-hold(2)/final-lines.txt","att_check":false},"trial_type":"html-button-response","trial_index":66,"time_elapsed":178274,"internal_node_id":"0.0-8.0-3.14","subject":"lynundkl3z6g33s","sona":"THNS"},{"rt":948,"stimulus":"<p>Bereit?</p>","button_pressed":"0","trial_type":"html-button-response","trial_index":67,"time_elapsed":179226,"internal_node_id":"0.0-8.0-0.15","subject":"lynundkl3z6g33s","sona":"THNS"},{"rt":null,"stimulus":"<div style=\"font-size:60px;\">+</div>","key_press":null,"trial_type":"html-keyboard-response","trial_index":68,"time_elapsed":181261,"internal_node_id":"0.0-8.0-1.15","subject":"lynundkl3z6g33s","sona":"THNS"},{"trial_type":"turing-test","trial_index":69,"time_elapsed":184801,"internal_node_id":"0.0-8.0-2.15","subject":"lynundkl3z6g33s","sona":"THNS"},{"rt":750,"stimulus":"<p>Welche Sequenz haben Sie als natürlicher empfunden?</p>","button_pressed":"0","test_part":"response","test_stimulus":{"position":1,"left":"bvh/vr_prediction_models/model(tmp)-dataset(pass-bottle-hold)-numprim(12)-hold(0)/final-lines.txt","right":"bvh/pass-bottle-hold-training0-lines.txt","att_check":false},"trial_type":"html-button-response","trial_index":70,"time_elapsed":185555,"internal_node_id":"0.0-8.0-3.15","subject":"lynundkl3z6g33s","sona":"THNS"},{"rt":4855,"stimulus":"<p>Bereit?</p>","button_pressed":"0","trial_type":"html-button-response","trial_index":71,"time_elapsed":190415,"internal_node_id":"0.0-8.0-0.16","subject":"lynundkl3z6g33s","sona":"THNS"},{"rt":null,"stimulus":"<div style=\"font-size:60px;\">+</div>","key_press":null,"trial_type":"html-keyboard-response","trial_index":72,"time_elapsed":192441,"internal_node_id":"0.0-8.0-1.16","subject":"lynundkl3z6g33s","sona":"THNS"},{"trial_type":"turing-test","trial_index":73,"time_elapsed":198076,"internal_node_id":"0.0-8.0-2.16","subject":"lynundkl3z6g33s","sona":"THNS"},{"rt":842,"stimulus":"<p>Welche Sequenz haben Sie als natürlicher empfunden?</p>","button_pressed":"0","test_part":"response","test_stimulus":{"position":0,"left":"bvh/return-bottle-training0-lines.txt","right":"bvh/vr_prediction_models/model(vcgpdm)-dataset(return-bottle)-mode(ELBO)-parts(3)-dyn(10)-lvm(25)-hold(0)/final-lines.txt","att_check":false},"trial_type":"html-button-response","trial_index":74,"time_elapsed":198922,"internal_node_id":"0.0-8.0-3.16","subject":"lynundkl3z6g33s","sona":"THNS"},{"rt":3047,"stimulus":"<p>Bereit?</p>","button_pressed":"0","trial_type":"html-button-response","trial_index":75,"time_elapsed":201973,"internal_node_id":"0.0-8.0-0.17","subject":"lynundkl3z6g33s","sona":"THNS"},{"rt":null,"stimulus":"<div style=\"font-size:60px;\">+</div>","key_press":null,"trial_type":"html-keyboard-response","trial_index":76,"time_elapsed":204005,"internal_node_id":"0.0-8.0-1.17","subject":"lynundkl3z6g33s","sona":"THNS"},{"trial_type":"turing-test","trial_index":77,"time_elapsed":210899,"internal_node_id":"0.0-8.0-2.17","subject":"lynundkl3z6g33s","sona":"THNS"},{"rt":1220,"stimulus":"<p>Welche Sequenz haben Sie als natürlicher empfunden?</p>","button_pressed":"1","test_part":"response","test_stimulus":{"position":1,"left":"bvh/vr_prediction_models/model(tmp)-dataset(pass-bottle)-numprim(4)-hold(0)/final-lines.txt","right":"bvh/pass-bottle-training0-lines.txt","att_check":false},"trial_type":"html-button-response","trial_index":78,"time_elapsed":212124,"internal_node_id":"0.0-8.0-3.17","subject":"lynundkl3z6g33s","sona":"THNS"},{"rt":11903,"stimulus":"<p>Bereit?</p>","button_pressed":"0","trial_type":"html-button-response","trial_index":79,"time_elapsed":224031,"internal_node_id":"0.0-8.0-0.18","subject":"lynundkl3z6g33s","sona":"THNS"},{"rt":null,"stimulus":"<div style=\"font-size:60px;\">+</div>","key_press":null,"trial_type":"html-keyboard-response","trial_index":80,"time_elapsed":226059,"internal_node_id":"0.0-8.0-1.18","subject":"lynundkl3z6g33s","sona":"THNS"},{"trial_type":"turing-test","trial_index":81,"time_elapsed":229828,"internal_node_id":"0.0-8.0-2.18","subject":"lynundkl3z6g33s","sona":"THNS"},{"rt":840,"stimulus":"<p>Welche Sequenz haben Sie als natürlicher empfunden?</p>","button_pressed":"0","test_part":"response","test_stimulus":{"position":1,"left":"bvh/vr_prediction_models/model(tmp)-dataset(pass-bottle-hold)-numprim(3)-hold(3)/final-lines.txt","right":"bvh/pass-bottle-hold-training3-lines.txt","att_check":false},"trial_type":"html-button-response","trial_index":82,"time_elapsed":230672,"internal_node_id":"0.0-8.0-3.18","subject":"lynundkl3z6g33s","sona":"THNS"},{"rt":812,"stimulus":"<p>Bereit?</p>","button_pressed":"0","trial_type":"html-button-response","trial_index":83,"time_elapsed":231487,"internal_node_id":"0.0-8.0-0.19","subject":"lynundkl3z6g33s","sona":"THNS"},{"rt":null,"stimulus":"<div style=\"font-size:60px;\">+</div>","key_press":null,"trial_type":"html-keyboard-response","trial_index":84,"time_elapsed":233507,"internal_node_id":"0.0-8.0-1.19","subject":"lynundkl3z6g33s","sona":"THNS"},{"trial_type":"turing-test","trial_index":85,"time_elapsed":239776,"internal_node_id":"0.0-8.0-2.19","subject":"lynundkl3z6g33s","sona":"THNS"},{"rt":834,"stimulus":"<p>Welche Sequenz haben Sie als natürlicher empfunden?</p>","button_pressed":"1","test_part":"response","test_stimulus":{"position":1,"left":"bvh/vr_prediction_models/model(tmp)-dataset(pass-bottle)-numprim(4)-hold(2)/final-lines.txt","right":"bvh/pass-bottle-training2-lines.txt","att_check":false},"trial_type":"html-button-response","trial_index":86,"time_elapsed":240614,"internal_node_id":"0.0-8.0-3.19","subject":"lynundkl3z6g33s","sona":"THNS"},{"rt":735,"stimulus":"<p>Bereit?</p>","button_pressed":"0","trial_type":"html-button-response","trial_index":87,"time_elapsed":241353,"internal_node_id":"0.0-8.0-0.20","subject":"lynundkl3z6g33s","sona":"THNS"},{"rt":null,"stimulus":"<div style=\"font-size:60px;\">+</div>","key_press":null,"trial_type":"html-keyboard-response","trial_index":88,"time_elapsed":243372,"internal_node_id":"0.0-8.0-1.20","subject":"lynundkl3z6g33s","sona":"THNS"},{"trial_type":"turing-test","trial_index":89,"time_elapsed":249061,"internal_node_id":"0.0-8.0-2.20","subject":"lynundkl3z6g33s","sona":"THNS"},{"rt":991,"stimulus":"<p>Welche Sequenz haben Sie als natürlicher empfunden?</p>","button_pressed":"0","test_part":"response","test_stimulus":{"position":0,"left":"bvh/pass-bottle-training1-lines.txt","right":"bvh/vr_prediction_models/model(dmp)-dataset(pass-bottle)-npsi(50)-hold(1)/final-lines.txt","att_check":false},"trial_type":"html-button-response","trial_index":90,"time_elapsed":250056,"internal_node_id":"0.0-8.0-3.20","subject":"lynundkl3z6g33s","sona":"THNS"},{"rt":1073,"stimulus":"<p>Bereit?</p>","button_pressed":"0","trial_type":"html-button-response","trial_index":91,"time_elapsed":251134,"internal_node_id":"0.0-8.0-0.21","subject":"lynundkl3z6g33s","sona":"THNS"},{"rt":null,"stimulus":"<div style=\"font-size:60px;\">+</div>","key_press":null,"trial_type":"html-keyboard-response","trial_index":92,"time_elapsed":253172,"internal_node_id":"0.0-8.0-1.21","subject":"lynundkl3z6g33s","sona":"THNS"},{"trial_type":"turing-test","trial_index":93,"time_elapsed":260212,"internal_node_id":"0.0-8.0-2.21","subject":"lynundkl3z6g33s","sona":"THNS"},{"rt":685,"stimulus":"<p>Welche Sequenz haben Sie als natürlicher empfunden?</p>","button_pressed":"0","test_part":"response","test_stimulus":{"position":0,"left":"bvh/pass-bottle-training0-lines.txt","right":"bvh/vr_prediction_models/model(vcgpdm)-dataset(pass-bottle)-mode(ELBO)-parts(3)-dyn(20)-lvm(35)-hold(0)/final-lines.txt","att_check":false},"trial_type":"html-button-response","trial_index":94,"time_elapsed":260902,"internal_node_id":"0.0-8.0-3.21","subject":"lynundkl3z6g33s","sona":"THNS"},{"rt":2458,"stimulus":"<p>Bereit?</p>","button_pressed":"0","trial_type":"html-button-response","trial_index":95,"time_elapsed":263366,"internal_node_id":"0.0-8.0-0.22","subject":"lynundkl3z6g33s","sona":"THNS"},{"rt":null,"stimulus":"<div style=\"font-size:60px;\">+</div>","key_press":null,"trial_type":"html-keyboard-response","trial_index":96,"time_elapsed":265392,"internal_node_id":"0.0-8.0-1.22","subject":"lynundkl3z6g33s","sona":"THNS"},{"trial_type":"turing-test","trial_index":97,"time_elapsed":271853,"internal_node_id":"0.0-8.0-2.22","subject":"lynundkl3z6g33s","sona":"THNS"},{"rt":1013,"stimulus":"<p>Welche Sequenz haben Sie als natürlicher empfunden?</p>","button_pressed":"1","test_part":"response","test_stimulus":{"position":1,"left":"bvh/vr_prediction_models/model(vcgpdm)-dataset(pass-bottle)-mode(ELBO)-parts(3)-dyn(25)-lvm(30)-hold(2)/final-lines.txt","right":"bvh/pass-bottle-training2-lines.txt","att_check":false},"trial_type":"html-button-response","trial_index":98,"time_elapsed":272870,"internal_node_id":"0.0-8.0-3.22","subject":"lynundkl3z6g33s","sona":"THNS"},{"rt":990,"stimulus":"<p>Bereit?</p>","button_pressed":"0","trial_type":"html-button-response","trial_index":99,"time_elapsed":273865,"internal_node_id":"0.0-8.0-0.23","subject":"lynundkl3z6g33s","sona":"THNS"},{"rt":null,"stimulus":"<div style=\"font-size:60px;\">+</div>","key_press":null,"trial_type":"html-keyboard-response","trial_index":100,"time_elapsed":275893,"internal_node_id":"0.0-8.0-1.23","subject":"lynundkl3z6g33s","sona":"THNS"},{"trial_type":"turing-test","trial_index":101,"time_elapsed":282175,"internal_node_id":"0.0-8.0-2.23","subject":"lynundkl3z6g33s","sona":"THNS"},{"rt":763,"stimulus":"<p>Welche Sequenz haben Sie als natürlicher empfunden?</p>","button_pressed":"1","test_part":"response","test_stimulus":{"position":1,"left":"bvh/vr_prediction_models/model(dmp)-dataset(pass-bottle)-npsi(60)-hold(2)/final-lines.txt","right":"bvh/pass-bottle-training2-lines.txt","att_check":false},"trial_type":"html-button-response","trial_index":102,"time_elapsed":282943,"internal_node_id":"0.0-8.0-3.23","subject":"lynundkl3z6g33s","sona":"THNS"},{"rt":968,"stimulus":"<p>Bereit?</p>","button_pressed":"0","trial_type":"html-button-response","trial_index":103,"time_elapsed":283917,"internal_node_id":"0.0-8.0-0.24","subject":"lynundkl3z6g33s","sona":"THNS"},{"rt":null,"stimulus":"<div style=\"font-size:60px;\">+</div>","key_press":null,"trial_type":"html-keyboard-response","trial_index":104,"time_elapsed":285935,"internal_node_id":"0.0-8.0-1.24","subject":"lynundkl3z6g33s","sona":"THNS"},{"trial_type":"turing-test","trial_index":105,"time_elapsed":292994,"internal_node_id":"0.0-8.0-2.24","subject":"lynundkl3z6g33s","sona":"THNS"},{"rt":1120,"stimulus":"<p>Welche Sequenz haben Sie als natürlicher empfunden?</p>","button_pressed":"1","test_part":"response","test_stimulus":{"position":1,"left":"bvh/vr_prediction_models/model(vcgpdm)-dataset(pass-bottle)-mode(ELBO)-parts(3)-dyn(30)-lvm(15)-hold(0)/final-lines.txt","right":"bvh/pass-bottle-training0-lines.txt","att_check":false},"trial_type":"html-button-response","trial_index":106,"time_elapsed":294119,"internal_node_id":"0.0-8.0-3.24","subject":"lynundkl3z6g33s","sona":"THNS"},{"rt":1161,"stimulus":"<p>Bereit?</p>","button_pressed":"0","trial_type":"html-button-response","trial_index":107,"time_elapsed":295286,"internal_node_id":"0.0-8.0-0.25","subject":"lynundkl3z6g33s","sona":"THNS"},{"rt":null,"stimulus":"<div style=\"font-size:60px;\">+</div>","key_press":null,"trial_type":"html-keyboard-response","trial_index":108,"time_elapsed":297311,"internal_node_id":"0.0-8.0-1.25","subject":"lynundkl3z6g33s","sona":"THNS"},{"trial_type":"turing-test","trial_index":109,"time_elapsed":302855,"internal_node_id":"0.0-8.0-2.25","subject":"lynundkl3z6g33s","sona":"THNS"},{"rt":454,"stimulus":"<p>Welche Sequenz haben Sie als natürlicher empfunden?</p>","button_pressed":"1","test_part":"response","test_stimulus":{"position":1,"left":"bvh/vr_prediction_models/model(vcgpdm)-dataset(return-bottle-hold)-mode(ELBO)-parts(3)-dyn(10)-lvm(25)-hold(0)/final-lines.txt","right":"bvh/return-bottle-hold-training0-lines.txt","att_check":false},"trial_type":"html-button-response","trial_index":110,"time_elapsed":303314,"internal_node_id":"0.0-8.0-3.25","subject":"lynundkl3z6g33s","sona":"THNS"},{"rt":774,"stimulus":"<p>Bereit?</p>","button_pressed":"0","trial_type":"html-button-response","trial_index":111,"time_elapsed":304093,"internal_node_id":"0.0-8.0-0.26","subject":"lynundkl3z6g33s","sona":"THNS"},{"rt":null,"stimulus":"<div style=\"font-size:60px;\">+</div>","key_press":null,"trial_type":"html-keyboard-response","trial_index":112,"time_elapsed":306109,"internal_node_id":"0.0-8.0-1.26","subject":"lynundkl3z6g33s","sona":"THNS"},{"trial_type":"turing-test","trial_index":113,"time_elapsed":309845,"internal_node_id":"0.0-8.0-2.26","subject":"lynundkl3z6g33s","sona":"THNS"},{"rt":916,"stimulus":"<p>Welche Sequenz haben Sie als natürlicher empfunden?</p>","button_pressed":"0","test_part":"response","test_stimulus":{"position":0,"left":"bvh/return-bottle-hold-training2-lines.txt","right":"bvh/vr_prediction_models/model(dmp)-dataset(return-bottle-hold)-npsi(70)-hold(2)/final-lines.txt","att_check":true},"trial_type":"html-button-response","trial_index":114,"time_elapsed":310765,"internal_node_id":"0.0-8.0-3.26","subject":"lynundkl3z6g33s","sona":"THNS"},{"rt":920,"stimulus":"<p>Bereit?</p>","button_pressed":"0","trial_type":"html-button-response","trial_index":115,"time_elapsed":311689,"internal_node_id":"0.0-8.0-0.27","subject":"lynundkl3z6g33s","sona":"THNS"},{"rt":null,"stimulus":"<div style=\"font-size:60px;\">+</div>","key_press":null,"trial_type":"html-keyboard-response","trial_index":116,"time_elapsed":313715,"internal_node_id":"0.0-8.0-1.27","subject":"lynundkl3z6g33s","sona":"THNS"},{"trial_type":"turing-test","trial_index":117,"time_elapsed":319987,"internal_node_id":"0.0-8.0-2.27","subject":"lynundkl3z6g33s","sona":"THNS"},{"rt":856,"stimulus":"<p>Welche Sequenz haben Sie als natürlicher empfunden?</p>","button_pressed":"1","test_part":"response","test_stimulus":{"position":1,"left":"bvh/vr_prediction_models/model(dmp)-dataset(pass-bottle)-npsi(100)-hold(2)/final-lines.txt","right":"bvh/pass-bottle-training2-lines.txt","att_check":true},"trial_type":"html-button-response","trial_index":118,"time_elapsed":320849,"internal_node_id":"0.0-8.0-3.27","subject":"lynundkl3z6g33s","sona":"THNS"},{"rt":851,"stimulus":"<p>Bereit?</p>","button_pressed":"0","trial_type":"html-button-response","trial_index":119,"time_elapsed":321704,"internal_node_id":"0.0-8.0-0.28","subject":"lynundkl3z6g33s","sona":"THNS"},{"rt":null,"stimulus":"<div style=\"font-size:60px;\">+</div>","key_press":null,"trial_type":"html-keyboard-response","trial_index":120,"time_elapsed":323727,"internal_node_id":"0.0-8.0-1.28","subject":"lynundkl3z6g33s","sona":"THNS"},{"trial_type":"turing-test","trial_index":121,"time_elapsed":329719,"internal_node_id":"0.0-8.0-2.28","subject":"lynundkl3z6g33s","sona":"THNS"},{"rt":707,"stimulus":"<p>Welche Sequenz haben Sie als natürlicher empfunden?</p>","button_pressed":"0","test_part":"response","test_stimulus":{"position":0,"left":"bvh/pass-bottle-training3-lines.txt","right":"bvh/vr_prediction_models/model(dmp)-dataset(pass-bottle)-npsi(20)-hold(3)/final-lines.txt","att_check":false},"trial_type":"html-button-response","trial_index":122,"time_elapsed":330431,"internal_node_id":"0.0-8.0-3.28","subject":"lynundkl3z6g33s","sona":"THNS"},{"rt":1715,"stimulus":"<p>Bereit?</p>","button_pressed":"0","trial_type":"html-button-response","trial_index":123,"time_elapsed":332150,"internal_node_id":"0.0-8.0-0.29","subject":"lynundkl3z6g33s","sona":"THNS"},{"rt":null,"stimulus":"<div style=\"font-size:60px;\">+</div>","key_press":null,"trial_type":"html-keyboard-response","trial_index":124,"time_elapsed":334168,"internal_node_id":"0.0-8.0-1.29","subject":"lynundkl3z6g33s","sona":"THNS"},{"trial_type":"turing-test","trial_index":125,"time_elapsed":340504,"internal_node_id":"0.0-8.0-2.29","subject":"lynundkl3z6g33s","sona":"THNS"},{"rt":665,"stimulus":"<p>Welche Sequenz haben Sie als natürlicher empfunden?</p>","button_pressed":"0","test_part":"response","test_stimulus":{"position":0,"left":"bvh/return-bottle-training1-lines.txt","right":"bvh/vr_prediction_models/model(vcgpdm)-dataset(return-bottle)-mode(ELBO)-parts(3)-dyn(30)-lvm(15)-hold(1)/final-lines.txt","att_check":false},"trial_type":"html-button-response","trial_index":126,"time_elapsed":341174,"internal_node_id":"0.0-8.0-3.29","subject":"lynundkl3z6g33s","sona":"THNS"},{"rt":857,"stimulus":"<p>Bereit?</p>","button_pressed":"0","trial_type":"html-button-response","trial_index":127,"time_elapsed":342037,"internal_node_id":"0.0-8.0-0.30","subject":"lynundkl3z6g33s","sona":"THNS"},{"rt":null,"stimulus":"<div style=\"font-size:60px;\">+</div>","key_press":null,"trial_type":"html-keyboard-response","trial_index":128,"time_elapsed":344064,"internal_node_id":"0.0-8.0-1.30","subject":"lynundkl3z6g33s","sona":"THNS"},{"trial_type":"turing-test","trial_index":129,"time_elapsed":347583,"internal_node_id":"0.0-8.0-2.30","subject":"lynundkl3z6g33s","sona":"THNS"},{"rt":994,"stimulus":"<p>Welche Sequenz haben Sie als natürlicher empfunden?</p>","button_pressed":"0","test_part":"response","test_stimulus":{"position":0,"left":"bvh/pass-bottle-hold-training0-lines.txt","right":"bvh/vr_prediction_models/model(dmp)-dataset(pass-bottle-hold)-npsi(70)-hold(0)/final-lines.txt","att_check":false},"trial_type":"html-button-response","trial_index":130,"time_elapsed":348582,"internal_node_id":"0.0-8.0-3.30","subject":"lynundkl3z6g33s","sona":"THNS"},{"rt":1039,"stimulus":"<p>Bereit?</p>","button_pressed":"0","trial_type":"html-button-response","trial_index":131,"time_elapsed":349625,"internal_node_id":"0.0-8.0-0.31","subject":"lynundkl3z6g33s","sona":"THNS"},{"rt":null,"stimulus":"<div style=\"font-size:60px;\">+</div>","key_press":null,"trial_type":"html-keyboard-response","trial_index":132,"time_elapsed":351651,"internal_node_id":"0.0-8.0-1.31","subject":"lynundkl3z6g33s","sona":"THNS"},{"trial_type":"turing-test","trial_index":133,"time_elapsed":358070,"internal_node_id":"0.0-8.0-2.31","subject":"lynundkl3z6g33s","sona":"THNS"},{"rt":692,"stimulus":"<p>Welche Sequenz haben Sie als natürlicher empfunden?</p>","button_pressed":"1","test_part":"response","test_stimulus":{"position":1,"left":"bvh/vr_prediction_models/model(vcgpdm)-dataset(pass-bottle)-mode(ELBO)-parts(3)-dyn(25)-lvm(15)-hold(2)/final-lines.txt","right":"bvh/pass-bottle-training2-lines.txt","att_check":false},"trial_type":"html-button-response","trial_index":134,"time_elapsed":358766,"internal_node_id":"0.0-8.0-3.31","subject":"lynundkl3z6g33s","sona":"THNS"},{"rt":886,"stimulus":"<p>Bereit?</p>","button_pressed":"0","trial_type":"html-button-response","trial_index":135,"time_elapsed":359658,"internal_node_id":"0.0-8.0-0.32","subject":"lynundkl3z6g33s","sona":"THNS"},{"rt":null,"stimulus":"<div style=\"font-size:60px;\">+</div>","key_press":null,"trial_type":"html-keyboard-response","trial_index":136,"time_elapsed":361680,"internal_node_id":"0.0-8.0-1.32","subject":"lynundkl3z6g33s","sona":"THNS"},{"trial_type":"turing-test","trial_index":137,"time_elapsed":367252,"internal_node_id":"0.0-8.0-2.32","subject":"lynundkl3z6g33s","sona":"THNS"},{"rt":532,"stimulus":"<p>Welche Sequenz haben Sie als natürlicher empfunden?</p>","button_pressed":"0","test_part":"response","test_stimulus":{"position":0,"left":"bvh/return-bottle-training0-lines.txt","right":"bvh/vr_prediction_models/model(dmp)-dataset(return-bottle)-npsi(40)-hold(0)/final-lines.txt","att_check":true},"trial_type":"html-button-response","trial_index":138,"time_elapsed":367791,"internal_node_id":"0.0-8.0-3.32","subject":"lynundkl3z6g33s","sona":"THNS"},{"rt":746,"stimulus":"<p>Bereit?</p>","button_pressed":"0","trial_type":"html-button-response","trial_index":139,"time_elapsed":368543,"internal_node_id":"0.0-8.0-0.33","subject":"lynundkl3z6g33s","sona":"THNS"},{"rt":null,"stimulus":"<div style=\"font-size:60px;\">+</div>","key_press":null,"trial_type":"html-keyboard-response","trial_index":140,"time_elapsed":370572,"internal_node_id":"0.0-8.0-1.33","subject":"lynundkl3z6g33s","sona":"THNS"},{"trial_type":"turing-test","trial_index":141,"time_elapsed":377717,"internal_node_id":"0.0-8.0-2.33","subject":"lynundkl3z6g33s","sona":"THNS"},{"rt":791,"stimulus":"<p>Welche Sequenz haben Sie als natürlicher empfunden?</p>","button_pressed":"1","test_part":"response","test_stimulus":{"position":1,"left":"bvh/vr_prediction_models/model(vcgpdm)-dataset(pass-bottle)-mode(ELBO)-parts(1)-dyn(10)-lvm(5)-hold(0)/final-lines.txt","right":"bvh/pass-bottle-training0-lines.txt","att_check":false},"trial_type":"html-button-response","trial_index":142,"time_elapsed":378513,"internal_node_id":"0.0-8.0-3.33","subject":"lynundkl3z6g33s","sona":"THNS"},{"rt":942,"stimulus":"<p>Bereit?</p>","button_pressed":"0","trial_type":"html-button-response","trial_index":143,"time_elapsed":379459,"internal_node_id":"0.0-8.0-0.34","subject":"lynundkl3z6g33s","sona":"THNS"},{"rt":null,"stimulus":"<div style=\"font-size:60px;\">+</div>","key_press":null,"trial_type":"html-keyboard-response","trial_index":144,"time_elapsed":381488,"internal_node_id":"0.0-8.0-1.34","subject":"lynundkl3z6g33s","sona":"THNS"},{"trial_type":"turing-test","trial_index":145,"time_elapsed":387802,"internal_node_id":"0.0-8.0-2.34","subject":"lynundkl3z6g33s","sona":"THNS"},{"rt":717,"stimulus":"<p>Welche Sequenz haben Sie als natürlicher empfunden?</p>","button_pressed":"1","test_part":"response","test_stimulus":{"position":1,"left":"bvh/vr_prediction_models/model(dmp)-dataset(pass-bottle)-npsi(90)-hold(2)/final-lines.txt","right":"bvh/pass-bottle-training2-lines.txt","att_check":false},"trial_type":"html-button-response","trial_index":146,"time_elapsed":388526,"internal_node_id":"0.0-8.0-3.34","subject":"lynundkl3z6g33s","sona":"THNS"},{"rt":823,"stimulus":"<p>Bereit?</p>","button_pressed":"0","trial_type":"html-button-response","trial_index":147,"time_elapsed":389353,"internal_node_id":"0.0-8.0-0.35","subject":"lynundkl3z6g33s","sona":"THNS"},{"rt":null,"stimulus":"<div style=\"font-size:60px;\">+</div>","key_press":null,"trial_type":"html-keyboard-response","trial_index":148,"time_elapsed":391392,"internal_node_id":"0.0-8.0-1.35","subject":"lynundkl3z6g33s","sona":"THNS"},{"trial_type":"turing-test","trial_index":149,"time_elapsed":395164,"internal_node_id":"0.0-8.0-2.35","subject":"lynundkl3z6g33s","sona":"THNS"},{"rt":572,"stimulus":"<p>Welche Sequenz haben Sie als natürlicher empfunden?</p>","button_pressed":"1","test_part":"response","test_stimulus":{"position":1,"left":"bvh/vr_prediction_models/model(vcgpdm)-dataset(pass-bottle-hold)-mode(MAP)-parts(1)-hold(0)/final-lines.txt","right":"bvh/pass-bottle-hold-training0-lines.txt","att_check":false},"trial_type":"html-button-response","trial_index":150,"time_elapsed":395740,"internal_node_id":"0.0-8.0-3.35","subject":"lynundkl3z6g33s","sona":"THNS"},{"rt":775,"stimulus":"<p>Bereit?</p>","button_pressed":"0","trial_type":"html-button-response","trial_index":151,"time_elapsed":396520,"internal_node_id":"0.0-8.0-0.36","subject":"lynundkl3z6g33s","sona":"THNS"},{"rt":null,"stimulus":"<div style=\"font-size:60px;\">+</div>","key_press":null,"trial_type":"html-keyboard-response","trial_index":152,"time_elapsed":398543,"internal_node_id":"0.0-8.0-1.36","subject":"lynundkl3z6g33s","sona":"THNS"},{"trial_type":"turing-test","trial_index":153,"time_elapsed":405033,"internal_node_id":"0.0-8.0-2.36","subject":"lynundkl3z6g33s","sona":"THNS"},{"rt":590,"stimulus":"<p>Welche Sequenz haben Sie als natürlicher empfunden?</p>","button_pressed":"0","test_part":"response","test_stimulus":{"position":1,"left":"bvh/vr_prediction_models/model(vcgpdm)-dataset(pass-bottle)-mode(ELBO)-parts(1)-dyn(20)-lvm(5)-hold(4)/final-lines.txt","right":"bvh/pass-bottle-training4-lines.txt","att_check":false},"trial_type":"html-button-response","trial_index":154,"time_elapsed":405629,"internal_node_id":"0.0-8.0-3.36","subject":"lynundkl3z6g33s","sona":"THNS"},{"rt":1540,"stimulus":"<p>Bereit?</p>","button_pressed":"0","trial_type":"html-button-response","trial_index":155,"time_elapsed":407175,"internal_node_id":"0.0-8.0-0.37","subject":"lynundkl3z6g33s","sona":"THNS"},{"rt":null,"stimulus":"<div style=\"font-size:60px;\">+</div>","key_press":null,"trial_type":"html-keyboard-response","trial_index":156,"time_elapsed":409213,"internal_node_id":"0.0-8.0-1.37","subject":"lynundkl3z6g33s","sona":"THNS"},{"trial_type":"turing-test","trial_index":157,"time_elapsed":416377,"internal_node_id":"0.0-8.0-2.37","subject":"lynundkl3z6g33s","sona":"THNS"},{"rt":646,"stimulus":"<p>Welche Sequenz haben Sie als natürlicher empfunden?</p>","button_pressed":"0","test_part":"response","test_stimulus":{"position":0,"left":"bvh/return-bottle-training2-lines.txt","right":"bvh/vr_prediction_models/model(vcgpdm)-dataset(return-bottle)-mode(ELBO)-parts(3)-dyn(20)-lvm(15)-hold(2)/final-lines.txt","att_check":false},"trial_type":"html-button-response","trial_index":158,"time_elapsed":417029,"internal_node_id":"0.0-8.0-3.37","subject":"lynundkl3z6g33s","sona":"THNS"},{"rt":726,"stimulus":"<p>Bereit?</p>","button_pressed":"0","trial_type":"html-button-response","trial_index":159,"time_elapsed":417760,"internal_node_id":"0.0-8.0-0.38","subject":"lynundkl3z6g33s","sona":"THNS"},{"rt":null,"stimulus":"<div style=\"font-size:60px;\">+</div>","key_press":null,"trial_type":"html-keyboard-response","trial_index":160,"time_elapsed":419798,"internal_node_id":"0.0-8.0-1.38","subject":"lynundkl3z6g33s","sona":"THNS"},{"trial_type":"turing-test","trial_index":161,"time_elapsed":425842,"internal_node_id":"0.0-8.0-2.38","subject":"lynundkl3z6g33s","sona":"THNS"},{"rt":723,"stimulus":"<p>Welche Sequenz haben Sie als natürlicher empfunden?</p>","button_pressed":"1","test_part":"response","test_stimulus":{"position":0,"left":"bvh/return-bottle-training4-lines.txt","right":"bvh/vr_prediction_models/model(tmp)-dataset(return-bottle)-numprim(7)-hold(4)/final-lines.txt","att_check":false},"trial_type":"html-button-response","trial_index":162,"time_elapsed":426569,"internal_node_id":"0.0-8.0-3.38","subject":"lynundkl3z6g33s","sona":"THNS"},{"rt":888,"stimulus":"<p>Bereit?</p>","button_pressed":"0","trial_type":"html-button-response","trial_index":163,"time_elapsed":427461,"internal_node_id":"0.0-8.0-0.39","subject":"lynundkl3z6g33s","sona":"THNS"},{"rt":null,"stimulus":"<div style=\"font-size:60px;\">+</div>","key_press":null,"trial_type":"html-keyboard-response","trial_index":164,"time_elapsed":429494,"internal_node_id":"0.0-8.0-1.39","subject":"lynundkl3z6g33s","sona":"THNS"},{"trial_type":"turing-test","trial_index":165,"time_elapsed":435719,"internal_node_id":"0.0-8.0-2.39","subject":"lynundkl3z6g33s","sona":"THNS"},{"rt":563,"stimulus":"<p>Welche Sequenz haben Sie als natürlicher empfunden?</p>","button_pressed":"1","test_part":"response","test_stimulus":{"position":1,"left":"bvh/vr_prediction_models/model(tmp)-dataset(return-bottle)-numprim(3)-hold(1)/final-lines.txt","right":"bvh/return-bottle-training1-lines.txt","att_check":false},"trial_type":"html-button-response","trial_index":166,"time_elapsed":436286,"internal_node_id":"0.0-8.0-3.39","subject":"lynundkl3z6g33s","sona":"THNS"},{"rt":756,"stimulus":"<p>Bereit?</p>","button_pressed":"0","trial_type":"html-button-response","trial_index":167,"time_elapsed":437046,"internal_node_id":"0.0-8.0-0.40","subject":"lynundkl3z6g33s","sona":"THNS"},{"rt":null,"stimulus":"<div style=\"font-size:60px;\">+</div>","key_press":null,"trial_type":"html-keyboard-response","trial_index":168,"time_elapsed":439061,"internal_node_id":"0.0-8.0-1.40","subject":"lynundkl3z6g33s","sona":"THNS"},{"trial_type":"turing-test","trial_index":169,"time_elapsed":445273,"internal_node_id":"0.0-8.0-2.40","subject":"lynundkl3z6g33s","sona":"THNS"},{"rt":993,"stimulus":"<p>Welche Sequenz haben Sie als natürlicher empfunden?</p>","button_pressed":"1","test_part":"response","test_stimulus":{"position":1,"left":"bvh/vr_prediction_models/model(vcgpdm)-dataset(return-bottle)-mode(ELBO)-parts(3)-dyn(30)-lvm(15)-hold(4)/final-lines.txt","right":"bvh/return-bottle-training4-lines.txt","att_check":false},"trial_type":"html-button-response","trial_index":170,"time_elapsed":446271,"internal_node_id":"0.0-8.0-3.40","subject":"lynundkl3z6g33s","sona":"THNS"},{"rt":4730,"stimulus":"<p>Bereit?</p>","button_pressed":"0","trial_type":"html-button-response","trial_index":171,"time_elapsed":451006,"internal_node_id":"0.0-8.0-0.41","subject":"lynundkl3z6g33s","sona":"THNS"},{"rt":null,"stimulus":"<div style=\"font-size:60px;\">+</div>","key_press":null,"trial_type":"html-keyboard-response","trial_index":172,"time_elapsed":453031,"internal_node_id":"0.0-8.0-1.41","subject":"lynundkl3z6g33s","sona":"THNS"},{"trial_type":"turing-test","trial_index":173,"time_elapsed":459163,"internal_node_id":"0.0-8.0-2.41","subject":"lynundkl3z6g33s","sona":"THNS"},{"rt":842,"stimulus":"<p>Welche Sequenz haben Sie als natürlicher empfunden?</p>","button_pressed":"1","test_part":"response","test_stimulus":{"position":1,"left":"bvh/vr_prediction_models/model(vcgpdm)-dataset(return-bottle)-mode(ELBO)-parts(1)-dyn(20)-lvm(30)-hold(3)/final-lines.txt","right":"bvh/return-bottle-training3-lines.txt","att_check":false},"trial_type":"html-button-response","trial_index":174,"time_elapsed":460010,"internal_node_id":"0.0-8.0-3.41","subject":"lynundkl3z6g33s","sona":"THNS"},{"rt":2120,"stimulus":"<p>Bereit?</p>","button_pressed":"0","trial_type":"html-button-response","trial_index":175,"time_elapsed":462134,"internal_node_id":"0.0-8.0-0.42","subject":"lynundkl3z6g33s","sona":"THNS"},{"rt":null,"stimulus":"<div style=\"font-size:60px;\">+</div>","key_press":null,"trial_type":"html-keyboard-response","trial_index":176,"time_elapsed":464170,"internal_node_id":"0.0-8.0-1.42","subject":"lynundkl3z6g33s","sona":"THNS"},{"trial_type":"turing-test","trial_index":177,"time_elapsed":467824,"internal_node_id":"0.0-8.0-2.42","subject":"lynundkl3z6g33s","sona":"THNS"},{"rt":892,"stimulus":"<p>Welche Sequenz haben Sie als natürlicher empfunden?</p>","button_pressed":"1","test_part":"response","test_stimulus":{"position":1,"left":"bvh/vr_prediction_models/model(vcgpdm)-dataset(return-bottle-hold)-mode(ELBO)-parts(1)-dyn(10)-lvm(5)-hold(1)/final-lines.txt","right":"bvh/return-bottle-hold-training1-lines.txt","att_check":false},"trial_type":"html-button-response","trial_index":178,"time_elapsed":468721,"internal_node_id":"0.0-8.0-3.42","subject":"lynundkl3z6g33s","sona":"THNS"},{"rt":720,"stimulus":"<p>Bereit?</p>","button_pressed":"0","trial_type":"html-button-response","trial_index":179,"time_elapsed":469446,"internal_node_id":"0.0-8.0-0.43","subject":"lynundkl3z6g33s","sona":"THNS"},{"rt":null,"stimulus":"<div style=\"font-size:60px;\">+</div>","key_press":null,"trial_type":"html-keyboard-response","trial_index":180,"time_elapsed":471474,"internal_node_id":"0.0-8.0-1.43","subject":"lynundkl3z6g33s","sona":"THNS"},{"trial_type":"turing-test","trial_index":181,"time_elapsed":477661,"internal_node_id":"0.0-8.0-2.43","subject":"lynundkl3z6g33s","sona":"THNS"},{"rt":873,"stimulus":"<p>Welche Sequenz haben Sie als natürlicher empfunden?</p>","button_pressed":"0","test_part":"response","test_stimulus":{"position":0,"left":"bvh/return-bottle-training3-lines.txt","right":"bvh/vr_prediction_models/model(vcgpdm)-dataset(return-bottle)-mode(ELBO)-parts(1)-dyn(10)-lvm(25)-hold(3)/final-lines.txt","att_check":false},"trial_type":"html-button-response","trial_index":182,"time_elapsed":478539,"internal_node_id":"0.0-8.0-3.43","subject":"lynundkl3z6g33s","sona":"THNS"},{"rt":3698,"stimulus":"<p>Bereit?</p>","button_pressed":"0","trial_type":"html-button-response","trial_index":183,"time_elapsed":482242,"internal_node_id":"0.0-8.0-0.44","subject":"lynundkl3z6g33s","sona":"THNS"},{"rt":null,"stimulus":"<div style=\"font-size:60px;\">+</div>","key_press":null,"trial_type":"html-keyboard-response","trial_index":184,"time_elapsed":484271,"internal_node_id":"0.0-8.0-1.44","subject":"lynundkl3z6g33s","sona":"THNS"},{"trial_type":"turing-test","trial_index":185,"time_elapsed":488169,"internal_node_id":"0.0-8.0-2.44","subject":"lynundkl3z6g33s","sona":"THNS"},{"rt":1004,"stimulus":"<p>Welche Sequenz haben Sie als natürlicher empfunden?</p>","button_pressed":"1","test_part":"response","test_stimulus":{"position":0,"left":"bvh/pass-bottle-hold-training1-lines.txt","right":"bvh/vr_prediction_models/model(vcgpdm)-dataset(pass-bottle-hold)-mode(MAP)-parts(1)-hold(1)/final-lines.txt","att_check":false},"trial_type":"html-button-response","trial_index":186,"time_elapsed":489179,"internal_node_id":"0.0-8.0-3.44","subject":"lynundkl3z6g33s","sona":"THNS"},{"rt":733,"stimulus":"<p>Bereit?</p>","button_pressed":"0","trial_type":"html-button-response","trial_index":187,"time_elapsed":489918,"internal_node_id":"0.0-8.0-0.45","subject":"lynundkl3z6g33s","sona":"THNS"},{"rt":null,"stimulus":"<div style=\"font-size:60px;\">+</div>","key_press":null,"trial_type":"html-keyboard-response","trial_index":188,"time_elapsed":491959,"internal_node_id":"0.0-8.0-1.45","subject":"lynundkl3z6g33s","sona":"THNS"},{"trial_type":"turing-test","trial_index":189,"time_elapsed":497569,"internal_node_id":"0.0-8.0-2.45","subject":"lynundkl3z6g33s","sona":"THNS"},{"rt":556,"stimulus":"<p>Welche Sequenz haben Sie als natürlicher empfunden?</p>","button_pressed":"1","test_part":"response","test_stimulus":{"position":1,"left":"bvh/vr_prediction_models/model(tmp)-dataset(pass-bottle)-numprim(5)-hold(1)/final-lines.txt","right":"bvh/pass-bottle-training1-lines.txt","att_check":false},"trial_type":"html-button-response","trial_index":190,"time_elapsed":498133,"internal_node_id":"0.0-8.0-3.45","subject":"lynundkl3z6g33s","sona":"THNS"},{"rt":635,"stimulus":"<p>Bereit?</p>","button_pressed":"0","trial_type":"html-button-response","trial_index":191,"time_elapsed":498776,"internal_node_id":"0.0-8.0-0.46","subject":"lynundkl3z6g33s","sona":"THNS"},{"rt":null,"stimulus":"<div style=\"font-size:60px;\">+</div>","key_press":null,"trial_type":"html-keyboard-response","trial_index":192,"time_elapsed":500809,"internal_node_id":"0.0-8.0-1.46","subject":"lynundkl3z6g33s","sona":"THNS"},{"trial_type":"turing-test","trial_index":193,"time_elapsed":507495,"internal_node_id":"0.0-8.0-2.46","subject":"lynundkl3z6g33s","sona":"THNS"},{"rt":754,"stimulus":"<p>Welche Sequenz haben Sie als natürlicher empfunden?</p>","button_pressed":"1","test_part":"response","test_stimulus":{"position":1,"left":"bvh/vr_prediction_models/model(vcgpdm)-dataset(return-bottle)-mode(ELBO)-parts(3)-dyn(25)-lvm(30)-hold(4)/final-lines.txt","right":"bvh/return-bottle-training4-lines.txt","att_check":false},"trial_type":"html-button-response","trial_index":194,"time_elapsed":508255,"internal_node_id":"0.0-8.0-3.46","subject":"lynundkl3z6g33s","sona":"THNS"},{"rt":641,"stimulus":"<p>Bereit?</p>","button_pressed":"0","trial_type":"html-button-response","trial_index":195,"time_elapsed":508902,"internal_node_id":"0.0-8.0-0.47","subject":"lynundkl3z6g33s","sona":"THNS"},{"rt":null,"stimulus":"<div style=\"font-size:60px;\">+</div>","key_press":null,"trial_type":"html-keyboard-response","trial_index":196,"time_elapsed":510914,"internal_node_id":"0.0-8.0-1.47","subject":"lynundkl3z6g33s","sona":"THNS"},{"trial_type":"turing-test","trial_index":197,"time_elapsed":517956,"internal_node_id":"0.0-8.0-2.47","subject":"lynundkl3z6g33s","sona":"THNS"},{"rt":1248,"stimulus":"<p>Welche Sequenz haben Sie als natürlicher empfunden?</p>","button_pressed":"1","test_part":"response","test_stimulus":{"position":0,"left":"bvh/pass-bottle-training0-lines.txt","right":"bvh/vr_prediction_models/model(vcgpdm)-dataset(pass-bottle)-mode(ELBO)-parts(3)-dyn(10)-lvm(30)-hold(0)/final-lines.txt","att_check":false},"trial_type":"html-button-response","trial_index":198,"time_elapsed":519209,"internal_node_id":"0.0-8.0-3.47","subject":"lynundkl3z6g33s","sona":"THNS"},{"rt":1335,"stimulus":"<p>Bereit?</p>","button_pressed":"0","trial_type":"html-button-response","trial_index":199,"time_elapsed":520550,"internal_node_id":"0.0-8.0-0.48","subject":"lynundkl3z6g33s","sona":"THNS"},{"rt":null,"stimulus":"<div style=\"font-size:60px;\">+</div>","key_press":null,"trial_type":"html-keyboard-response","trial_index":200,"time_elapsed":522576,"internal_node_id":"0.0-8.0-1.48","subject":"lynundkl3z6g33s","sona":"THNS"},{"trial_type":"turing-test","trial_index":201,"time_elapsed":526126,"internal_node_id":"0.0-8.0-2.48","subject":"lynundkl3z6g33s","sona":"THNS"},{"rt":1326,"stimulus":"<p>Welche Sequenz haben Sie als natürlicher empfunden?</p>","button_pressed":"0","test_part":"response","test_stimulus":{"position":0,"left":"bvh/pass-bottle-hold-training0-lines.txt","right":"bvh/vr_prediction_models/model(dmp)-dataset(pass-bottle-hold)-npsi(60)-hold(0)/final-lines.txt","att_check":false},"trial_type":"html-button-response","trial_index":202,"time_elapsed":527458,"internal_node_id":"0.0-8.0-3.48","subject":"lynundkl3z6g33s","sona":"THNS"},{"rt":753,"stimulus":"<p>Bereit?</p>","button_pressed":"0","trial_type":"html-button-response","trial_index":203,"time_elapsed":528216,"internal_node_id":"0.0-8.0-0.49","subject":"lynundkl3z6g33s","sona":"THNS"},{"rt":null,"stimulus":"<div style=\"font-size:60px;\">+</div>","key_press":null,"trial_type":"html-keyboard-response","trial_index":204,"time_elapsed":530257,"internal_node_id":"0.0-8.0-1.49","subject":"lynundkl3z6g33s","sona":"THNS"},{"trial_type":"turing-test","trial_index":205,"time_elapsed":533772,"internal_node_id":"0.0-8.0-2.49","subject":"lynundkl3z6g33s","sona":"THNS"},{"rt":670,"stimulus":"<p>Welche Sequenz haben Sie als natürlicher empfunden?</p>","button_pressed":"0","test_part":"response","test_stimulus":{"position":0,"left":"bvh/return-bottle-hold-training1-lines.txt","right":"bvh/vr_prediction_models/model(dmp)-dataset(return-bottle-hold)-npsi(90)-hold(1)/final-lines.txt","att_check":false},"trial_type":"html-button-response","trial_index":206,"time_elapsed":534445,"internal_node_id":"0.0-8.0-3.49","subject":"lynundkl3z6g33s","sona":"THNS"},{"rt":1354,"stimulus":"<p>Bereit?</p>","button_pressed":"0","trial_type":"html-button-response","trial_index":207,"time_elapsed":535806,"internal_node_id":"0.0-8.0-0.50","subject":"lynundkl3z6g33s","sona":"THNS"},{"rt":null,"stimulus":"<div style=\"font-size:60px;\">+</div>","key_press":null,"trial_type":"html-keyboard-response","trial_index":208,"time_elapsed":537831,"internal_node_id":"0.0-8.0-1.50","subject":"lynundkl3z6g33s","sona":"THNS"},{"trial_type":"turing-test","trial_index":209,"time_elapsed":541828,"internal_node_id":"0.0-8.0-2.50","subject":"lynundkl3z6g33s","sona":"THNS"},{"rt":600,"stimulus":"<p>Welche Sequenz haben Sie als natürlicher empfunden?</p>","button_pressed":"0","test_part":"response","test_stimulus":{"position":0,"left":"bvh/return-bottle-hold-training4-lines.txt","right":"bvh/vr_prediction_models/model(dmp)-dataset(return-bottle-hold)-npsi(10)-hold(4)/final-lines.txt","att_check":true},"trial_type":"html-button-response","trial_index":210,"time_elapsed":542434,"internal_node_id":"0.0-8.0-3.50","subject":"lynundkl3z6g33s","sona":"THNS"},{"rt":725,"stimulus":"<p>Bereit?</p>","button_pressed":"0","trial_type":"html-button-response","trial_index":211,"time_elapsed":543167,"internal_node_id":"0.0-8.0-0.51","subject":"lynundkl3z6g33s","sona":"THNS"},{"rt":null,"stimulus":"<div style=\"font-size:60px;\">+</div>","key_press":null,"trial_type":"html-keyboard-response","trial_index":212,"time_elapsed":545199,"internal_node_id":"0.0-8.0-1.51","subject":"lynundkl3z6g33s","sona":"THNS"},{"trial_type":"turing-test","trial_index":213,"time_elapsed":551148,"internal_node_id":"0.0-8.0-2.51","subject":"lynundkl3z6g33s","sona":"THNS"},{"rt":643,"stimulus":"<p>Welche Sequenz haben Sie als natürlicher empfunden?</p>","button_pressed":"0","test_part":"response","test_stimulus":{"position":0,"left":"bvh/pass-bottle-training4-lines.txt","right":"bvh/vr_prediction_models/model(tmp)-dataset(pass-bottle)-numprim(8)-hold(4)/final-lines.txt","att_check":false},"trial_type":"html-button-response","trial_index":214,"time_elapsed":551800,"internal_node_id":"0.0-8.0-3.51","subject":"lynundkl3z6g33s","sona":"THNS"},{"rt":827,"stimulus":"<p>Bereit?</p>","button_pressed":"0","trial_type":"html-button-response","trial_index":215,"time_elapsed":552635,"internal_node_id":"0.0-8.0-0.52","subject":"lynundkl3z6g33s","sona":"THNS"},{"rt":null,"stimulus":"<div style=\"font-size:60px;\">+</div>","key_press":null,"trial_type":"html-keyboard-response","trial_index":216,"time_elapsed":554658,"internal_node_id":"0.0-8.0-1.52","subject":"lynundkl3z6g33s","sona":"THNS"},{"trial_type":"turing-test","trial_index":217,"time_elapsed":558742,"internal_node_id":"0.0-8.0-2.52","subject":"lynundkl3z6g33s","sona":"THNS"},{"rt":739,"stimulus":"<p>Welche Sequenz haben Sie als natürlicher empfunden?</p>","button_pressed":"0","test_part":"response","test_stimulus":{"position":1,"left":"bvh/vr_prediction_models/model(vcgpdm)-dataset(pass-bottle-hold)-mode(ELBO)-parts(3)-dyn(25)-lvm(30)-hold(4)/final-lines.txt","right":"bvh/pass-bottle-hold-training4-lines.txt","att_check":false},"trial_type":"html-button-response","trial_index":218,"time_elapsed":559487,"internal_node_id":"0.0-8.0-3.52","subject":"lynundkl3z6g33s","sona":"THNS"},{"rt":724,"stimulus":"<p>Bereit?</p>","button_pressed":"0","trial_type":"html-button-response","trial_index":219,"time_elapsed":560219,"internal_node_id":"0.0-8.0-0.53","subject":"lynundkl3z6g33s","sona":"THNS"},{"rt":null,"stimulus":"<div style=\"font-size:60px;\">+</div>","key_press":null,"trial_type":"html-keyboard-response","trial_index":220,"time_elapsed":562233,"internal_node_id":"0.0-8.0-1.53","subject":"lynundkl3z6g33s","sona":"THNS"},{"trial_type":"turing-test","trial_index":221,"time_elapsed":569502,"internal_node_id":"0.0-8.0-2.53","subject":"lynundkl3z6g33s","sona":"THNS"},{"rt":767,"stimulus":"<p>Welche Sequenz haben Sie als natürlicher empfunden?</p>","button_pressed":"1","test_part":"response","test_stimulus":{"position":1,"left":"bvh/vr_prediction_models/model(dmp)-dataset(pass-bottle)-npsi(60)-hold(0)/final-lines.txt","right":"bvh/pass-bottle-training0-lines.txt","att_check":true},"trial_type":"html-button-response","trial_index":222,"time_elapsed":570275,"internal_node_id":"0.0-8.0-3.53","subject":"lynundkl3z6g33s","sona":"THNS"},{"rt":1844,"stimulus":"<p>Bereit?</p>","button_pressed":"0","trial_type":"html-button-response","trial_index":223,"time_elapsed":572126,"internal_node_id":"0.0-8.0-0.54","subject":"lynundkl3z6g33s","sona":"THNS"},{"rt":null,"stimulus":"<div style=\"font-size:60px;\">+</div>","key_press":null,"trial_type":"html-keyboard-response","trial_index":224,"time_elapsed":574162,"internal_node_id":"0.0-8.0-1.54","subject":"lynundkl3z6g33s","sona":"THNS"},{"trial_type":"turing-test","trial_index":225,"time_elapsed":579749,"internal_node_id":"0.0-8.0-2.54","subject":"lynundkl3z6g33s","sona":"THNS"},{"rt":832,"stimulus":"<p>Welche Sequenz haben Sie als natürlicher empfunden?</p>","button_pressed":"0","test_part":"response","test_stimulus":{"position":0,"left":"bvh/pass-bottle-training1-lines.txt","right":"bvh/vr_prediction_models/model(tmp)-dataset(pass-bottle)-numprim(15)-hold(1)/final-lines.txt","att_check":false},"trial_type":"html-button-response","trial_index":226,"time_elapsed":580586,"internal_node_id":"0.0-8.0-3.54","subject":"lynundkl3z6g33s","sona":"THNS"},{"rt":2728,"stimulus":"<p>Bereit?</p>","button_pressed":"0","trial_type":"html-button-response","trial_index":227,"time_elapsed":583321,"internal_node_id":"0.0-8.0-0.55","subject":"lynundkl3z6g33s","sona":"THNS"},{"rt":null,"stimulus":"<div style=\"font-size:60px;\">+</div>","key_press":null,"trial_type":"html-keyboard-response","trial_index":228,"time_elapsed":585338,"internal_node_id":"0.0-8.0-1.55","subject":"lynundkl3z6g33s","sona":"THNS"},{"trial_type":"turing-test","trial_index":229,"time_elapsed":591162,"internal_node_id":"0.0-8.0-2.55","subject":"lynundkl3z6g33s","sona":"THNS"},{"rt":916,"stimulus":"<p>Welche Sequenz haben Sie als natürlicher empfunden?</p>","button_pressed":"0","test_part":"response","test_stimulus":{"position":0,"left":"bvh/return-bottle-training0-lines.txt","right":"bvh/vr_prediction_models/model(vcgpdm)-dataset(return-bottle)-mode(ELBO)-parts(1)-dyn(30)-lvm(20)-hold(0)/final-lines.txt","att_check":false},"trial_type":"html-button-response","trial_index":230,"time_elapsed":592084,"internal_node_id":"0.0-8.0-3.55","subject":"lynundkl3z6g33s","sona":"THNS"},{"rt":1031,"stimulus":"<p>Bereit?</p>","button_pressed":"0","trial_type":"html-button-response","trial_index":231,"time_elapsed":593121,"internal_node_id":"0.0-8.0-0.56","subject":"lynundkl3z6g33s","sona":"THNS"},{"rt":null,"stimulus":"<div style=\"font-size:60px;\">+</div>","key_press":null,"trial_type":"html-keyboard-response","trial_index":232,"time_elapsed":595149,"internal_node_id":"0.0-8.0-1.56","subject":"lynundkl3z6g33s","sona":"THNS"},{"trial_type":"turing-test","trial_index":233,"time_elapsed":601092,"internal_node_id":"0.0-8.0-2.56","subject":"lynundkl3z6g33s","sona":"THNS"},{"rt":801,"stimulus":"<p>Welche Sequenz haben Sie als natürlicher empfunden?</p>","button_pressed":"0","test_part":"response","test_stimulus":{"position":0,"left":"bvh/pass-bottle-training4-lines.txt","right":"bvh/vr_prediction_models/model(tmp)-dataset(pass-bottle)-numprim(9)-hold(4)/final-lines.txt","att_check":false},"trial_type":"html-button-response","trial_index":234,"time_elapsed":601898,"internal_node_id":"0.0-8.0-3.56","subject":"lynundkl3z6g33s","sona":"THNS"},{"rt":663,"stimulus":"<p>Bereit?</p>","button_pressed":"0","trial_type":"html-button-response","trial_index":235,"time_elapsed":602567,"internal_node_id":"0.0-8.0-0.57","subject":"lynundkl3z6g33s","sona":"THNS"},{"rt":null,"stimulus":"<div style=\"font-size:60px;\">+</div>","key_press":null,"trial_type":"html-keyboard-response","trial_index":236,"time_elapsed":604595,"internal_node_id":"0.0-8.0-1.57","subject":"lynundkl3z6g33s","sona":"THNS"},{"trial_type":"turing-test","trial_index":237,"time_elapsed":608395,"internal_node_id":"0.0-8.0-2.57","subject":"lynundkl3z6g33s","sona":"THNS"},{"rt":713,"stimulus":"<p>Welche Sequenz haben Sie als natürlicher empfunden?</p>","button_pressed":"0","test_part":"response","test_stimulus":{"position":0,"left":"bvh/return-bottle-hold-training3-lines.txt","right":"bvh/vr_prediction_models/model(dmp)-dataset(return-bottle-hold)-npsi(50)-hold(3)/final-lines.txt","att_check":false},"trial_type":"html-button-response","trial_index":238,"time_elapsed":609114,"internal_node_id":"0.0-8.0-3.57","subject":"lynundkl3z6g33s","sona":"THNS"},{"rt":1161,"stimulus":"<p>Bereit?</p>","button_pressed":"0","trial_type":"html-button-response","trial_index":239,"time_elapsed":610280,"internal_node_id":"0.0-8.0-0.58","subject":"lynundkl3z6g33s","sona":"THNS"},{"rt":null,"stimulus":"<div style=\"font-size:60px;\">+</div>","key_press":null,"trial_type":"html-keyboard-response","trial_index":240,"time_elapsed":612305,"internal_node_id":"0.0-8.0-1.58","subject":"lynundkl3z6g33s","sona":"THNS"},{"trial_type":"turing-test","trial_index":241,"time_elapsed":616165,"internal_node_id":"0.0-8.0-2.58","subject":"lynundkl3z6g33s","sona":"THNS"},{"rt":515,"stimulus":"<p>Welche Sequenz haben Sie als natürlicher empfunden?</p>","button_pressed":"0","test_part":"response","test_stimulus":{"position":1,"left":"bvh/vr_prediction_models/model(tmp)-dataset(return-bottle-hold)-numprim(3)-hold(3)/final-lines.txt","right":"bvh/return-bottle-hold-training3-lines.txt","att_check":false},"trial_type":"html-button-response","trial_index":242,"time_elapsed":616685,"internal_node_id":"0.0-8.0-3.58","subject":"lynundkl3z6g33s","sona":"THNS"},{"rt":677,"stimulus":"<p>Bereit?</p>","button_pressed":"0","trial_type":"html-button-response","trial_index":243,"time_elapsed":617369,"internal_node_id":"0.0-8.0-0.59","subject":"lynundkl3z6g33s","sona":"THNS"},{"rt":null,"stimulus":"<div style=\"font-size:60px;\">+</div>","key_press":null,"trial_type":"html-keyboard-response","trial_index":244,"time_elapsed":619395,"internal_node_id":"0.0-8.0-1.59","subject":"lynundkl3z6g33s","sona":"THNS"},{"trial_type":"turing-test","trial_index":245,"time_elapsed":623320,"internal_node_id":"0.0-8.0-2.59","subject":"lynundkl3z6g33s","sona":"THNS"},{"rt":528,"stimulus":"<p>Welche Sequenz haben Sie als natürlicher empfunden?</p>","button_pressed":"0","test_part":"response","test_stimulus":{"position":0,"left":"bvh/pass-bottle-hold-training2-lines.txt","right":"bvh/vr_prediction_models/model(vcgpdm)-dataset(pass-bottle-hold)-mode(ELBO)-parts(3)-dyn(20)-lvm(35)-hold(2)/final-lines.txt","att_check":false},"trial_type":"html-button-response","trial_index":246,"time_elapsed":623854,"internal_node_id":"0.0-8.0-3.59","subject":"lynundkl3z6g33s","sona":"THNS"},{"rt":894,"stimulus":"<p>Bereit?</p>","button_pressed":"0","trial_type":"html-button-response","trial_index":247,"time_elapsed":624754,"internal_node_id":"0.0-8.0-0.60","subject":"lynundkl3z6g33s","sona":"THNS"},{"rt":null,"stimulus":"<div style=\"font-size:60px;\">+</div>","key_press":null,"trial_type":"html-keyboard-response","trial_index":248,"time_elapsed":626780,"internal_node_id":"0.0-8.0-1.60","subject":"lynundkl3z6g33s","sona":"THNS"},{"trial_type":"turing-test","trial_index":249,"time_elapsed":630988,"internal_node_id":"0.0-8.0-2.60","subject":"lynundkl3z6g33s","sona":"THNS"},{"rt":446,"stimulus":"<p>Welche Sequenz haben Sie als natürlicher empfunden?</p>","button_pressed":"0","test_part":"response","test_stimulus":{"position":0,"left":"bvh/pass-bottle-hold-training1-lines.txt","right":"bvh/vr_prediction_models/model(vcgpdm)-dataset(pass-bottle-hold)-mode(ELBO)-parts(1)-dyn(20)-lvm(20)-hold(1)/final-lines.txt","att_check":false},"trial_type":"html-button-response","trial_index":250,"time_elapsed":631440,"internal_node_id":"0.0-8.0-3.60","subject":"lynundkl3z6g33s","sona":"THNS"},{"rt":674,"stimulus":"<p>Bereit?</p>","button_pressed":"0","trial_type":"html-button-response","trial_index":251,"time_elapsed":632121,"internal_node_id":"0.0-8.0-0.61","subject":"lynundkl3z6g33s","sona":"THNS"},{"rt":null,"stimulus":"<div style=\"font-size:60px;\">+</div>","key_press":null,"trial_type":"html-keyboard-response","trial_index":252,"time_elapsed":634148,"internal_node_id":"0.0-8.0-1.61","subject":"lynundkl3z6g33s","sona":"THNS"},{"trial_type":"turing-test","trial_index":253,"time_elapsed":637974,"internal_node_id":"0.0-8.0-2.61","subject":"lynundkl3z6g33s","sona":"THNS"},{"rt":1356,"stimulus":"<p>Welche Sequenz haben Sie als natürlicher empfunden?</p>","button_pressed":"0","test_part":"response","test_stimulus":{"position":0,"left":"bvh/pass-bottle-hold-training3-lines.txt","right":"bvh/vr_prediction_models/model(dmp)-dataset(pass-bottle-hold)-npsi(60)-hold(3)/final-lines.txt","att_check":false},"trial_type":"html-button-response","trial_index":254,"time_elapsed":639335,"internal_node_id":"0.0-8.0-3.61","subject":"lynundkl3z6g33s","sona":"THNS"},{"rt":585,"stimulus":"<p>Bereit?</p>","button_pressed":"0","trial_type":"html-button-response","trial_index":255,"time_elapsed":639928,"internal_node_id":"0.0-8.0-0.62","subject":"lynundkl3z6g33s","sona":"THNS"},{"rt":null,"stimulus":"<div style=\"font-size:60px;\">+</div>","key_press":null,"trial_type":"html-keyboard-response","trial_index":256,"time_elapsed":641944,"internal_node_id":"0.0-8.0-1.62","subject":"lynundkl3z6g33s","sona":"THNS"},{"trial_type":"turing-test","trial_index":257,"time_elapsed":647995,"internal_node_id":"0.0-8.0-2.62","subject":"lynundkl3z6g33s","sona":"THNS"},{"rt":739,"stimulus":"<p>Welche Sequenz haben Sie als natürlicher empfunden?</p>","button_pressed":"1","test_part":"response","test_stimulus":{"position":0,"left":"bvh/return-bottle-training4-lines.txt","right":"bvh/vr_prediction_models/model(tmp)-dataset(return-bottle)-numprim(8)-hold(4)/final-lines.txt","att_check":false},"trial_type":"html-button-response","trial_index":258,"time_elapsed":648742,"internal_node_id":"0.0-8.0-3.62","subject":"lynundkl3z6g33s","sona":"THNS"},{"rt":930,"stimulus":"<p>Bereit?</p>","button_pressed":"0","trial_type":"html-button-response","trial_index":259,"time_elapsed":649679,"internal_node_id":"0.0-8.0-0.63","subject":"lynundkl3z6g33s","sona":"THNS"},{"rt":null,"stimulus":"<div style=\"font-size:60px;\">+</div>","key_press":null,"trial_type":"html-keyboard-response","trial_index":260,"time_elapsed":651698,"internal_node_id":"0.0-8.0-1.63","subject":"lynundkl3z6g33s","sona":"THNS"},{"trial_type":"turing-test","trial_index":261,"time_elapsed":655385,"internal_node_id":"0.0-8.0-2.63","subject":"lynundkl3z6g33s","sona":"THNS"},{"rt":698,"stimulus":"<p>Welche Sequenz haben Sie als natürlicher empfunden?</p>","button_pressed":"0","test_part":"response","test_stimulus":{"position":0,"left":"bvh/pass-bottle-hold-training1-lines.txt","right":"bvh/vr_prediction_models/model(vcgpdm)-dataset(pass-bottle-hold)-mode(ELBO)-parts(1)-dyn(30)-lvm(35)-hold(1)/final-lines.txt","att_check":false},"trial_type":"html-button-response","trial_index":262,"time_elapsed":656089,"internal_node_id":"0.0-8.0-3.63","subject":"lynundkl3z6g33s","sona":"THNS"},{"rt":558,"stimulus":"<p>Bereit?</p>","button_pressed":"0","trial_type":"html-button-response","trial_index":263,"time_elapsed":656655,"internal_node_id":"0.0-8.0-0.64","subject":"lynundkl3z6g33s","sona":"THNS"},{"rt":null,"stimulus":"<div style=\"font-size:60px;\">+</div>","key_press":null,"trial_type":"html-keyboard-response","trial_index":264,"time_elapsed":658674,"internal_node_id":"0.0-8.0-1.64","subject":"lynundkl3z6g33s","sona":"THNS"},{"trial_type":"turing-test","trial_index":265,"time_elapsed":665690,"internal_node_id":"0.0-8.0-2.64","subject":"lynundkl3z6g33s","sona":"THNS"},{"rt":830,"stimulus":"<p>Welche Sequenz haben Sie als natürlicher empfunden?</p>","button_pressed":"1","test_part":"response","test_stimulus":{"position":1,"left":"bvh/vr_prediction_models/model(vcgpdm)-dataset(return-bottle)-mode(ELBO)-parts(1)-dyn(10)-lvm(25)-hold(2)/final-lines.txt","right":"bvh/return-bottle-training2-lines.txt","att_check":false},"trial_type":"html-button-response","trial_index":266,"time_elapsed":666527,"internal_node_id":"0.0-8.0-3.64","subject":"lynundkl3z6g33s","sona":"THNS"},{"rt":1263,"stimulus":"<p>Bereit?</p>","button_pressed":"0","trial_type":"html-button-response","trial_index":267,"time_elapsed":667798,"internal_node_id":"0.0-8.0-0.65","subject":"lynundkl3z6g33s","sona":"THNS"},{"rt":null,"stimulus":"<div style=\"font-size:60px;\">+</div>","key_press":null,"trial_type":"html-keyboard-response","trial_index":268,"time_elapsed":669816,"internal_node_id":"0.0-8.0-1.65","subject":"lynundkl3z6g33s","sona":"THNS"},{"trial_type":"turing-test","trial_index":269,"time_elapsed":673981,"internal_node_id":"0.0-8.0-2.65","subject":"lynundkl3z6g33s","sona":"THNS"},{"rt":516,"stimulus":"<p>Welche Sequenz haben Sie als natürlicher empfunden?</p>","button_pressed":"1","test_part":"response","test_stimulus":{"position":0,"left":"bvh/return-bottle-hold-training4-lines.txt","right":"bvh/vr_prediction_models/model(vcgpdm)-dataset(return-bottle-hold)-mode(ELBO)-parts(3)-dyn(25)-lvm(25)-hold(4)/final-lines.txt","att_check":false},"trial_type":"html-button-response","trial_index":270,"time_elapsed":674502,"internal_node_id":"0.0-8.0-3.65","subject":"lynundkl3z6g33s","sona":"THNS"},{"rt":581,"stimulus":"<p>Bereit?</p>","button_pressed":"0","trial_type":"html-button-response","trial_index":271,"time_elapsed":675089,"internal_node_id":"0.0-8.0-0.66","subject":"lynundkl3z6g33s","sona":"THNS"},{"rt":null,"stimulus":"<div style=\"font-size:60px;\">+</div>","key_press":null,"trial_type":"html-keyboard-response","trial_index":272,"time_elapsed":677111,"internal_node_id":"0.0-8.0-1.66","subject":"lynundkl3z6g33s","sona":"THNS"},{"trial_type":"turing-test","trial_index":273,"time_elapsed":683709,"internal_node_id":"0.0-8.0-2.66","subject":"lynundkl3z6g33s","sona":"THNS"},{"rt":1073,"stimulus":"<p>Welche Sequenz haben Sie als natürlicher empfunden?</p>","button_pressed":"0","test_part":"response","test_stimulus":{"position":0,"left":"bvh/pass-bottle-training4-lines.txt","right":"bvh/vr_prediction_models/model(vcgpdm)-dataset(pass-bottle)-mode(ELBO)-parts(1)-dyn(15)-lvm(35)-hold(4)/final-lines.txt","att_check":false},"trial_type":"html-button-response","trial_index":274,"time_elapsed":684788,"internal_node_id":"0.0-8.0-3.66","subject":"lynundkl3z6g33s","sona":"THNS"},{"rt":904,"stimulus":"<p>Bereit?</p>","button_pressed":"0","trial_type":"html-button-response","trial_index":275,"time_elapsed":685700,"internal_node_id":"0.0-8.0-0.67","subject":"lynundkl3z6g33s","sona":"THNS"},{"rt":null,"stimulus":"<div style=\"font-size:60px;\">+</div>","key_press":null,"trial_type":"html-keyboard-response","trial_index":276,"time_elapsed":687720,"internal_node_id":"0.0-8.0-1.67","subject":"lynundkl3z6g33s","sona":"THNS"},{"trial_type":"turing-test","trial_index":277,"time_elapsed":694327,"internal_node_id":"0.0-8.0-2.67","subject":"lynundkl3z6g33s","sona":"THNS"},{"rt":1178,"stimulus":"<p>Welche Sequenz haben Sie als natürlicher empfunden?</p>","button_pressed":"1","test_part":"response","test_stimulus":{"position":1,"left":"bvh/vr_prediction_models/model(vcgpdm)-dataset(pass-bottle)-mode(ELBO)-parts(3)-dyn(10)-lvm(10)-hold(2)/final-lines.txt","right":"bvh/pass-bottle-training2-lines.txt","att_check":false},"trial_type":"html-button-response","trial_index":278,"time_elapsed":695511,"internal_node_id":"0.0-8.0-3.67","subject":"lynundkl3z6g33s","sona":"THNS"},{"rt":1112,"stimulus":"<p>Bereit?</p>","button_pressed":"0","trial_type":"html-button-response","trial_index":279,"time_elapsed":696630,"internal_node_id":"0.0-8.0-0.68","subject":"lynundkl3z6g33s","sona":"THNS"},{"rt":null,"stimulus":"<div style=\"font-size:60px;\">+</div>","key_press":null,"trial_type":"html-keyboard-response","trial_index":280,"time_elapsed":698662,"internal_node_id":"0.0-8.0-1.68","subject":"lynundkl3z6g33s","sona":"THNS"},{"trial_type":"turing-test","trial_index":281,"time_elapsed":702196,"internal_node_id":"0.0-8.0-2.68","subject":"lynundkl3z6g33s","sona":"THNS"},{"rt":870,"stimulus":"<p>Welche Sequenz haben Sie als natürlicher empfunden?</p>","button_pressed":"0","test_part":"response","test_stimulus":{"position":1,"left":"bvh/vr_prediction_models/model(dmp)-dataset(pass-bottle-hold)-npsi(80)-hold(0)/final-lines.txt","right":"bvh/pass-bottle-hold-training0-lines.txt","att_check":false},"trial_type":"html-button-response","trial_index":282,"time_elapsed":703072,"internal_node_id":"0.0-8.0-3.68","subject":"lynundkl3z6g33s","sona":"THNS"},{"rt":2976,"stimulus":"<p>Bereit?</p>","button_pressed":"0","trial_type":"html-button-response","trial_index":283,"time_elapsed":706056,"internal_node_id":"0.0-8.0-0.69","subject":"lynundkl3z6g33s","sona":"THNS"},{"rt":null,"stimulus":"<div style=\"font-size:60px;\">+</div>","key_press":null,"trial_type":"html-keyboard-response","trial_index":284,"time_elapsed":708096,"internal_node_id":"0.0-8.0-1.69","subject":"lynundkl3z6g33s","sona":"THNS"},{"trial_type":"turing-test","trial_index":285,"time_elapsed":711745,"internal_node_id":"0.0-8.0-2.69","subject":"lynundkl3z6g33s","sona":"THNS"},{"rt":1051,"stimulus":"<p>Welche Sequenz haben Sie als natürlicher empfunden?</p>","button_pressed":"1","test_part":"response","test_stimulus":{"position":1,"left":"bvh/vr_prediction_models/model(dmp)-dataset(return-bottle-hold)-npsi(70)-hold(2)/final-lines.txt","right":"bvh/return-bottle-hold-training2-lines.txt","att_check":false},"trial_type":"html-button-response","trial_index":286,"time_elapsed":712804,"internal_node_id":"0.0-8.0-3.69","subject":"lynundkl3z6g33s","sona":"THNS"},{"rt":15135,"stimulus":"<p>Bereit?</p>","button_pressed":"0","trial_type":"html-button-response","trial_index":287,"time_elapsed":727946,"internal_node_id":"0.0-8.0-0.70","subject":"lynundkl3z6g33s","sona":"THNS"},{"rt":null,"stimulus":"<div style=\"font-size:60px;\">+</div>","key_press":null,"trial_type":"html-keyboard-response","trial_index":288,"time_elapsed":729960,"internal_node_id":"0.0-8.0-1.70","subject":"lynundkl3z6g33s","sona":"THNS"},{"trial_type":"turing-test","trial_index":289,"time_elapsed":736356,"internal_node_id":"0.0-8.0-2.70","subject":"lynundkl3z6g33s","sona":"THNS"},{"rt":893,"stimulus":"<p>Welche Sequenz haben Sie als natürlicher empfunden?</p>","button_pressed":"1","test_part":"response","test_stimulus":{"position":0,"left":"bvh/pass-bottle-training2-lines.txt","right":"bvh/vr_prediction_models/model(vcgpdm)-dataset(pass-bottle)-mode(ELBO)-parts(1)-dyn(35)-lvm(30)-hold(2)/final-lines.txt","att_check":false},"trial_type":"html-button-response","trial_index":290,"time_elapsed":737255,"internal_node_id":"0.0-8.0-3.70","subject":"lynundkl3z6g33s","sona":"THNS"},{"rt":1286,"stimulus":"<p>Bereit?</p>","button_pressed":"0","trial_type":"html-button-response","trial_index":291,"time_elapsed":738546,"internal_node_id":"0.0-8.0-0.71","subject":"lynundkl3z6g33s","sona":"THNS"},{"rt":null,"stimulus":"<div style=\"font-size:60px;\">+</div>","key_press":null,"trial_type":"html-keyboard-response","trial_index":292,"time_elapsed":740566,"internal_node_id":"0.0-8.0-1.71","subject":"lynundkl3z6g33s","sona":"THNS"},{"trial_type":"turing-test","trial_index":293,"time_elapsed":745893,"internal_node_id":"0.0-8.0-2.71","subject":"lynundkl3z6g33s","sona":"THNS"},{"rt":882,"stimulus":"<p>Welche Sequenz haben Sie als natürlicher empfunden?</p>","button_pressed":"0","test_part":"response","test_stimulus":{"position":0,"left":"bvh/return-bottle-hold-training0-lines.txt","right":"bvh/vr_prediction_models/model(dmp)-dataset(return-bottle-hold)-npsi(40)-hold(0)/final-lines.txt","att_check":false},"trial_type":"html-button-response","trial_index":294,"time_elapsed":746784,"internal_node_id":"0.0-8.0-3.71","subject":"lynundkl3z6g33s","sona":"THNS"},{"rt":884,"stimulus":"<p>Bereit?</p>","button_pressed":"0","trial_type":"html-button-response","trial_index":295,"time_elapsed":747675,"internal_node_id":"0.0-8.0-0.72","subject":"lynundkl3z6g33s","sona":"THNS"},{"rt":null,"stimulus":"<div style=\"font-size:60px;\">+</div>","key_press":null,"trial_type":"html-keyboard-response","trial_index":296,"time_elapsed":749702,"internal_node_id":"0.0-8.0-1.72","subject":"lynundkl3z6g33s","sona":"THNS"},{"trial_type":"turing-test","trial_index":297,"time_elapsed":755911,"internal_node_id":"0.0-8.0-2.72","subject":"lynundkl3z6g33s","sona":"THNS"},{"rt":864,"stimulus":"<p>Welche Sequenz haben Sie als natürlicher empfunden?</p>","button_pressed":"1","test_part":"response","test_stimulus":{"position":1,"left":"bvh/vr_prediction_models/model(vcgpdm)-dataset(return-bottle)-mode(ELBO)-parts(3)-dyn(10)-lvm(25)-hold(3)/final-lines.txt","right":"bvh/return-bottle-training3-lines.txt","att_check":false},"trial_type":"html-button-response","trial_index":298,"time_elapsed":756783,"internal_node_id":"0.0-8.0-3.72","subject":"lynundkl3z6g33s","sona":"THNS"},{"rt":794,"stimulus":"<p>Bereit?</p>","button_pressed":"0","trial_type":"html-button-response","trial_index":299,"time_elapsed":757584,"internal_node_id":"0.0-8.0-0.73","subject":"lynundkl3z6g33s","sona":"THNS"},{"rt":null,"stimulus":"<div style=\"font-size:60px;\">+</div>","key_press":null,"trial_type":"html-keyboard-response","trial_index":300,"time_elapsed":759603,"internal_node_id":"0.0-8.0-1.73","subject":"lynundkl3z6g33s","sona":"THNS"},{"trial_type":"turing-test","trial_index":301,"time_elapsed":766762,"internal_node_id":"0.0-8.0-2.73","subject":"lynundkl3z6g33s","sona":"THNS"},{"rt":708,"stimulus":"<p>Welche Sequenz haben Sie als natürlicher empfunden?</p>","button_pressed":"0","test_part":"response","test_stimulus":{"position":0,"left":"bvh/pass-bottle-training0-lines.txt","right":"bvh/vr_prediction_models/model(vcgpdm)-dataset(pass-bottle)-mode(ELBO)-parts(3)-dyn(20)-lvm(20)-hold(0)/final-lines.txt","att_check":false},"trial_type":"html-button-response","trial_index":302,"time_elapsed":767479,"internal_node_id":"0.0-8.0-3.73","subject":"lynundkl3z6g33s","sona":"THNS"},{"rt":655,"stimulus":"<p>Bereit?</p>","button_pressed":"0","trial_type":"html-button-response","trial_index":303,"time_elapsed":768140,"internal_node_id":"0.0-8.0-0.74","subject":"lynundkl3z6g33s","sona":"THNS"},{"rt":null,"stimulus":"<div style=\"font-size:60px;\">+</div>","key_press":null,"trial_type":"html-keyboard-response","trial_index":304,"time_elapsed":770167,"internal_node_id":"0.0-8.0-1.74","subject":"lynundkl3z6g33s","sona":"THNS"},{"trial_type":"turing-test","trial_index":305,"time_elapsed":773890,"internal_node_id":"0.0-8.0-2.74","subject":"lynundkl3z6g33s","sona":"THNS"},{"rt":881,"stimulus":"<p>Welche Sequenz haben Sie als natürlicher empfunden?</p>","button_pressed":"0","test_part":"response","test_stimulus":{"position":0,"left":"bvh/pass-bottle-hold-training3-lines.txt","right":"bvh/vr_prediction_models/model(dmp)-dataset(pass-bottle-hold)-npsi(50)-hold(3)/final-lines.txt","att_check":false},"trial_type":"html-button-response","trial_index":306,"time_elapsed":774777,"internal_node_id":"0.0-8.0-3.74","subject":"lynundkl3z6g33s","sona":"THNS"},{"rt":1457,"stimulus":"<p>Bereit?</p>","button_pressed":"0","trial_type":"html-button-response","trial_index":307,"time_elapsed":776241,"internal_node_id":"0.0-8.0-0.75","subject":"lynundkl3z6g33s","sona":"THNS"},{"rt":null,"stimulus":"<div style=\"font-size:60px;\">+</div>","key_press":null,"trial_type":"html-keyboard-response","trial_index":308,"time_elapsed":778280,"internal_node_id":"0.0-8.0-1.75","subject":"lynundkl3z6g33s","sona":"THNS"},{"trial_type":"turing-test","trial_index":309,"time_elapsed":782366,"internal_node_id":"0.0-8.0-2.75","subject":"lynundkl3z6g33s","sona":"THNS"},{"rt":1144,"stimulus":"<p>Welche Sequenz haben Sie als natürlicher empfunden?</p>","button_pressed":"1","test_part":"response","test_stimulus":{"position":1,"left":"bvh/vr_prediction_models/model(vcgpdm)-dataset(return-bottle-hold)-mode(ELBO)-parts(1)-dyn(20)-lvm(5)-hold(3)/final-lines.txt","right":"bvh/return-bottle-hold-training3-lines.txt","att_check":false},"trial_type":"html-button-response","trial_index":310,"time_elapsed":783517,"internal_node_id":"0.0-8.0-3.75","subject":"lynundkl3z6g33s","sona":"THNS"},{"rt":1498,"stimulus":"<p>Bereit?</p>","button_pressed":"0","trial_type":"html-button-response","trial_index":311,"time_elapsed":785023,"internal_node_id":"0.0-8.0-0.76","subject":"lynundkl3z6g33s","sona":"THNS"},{"rt":null,"stimulus":"<div style=\"font-size:60px;\">+</div>","key_press":null,"trial_type":"html-keyboard-response","trial_index":312,"time_elapsed":787056,"internal_node_id":"0.0-8.0-1.76","subject":"lynundkl3z6g33s","sona":"THNS"},{"trial_type":"turing-test","trial_index":313,"time_elapsed":790619,"internal_node_id":"0.0-8.0-2.76","subject":"lynundkl3z6g33s","sona":"THNS"},{"rt":1135,"stimulus":"<p>Welche Sequenz haben Sie als natürlicher empfunden?</p>","button_pressed":"1","test_part":"response","test_stimulus":{"position":1,"left":"bvh/vr_prediction_models/model(tmp)-dataset(pass-bottle-hold)-numprim(13)-hold(2)/final-lines.txt","right":"bvh/pass-bottle-hold-training2-lines.txt","att_check":false},"trial_type":"html-button-response","trial_index":314,"time_elapsed":791761,"internal_node_id":"0.0-8.0-3.76","subject":"lynundkl3z6g33s","sona":"THNS"},{"rt":684,"stimulus":"<p>Bereit?</p>","button_pressed":"0","trial_type":"html-button-response","trial_index":315,"time_elapsed":792452,"internal_node_id":"0.0-8.0-0.77","subject":"lynundkl3z6g33s","sona":"THNS"},{"rt":null,"stimulus":"<div style=\"font-size:60px;\">+</div>","key_press":null,"trial_type":"html-keyboard-response","trial_index":316,"time_elapsed":794489,"internal_node_id":"0.0-8.0-1.77","subject":"lynundkl3z6g33s","sona":"THNS"},{"trial_type":"turing-test","trial_index":317,"time_elapsed":800627,"internal_node_id":"0.0-8.0-2.77","subject":"lynundkl3z6g33s","sona":"THNS"},{"rt":738,"stimulus":"<p>Welche Sequenz haben Sie als natürlicher empfunden?</p>","button_pressed":"1","test_part":"response","test_stimulus":{"position":0,"left":"bvh/return-bottle-training3-lines.txt","right":"bvh/vr_prediction_models/model(vcgpdm)-dataset(return-bottle)-mode(ELBO)-parts(1)-dyn(20)-lvm(5)-hold(3)/final-lines.txt","att_check":false},"trial_type":"html-button-response","trial_index":318,"time_elapsed":801372,"internal_node_id":"0.0-8.0-3.77","subject":"lynundkl3z6g33s","sona":"THNS"},{"rt":968,"stimulus":"<p>Bereit?</p>","button_pressed":"0","trial_type":"html-button-response","trial_index":319,"time_elapsed":802347,"internal_node_id":"0.0-8.0-0.78","subject":"lynundkl3z6g33s","sona":"THNS"},{"rt":null,"stimulus":"<div style=\"font-size:60px;\">+</div>","key_press":null,"trial_type":"html-keyboard-response","trial_index":320,"time_elapsed":804377,"internal_node_id":"0.0-8.0-1.78","subject":"lynundkl3z6g33s","sona":"THNS"},{"trial_type":"turing-test","trial_index":321,"time_elapsed":810446,"internal_node_id":"0.0-8.0-2.78","subject":"lynundkl3z6g33s","sona":"THNS"},{"rt":635,"stimulus":"<p>Welche Sequenz haben Sie als natürlicher empfunden?</p>","button_pressed":"1","test_part":"response","test_stimulus":{"position":1,"left":"bvh/vr_prediction_models/model(vcgpdm)-dataset(return-bottle)-mode(ELBO)-parts(3)-dyn(10)-lvm(30)-hold(3)/final-lines.txt","right":"bvh/return-bottle-training3-lines.txt","att_check":false},"trial_type":"html-button-response","trial_index":322,"time_elapsed":811087,"internal_node_id":"0.0-8.0-3.78","subject":"lynundkl3z6g33s","sona":"THNS"},{"rt":904,"stimulus":"<p>Bereit?</p>","button_pressed":"0","trial_type":"html-button-response","trial_index":323,"time_elapsed":811999,"internal_node_id":"0.0-8.0-0.79","subject":"lynundkl3z6g33s","sona":"THNS"},{"rt":null,"stimulus":"<div style=\"font-size:60px;\">+</div>","key_press":null,"trial_type":"html-keyboard-response","trial_index":324,"time_elapsed":814017,"internal_node_id":"0.0-8.0-1.79","subject":"lynundkl3z6g33s","sona":"THNS"},{"trial_type":"turing-test","trial_index":325,"time_elapsed":818762,"internal_node_id":"0.0-8.0-2.79","subject":"lynundkl3z6g33s","sona":"THNS"},{"rt":520,"stimulus":"<p>Welche Sequenz haben Sie als natürlicher empfunden?</p>","button_pressed":"1","test_part":"response","test_stimulus":{"position":1,"left":"bvh/vr_prediction_models/model(dmp)-dataset(return-bottle-hold)-npsi(80)-hold(3)/final-lines.txt","right":"bvh/return-bottle-hold-training3-lines.txt","att_check":false},"trial_type":"html-button-response","trial_index":326,"time_elapsed":819290,"internal_node_id":"0.0-8.0-3.79","subject":"lynundkl3z6g33s","sona":"THNS"},{"rt":855,"stimulus":"<p>Bereit?</p>","button_pressed":"0","trial_type":"html-button-response","trial_index":327,"time_elapsed":820152,"internal_node_id":"0.0-8.0-0.80","subject":"lynundkl3z6g33s","sona":"THNS"},{"rt":null,"stimulus":"<div style=\"font-size:60px;\">+</div>","key_press":null,"trial_type":"html-keyboard-response","trial_index":328,"time_elapsed":822182,"internal_node_id":"0.0-8.0-1.80","subject":"lynundkl3z6g33s","sona":"THNS"},{"trial_type":"turing-test","trial_index":329,"time_elapsed":825670,"internal_node_id":"0.0-8.0-2.80","subject":"lynundkl3z6g33s","sona":"THNS"},{"rt":1043,"stimulus":"<p>Welche Sequenz haben Sie als natürlicher empfunden?</p>","button_pressed":"1","test_part":"response","test_stimulus":{"position":1,"left":"bvh/vr_prediction_models/model(dmp)-dataset(pass-bottle-hold)-npsi(70)-hold(1)/final-lines.txt","right":"bvh/pass-bottle-hold-training1-lines.txt","att_check":false},"trial_type":"html-button-response","trial_index":330,"time_elapsed":826719,"internal_node_id":"0.0-8.0-3.80","subject":"lynundkl3z6g33s","sona":"THNS"},{"rt":877,"stimulus":"<p>Bereit?</p>","button_pressed":"0","trial_type":"html-button-response","trial_index":331,"time_elapsed":827602,"internal_node_id":"0.0-8.0-0.81","subject":"lynundkl3z6g33s","sona":"THNS"},{"rt":null,"stimulus":"<div style=\"font-size:60px;\">+</div>","key_press":null,"trial_type":"html-keyboard-response","trial_index":332,"time_elapsed":829640,"internal_node_id":"0.0-8.0-1.81","subject":"lynundkl3z6g33s","sona":"THNS"},{"trial_type":"turing-test","trial_index":333,"time_elapsed":833173,"internal_node_id":"0.0-8.0-2.81","subject":"lynundkl3z6g33s","sona":"THNS"},{"rt":590,"stimulus":"<p>Welche Sequenz haben Sie als natürlicher empfunden?</p>","button_pressed":"1","test_part":"response","test_stimulus":{"position":1,"left":"bvh/vr_prediction_models/model(dmp)-dataset(pass-bottle-hold)-npsi(60)-hold(2)/final-lines.txt","right":"bvh/pass-bottle-hold-training2-lines.txt","att_check":true},"trial_type":"html-button-response","trial_index":334,"time_elapsed":833770,"internal_node_id":"0.0-8.0-3.81","subject":"lynundkl3z6g33s","sona":"THNS"},{"rt":649,"stimulus":"<p>Bereit?</p>","button_pressed":"0","trial_type":"html-button-response","trial_index":335,"time_elapsed":834426,"internal_node_id":"0.0-8.0-0.82","subject":"lynundkl3z6g33s","sona":"THNS"},{"rt":null,"stimulus":"<div style=\"font-size:60px;\">+</div>","key_press":null,"trial_type":"html-keyboard-response","trial_index":336,"time_elapsed":836452,"internal_node_id":"0.0-8.0-1.82","subject":"lynundkl3z6g33s","sona":"THNS"},{"trial_type":"turing-test","trial_index":337,"time_elapsed":840421,"internal_node_id":"0.0-8.0-2.82","subject":"lynundkl3z6g33s","sona":"THNS"},{"rt":600,"stimulus":"<p>Welche Sequenz haben Sie als natürlicher empfunden?</p>","button_pressed":"0","test_part":"response","test_stimulus":{"position":0,"left":"bvh/return-bottle-hold-training2-lines.txt","right":"bvh/vr_prediction_models/model(dmp)-dataset(return-bottle-hold)-npsi(100)-hold(2)/final-lines.txt","att_check":false},"trial_type":"html-button-response","trial_index":338,"time_elapsed":841027,"internal_node_id":"0.0-8.0-3.82","subject":"lynundkl3z6g33s","sona":"THNS"},{"rt":731,"stimulus":"<p>Bereit?</p>","button_pressed":"0","trial_type":"html-button-response","trial_index":339,"time_elapsed":841766,"internal_node_id":"0.0-8.0-0.83","subject":"lynundkl3z6g33s","sona":"THNS"},{"rt":null,"stimulus":"<div style=\"font-size:60px;\">+</div>","key_press":null,"trial_type":"html-keyboard-response","trial_index":340,"time_elapsed":843796,"internal_node_id":"0.0-8.0-1.83","subject":"lynundkl3z6g33s","sona":"THNS"},{"trial_type":"turing-test","trial_index":341,"time_elapsed":847646,"internal_node_id":"0.0-8.0-2.83","subject":"lynundkl3z6g33s","sona":"THNS"},{"rt":888,"stimulus":"<p>Welche Sequenz haben Sie als natürlicher empfunden?</p>","button_pressed":"1","test_part":"response","test_stimulus":{"position":1,"left":"bvh/vr_prediction_models/model(dmp)-dataset(return-bottle-hold)-npsi(40)-hold(3)/final-lines.txt","right":"bvh/return-bottle-hold-training3-lines.txt","att_check":false},"trial_type":"html-button-response","trial_index":342,"time_elapsed":848540,"internal_node_id":"0.0-8.0-3.83","subject":"lynundkl3z6g33s","sona":"THNS"},{"rt":702,"stimulus":"<p>Bereit?</p>","button_pressed":"0","trial_type":"html-button-response","trial_index":343,"time_elapsed":849250,"internal_node_id":"0.0-8.0-0.84","subject":"lynundkl3z6g33s","sona":"THNS"},{"rt":null,"stimulus":"<div style=\"font-size:60px;\">+</div>","key_press":null,"trial_type":"html-keyboard-response","trial_index":344,"time_elapsed":851266,"internal_node_id":"0.0-8.0-1.84","subject":"lynundkl3z6g33s","sona":"THNS"},{"trial_type":"turing-test","trial_index":345,"time_elapsed":855093,"internal_node_id":"0.0-8.0-2.84","subject":"lynundkl3z6g33s","sona":"THNS"},{"rt":946,"stimulus":"<p>Welche Sequenz haben Sie als natürlicher empfunden?</p>","button_pressed":"0","test_part":"response","test_stimulus":{"position":0,"left":"bvh/pass-bottle-hold-training4-lines.txt","right":"bvh/vr_prediction_models/model(dmp)-dataset(pass-bottle-hold)-npsi(100)-hold(4)/final-lines.txt","att_check":false},"trial_type":"html-button-response","trial_index":346,"time_elapsed":856046,"internal_node_id":"0.0-8.0-3.84","subject":"lynundkl3z6g33s","sona":"THNS"},{"rt":882,"stimulus":"<p>Bereit?</p>","button_pressed":"0","trial_type":"html-button-response","trial_index":347,"time_elapsed":856937,"internal_node_id":"0.0-8.0-0.85","subject":"lynundkl3z6g33s","sona":"THNS"},{"rt":null,"stimulus":"<div style=\"font-size:60px;\">+</div>","key_press":null,"trial_type":"html-keyboard-response","trial_index":348,"time_elapsed":858963,"internal_node_id":"0.0-8.0-1.85","subject":"lynundkl3z6g33s","sona":"THNS"},{"trial_type":"turing-test","trial_index":349,"time_elapsed":862770,"internal_node_id":"0.0-8.0-2.85","subject":"lynundkl3z6g33s","sona":"THNS"},{"rt":878,"stimulus":"<p>Welche Sequenz haben Sie als natürlicher empfunden?</p>","button_pressed":"1","test_part":"response","test_stimulus":{"position":0,"left":"bvh/return-bottle-hold-training3-lines.txt","right":"bvh/vr_prediction_models/model(vcgpdm)-dataset(return-bottle-hold)-mode(ELBO)-parts(1)-dyn(20)-lvm(5)-hold(3)/final-lines.txt","att_check":false},"trial_type":"html-button-response","trial_index":350,"time_elapsed":863655,"internal_node_id":"0.0-8.0-3.85","subject":"lynundkl3z6g33s","sona":"THNS"},{"rt":1843,"stimulus":"<p>Bereit?</p>","button_pressed":"0","trial_type":"html-button-response","trial_index":351,"time_elapsed":865506,"internal_node_id":"0.0-8.0-0.86","subject":"lynundkl3z6g33s","sona":"THNS"},{"rt":null,"stimulus":"<div style=\"font-size:60px;\">+</div>","key_press":null,"trial_type":"html-keyboard-response","trial_index":352,"time_elapsed":867531,"internal_node_id":"0.0-8.0-1.86","subject":"lynundkl3z6g33s","sona":"THNS"},{"trial_type":"turing-test","trial_index":353,"time_elapsed":870991,"internal_node_id":"0.0-8.0-2.86","subject":"lynundkl3z6g33s","sona":"THNS"},{"rt":862,"stimulus":"<p>Welche Sequenz haben Sie als natürlicher empfunden?</p>","button_pressed":"0","test_part":"response","test_stimulus":{"position":0,"left":"bvh/pass-bottle-hold-training1-lines.txt","right":"bvh/vr_prediction_models/model(tmp)-dataset(pass-bottle-hold)-numprim(9)-hold(1)/final-lines.txt","att_check":false},"trial_type":"html-button-response","trial_index":354,"time_elapsed":871860,"internal_node_id":"0.0-8.0-3.86","subject":"lynundkl3z6g33s","sona":"THNS"},{"rt":655,"stimulus":"<p>Bereit?</p>","button_pressed":"0","trial_type":"html-button-response","trial_index":355,"time_elapsed":872523,"internal_node_id":"0.0-8.0-0.87","subject":"lynundkl3z6g33s","sona":"THNS"},{"rt":null,"stimulus":"<div style=\"font-size:60px;\">+</div>","key_press":null,"trial_type":"html-keyboard-response","trial_index":356,"time_elapsed":874561,"internal_node_id":"0.0-8.0-1.87","subject":"lynundkl3z6g33s","sona":"THNS"},{"trial_type":"turing-test","trial_index":357,"time_elapsed":878072,"internal_node_id":"0.0-8.0-2.87","subject":"lynundkl3z6g33s","sona":"THNS"},{"rt":487,"stimulus":"<p>Welche Sequenz haben Sie als natürlicher empfunden?</p>","button_pressed":"0","test_part":"response","test_stimulus":{"position":0,"left":"bvh/return-bottle-hold-training1-lines.txt","right":"bvh/vr_prediction_models/model(dmp)-dataset(return-bottle-hold)-npsi(60)-hold(1)/final-lines.txt","att_check":true},"trial_type":"html-button-response","trial_index":358,"time_elapsed":878565,"internal_node_id":"0.0-8.0-3.87","subject":"lynundkl3z6g33s","sona":"THNS"},{"rt":670,"stimulus":"<p>Bereit?</p>","button_pressed":"0","trial_type":"html-button-response","trial_index":359,"time_elapsed":879242,"internal_node_id":"0.0-8.0-0.88","subject":"lynundkl3z6g33s","sona":"THNS"},{"rt":null,"stimulus":"<div style=\"font-size:60px;\">+</div>","key_press":null,"trial_type":"html-keyboard-response","trial_index":360,"time_elapsed":881263,"internal_node_id":"0.0-8.0-1.88","subject":"lynundkl3z6g33s","sona":"THNS"},{"trial_type":"turing-test","trial_index":361,"time_elapsed":885348,"internal_node_id":"0.0-8.0-2.88","subject":"lynundkl3z6g33s","sona":"THNS"},{"rt":508,"stimulus":"<p>Welche Sequenz haben Sie als natürlicher empfunden?</p>","button_pressed":"0","test_part":"response","test_stimulus":{"position":0,"left":"bvh/return-bottle-hold-training3-lines.txt","right":"bvh/vr_prediction_models/model(vcgpdm)-dataset(return-bottle-hold)-mode(ELBO)-parts(3)-dyn(10)-lvm(25)-hold(3)/final-lines.txt","att_check":false},"trial_type":"html-button-response","trial_index":362,"time_elapsed":885863,"internal_node_id":"0.0-8.0-3.88","subject":"lynundkl3z6g33s","sona":"THNS"},{"rt":572,"stimulus":"<p>Bereit?</p>","button_pressed":"0","trial_type":"html-button-response","trial_index":363,"time_elapsed":886442,"internal_node_id":"0.0-8.0-0.89","subject":"lynundkl3z6g33s","sona":"THNS"},{"rt":null,"stimulus":"<div style=\"font-size:60px;\">+</div>","key_press":null,"trial_type":"html-keyboard-response","trial_index":364,"time_elapsed":888468,"internal_node_id":"0.0-8.0-1.89","subject":"lynundkl3z6g33s","sona":"THNS"},{"trial_type":"turing-test","trial_index":365,"time_elapsed":892365,"internal_node_id":"0.0-8.0-2.89","subject":"lynundkl3z6g33s","sona":"THNS"},{"rt":575,"stimulus":"<p>Welche Sequenz haben Sie als natürlicher empfunden?</p>","button_pressed":"1","test_part":"response","test_stimulus":{"position":1,"left":"bvh/vr_prediction_models/model(vcgpdm)-dataset(return-bottle-hold)-mode(ELBO)-parts(3)-dyn(10)-lvm(10)-hold(2)/final-lines.txt","right":"bvh/return-bottle-hold-training2-lines.txt","att_check":false},"trial_type":"html-button-response","trial_index":366,"time_elapsed":892947,"internal_node_id":"0.0-8.0-3.89","subject":"lynundkl3z6g33s","sona":"THNS"},{"rt":988,"stimulus":"<p>Bereit?</p>","button_pressed":"0","trial_type":"html-button-response","trial_index":367,"time_elapsed":893941,"internal_node_id":"0.0-8.0-0.90","subject":"lynundkl3z6g33s","sona":"THNS"},{"rt":null,"stimulus":"<div style=\"font-size:60px;\">+</div>","key_press":null,"trial_type":"html-keyboard-response","trial_index":368,"time_elapsed":895965,"internal_node_id":"0.0-8.0-1.90","subject":"lynundkl3z6g33s","sona":"THNS"},{"trial_type":"turing-test","trial_index":369,"time_elapsed":903483,"internal_node_id":"0.0-8.0-2.90","subject":"lynundkl3z6g33s","sona":"THNS"},{"rt":783,"stimulus":"<p>Welche 