[{"rt":3363.7099999468774,"stimulus":"<p>Welcome!<br> Please choose your language to start the experiment in the chosen language.</p><p>Willkommen!<br> Bitte wählen Sie eine Sprache, um das Experiment in der ausgewählten Sprache zu starten</p>","button_pressed":"1","trial_type":"html-button-response","trial_index":0,"time_elapsed":3369,"internal_node_id":"0.0-0.0","subject":"pgw7cw32wwfrcju","sona":"9361"},{"view_history":"[{\"page_index\":0,\"viewing_time\":1273.0549999978393},{\"page_index\":1,\"viewing_time\":1084.2000000411645},{\"page_index\":2,\"viewing_time\":2429.054999956861},{\"page_index\":3,\"viewing_time\":1552.0350000588223},{\"page_index\":4,\"viewing_time\":1200.4050000105053}]","rt":7540.219999966212,"trial_type":"instructions","trial_index":1,"time_elapsed":10911,"internal_node_id":"0.0-1.0-0.0","subject":"pgw7cw32wwfrcju","sona":"9361"},{"rt":1555.445000063628,"stimulus":"<p>Bereit?</p>","key_press":32,"trial_type":"html-keyboard-response","trial_index":2,"time_elapsed":12468,"internal_node_id":"0.0-3.0","subject":"pgw7cw32wwfrcju","sona":"9361"},{"rt":null,"stimulus":"<div style=\"font-size:60px;\">+</div>","key_press":null,"trial_type":"html-keyboard-response","trial_index":3,"time_elapsed":14486,"internal_node_id":"0.0-4.0","subject":"pgw7cw32wwfrcju","sona":"9361"},{"trial_type":"training","trial_index":4,"time_elapsed":17715,"internal_node_id":"0.0-5.0","subject":"pgw7cw32wwfrcju","sona":"9361"},{"rt":567.3999999416992,"stimulus":"<p>Welche Sequenz haben Sie als natürlicher empfunden?</p>","key_press":74,"trial_type":"html-keyboard-response","trial_index":5,"time_elapsed":18285,"internal_node_id":"0.0-6.0","subject":"pgw7cw32wwfrcju","sona":"9361"},{"rt":2179.56000007689,"stimulus":"<p>Das Experiment startet nun.</p><p><small>Bitte drücken Sie den Knopf, wenn Sie bereit sind.</small></p>","button_pressed":"0","trial_type":"html-button-response","trial_index":6,"time_elapsed":20466,"internal_node_id":"0.0-7.0","subject":"pgw7cw32wwfrcju","sona":"9361"},{"rt":2017.3550000181422,"stimulus":"<p>Bereit?</p>","key_press":32,"trial_type":"html-keyboard-response","trial_index":7,"time_elapsed":22484,"internal_node_id":"0.0-8.0-0.0","subject":"pgw7cw32wwfrcju","sona":"9361"},{"rt":null,"stimulus":"<div style=\"font-size:60px;\">+</div>","key_press":null,"trial_type":"html-keyboard-response","trial_index":8,"time_elapsed":24515,"internal_node_id":"0.0-8.0-1.0","subject":"pgw7cw32wwfrcju","sona":"9361"},{"trial_type":"turing-test","trial_index":9,"time_elapsed":28087,"internal_node_id":"0.0-8.0-2.0","subject":"pgw7cw32wwfrcju","sona":"9361"},{"rt":2209.855000022799,"stimulus":"<p>Welche Sequenz haben Sie als natürlicher empfunden?</p>","key_press":70,"test_part":"response","test_stimulus":{"position":0,"left":"bvh/pass-bottle-hold-training4-lines.txt","right":"bvh/vr_prediction_models/model(dmp)-dataset(pass-bottle-hold)-npsi(10)-hold(4)/final-lines.txt","att_check":false},"trial_type":"html-keyboard-response","trial_index":10,"time_elapsed":30301,"internal_node_id":"0.0-8.0-3.0","subject":"pgw7cw32wwfrcju","sona":"9361"},{"rt":149.6350000379607,"stimulus":"<p>Bereit?</p>","key_press":32,"trial_type":"html-keyboard-response","trial_index":11,"time_elapsed":30453,"internal_node_id":"0.0-8.0-0.1","subject":"pgw7cw32wwfrcju","sona":"9361"},{"rt":null,"stimulus":"<div style=\"font-size:60px;\">+</div>","key_press":null,"trial_type":"html-keyboard-response","trial_index":12,"time_elapsed":32456,"internal_node_id":"0.0-8.0-1.1","subject":"pgw7cw32wwfrcju","sona":"9361"},{"trial_type":"turing-test","trial_index":13,"time_elapsed":38392,"internal_node_id":"0.0-8.0-2.1","subject":"pgw7cw32wwfrcju","sona":"9361"},{"rt":3705.945000052452,"stimulus":"<p>Welche Sequenz haben Sie als natürlicher empfunden?</p>","key_press":70,"test_part":"response","test_stimulus":{"position":0,"left":"bvh/pass-bottle-training3-lines.txt","right":"bvh/vr_prediction_models/model(tmp)-dataset(pass-bottle)-numprim(12)-hold(3)/final-lines.txt","att_check":false},"trial_type":"html-keyboard-response","trial_index":14,"time_elapsed":42101,"internal_node_id":"0.0-8.0-3.1","subject":"pgw7cw32wwfrcju","sona":"9361"},{"rt":205.8049999177456,"stimulus":"<p>Bereit?</p>","key_press":32,"trial_type":"html-keyboard-response","trial_index":15,"time_elapsed":42309,"internal_node_id":"0.0-8.0-0.2","subject":"pgw7cw32wwfrcju","sona":"9361"},{"rt":null,"stimulus":"<div style=\"font-size:60px;\">+</div>","key_press":null,"trial_type":"html-keyboard-response","trial_index":16,"time_elapsed":44312,"internal_node_id":"0.0-8.0-1.2","subject":"pgw7cw32wwfrcju","sona":"9361"},{"trial_type":"turing-test","trial_index":17,"time_elapsed":50427,"internal_node_id":"0.0-8.0-2.2","subject":"pgw7cw32wwfrcju","sona":"9361"},{"rt":1112.3549999902025,"stimulus":"<p>Welche Sequenz haben Sie als natürlicher empfunden?</p>","key_press":70,"test_part":"response","test_stimulus":{"position":0,"left":"bvh/return-bottle-training1-lines.txt","right":"bvh/vr_prediction_models/model(vcgpdm)-dataset(return-bottle)-mode(ELBO)-parts(3)-dyn(15)-lvm(30)-hold(1)/final-lines.txt","att_check":false},"trial_type":"html-keyboard-response","trial_index":18,"time_elapsed":51543,"internal_node_id":"0.0-8.0-3.2","subject":"pgw7cw32wwfrcju","sona":"9361"},{"rt":219.13000009953976,"stimulus":"<p>Bereit?</p>","key_press":32,"trial_type":"html-keyboard-response","trial_index":19,"time_elapsed":51764,"internal_node_id":"0.0-8.0-0.3","subject":"pgw7cw32wwfrcju","sona":"9361"},{"rt":null,"stimulus":"<div style=\"font-size:60px;\">+</div>","key_press":null,"trial_type":"html-keyboard-response","trial_index":20,"time_elapsed":53766,"internal_node_id":"0.0-8.0-1.3","subject":"pgw7cw32wwfrcju","sona":"9361"},{"trial_type":"turing-test","trial_index":21,"time_elapsed":59223,"internal_node_id":"0.0-8.0-2.3","subject":"pgw7cw32wwfrcju","sona":"9361"},{"rt":3978.2450000056997,"stimulus":"<p>Welche Sequenz haben Sie als natürlicher empfunden?</p>","key_press":70,"test_part":"response","test_stimulus":{"position":1,"left":"bvh/vr_prediction_models/model(vcgpdm)-dataset(return-bottle)-mode(ELBO)-parts(3)-dyn(25)-lvm(15)-hold(0)/final-lines.txt","right":"bvh/return-bottle-training0-lines.txt","att_check":false},"trial_type":"html-keyboard-response","trial_index":22,"time_elapsed":63204,"internal_node_id":"0.0-8.0-3.3","subject":"pgw7cw32wwfrcju","sona":"9361"},{"rt":181.404999922961,"stimulus":"<p>Bereit?</p>","key_press":32,"trial_type":"html-keyboard-response","trial_index":23,"time_elapsed":63388,"internal_node_id":"0.0-8.0-0.4","subject":"pgw7cw32wwfrcju","sona":"9361"},{"rt":null,"stimulus":"<div style=\"font-size:60px;\">+</div>","key_press":null,"trial_type":"html-keyboard-response","trial_index":24,"time_elapsed":65391,"internal_node_id":"0.0-8.0-1.4","subject":"pgw7cw32wwfrcju","sona":"9361"},{"trial_type":"turing-test","trial_index":25,"time_elapsed":69100,"internal_node_id":"0.0-8.0-2.4","subject":"pgw7cw32wwfrcju","sona":"9361"},{"rt":2745.344999944791,"stimulus":"<p>Welche Sequenz haben Sie als natürlicher empfunden?</p>","key_press":70,"test_part":"response","test_stimulus":{"position":1,"left":"bvh/vr_prediction_models/model(dmp)-dataset(pass-bottle-hold)-npsi(60)-hold(2)/final-lines.txt","right":"bvh/pass-bottle-hold-training2-lines.txt","att_check":true},"trial_type":"html-keyboard-response","trial_index":26,"time_elapsed":71848,"internal_node_id":"0.0-8.0-3.4","subject":"pgw7cw32wwfrcju","sona":"9361"},{"rt":227.9700000071898,"stimulus":"<p>Bereit?</p>","key_press":32,"trial_type":"html-keyboard-response","trial_index":27,"time_elapsed":72079,"internal_node_id":"0.0-8.0-0.5","subject":"pgw7cw32wwfrcju","sona":"9361"},{"rt":null,"stimulus":"<div style=\"font-size:60px;\">+</div>","key_press":null,"trial_type":"html-keyboard-response","trial_index":28,"time_elapsed":74081,"internal_node_id":"0.0-8.0-1.5","subject":"pgw7cw32wwfrcju","sona":"9361"},{"trial_type":"turing-test","trial_index":29,"time_elapsed":79934,"internal_node_id":"0.0-8.0-2.5","subject":"pgw7cw32wwfrcju","sona":"9361"},{"rt":395.30000009108335,"stimulus":"<p>Welche Sequenz haben Sie als natürlicher empfunden?</p>","key_press":70,"test_part":"response","test_stimulus":{"position":0,"left":"bvh/return-bottle-hold-training2-lines.txt","right":"bvh/vr_prediction_models/model(vcgpdm)-dataset(return-bottle-hold)-mode(ELBO)-parts(3)-dyn(25)-lvm(30)-hold(2)/final-lines.txt","att_check":false},"trial_type":"html-keyboard-response","trial_index":30,"time_elapsed":80332,"internal_node_id":"0.0-8.0-3.5","subject":"pgw7cw32wwfrcju","sona":"9361"},{"rt":239.0050000976771,"stimulus":"<p>Bereit?</p>","key_press":32,"trial_type":"html-keyboard-response","trial_index":31,"time_elapsed":80573,"internal_node_id":"0.0-8.0-0.6","subject":"pgw7cw32wwfrcju","sona":"9361"},{"rt":null,"stimulus":"<div style=\"font-size:60px;\">+</div>","key_press":null,"trial_type":"html-keyboard-response","trial_index":32,"time_elapsed":82575,"internal_node_id":"0.0-8.0-1.6","subject":"pgw7cw32wwfrcju","sona":"9361"},{"trial_type":"turing-test","trial_index":33,"time_elapsed":87865,"internal_node_id":"0.0-8.0-2.6","subject":"pgw7cw32wwfrcju","sona":"9361"},{"rt":774.7650000965223,"stimulus":"<p>Welche Sequenz haben Sie als natürlicher empfunden?</p>","key_press":70,"test_part":"response","test_stimulus":{"position":1,"left":"bvh/vr_prediction_models/model(vcgpdm)-dataset(pass-bottle-hold)-mode(ELBO)-parts(3)-dyn(10)-lvm(30)-hold(1)/final-lines.txt","right":"bvh/pass-bottle-hold-training1-lines.txt","att_check":false},"trial_type":"html-keyboard-response","trial_index":34,"time_elapsed":88643,"internal_node_id":"0.0-8.0-3.6","subject":"pgw7cw32wwfrcju","sona":"9361"},{"rt":223.98000000976026,"stimulus":"<p>Bereit?</p>","key_press":32,"trial_type":"html-keyboard-response","trial_index":35,"time_elapsed":88871,"internal_node_id":"0.0-8.0-0.7","subject":"pgw7cw32wwfrcju","sona":"9361"},{"rt":null,"stimulus":"<div style=\"font-size:60px;\">+</div>","key_press":null,"trial_type":"html-keyboard-response","trial_index":36,"time_elapsed":90872,"internal_node_id":"0.0-8.0-1.7","subject":"pgw7cw32wwfrcju","sona":"9361"},{"trial_type":"turing-test","trial_index":37,"time_elapsed":98668,"internal_node_id":"0.0-8.0-2.7","subject":"pgw7cw32wwfrcju","sona":"9361"},{"rt":527.8299999190494,"stimulus":"<p>Welche Sequenz haben Sie als natürlicher empfunden?</p>","key_press":70,"test_part":"response","test_stimulus":{"position":0,"left":"bvh/return-bottle-training2-lines.txt","right":"bvh/vr_prediction_models/model(vcgpdm)-dataset(return-bottle)-mode(ELBO)-parts(3)-dyn(30)-lvm(15)-hold(2)/final-lines.txt","att_check":false},"trial_type":"html-keyboard-response","trial_index":38,"time_elapsed":99199,"internal_node_id":"0.0-8.0-3.7","subject":"pgw7cw32wwfrcju","sona":"9361"},{"rt":267.75500003714114,"stimulus":"<p>Bereit?</p>","key_press":32,"trial_type":"html-keyboard-response","trial_index":39,"time_elapsed":99469,"internal_node_id":"0.0-8.0-0.8","subject":"pgw7cw32wwfrcju","sona":"9361"},{"rt":null,"stimulus":"<div style=\"font-size:60px;\">+</div>","key_press":null,"trial_type":"html-keyboard-response","trial_index":40,"time_elapsed":101472,"internal_node_id":"0.0-8.0-1.8","subject":"pgw7cw32wwfrcju","sona":"9361"},{"trial_type":"turing-test","trial_index":41,"time_elapsed":107298,"internal_node_id":"0.0-8.0-2.8","subject":"pgw7cw32wwfrcju","sona":"9361"},{"rt":847.4250000435859,"stimulus":"<p>Welche Sequenz haben Sie als natürlicher empfunden?</p>","key_press":70,"test_part":"response","test_stimulus":{"position":0,"left":"bvh/pass-bottle-hold-training1-lines.txt","right":"bvh/vr_prediction_models/model(vcgpdm)-dataset(pass-bottle-hold)-mode(ELBO)-parts(1)-dyn(30)-lvm(35)-hold(1)/final-lines.txt","att_check":false},"trial_type":"html-keyboard-response","trial_index":42,"time_elapsed":108148,"internal_node_id":"0.0-8.0-3.8","subject":"pgw7cw32wwfrcju","sona":"9361"},{"rt":283.31500000786036,"stimulus":"<p>Bereit?</p>","key_press":32,"trial_type":"html-keyboard-response","trial_index":43,"time_elapsed":108433,"internal_node_id":"0.0-8.0-0.9","subject":"pgw7cw32wwfrcju","sona":"9361"},{"rt":null,"stimulus":"<div style=\"font-size:60px;\">+</div>","key_press":null,"trial_type":"html-keyboard-response","trial_index":44,"time_elapsed":110435,"internal_node_id":"0.0-8.0-1.9","subject":"pgw7cw32wwfrcju","sona":"9361"},{"trial_type":"turing-test","trial_index":45,"time_elapsed":115486,"internal_node_id":"0.0-8.0-2.9","subject":"pgw7cw32wwfrcju","sona":"9361"},{"rt":727.1549999713898,"stimulus":"<p>Welche Sequenz haben Sie als natürlicher empfunden?</p>","key_press":70,"test_part":"response","test_stimulus":{"position":1,"left":"bvh/vr_prediction_models/model(vcgpdm)-dataset(pass-bottle-hold)-mode(ELBO)-parts(3)-dyn(20)-lvm(20)-hold(2)/final-lines.txt","right":"bvh/pass-bottle-hold-training2-lines.txt","att_check":false},"trial_type":"html-keyboard-response","trial_index":46,"time_elapsed":116217,"internal_node_id":"0.0-8.0-3.9","subject":"pgw7cw32wwfrcju","sona":"9361"},{"rt":257.9299999633804,"stimulus":"<p>Bereit?</p>","key_press":32,"trial_type":"html-keyboard-response","trial_index":47,"time_elapsed":116477,"internal_node_id":"0.0-8.0-0.10","subject":"pgw7cw32wwfrcju","sona":"9361"},{"rt":null,"stimulus":"<div style=\"font-size:60px;\">+</div>","key_press":null,"trial_type":"html-keyboard-response","trial_index":48,"time_elapsed":118481,"internal_node_id":"0.0-8.0-1.10","subject":"pgw7cw32wwfrcju","sona":"9361"},{"trial_type":"turing-test","trial_index":49,"time_elapsed":126377,"internal_node_id":"0.0-8.0-2.10","subject":"pgw7cw32wwfrcju","sona":"9361"},{"rt":1355.269999941811,"stimulus":"<p>Welche Sequenz haben Sie als natürlicher empfunden?</p>","key_press":70,"test_part":"response","test_stimulus":{"position":1,"left":"bvh/vr_prediction_models/model(vcgpdm)-dataset(return-bottle)-mode(ELBO)-parts(3)-dyn(20)-lvm(20)-hold(1)/final-lines.txt","right":"bvh/return-bottle-training1-lines.txt","att_check":false},"trial_type":"html-keyboard-response","trial_index":50,"time_elapsed":127734,"internal_node_id":"0.0-8.0-3.10","subject":"pgw7cw32wwfrcju","sona":"9361"},{"rt":510.03500004298985,"stimulus":"<p>Bereit?</p>","key_press":32,"trial_type":"html-keyboard-response","trial_index":51,"time_elapsed":128246,"internal_node_id":"0.0-8.0-0.11","subject":"pgw7cw32wwfrcju","sona":"9361"},{"rt":null,"stimulus":"<div style=\"font-size:60px;\">+</div>","key_press":null,"trial_type":"html-keyboard-response","trial_index":52,"time_elapsed":130249,"internal_node_id":"0.0-8.0-1.11","subject":"pgw7cw32wwfrcju","sona":"9361"}]