[{"rt":1867.2300000034738,"stimulus":"<p>Welcome!<br> Please choose your language to start the experiment in the chosen language.</p><p>Willkommen!<br> Bitte wählen Sie eine Sprache, um das Experiment in der ausgewählten Sprache zu starten</p>","button_pressed":"0","trial_type":"html-button-response","trial_index":0,"time_elapsed":1901,"internal_node_id":"0.0-0.0","subject":"jc68al0avbb014o","sona":"3379"},{"view_history":"[{\"page_index\":0,\"viewing_time\":6376930.195000001},{\"page_index\":1,\"viewing_time\":4165.565000002272},{\"page_index\":2,\"viewing_time\":4087.7750000003725},{\"page_index\":3,\"viewing_time\":2547401.8999999966},{\"page_index\":4,\"viewing_time\":2183.205000001937}]","rt":8934769.635000004,"trial_type":"instructions","trial_index":1,"time_elapsed":8935216,"internal_node_id":"0.0-2.0-0.0","subject":"jc68al0avbb014o","sona":"3379"},{"rt":2219.1050000041723,"stimulus":"<p>Ready?</p>","key_press":32,"trial_type":"html-keyboard-response","trial_index":2,"time_elapsed":8937438,"internal_node_id":"0.0-3.0","subject":"jc68al0avbb014o","sona":"3379"},{"rt":null,"stimulus":"<div style=\"font-size:60px;\">+</div>","key_press":null,"trial_type":"html-keyboard-response","trial_index":3,"time_elapsed":8939442,"internal_node_id":"0.0-4.0","subject":"jc68al0avbb014o","sona":"3379"},{"trial_type":"training","trial_index":4,"time_elapsed":8943049,"internal_node_id":"0.0-5.0","subject":"jc68al0avbb014o","sona":"3379"},{"rt":3852.830000001937,"stimulus":"<p>Which sequence did you perceive as more natural?</p>","key_press":70,"trial_type":"html-keyboard-response","trial_index":5,"time_elapsed":8946903,"internal_node_id":"0.0-6.0","subject":"jc68al0avbb014o","sona":"3379"},{"rt":9584.915000000969,"stimulus":"<p>The experiment starts now.</p><p><small>Please click the button if you are ready.</small></p>","button_pressed":"0","trial_type":"html-button-response","trial_index":6,"time_elapsed":8956489,"internal_node_id":"0.0-7.0","subject":"jc68al0avbb014o","sona":"3379"},{"rt":2028.120000001043,"stimulus":"<p>Ready?</p>","key_press":32,"trial_type":"html-keyboard-response","trial_index":7,"time_elapsed":8958519,"internal_node_id":"0.0-8.0-0.0","subject":"jc68al0avbb014o","sona":"3379"},{"rt":null,"stimulus":"<div style=\"font-size:60px;\">+</div>","key_press":null,"trial_type":"html-keyboard-response","trial_index":8,"time_elapsed":8960521,"internal_node_id":"0.0-8.0-1.0","subject":"jc68al0avbb014o","sona":"3379"},{"trial_type":"turing-test","trial_index":9,"time_elapsed":8964169,"internal_node_id":"0.0-8.0-2.0","subject":"jc68al0avbb014o","sona":"3379"},{"rt":548.7450000010431,"stimulus":"<p>Which sequence did you perceive as more natural?</p>","key_press":70,"test_part":"response","test_stimulus":{"position":0,"left":"bvh/pass-bottle-hold-training3-lines.txt","right":"bvh/vr_prediction_models/model(tmp)-dataset(pass-bottle-hold)-numprim(15)-hold(3)/final-lines.txt","att_check":false},"trial_type":"html-keyboard-response","trial_index":10,"time_elapsed":8964719,"internal_node_id":"0.0-8.0-3.0","subject":"jc68al0avbb014o","sona":"3379"},{"rt":2277.809999998659,"stimulus":"<p>Ready?</p>","key_press":32,"trial_type":"html-keyboard-response","trial_index":11,"time_elapsed":8966999,"internal_node_id":"0.0-8.0-0.1","subject":"jc68al0avbb014o","sona":"3379"},{"rt":null,"stimulus":"<div style=\"font-size:60px;\">+</div>","key_press":null,"trial_type":"html-keyboard-response","trial_index":12,"time_elapsed":8969001,"internal_node_id":"0.0-8.0-1.1","subject":"jc68al0avbb014o","sona":"3379"},{"trial_type":"turing-test","trial_index":13,"time_elapsed":8975031,"internal_node_id":"0.0-8.0-2.1","subject":"jc68al0avbb014o","sona":"3379"},{"rt":438.4399999976158,"stimulus":"<p>Which sequence did you perceive as more natural?</p>","key_press":70,"test_part":"response","test_stimulus":{"position":0,"left":"bvh/return-bottle-training4-lines.txt","right":"bvh/vr_prediction_models/model(vcgpdm)-dataset(return-bottle)-mode(ELBO)-parts(1)-dyn(10)-lvm(30)-hold(4)/final-lines.txt","att_check":false},"trial_type":"html-keyboard-response","trial_index":14,"time_elapsed":8975471,"internal_node_id":"0.0-8.0-3.1","subject":"jc68al0avbb014o","sona":"3379"},{"rt":670.5049999952316,"stimulus":"<p>Ready?</p>","key_press":32,"trial_type":"html-keyboard-response","trial_index":15,"time_elapsed":8976143,"internal_node_id":"0.0-8.0-0.2","subject":"jc68al0avbb014o","sona":"3379"},{"rt":null,"stimulus":"<div style=\"font-size:60px;\">+</div>","key_press":null,"trial_type":"html-keyboard-response","trial_index":16,"time_elapsed":8978146,"internal_node_id":"0.0-8.0-1.2","subject":"jc68al0avbb014o","sona":"3379"},{"trial_type":"turing-test","trial_index":17,"time_elapsed":8984395,"internal_node_id":"0.0-8.0-2.2","subject":"jc68al0avbb014o","sona":"3379"},{"rt":258.72000000439584,"stimulus":"<p>Which sequence did you perceive as more natural?</p>","key_press":74,"test_part":"response","test_stimulus":{"position":1,"left":"bvh/vr_prediction_models/model(vcgpdm)-dataset(return-bottle)-mode(ELBO)-parts(1)-dyn(20)-lvm(20)-hold(1)/final-lines.txt","right":"bvh/return-bottle-training1-lines.txt","att_check":false},"trial_type":"html-keyboard-response","trial_index":18,"time_elapsed":8984655,"internal_node_id":"0.0-8.0-3.2","subject":"jc68al0avbb014o","sona":"3379"},{"rt":918.6550000011921,"stimulus":"<p>Ready?</p>","key_press":32,"trial_type":"html-keyboard-response","trial_index":19,"time_elapsed":8985576,"internal_node_id":"0.0-8.0-0.3","subject":"jc68al0avbb014o","sona":"3379"},{"rt":null,"stimulus":"<div style=\"font-size:60px;\">+</div>","key_press":null,"trial_type":"html-keyboard-response","trial_index":20,"time_elapsed":8987579,"internal_node_id":"0.0-8.0-1.3","subject":"jc68al0avbb014o","sona":"3379"},{"trial_type":"turing-test","trial_index":21,"time_elapsed":8993524,"internal_node_id":"0.0-8.0-2.3","subject":"jc68al0avbb014o","sona":"3379"},{"rt":498.3700000010431,"stimulus":"<p>Which sequence did you perceive as more natural?</p>","key_press":70,"test_part":"response","test_stimulus":{"position":0,"left":"bvh/pass-bottle-training4-lines.txt","right":"bvh/vr_prediction_models/model(vcgpdm)-dataset(pass-bottle)-mode(ELBO)-parts(1)-dyn(30)-lvm(35)-hold(4)/final-lines.txt","att_check":false},"trial_type":"html-keyboard-response","trial_index":22,"time_elapsed":8994024,"internal_node_id":"0.0-8.0-3.3","subject":"jc68al0avbb014o","sona":"3379"},{"rt":678.5600000005215,"stimulus":"<p>Ready?</p>","key_press":32,"trial_type":"html-keyboard-response","trial_index":23,"time_elapsed":8994704,"internal_node_id":"0.0-8.0-0.4","subject":"jc68al0avbb014o","sona":"3379"},{"rt":null,"stimulus":"<div style=\"font-size:60px;\">+</div>","key_press":null,"trial_type":"html-keyboard-response","trial_index":24,"time_elapsed":8996708,"internal_node_id":"0.0-8.0-1.4","subject":"jc68al0avbb014o","sona":"3379"},{"trial_type":"turing-test","trial_index":25,"time_elapsed":9000128,"internal_node_id":"0.0-8.0-2.4","subject":"jc68al0avbb014o","sona":"3379"},{"rt":1694.8599999956787,"stimulus":"<p>Which sequence did you perceive as more natural?</p>","key_press":70,"test_part":"response","test_stimulus":{"position":0,"left":"bvh/pass-bottle-hold-training2-lines.txt","right":"bvh/vr_prediction_models/model(dmp)-dataset(pass-bottle-hold)-npsi(100)-hold(2)/final-lines.txt","att_check":true},"trial_type":"html-keyboard-response","trial_index":26,"time_elapsed":9001825,"internal_node_id":"0.0-8.0-3.4","subject":"jc68al0avbb014o","sona":"3379"},{"rt":766.5149999968708,"stimulus":"<p>Ready?</p>","key_press":32,"trial_type":"html-keyboard-response","trial_index":27,"time_elapsed":9002593,"internal_node_id":"0.0-8.0-0.5","subject":"jc68al0avbb014o","sona":"3379"},{"rt":null,"stimulus":"<div style=\"font-size:60px;\">+</div>","key_press":null,"trial_type":"html-keyboard-response","trial_index":28,"time_elapsed":9004595,"internal_node_id":"0.0-8.0-1.5","subject":"jc68al0avbb014o","sona":"3379"},{"trial_type":"turing-test","trial_index":29,"time_elapsed":9008337,"internal_node_id":"0.0-8.0-2.5","subject":"jc68al0avbb014o","sona":"3379"},{"rt":333.59000000171363,"stimulus":"<p>Which sequence did you perceive as more natural?</p>","key_press":74,"test_part":"response","test_stimulus":{"position":0,"left":"bvh/pass-bottle-hold-training3-lines.txt","right":"bvh/vr_prediction_models/model(vcgpdm)-dataset(pass-bottle-hold)-mode(ELBO)-parts(3)-dyn(35)-lvm(20)-hold(3)/final-lines.txt","att_check":false},"trial_type":"html-keyboard-response","trial_index":30,"time_elapsed":9008673,"internal_node_id":"0.0-8.0-3.5","subject":"jc68al0avbb014o","sona":"3379"},{"rt":414.84999999962747,"stimulus":"<p>Ready?</p>","key_press":32,"trial_type":"html-keyboard-response","trial_index":31,"time_elapsed":9009089,"internal_node_id":"0.0-8.0-0.6","subject":"jc68al0avbb014o","sona":"3379"},{"rt":null,"stimulus":"<div style=\"font-size:60px;\">+</div>","key_press":null,"trial_type":"html-keyboard-response","trial_index":32,"time_elapsed":9011092,"internal_node_id":"0.0-8.0-1.6","subject":"jc68al0avbb014o","sona":"3379"},{"trial_type":"turing-test","trial_index":33,"time_elapsed":9014911,"internal_node_id":"0.0-8.0-2.6","subject":"jc68al0avbb014o","sona":"3379"},{"rt":176.19499999843538,"stimulus":"<p>Which sequence did you perceive as more natural?</p>","key_press":70,"test_part":"response","test_stimulus":{"position":0,"left":"bvh/return-bottle-hold-training4-lines.txt","right":"bvh/vr_prediction_models/model(tmp)-dataset(return-bottle-hold)-numprim(6)-hold(4)/final-lines.txt","att_check":false},"trial_type":"html-keyboard-response","trial_index":34,"time_elapsed":9015089,"internal_node_id":"0.0-8.0-3.6","subject":"jc68al0avbb014o","sona":"3379"},{"rt":742.734999999404,"stimulus":"<p>Ready?</p>","key_press":32,"trial_type":"html-keyboard-response","trial_index":35,"time_elapsed":9015833,"internal_node_id":"0.0-8.0-0.7","subject":"jc68al0avbb014o","sona":"3379"},{"rt":null,"stimulus":"<div style=\"font-size:60px;\">+</div>","key_press":null,"trial_type":"html-keyboard-response","trial_index":36,"time_elapsed":9017836,"internal_node_id":"0.0-8.0-1.7","subject":"jc68al0avbb014o","sona":"3379"},{"trial_type":"turing-test","trial_index":37,"time_elapsed":9021195,"internal_node_id":"0.0-8.0-2.7","subject":"jc68al0avbb014o","sona":"3379"},{"rt":308.4250000026077,"stimulus":"<p>Which sequence did you perceive as more natural?</p>","key_press":74,"test_part":"response","test_stimulus":{"position":1,"left":"bvh/vr_prediction_models/model(tmp)-dataset(pass-bottle-hold)-numprim(4)-hold(0)/final-lines.txt","right":"bvh/pass-bottle-hold-training0-lines.txt","att_check":false},"trial_type":"html-keyboard-response","trial_index":38,"time_elapsed":9021505,"internal_node_id":"0.0-8.0-3.7","subject":"jc68al0avbb014o","sona":"3379"},{"rt":318.12499999813735,"stimulus":"<p>Ready?</p>","key_press":32,"trial_type":"html-keyboard-response","trial_index":39,"time_elapsed":9021825,"internal_node_id":"0.0-8.0-0.8","subject":"jc68al0avbb014o","sona":"3379"},{"rt":null,"stimulus":"<div style=\"font-size:60px;\">+</div>","key_press":null,"trial_type":"html-keyboard-response","trial_index":40,"time_elapsed":9023828,"internal_node_id":"0.0-8.0-1.8","subject":"jc68al0avbb014o","sona":"3379"},{"trial_type":"turing-test","trial_index":41,"time_elapsed":9030029,"internal_node_id":"0.0-8.0-2.8","subject":"jc68al0avbb014o","sona":"3379"},{"rt":314.3950000014156,"stimulus":"<p>Which sequence did you perceive as more natural?</p>","key_press":74,"test_part":"response","test_stimulus":{"position":1,"left":"bvh/vr_prediction_models/model(tmp)-dataset(return-bottle)-numprim(11)-hold(1)/final-lines.txt","right":"bvh/return-bottle-training1-lines.txt","att_check":false},"trial_type":"html-keyboard-response","trial_index":42,"time_elapsed":9030346,"internal_node_id":"0.0-8.0-3.8","subject":"jc68al0avbb014o","sona":"3379"},{"rt":214.214999999851,"stimulus":"<p>Ready?</p>","key_press":32,"trial_type":"html-keyboard-response","trial_index":43,"time_elapsed":9030562,"internal_node_id":"0.0-8.0-0.9","subject":"jc68al0avbb014o","sona":"3379"},{"rt":null,"stimulus":"<div style=\"font-size:60px;\">+</div>","key_press":null,"trial_type":"html-keyboard-response","trial_index":44,"time_elapsed":9032564,"internal_node_id":"0.0-8.0-1.9","subject":"jc68al0avbb014o","sona":"3379"},{"trial_type":"turing-test","trial_index":45,"time_elapsed":9036013,"internal_node_id":"0.0-8.0-2.9","subject":"jc68al0avbb014o","sona":"3379"},{"rt":546.9000000003725,"stimulus":"<p>Which sequence did you perceive as more natural?</p>","key_press":70,"test_part":"response","test_stimulus":{"position":0,"left":"bvh/return-bottle-hold-training1-lines.txt","right":"bvh/vr_prediction_models/model(dmp)-dataset(return-bottle-hold)-npsi(30)-hold(1)/final-lines.txt","att_check":false},"trial_type":"html-keyboard-response","trial_index":46,"time_elapsed":9036562,"internal_node_id":"0.0-8.0-3.9","subject":"jc68al0avbb014o","sona":"3379"},{"rt":214.90499999932945,"stimulus":"<p>Ready?</p>","key_press":32,"trial_type":"html-keyboard-response","trial_index":47,"time_elapsed":9036778,"internal_node_id":"0.0-8.0-0.10","subject":"jc68al0avbb014o","sona":"3379"},{"rt":null,"stimulus":"<div style=\"font-size:60px;\">+</div>","key_press":null,"trial_type":"html-keyboard-response","trial_index":48,"time_elapsed":9038780,"internal_node_id":"0.0-8.0-1.10","subject":"jc68al0avbb014o","sona":"3379"},{"trial_type":"turing-test","trial_index":49,"time_elapsed":9042043,"internal_node_id":"0.0-8.0-2.10","subject":"jc68al0avbb014o","sona":"3379"},{"rt":1138.7049999982119,"stimulus":"<p>Which sequence did you perceive as more natural?</p>","key_press":74,"test_part":"response","test_stimulus":{"position":0,"left":"bvh/pass-bottle-hold-training1-lines.txt","right":"bvh/vr_prediction_models/model(dmp)-dataset(pass-bottle-hold)-npsi(80)-hold(1)/final-lines.txt","att_check":false},"trial_type":"html-keyboard-response","trial_index":50,"time_elapsed":9043186,"internal_node_id":"0.0-8.0-3.10","subject":"jc68al0avbb014o","sona":"3379"},{"rt":286.39999999664724,"stimulus":"<p>Ready?</p>","key_press":32,"trial_type":"html-keyboard-response","trial_index":51,"time_elapsed":9043474,"internal_node_id":"0.0-8.0-0.11","subject":"jc68al0avbb014o","sona":"3379"},{"rt":null,"stimulus":"<div style=\"font-size:60px;\">+</div>","key_press":null,"trial_type":"html-keyboard-response","trial_index":52,"time_elapsed":9045477,"internal_node_id":"0.0-8.0-1.11","subject":"jc68al0avbb014o","sona":"3379"}]