[{"rt":1155,"stimulus":"<p>Welcome!<br> Please choose your language to start the experiment in the chosen language.</p><p>Willkommen!<br> Bitte wählen Sie eine Sprache um das Experiment in der ausgewählten Sprache zu starten</p>","button_pressed":"1","trial_type":"html-button-response","trial_index":0,"time_elapsed":1164,"internal_node_id":"0.0-0.0","subject":"b2pjb3quqspdbq8"},{"view_history":"[{\"page_index\":0,\"viewing_time\":337},{\"page_index\":1,\"viewing_time\":1145},{\"page_index\":2,\"viewing_time\":624},{\"page_index\":3,\"viewing_time\":498}]","rt":2604,"trial_type":"instructions","trial_index":1,"time_elapsed":3770,"internal_node_id":"0.0-1.0-0.0","subject":"b2pjb3quqspdbq8"},{"rt":756,"stimulus":"<p>Bereit?</p>","button_pressed":"0","trial_type":"html-button-response","trial_index":2,"time_elapsed":4526,"internal_node_id":"0.0-3.0","subject":"b2pjb3quqspdbq8"},{"rt":null,"stimulus":"<div style=\"font-size:60px;\">+</div>","key_press":null,"trial_type":"html-keyboard-response","trial_index":3,"time_elapsed":6531,"internal_node_id":"0.0-4.0","subject":"b2pjb3quqspdbq8"},{"trial_type":"training","trial_index":4,"time_elapsed":9800,"internal_node_id":"0.0-5.0","subject":"b2pjb3quqspdbq8"},{"rt":1090,"stimulus":"<p>Welche Sequenz haben Sie als natürlicher empfunden?</p>","button_pressed":"0","trial_type":"html-button-response","trial_index":5,"time_elapsed":10891,"internal_node_id":"0.0-6.0","subject":"b2pjb3quqspdbq8"},{"rt":898,"stimulus":"<p>Das Experiment startet nun.</p><p> Bitte drücken Sie den Knopf, wenn Sie bereit sind.</p>","button_pressed":"0","trial_type":"html-button-response","trial_index":6,"time_elapsed":11789,"internal_node_id":"0.0-7.0","subject":"b2pjb3quqspdbq8"},{"rt":727,"stimulus":"<p>Bereit?</p>","button_pressed":"0","trial_type":"html-button-response","trial_index":7,"time_elapsed":12518,"internal_node_id":"0.0-8.0-0.0","subject":"b2pjb3quqspdbq8"},{"rt":null,"stimulus":"<div style=\"font-size:60px;\">+</div>","key_press":null,"trial_type":"html-keyboard-response","trial_index":8,"time_elapsed":14521,"internal_node_id":"0.0-8.0-1.0","subject":"b2pjb3quqspdbq8"},{"trial_type":"turing-test","trial_index":9,"time_elapsed":17994,"internal_node_id":"0.0-8.0-2.0","subject":"b2pjb3quqspdbq8"},{"rt":799,"stimulus":"<p>Welche Sequenz haben Sie als natürlicher empfunden?</p>","button_pressed":"1","test_part":"response","test_stimulus":{"position":1,"left":"bvh/vr_prediction_models/model(vcgpdm)-dataset(pass-bottle-hold)-mode(ELBO)-parts(1)-dyn(10)-lvm(25)-hold(2)/final-lines.txt","right":"bvh/pass-bottle-hold-training2-lines.txt","att_check":false},"trial_type":"html-button-response","trial_index":10,"time_elapsed":18798,"internal_node_id":"0.0-8.0-3.0","subject":"b2pjb3quqspdbq8"},{"rt":509,"stimulus":"<p>Bereit?</p>","button_pressed":"0","trial_type":"html-button-response","trial_index":11,"time_elapsed":19308,"internal_node_id":"0.0-8.0-0.1","subject":"b2pjb3quqspdbq8"},{"rt":null,"stimulus":"<div style=\"font-size:60px;\">+</div>","key_press":null,"trial_type":"html-keyboard-response","trial_index":12,"time_elapsed":21312,"internal_node_id":"0.0-8.0-1.1","subject":"b2pjb3quqspdbq8"},{"trial_type":"turing-test","trial_index":13,"time_elapsed":25052,"internal_node_id":"0.0-8.0-2.1","subject":"b2pjb3quqspdbq8"},{"rt":5392,"stimulus":"<p>Welche Sequenz haben Sie als natürlicher empfunden?</p>","button_pressed":"0","test_part":"response","test_stimulus":{"position":1,"left":"bvh/vr_prediction_models/model(vcgpdm)-dataset(pass-bottle-hold)-mode(ELBO)-parts(1)-dyn(20)-lvm(5)-hold(3)/final-lines.txt","right":"bvh/pass-bottle-hold-training3-lines.txt","att_check":false},"trial_type":"html-button-response","trial_index":14,"time_elapsed":30445,"internal_node_id":"0.0-8.0-3.1","subject":"b2pjb3quqspdbq8"},{"rt":648,"stimulus":"<p>Bereit?</p>","button_pressed":"0","trial_type":"html-button-response","trial_index":15,"time_elapsed":31094,"internal_node_id":"0.0-8.0-0.2","subject":"b2pjb3quqspdbq8"},{"rt":null,"stimulus":"<div style=\"font-size:60px;\">+</div>","key_press":null,"trial_type":"html-keyboard-response","trial_index":16,"time_elapsed":33097,"internal_node_id":"0.0-8.0-1.2","subject":"b2pjb3quqspdbq8"},{"trial_type":"turing-test","trial_index":17,"time_elapsed":39036,"internal_node_id":"0.0-8.0-2.2","subject":"b2pjb3quqspdbq8"},{"rt":935,"stimulus":"<p>Welche Sequenz haben Sie als natürlicher empfunden?</p>","button_pressed":"1","test_part":"response","test_stimulus":{"position":0,"left":"bvh/return-bottle-training1-lines.txt","right":"bvh/vr_prediction_models/model(tmp)-dataset(return-bottle)-numprim(4)-hold(1)/final-lines.txt","att_check":false},"trial_type":"html-button-response","trial_index":18,"time_elapsed":39973,"internal_node_id":"0.0-8.0-3.2","subject":"b2pjb3quqspdbq8"},{"rt":319,"stimulus":"<p>Bereit?</p>","button_pressed":"0","trial_type":"html-button-response","trial_index":19,"time_elapsed":40292,"internal_node_id":"0.0-8.0-0.3","subject":"b2pjb3quqspdbq8"},{"rt":null,"stimulus":"<div style=\"font-size:60px;\">+</div>","key_press":null,"trial_type":"html-keyboard-response","trial_index":20,"time_elapsed":42296,"internal_node_id":"0.0-8.0-1.3","subject":"b2pjb3quqspdbq8"},{"trial_type":"turing-test","trial_index":21,"time_elapsed":45790,"internal_node_id":"0.0-8.0-2.3","subject":"b2pjb3quqspdbq8"},{"rt":581,"stimulus":"<p>Welche Sequenz haben Sie als natürlicher empfunden?</p>","button_pressed":"1","test_part":"response","test_stimulus":{"position":1,"left":"bvh/vr_prediction_models/model(tmp)-dataset(return-bottle-hold)-numprim(14)-hold(2)/final-lines.txt","right":"bvh/return-bottle-hold-training2-lines.txt","att_check":false},"trial_type":"html-button-response","trial_index":22,"time_elapsed":46372,"internal_node_id":"0.0-8.0-3.3","subject":"b2pjb3quqspdbq8"},{"rt":431,"stimulus":"<p>Bereit?</p>","button_pressed":"0","trial_type":"html-button-response","trial_index":23,"time_elapsed":46804,"internal_node_id":"0.0-8.0-0.4","subject":"b2pjb3quqspdbq8"},{"rt":null,"stimulus":"<div style=\"font-size:60px;\">+</div>","key_press":null,"trial_type":"html-keyboard-response","trial_index":24,"time_elapsed":48808,"internal_node_id":"0.0-8.0-1.4","subject":"b2pjb3quqspdbq8"},{"trial_type":"turing-test","trial_index":25,"time_elapsed":55759,"internal_node_id":"0.0-8.0-2.4","subject":"b2pjb3quqspdbq8"},{"rt":723,"stimulus":"<p>Welche Sequenz haben Sie als natürlicher empfunden?</p>","button_pressed":"0","test_part":"response","test_stimulus":{"position":0,"left":"bvh/pass-bottle-training0-lines.txt","right":"bvh/vr_prediction_models/model(vcgpdm)-dataset(pass-bottle)-mode(ELBO)-parts(1)-dyn(30)-lvm(35)-hold(0)/final-lines.txt","att_check":false},"trial_type":"html-button-response","trial_index":26,"time_elapsed":56483,"internal_node_id":"0.0-8.0-3.4","subject":"b2pjb3quqspdbq8"},{"rt":1669,"stimulus":"<p>Bereit?</p>","button_pressed":"0","trial_type":"html-button-response","trial_index":27,"time_elapsed":58153,"internal_node_id":"0.0-8.0-0.5","subject":"b2pjb3quqspdbq8"},{"rt":null,"stimulus":"<div style=\"font-size:60px;\">+</div>","key_press":null,"trial_type":"html-keyboard-response","trial_index":28,"time_elapsed":60160,"internal_node_id":"0.0-8.0-1.5","subject":"b2pjb3quqspdbq8"},{"trial_type":"turing-test","trial_index":29,"time_elapsed":64118,"internal_node_id":"0.0-8.0-2.5","subject":"b2pjb3quqspdbq8"},{"rt":749,"stimulus":"<p>Welche Sequenz haben Sie als natürlicher empfunden?</p>","button_pressed":"1","test_part":"response","test_stimulus":{"position":0,"left":"bvh/pass-bottle-hold-training3-lines.txt","right":"bvh/vr_prediction_models/model(vcgpdm)-dataset(pass-bottle-hold)-mode(ELBO)-parts(3)-dyn(30)-lvm(15)-hold(3)/final-lines.txt","att_check":false},"trial_type":"html-button-response","trial_index":30,"time_elapsed":64867,"internal_node_id":"0.0-8.0-3.5","subject":"b2pjb3quqspdbq8"},{"rt":423,"stimulus":"<p>Bereit?</p>","button_pressed":"0","trial_type":"html-button-response","trial_index":31,"time_elapsed":65291,"internal_node_id":"0.0-8.0-0.6","subject":"b2pjb3quqspdbq8"},{"rt":null,"stimulus":"<div style=\"font-size:60px;\">+</div>","key_press":null,"trial_type":"html-keyboard-response","trial_index":32,"time_elapsed":67292,"internal_node_id":"0.0-8.0-1.6","subject":"b2pjb3quqspdbq8"},{"trial_type":"turing-test","trial_index":33,"time_elapsed":73336,"internal_node_id":"0.0-8.0-2.6","subject":"b2pjb3quqspdbq8"},{"rt":529,"stimulus":"<p>Welche Sequenz haben Sie als natürlicher empfunden?</p>","button_pressed":"1","test_part":"response","test_stimulus":{"position":1,"left":"bvh/vr_prediction_models/model(vcgpdm)-dataset(pass-bottle)-mode(ELBO)-parts(1)-dyn(35)-lvm(10)-hold(3)/final-lines.txt","right":"bvh/pass-bottle-training3-lines.txt","att_check":false},"trial_type":"html-button-response","trial_index":34,"time_elapsed":73866,"internal_node_id":"0.0-8.0-3.6","subject":"b2pjb3quqspdbq8"},{"rt":238,"stimulus":"<p>Bereit?</p>","button_pressed":"0","trial_type":"html-button-response","trial_index":35,"time_elapsed":74106,"internal_node_id":"0.0-8.0-0.7","subject":"b2pjb3quqspdbq8"},{"rt":null,"stimulus":"<div style=\"font-size:60px;\">+</div>","key_press":null,"trial_type":"html-keyboard-response","trial_index":36,"time_elapsed":76109,"internal_node_id":"0.0-8.0-1.7","subject":"b2pjb3quqspdbq8"},{"trial_type":"turing-test","trial_index":37,"time_elapsed":81920,"internal_node_id":"0.0-8.0-2.7","subject":"b2pjb3quqspdbq8"},{"rt":572,"stimulus":"<p>Welche Sequenz haben Sie als natürlicher empfunden?</p>","button_pressed":"0","test_part":"response","test_stimulus":{"position":1,"left":"bvh/vr_prediction_models/model(tmp)-dataset(pass-bottle)-numprim(3)-hold(3)/final-lines.txt","right":"bvh/pass-bottle-training3-lines.txt","att_check":false},"trial_type":"html-button-response","trial_index":38,"time_elapsed":82494,"internal_node_id":"0.0-8.0-3.7","subject":"b2pjb3quqspdbq8"},{"rt":255,"stimulus":"<p>Bereit?</p>","button_pressed":"0","trial_type":"html-button-response","trial_index":39,"time_elapsed":82750,"internal_node_id":"0.0-8.0-0.8","subject":"b2pjb3quqspdbq8"},{"rt":null,"stimulus":"<div style=\"font-size:60px;\">+</div>","key_press":null,"trial_type":"html-keyboard-response","trial_index":40,"time_elapsed":84752,"internal_node_id":"0.0-8.0-1.8","subject":"b2pjb3quqspdbq8"},{"trial_type":"turing-test","trial_index":41,"time_elapsed":90765,"internal_node_id":"0.0-8.0-2.8","subject":"b2pjb3quqspdbq8"},{"rt":692,"stimulus":"<p>Welche Sequenz haben Sie als natürlicher empfunden?</p>","button_pressed":"0","test_part":"response","test_stimulus":{"position":1,"left":"bvh/vr_prediction_models/model(vcgpdm)-dataset(pass-bottle)-mode(ELBO)-parts(1)-dyn(35)-lvm(30)-hold(3)/final-lines.txt","right":"bvh/pass-bottle-training3-lines.txt","att_check":false},"trial_type":"html-button-response","trial_index":42,"time_elapsed":91459,"internal_node_id":"0.0-8.0-3.8","subject":"b2pjb3quqspdbq8"},{"rt":296,"stimulus":"<p>Bereit?</p>","button_pressed":"0","trial_type":"html-button-response","trial_index":43,"time_elapsed":91755,"internal_node_id":"0.0-8.0-0.9","subject":"b2pjb3quqspdbq8"},{"rt":null,"stimulus":"<div style=\"font-size:60px;\">+</div>","key_press":null,"trial_type":"html-keyboard-response","trial_index":44,"time_elapsed":93758,"internal_node_id":"0.0-8.0-1.9","subject":"b2pjb3quqspdbq8"},{"trial_type":"turing-test","trial_index":45,"time_elapsed":99334,"internal_node_id":"0.0-8.0-2.9","subject":"b2pjb3quqspdbq8"},{"rt":1099,"stimulus":"<p>Welche Sequenz haben Sie als natürlicher empfunden?</p>","button_pressed":"1","test_part":"response","test_stimulus":{"position":1,"left":"bvh/vr_prediction_models/model(vcgpdm)-dataset(return-bottle)-mode(ELBO)-parts(3)-dyn(10)-lvm(10)-hold(0)/final-lines.txt","right":"bvh/return-bottle-training0-lines.txt","att_check":false},"trial_type":"html-button-response","trial_index":46,"time_elapsed":100434,"internal_node_id":"0.0-8.0-3.9","subject":"b2pjb3quqspdbq8"},{"rt":776,"stimulus":"<p>Bereit?</p>","button_pressed":"0","trial_type":"html-button-response","trial_index":47,"time_elapsed":101212,"internal_node_id":"0.0-8.0-0.10","subject":"b2pjb3quqspdbq8"},{"rt":null,"stimulus":"<div style=\"font-size:60px;\">+</div>","key_press":null,"trial_type":"html-keyboard-response","trial_index":48,"time_elapsed":103213,"internal_node_id":"0.0-8.0-1.10","subject":"b2pjb3quqspdbq8"},{"trial_type":"turing-test","trial_index":49,"time_elapsed":106852,"internal_node_id":"0.0-8.0-2.10","subject":"b2pjb3quqspdbq8"},{"rt":1107,"stimulus":"<p>Welche Sequenz haben Sie als natürlicher empfunden?</p>","button_pressed":"1","test_part":"response","test_stimulus":{"position":1,"left":"bvh/vr_prediction_models/model(vcgpdm)-dataset(return-bottle-hold)-mode(ELBO)-parts(3)-dyn(15)-lvm(30)-hold(1)/final-lines.txt","right":"bvh/return-bottle-hold-training1-lines.txt","att_check":false},"trial_type":"html-button-response","trial_index":50,"time_elapsed":107961,"internal_node_id":"0.0-8.0-3.10","subject":"b2pjb3quqspdbq8"},{"rt":310,"stimulus":"<p>Bereit?</p>","button_pressed":"0","trial_type":"html-button-response","trial_index":51,"time_elapsed":108272,"internal_node_id":"0.0-8.0-0.11","subject":"b2pjb3quqspdbq8"},{"rt":null,"stimulus":"<div style=\"font-size:60px;\">+</div>","key_press":null,"trial_type":"html-keyboard-response","trial_index":52,"time_elapsed":110277,"internal_node_id":"0.0-8.0-1.11","subject":"b2pjb3quqspdbq8"},{"trial_type":"turing-test","trial_index":53,"time_elapsed":116166,"internal_node_id":"0.0-8.0-2.11","subject":"b2pjb3quqspdbq8"},{"rt":1371,"stimulus":"<p>Welche Sequenz haben Sie als natürlicher empfunden?</p>","button_pressed":"0","test_part":"response","test_stimulus":{"position":0,"left":"bvh/return-bottle-training4-lines.txt","right":"bvh/vr_prediction_models/model(vcgpdm)-dataset(return-bottle)-mode(ELBO)-parts(1)-dyn(15)-lvm(35)-hold(4)/final-lines.txt","att_check":false},"trial_type":"html-button-response","trial_index":54,"time_elapsed":117539,"internal_node_id":"0.0-8.0-3.11","subject":"b2pjb3quqspdbq8"},{"rt":400,"stimulus":"<p>Bereit?</p>","button_pressed":"0","trial_type":"html-button-response","trial_index":55,"time_elapsed":117939,"internal_node_id":"0.0-8.0-0.12","subject":"b2pjb3quqspdbq8"},{"rt":null,"stimulus":"<div style=\"font-size:60px;\">+</div>","key_press":null,"trial_type":"html-keyboard-response","trial_index":56,"time_elapsed":119945,"internal_node_id":"0.0-8.0-1.12","subject":"b2pjb3quqspdbq8"},{"trial_type":"turing-test","trial_index":57,"time_elapsed":123258,"internal_node_id":"0.0-8.0-2.12","subject":"b2pjb3quqspdbq8"},{"rt":1039,"stimulus":"<p>Welche Sequenz haben Sie als natürlicher empfunden?</p>","button_pressed":"1","test_part":"response","test_stimulus":{"position":0,"left":"bvh/pass-bottle-hold-training0-lines.txt","right":"bvh/vr_prediction_models/model(tmp)-dataset(pass-bottle-hold)-numprim(13)-hold(0)/final-lines.txt","att_check":false},"trial_type":"html-button-response","trial_index":58,"time_elapsed":124299,"internal_node_id":"0.0-8.0-3.12","subject":"b2pjb3quqspdbq8"},{"rt":376,"stimulus":"<p>Bereit?</p>","button_pressed":"0","trial_type":"html-button-response","trial_index":59,"time_elapsed":124676,"internal_node_id":"0.0-8.0-0.13","subject":"b2pjb3quqspdbq8"},{"rt":null,"stimulus":"<div style=\"font-size:60px;\">+</div>","key_press":null,"trial_type":"html-keyboard-response","trial_index":60,"time_elapsed":126679,"internal_node_id":"0.0-8.0-1.13","subject":"b2pjb3quqspdbq8"},{"trial_type":"turing-test","trial_index":61,"time_elapsed":130045,"internal_node_id":"0.0-8.0-2.13","subject":"b2pjb3quqspdbq8"},{"rt":665,"stimulus":"<p>Welche Sequenz haben Sie als natürlicher empfunden?</p>","button_pressed":"1","test_part":"response","test_stimulus":{"position":1,"left":"bvh/vr_prediction_models/model(dmp)-dataset(return-bottle-hold)-npsi(40)-hold(1)/final-lines.txt","right":"bvh/return-bottle-hold-training1-lines.txt","att_check":true},"trial_type":"html-button-response","trial_index":62,"time_elapsed":130711,"internal_node_id":"0.0-8.0-3.13","subject":"b2pjb3quqspdbq8"},{"rt":687,"stimulus":"<p>Bereit?</p>","button_pressed":"0","trial_type":"html-button-response","trial_index":63,"time_elapsed":131399,"internal_node_id":"0.0-8.0-0.14","subject":"b2pjb3quqspdbq8"},{"rt":null,"stimulus":"<div style=\"font-size:60px;\">+</div>","key_press":null,"trial_type":"html-keyboard-response","trial_index":64,"time_elapsed":133400,"internal_node_id":"0.0-8.0-1.14","subject":"b2pjb3quqspdbq8"},{"trial_type":"turing-test","trial_index":65,"time_elapsed":136750,"internal_node_id":"0.0-8.0-2.14","subject":"b2pjb3quqspdbq8"},{"rt":802,"stimulus":"<p>Welche Sequenz haben Sie als natürlicher empfunden?</p>","button_pressed":"1","test_part":"response","test_stimulus":{"position":1,"left":"bvh/vr_prediction_models/model(dmp)-dataset(return-bottle-hold)-npsi(100)-hold(2)/final-lines.txt","right":"bvh/return-bottle-hold-training2-lines.txt","att_check":false},"trial_type":"html-button-response","trial_index":66,"time_elapsed":137554,"internal_node_id":"0.0-8.0-3.14","subject":"b2pjb3quqspdbq8"},{"rt":454,"stimulus":"<p>Bereit?</p>","button_pressed":"0","trial_type":"html-button-response","trial_index":67,"time_elapsed":138011,"internal_node_id":"0.0-8.0-0.15","subject":"b2pjb3quqspdbq8"},{"rt":null,"stimulus":"<div style=\"font-size:60px;\">+</div>","key_press":null,"trial_type":"html-keyboard-response","trial_index":68,"time_elapsed":140012,"internal_node_id":"0.0-8.0-1.15","subject":"b2pjb3quqspdbq8"},{"trial_type":"turing-test","trial_index":69,"time_elapsed":143873,"internal_node_id":"0.0-8.0-2.15","subject":"b2pjb3quqspdbq8"},{"rt":615,"stimulus":"<p>Welche Sequenz haben Sie als natürlicher empfunden?</p>","button_pressed":"0","test_part":"response","test_stimulus":{"position":1,"left":"bvh/vr_prediction_models/model(vcgpdm)-dataset(return-bottle-hold)-mode(ELBO)-parts(3)-dyn(10)-lvm(10)-hold(3)/final-lines.txt","right":"bvh/return-bottle-hold-training3-lines.txt","att_check":false},"trial_type":"html-button-response","trial_index":70,"time_elapsed":144489,"internal_node_id":"0.0-8.0-3.15","subject":"b2pjb3quqspdbq8"},{"rt":745,"stimulus":"<p>Bereit?</p>","button_pressed":"0","trial_type":"html-button-response","trial_index":71,"time_elapsed":145234,"internal_node_id":"0.0-8.0-0.16","subject":"b2pjb3quqspdbq8"},{"rt":null,"stimulus":"<div style=\"font-size:60px;\">+</div>","key_press":null,"trial_type":"html-keyboard-response","trial_index":72,"time_elapsed":147235,"internal_node_id":"0.0-8.0-1.16","subject":"b2pjb3quqspdbq8"},{"trial_type":"turing-test","trial_index":73,"time_elapsed":153682,"internal_node_id":"0.0-8.0-2.16","subject":"b2pjb3quqspdbq8"},{"rt":1367,"stimulus":"<p>Welche Sequenz haben Sie als natürlicher empfunden?</p>","button_pressed":"1","test_part":"response","test_stimulus":{"position":0,"left":"bvh/return-bottle-training2-lines.txt","right":"bvh/vr_prediction_models/model(vcgpdm)-dataset(return-bottle)-mode(ELBO)-parts(3)-dyn(20)-lvm(20)-hold(2)/final-lines.txt","att_check":false},"trial_type":"html-button-response","trial_index":74,"time_elapsed":155050,"internal_node_id":"0.0-8.0-3.16","subject":"b2pjb3quqspdbq8"},{"rt":410,"stimulus":"<p>Bereit?</p>","button_pressed":"0","trial_type":"html-button-response","trial_index":75,"time_elapsed":155461,"internal_node_id":"0.0-8.0-0.17","subject":"b2pjb3quqspdbq8"},{"rt":null,"stimulus":"<div style=\"font-size:60px;\">+</div>","key_press":null,"trial_type":"html-keyboard-response","trial_index":76,"time_elapsed":157464,"internal_node_id":"0.0-8.0-1.17","subject":"b2pjb3quqspdbq8"},{"trial_type":"turing-test","trial_index":77,"time_elapsed":162941,"internal_node_id":"0.0-8.0-2.17","subject":"b2pjb3quqspdbq8"},{"rt":962,"stimulus":"<p>Welche Sequenz haben Sie als natürlicher empfunden?</p>","button_pressed":"1","test_part":"response","test_stimulus":{"position":1,"left":"bvh/vr_prediction_models/model(tmp)-dataset(pass-bottle)-numprim(11)-hold(1)/final-lines.txt","right":"bvh/pass-bottle-training1-lines.txt","att_check":false},"trial_type":"html-button-response","trial_index":78,"time_elapsed":163904,"internal_node_id":"0.0-8.0-3.17","subject":"b2pjb3quqspdbq8"},{"rt":769,"stimulus":"<p>Bereit?</p>","button_pressed":"0","trial_type":"html-button-response","trial_index":79,"time_elapsed":164674,"internal_node_id":"0.0-8.0-0.18","subject":"b2pjb3quqspdbq8"},{"rt":null,"stimulus":"<div style=\"font-size:60px;\">+</div>","key_press":null,"trial_type":"html-keyboard-response","trial_index":80,"time_elapsed":166676,"internal_node_id":"0.0-8.0-1.18","subject":"b2pjb3quqspdbq8"},{"trial_type":"turing-test","trial_index":81,"time_elapsed":172034,"internal_node_id":"0.0-8.0-2.18","subject":"b2pjb3quqspdbq8"},{"rt":782,"stimulus":"<p>Welche Sequenz haben Sie als natürlicher empfunden?</p>","button_pressed":"1","test_part":"response","test_stimulus":{"position":1,"left":"bvh/vr_prediction_models/model(dmp)-dataset(return-bottle-hold)-npsi(80)-hold(0)/final-lines.txt","right":"bvh/return-bottle-hold-training0-lines.txt","att_check":false},"trial_type":"html-button-response","trial_index":82,"time_elapsed":172816,"internal_node_id":"0.0-8.0-3.18","subject":"b2pjb3quqspdbq8"},{"rt":350,"stimulus":"<p>Bereit?</p>","button_pressed":"0","trial_type":"html-button-response","trial_index":83,"time_elapsed":173168,"internal_node_id":"0.0-8.0-0.19","subject":"b2pjb3quqspdbq8"},{"rt":null,"stimulus":"<div style=\"font-size:60px;\">+</div>","key_press":null,"trial_type":"html-keyboard-response","trial_index":84,"time_elapsed":175171,"internal_node_id":"0.0-8.0-1.19","subject":"b2pjb3quqspdbq8"},{"trial_type":"turing-test","trial_index":85,"time_elapsed":178833,"internal_node_id":"0.0-8.0-2.19","subject":"b2pjb3quqspdbq8"},{"rt":906,"stimulus":"<p>Welche Sequenz haben Sie als natürlicher empfunden?</p>","button_pressed":"1","test_part":"response","test_stimulus":{"position":1,"left":"bvh/vr_prediction_models/model(tmp)-dataset(return-bottle-hold)-numprim(5)-hold(3)/final-lines.txt","right":"bvh/return-bottle-hold-training3-lines.txt","att_check":false},"trial_type":"html-button-response","trial_index":86,"time_elapsed":179741,"internal_node_id":"0.0-8.0-3.19","subject":"b2pjb3quqspdbq8"},{"rt":569,"stimulus":"<p>Bereit?</p>","button_pressed":"0","trial_type":"html-button-response","trial_index":87,"time_elapsed":180313,"internal_node_id":"0.0-8.0-0.20","subject":"b2pjb3quqspdbq8"},{"rt":null,"stimulus":"<div style=\"font-size:60px;\">+</div>","key_press":null,"trial_type":"html-keyboard-response","trial_index":88,"time_elapsed":182314,"internal_node_id":"0.0-8.0-1.20","subject":"b2pjb3quqspdbq8"},{"trial_type":"turing-test","trial_index":89,"time_elapsed":187797,"internal_node_id":"0.0-8.0-2.20","subject":"b2pjb3quqspdbq8"},{"rt":869,"stimulus":"<p>Welche Sequenz haben Sie als natürlicher empfunden?</p>","button_pressed":"1","test_part":"response","test_stimulus":{"position":1,"left":"bvh/vr_prediction_models/model(tmp)-dataset(pass-bottle)-numprim(4)-hold(1)/final-lines.txt","right":"bvh/pass-bottle-training1-lines.txt","att_check":false},"trial_type":"html-button-response","trial_index":90,"time_elapsed":188667,"internal_node_id":"0.0-8.0-3.20","subject":"b2pjb3quqspdbq8"},{"rt":804,"stimulus":"<p>Bereit?</p>","button_pressed":"0","trial_type":"html-button-response","trial_index":91,"time_elapsed":189474,"internal_node_id":"0.0-8.0-0.21","subject":"b2pjb3quqspdbq8"},{"rt":null,"stimulus":"<div style=\"font-size:60px;\">+</div>","key_press":null,"trial_type":"html-keyboard-response","trial_index":92,"time_elapsed":191478,"internal_node_id":"0.0-8.0-1.21","subject":"b2pjb3quqspdbq8"},{"trial_type":"turing-test","trial_index":93,"time_elapsed":195280,"internal_node_id":"0.0-8.0-2.21","subject":"b2pjb3quqspdbq8"},{"rt":852,"stimulus":"<p>Welche Sequenz haben Sie als natürlicher empfunden?</p>","button_pressed":"1","test_part":"response","test_stimulus":{"position":1,"left":"bvh/vr_prediction_models/model(vcgpdm)-dataset(pass-bottle-hold)-mode(ELBO)-parts(3)-dyn(25)-lvm(30)-hold(1)/final-lines.txt","right":"bvh/pass-bottle-hold-training1-lines.txt","att_check":false},"trial_type":"html-button-response","trial_index":94,"time_elapsed":196134,"internal_node_id":"0.0-8.0-3.21","subject":"b2pjb3quqspdbq8"},{"rt":234,"stimulus":"<p>Bereit?</p>","button_pressed":"0","trial_type":"html-button-response","trial_index":95,"time_elapsed":196367,"internal_node_id":"0.0-8.0-0.22","subject":"b2pjb3quqspdbq8"},{"rt":null,"stimulus":"<div style=\"font-size:60px;\">+</div>","key_press":null,"trial_type":"html-keyboard-response","trial_index":96,"time_elapsed":198372,"internal_node_id":"0.0-8.0-1.22","subject":"b2pjb3quqspdbq8"},{"trial_type":"turing-test","trial_index":97,"time_elapsed":203346,"internal_node_id":"0.0-8.0-2.22","subject":"b2pjb3quqspdbq8"},{"rt":710,"stimulus":"<p>Welche Sequenz haben Sie als natürlicher empfunden?</p>","button_pressed":"1","test_part":"response","test_stimulus":{"position":1,"left":"bvh/vr_prediction_models/model(dmp)-dataset(return-bottle-hold)-npsi(70)-hold(0)/final-lines.txt","right":"bvh/return-bottle-hold-training0-lines.txt","att_check":false},"trial_type":"html-button-response","trial_index":98,"time_elapsed":204057,"internal_node_id":"0.0-8.0-3.22","subject":"b2pjb3quqspdbq8"},{"rt":779,"stimulus":"<p>Bereit?</p>","button_pressed":"0","trial_type":"html-button-response","trial_index":99,"time_elapsed":204838,"internal_node_id":"0.0-8.0-0.23","subject":"b2pjb3quqspdbq8"},{"rt":null,"stimulus":"<div style=\"font-size:60px;\">+</div>","key_press":null,"trial_type":"html-keyboard-response","trial_index":100,"time_elapsed":206839,"internal_node_id":"0.0-8.0-1.23","subject":"b2pjb3quqspdbq8"},{"trial_type":"turing-test","trial_index":101,"time_elapsed":210445,"internal_node_id":"0.0-8.0-2.23","subject":"b2pjb3quqspdbq8"},{"rt":1207,"stimulus":"<p>Welche Sequenz haben Sie als natürlicher empfunden?</p>","button_pressed":"1","test_part":"response","test_stimulus":{"position":0,"left":"bvh/pass-bottle-hold-training4-lines.txt","right":"bvh/vr_prediction_models/model(tmp)-dataset(pass-bottle-hold)-numprim(8)-hold(4)/final-lines.txt","att_check":false},"trial_type":"html-button-response","trial_index":102,"time_elapsed":211655,"internal_node_id":"0.0-8.0-3.23","subject":"b2pjb3quqspdbq8"},{"rt":544,"stimulus":"<p>Bereit?</p>","button_pressed":"0","trial_type":"html-button-response","trial_index":103,"time_elapsed":212201,"internal_node_id":"0.0-8.0-0.24","subject":"b2pjb3quqspdbq8"},{"rt":null,"stimulus":"<div style=\"font-size:60px;\">+</div>","key_press":null,"trial_type":"html-keyboard-response","trial_index":104,"time_elapsed":214202,"internal_node_id":"0.0-8.0-1.24","subject":"b2pjb3quqspdbq8"},{"trial_type":"turing-test","trial_index":105,"time_elapsed":218276,"internal_node_id":"0.0-8.0-2.24","subject":"b2pjb3quqspdbq8"},{"rt":1254,"stimulus":"<p>Welche Sequenz haben Sie als natürlicher empfunden?</p>","button_pressed":"1","test_part":"response","test_stimulus":{"position":0,"left":"bvh/pass-bottle-hold-training2-lines.txt","right":"bvh/vr_prediction_models/model(vcgpdm)-dataset(pass-bottle-hold)-mode(ELBO)-parts(1)-dyn(20)-lvm(5)-hold(2)/final-lines.txt","att_check":false},"trial_type":"html-button-response","trial_index":106,"time_elapsed":219532,"internal_node_id":"0.0-8.0-3.24","subject":"b2pjb3quqspdbq8"},{"rt":669,"stimulus":"<p>Bereit?</p>","button_pressed":"0","trial_type":"html-button-response","trial_index":107,"time_elapsed":220203,"internal_node_id":"0.0-8.0-0.25","subject":"b2pjb3quqspdbq8"},{"rt":null,"stimulus":"<div style=\"font-size:60px;\">+</div>","key_press":null,"trial_type":"html-keyboard-response","trial_index":108,"time_elapsed":222206,"internal_node_id":"0.0-8.0-1.25","subject":"b2pjb3quqspdbq8"},{"trial_type":"turing-test","trial_index":109,"time_elapsed":225750,"internal_node_id":"0.0-8.0-2.25","subject":"b2pjb3quqspdbq8"},{"rt":701,"stimulus":"<p>Welche Sequenz haben Sie als natürlicher empfunden?</p>","button_pressed":"0","test_part":"response","test_stimulus":{"position":0,"left":"bvh/return-bottle-hold-training2-lines.txt","right":"bvh/vr_prediction_models/model(dmp)-dataset(return-bottle-hold)-npsi(60)-hold(2)/final-lines.txt","att_check":true},"trial_type":"html-button-response","trial_index":110,"time_elapsed":226454,"internal_node_id":"0.0-8.0-3.25","subject":"b2pjb3quqspdbq8"},{"rt":280,"stimulus":"<p>Bereit?</p>","button_pressed":"0","trial_type":"html-button-response","trial_index":111,"time_elapsed":226736,"internal_node_id":"0.0-8.0-0.26","subject":"b2pjb3quqspdbq8"},{"rt":null,"stimulus":"<div style=\"font-size:60px;\">+</div>","key_press":null,"trial_type":"html-keyboard-response","trial_index":112,"time_elapsed":228737,"internal_node_id":"0.0-8.0-1.26","subject":"b2pjb3quqspdbq8"},{"trial_type":"turing-test","trial_index":113,"time_elapsed":234750,"internal_node_id":"0.0-8.0-2.26","subject":"b2pjb3quqspdbq8"},{"rt":1851,"stimulus":"<p>Welche Sequenz haben Sie als natürlicher empfunden?</p>","button_pressed":"0","test_part":"response","test_stimulus":{"position":1,"left":"bvh/vr_prediction_models/model(vcgpdm)-dataset(return-bottle)-mode(ELBO)-parts(1)-dyn(30)-lvm(30)-hold(3)/final-lines.txt","right":"bvh/return-bottle-training3-lines.txt","att_check":false},"trial_type":"html-button-response","trial_index":114,"time_elapsed":236603,"internal_node_id":"0.0-8.0-3.26","subject":"b2pjb3quqspdbq8"},{"rt":382,"stimulus":"<p>Bereit?</p>","button_pressed":"0","trial_type":"html-button-response","trial_index":115,"time_elapsed":236986,"internal_node_id":"0.0-8.0-0.27","subject":"b2pjb3quqspdbq8"},{"rt":null,"stimulus":"<div style=\"font-size:60px;\">+</div>","key_press":null,"trial_type":"html-keyboard-response","trial_index":116,"time_elapsed":238992,"internal_node_id":"0.0-8.0-1.27","subject":"b2pjb3quqspdbq8"},{"trial_type":"turing-test","trial_index":117,"time_elapsed":243159,"internal_node_id":"0.0-8.0-2.27","subject":"b2pjb3quqspdbq8"},{"rt":839,"stimulus":"<p>Welche Sequenz haben Sie als natürlicher empfunden?</p>","button_pressed":"1","test_part":"response","test_stimulus":{"position":1,"left":"bvh/vr_prediction_models/model(vcgpdm)-dataset(return-bottle-hold)-mode(ELBO)-parts(1)-dyn(25)-lvm(35)-hold(4)/final-lines.txt","right":"bvh/return-bottle-hold-training4-lines.txt","att_check":false},"trial_type":"html-button-response","trial_index":118,"time_elapsed":243999,"internal_node_id":"0.0-8.0-3.27","subject":"b2pjb3quqspdbq8"},{"rt":699,"stimulus":"<p>Bereit?</p>","button_pressed":"0","trial_type":"html-button-response","trial_index":119,"time_elapsed":244701,"internal_node_id":"0.0-8.0-0.28","subject":"b2pjb3quqspdbq8"},{"rt":null,"stimulus":"<div style=\"font-size:60px;\">+</div>","key_press":null,"trial_type":"html-keyboard-response","trial_index":120,"time_elapsed":246702,"internal_node_id":"0.0-8.0-1.28","subject":"b2pjb3quqspdbq8"},{"trial_type":"turing-test","trial_index":121,"time_elapsed":252316,"internal_node_id":"0.0-8.0-2.28","subject":"b2pjb3quqspdbq8"},{"rt":850,"stimulus":"<p>Welche Sequenz haben Sie als natürlicher empfunden?</p>","button_pressed":"0","test_part":"response","test_stimulus":{"position":1,"left":"bvh/vr_prediction_models/model(vcgpdm)-dataset(pass-bottle)-mode(ELBO)-parts(1)-dyn(35)-lvm(10)-hold(4)/final-lines.txt","right":"bvh/pass-bottle-training4-lines.txt","att_check":false},"trial_type":"html-button-response","trial_index":122,"time_elapsed":253167,"internal_node_id":"0.0-8.0-3.28","subject":"b2pjb3quqspdbq8"},{"rt":305,"stimulus":"<p>Bereit?</p>","button_pressed":"0","trial_type":"html-button-response","trial_index":123,"time_elapsed":253473,"internal_node_id":"0.0-8.0-0.29","subject":"b2pjb3quqspdbq8"},{"rt":null,"stimulus":"<div style=\"font-size:60px;\">+</div>","key_press":null,"trial_type":"html-keyboard-response","trial_index":124,"time_elapsed":255476,"internal_node_id":"0.0-8.0-1.29","subject":"b2pjb3quqspdbq8"},{"trial_type":"turing-test","trial_index":125,"time_elapsed":259456,"internal_node_id":"0.0-8.0-2.29","subject":"b2pjb3quqspdbq8"},{"rt":999,"stimulus":"<p>Welche Sequenz haben Sie als natürlicher empfunden?</p>","button_pressed":"1","test_part":"response","test_stimulus":{"position":1,"left":"bvh/vr_prediction_models/model(dmp)-dataset(return-bottle-hold)-npsi(20)-hold(4)/final-lines.txt","right":"bvh/return-bottle-hold-training4-lines.txt","att_check":false},"trial_type":"html-button-response","trial_index":126,"time_elapsed":260456,"internal_node_id":"0.0-8.0-3.29","subject":"b2pjb3quqspdbq8"},{"rt":608,"stimulus":"<p>Bereit?</p>","button_pressed":"0","trial_type":"html-button-response","trial_index":127,"time_elapsed":261065,"internal_node_id":"0.0-8.0-0.30","subject":"b2pjb3quqspdbq8"},{"rt":null,"stimulus":"<div style=\"font-size:60px;\">+</div>","key_press":null,"trial_type":"html-keyboard-response","trial_index":128,"time_elapsed":263065,"internal_node_id":"0.0-8.0-1.30","subject":"b2pjb3quqspdbq8"},{"trial_type":"turing-test","trial_index":129,"time_elapsed":268898,"internal_node_id":"0.0-8.0-2.30","subject":"b2pjb3quqspdbq8"},{"rt":574,"stimulus":"<p>Welche Sequenz haben Sie als natürlicher empfunden?</p>","button_pressed":"0","test_part":"response","test_stimulus":{"position":0,"left":"bvh/pass-bottle-training4-lines.txt","right":"bvh/vr_prediction_models/model(dmp)-dataset(pass-bottle)-npsi(30)-hold(4)/final-lines.txt","att_check":false},"trial_type":"html-button-response","trial_index":130,"time_elapsed":269474,"internal_node_id":"0.0-8.0-3.30","subject":"b2pjb3quqspdbq8"},{"rt":360,"stimulus":"<p>Bereit?</p>","button_pressed":"0","trial_type":"html-button-response","trial_index":131,"time_elapsed":269835,"internal_node_id":"0.0-8.0-0.31","subject":"b2pjb3quqspdbq8"},{"rt":null,"stimulus":"<div style=\"font-size:60px;\">+</div>","key_press":null,"trial_type":"html-keyboard-response","trial_index":132,"time_elapsed":271837,"internal_node_id":"0.0-8.0-1.31","subject":"b2pjb3quqspdbq8"},{"trial_type":"turing-test","trial_index":133,"time_elapsed":275539,"internal_node_id":"0.0-8.0-2.31","subject":"b2pjb3quqspdbq8"},{"rt":656,"stimulus":"<p>Welche Sequenz haben Sie als natürlicher empfunden?</p>","button_pressed":"0","test_part":"response","test_stimulus":{"position":1,"left":"bvh/vr_prediction_models/model(tmp)-dataset(return-bottle-hold)-numprim(15)-hold(3)/final-lines.txt","right":"bvh/return-bottle-hold-training3-lines.txt","att_check":false},"trial_type":"html-button-response","trial_index":134,"time_elapsed":276197,"internal_node_id":"0.0-8.0-3.31","subject":"b2pjb3quqspdbq8"},{"rt":745,"stimulus":"<p>Bereit?</p>","button_pressed":"0","trial_type":"html-button-response","trial_index":135,"time_elapsed":276944,"internal_node_id":"0.0-8.0-0.32","subject":"b2pjb3quqspdbq8"},{"rt":null,"stimulus":"<div style=\"font-size:60px;\">+</div>","key_press":null,"trial_type":"html-keyboard-response","trial_index":136,"time_elapsed":278946,"internal_node_id":"0.0-8.0-1.32","subject":"b2pjb3quqspdbq8"},{"trial_type":"turing-test","trial_index":137,"time_elapsed":284720,"internal_node_id":"0.0-8.0-2.32","subject":"b2pjb3quqspdbq8"},{"rt":705,"stimulus":"<p>Welche Sequenz haben Sie als natürlicher empfunden?</p>","button_pressed":"1","test_part":"response","test_stimulus":{"position":1,"left":"bvh/vr_prediction_models/model(dmp)-dataset(pass-bottle)-npsi(70)-hold(4)/final-lines.txt","right":"bvh/pass-bottle-training4-lines.txt","att_check":true},"trial_type":"html-button-response","trial_index":138,"time_elapsed":285427,"internal_node_id":"0.0-8.0-3.32","subject":"b2pjb3quqspdbq8"},{"rt":634,"stimulus":"<p>Bereit?</p>","button_pressed":"0","trial_type":"html-button-response","trial_index":139,"time_elapsed":286063,"internal_node_id":"0.0-8.0-0.33","subject":"b2pjb3quqspdbq8"},{"rt":null,"stimulus":"<div style=\"font-size:60px;\">+</div>","key_press":null,"trial_type":"html-keyboard-response","trial_index":140,"time_elapsed":288069,"internal_node_id":"0.0-8.0-1.33","subject":"b2pjb3quqspdbq8"},{"trial_type":"turing-test","trial_index":141,"time_elapsed":293767,"internal_node_id":"0.0-8.0-2.33","subject":"b2pjb3quqspdbq8"},{"rt":45463,"stimulus":"<p>Welche Sequenz haben Sie als natürlicher empfunden?</p>","button_pressed":"0","test_part":"response","test_stimulus":{"position":1,"left":"bvh/vr_prediction_models/model(dmp)-dataset(pass-bottle)-npsi(10)-hold(3)/final-lines.txt","right":"bvh/pass-bottle-training3-lines.txt","att_check":false},"trial_type":"html-button-response","trial_index":142,"time_elapsed":339239,"internal_node_id":"0.0-8.0-3.33","subject":"b2pjb3quqspdbq8"},{"rt":593,"stimulus":"<p>Bereit?</p>","button_pressed":"0","trial_type":"html-button-response","trial_index":143,"time_elapsed":339834,"internal_node_id":"0.0-8.0-0.34","subject":"b2pjb3quqspdbq8"},{"rt":null,"stimulus":"<div style=\"font-size:60px;\">+</div>","key_press":null,"trial_type":"html-keyboard-response","trial_index":144,"time_elapsed":341837,"internal_node_id":"0.0-8.0-1.34","subject":"b2pjb3quqspdbq8"},{"trial_type":"turing-test","trial_index":145,"time_elapsed":348806,"internal_node_id":"0.0-8.0-2.34","subject":"b2pjb3quqspdbq8"},{"rt":629,"stimulus":"<p>Welche Sequenz haben Sie als natürlicher empfunden?</p>","button_pressed":"0","test_part":"response","test_stimulus":{"position":1,"left":"bvh/vr_prediction_models/model(vcgpdm)-dataset(return-bottle)-mode(ELBO)-parts(3)-dyn(20)-lvm(15)-hold(2)/final-lines.txt","right":"bvh/return-bottle-training2-lines.txt","att_check":false},"trial_type":"html-button-response","trial_index":146,"time_elapsed":349437,"internal_node_id":"0.0-8.0-3.34","subject":"b2pjb3quqspdbq8"},{"rt":415,"stimulus":"<p>Bereit?</p>","button_pressed":"0","trial_type":"html-button-response","trial_index":147,"time_elapsed":349855,"internal_node_id":"0.0-8.0-0.35","subject":"b2pjb3quqspdbq8"},{"rt":null,"stimulus":"<div style=\"font-size:60px;\">+</div>","key_press":null,"trial_type":"html-keyboard-response","trial_index":148,"time_elapsed":351856,"internal_node_id":"0.0-8.0-1.35","subject":"b2pjb3quqspdbq8"}]