[{"rt":4183.880000000499,"stimulus":"<p>Welcome!<br> Please choose your language to start the experiment in the chosen language.</p><p>Willkommen!<br> Bitte wählen Sie eine Sprache, um das Experiment in der ausgewählten Sprache zu starten</p>","button_pressed":"1","trial_type":"html-button-response","trial_index":0,"time_elapsed":4207,"internal_node_id":"0.0-0.0","subject":"0qhxm4v09e7auoh","sona":"7351"},{"view_history":"[{\"page_index\":0,\"viewing_time\":1100.9500000000116},{\"page_index\":1,\"viewing_time\":671.8900000005306},{\"page_index\":2,\"viewing_time\":439.94999999995343},{\"page_index\":3,\"viewing_time\":724.2449999994278},{\"page_index\":4,\"viewing_time\":615.9950000001118}]","rt":3553.6000000001877,"trial_type":"instructions","trial_index":1,"time_elapsed":7762,"internal_node_id":"0.0-1.0-0.0","subject":"0qhxm4v09e7auoh","sona":"7351"},{"rt":1205.325000000812,"stimulus":"<p>Bereit?</p>","key_press":32,"trial_type":"html-keyboard-response","trial_index":2,"time_elapsed":8969,"internal_node_id":"0.0-3.0","subject":"0qhxm4v09e7auoh","sona":"7351"},{"rt":null,"stimulus":"<div style=\"font-size:60px;\">+</div>","key_press":null,"trial_type":"html-keyboard-response","trial_index":3,"time_elapsed":10973,"internal_node_id":"0.0-4.0","subject":"0qhxm4v09e7auoh","sona":"7351"},{"trial_type":"training","trial_index":4,"time_elapsed":14226,"internal_node_id":"0.0-5.0","subject":"0qhxm4v09e7auoh","sona":"7351"},{"rt":476.48499999922933,"stimulus":"<p>Welche Sequenz haben Sie als natürlicher empfunden?</p>","key_press":70,"trial_type":"html-keyboard-response","trial_index":5,"time_elapsed":14706,"internal_node_id":"0.0-6.0","subject":"0qhxm4v09e7auoh","sona":"7351"},{"rt":2299.079999999776,"stimulus":"<p>Das Experiment startet nun.</p><p><small>Bitte drücken Sie den Knopf, wenn Sie bereit sind.</small></p>","button_pressed":"0","trial_type":"html-button-response","trial_index":6,"time_elapsed":17007,"internal_node_id":"0.0-7.0","subject":"0qhxm4v09e7auoh","sona":"7351"},{"rt":8883.885000000191,"stimulus":"<p>Bereit?</p>","key_press":32,"trial_type":"html-keyboard-response","trial_index":7,"time_elapsed":25893,"internal_node_id":"0.0-8.0-0.0","subject":"0qhxm4v09e7auoh","sona":"7351"},{"rt":null,"stimulus":"<div style=\"font-size:60px;\">+</div>","key_press":null,"trial_type":"html-keyboard-response","trial_index":8,"time_elapsed":27897,"internal_node_id":"0.0-8.0-1.0","subject":"0qhxm4v09e7auoh","sona":"7351"},{"trial_type":"turing-test","trial_index":9,"time_elapsed":31546,"internal_node_id":"0.0-8.0-2.0","subject":"0qhxm4v09e7auoh","sona":"7351"},{"rt":297.9649999997491,"stimulus":"<p>Welche Sequenz haben Sie als natürlicher empfunden?</p>","key_press":70,"test_part":"response","test_stimulus":{"position":0,"left":"bvh/return-bottle-hold-training3-lines.txt","right":"bvh/vr_prediction_models/model(dmp)-dataset(return-bottle-hold)-npsi(70)-hold(3)/final-lines.txt","att_check":false},"trial_type":"html-keyboard-response","trial_index":10,"time_elapsed":31846,"internal_node_id":"0.0-8.0-3.0","subject":"0qhxm4v09e7auoh","sona":"7351"},{"rt":297.3999999994703,"stimulus":"<p>Bereit?</p>","key_press":32,"trial_type":"html-keyboard-response","trial_index":11,"time_elapsed":32146,"internal_node_id":"0.0-8.0-0.1","subject":"0qhxm4v09e7auoh","sona":"7351"},{"rt":null,"stimulus":"<div style=\"font-size:60px;\">+</div>","key_press":null,"trial_type":"html-keyboard-response","trial_index":12,"time_elapsed":34149,"internal_node_id":"0.0-8.0-1.1","subject":"0qhxm4v09e7auoh","sona":"7351"},{"trial_type":"turing-test","trial_index":13,"time_elapsed":37716,"internal_node_id":"0.0-8.0-2.1","subject":"0qhxm4v09e7auoh","sona":"7351"},{"rt":459.56999999998516,"stimulus":"<p>Welche Sequenz haben Sie als natürlicher empfunden?</p>","key_press":70,"test_part":"response","test_stimulus":{"position":1,"left":"bvh/vr_prediction_models/model(vcgpdm)-dataset(pass-bottle-hold)-mode(ELBO)-parts(1)-dyn(20)-lvm(20)-hold(2)/final-lines.txt","right":"bvh/pass-bottle-hold-training2-lines.txt","att_check":false},"trial_type":"html-keyboard-response","trial_index":14,"time_elapsed":38181,"internal_node_id":"0.0-8.0-3.1","subject":"0qhxm4v09e7auoh","sona":"7351"},{"rt":266.75500000055763,"stimulus":"<p>Bereit?</p>","key_press":32,"trial_type":"html-keyboard-response","trial_index":15,"time_elapsed":38451,"internal_node_id":"0.0-8.0-0.2","subject":"0qhxm4v09e7auoh","sona":"7351"},{"rt":null,"stimulus":"<div style=\"font-size:60px;\">+</div>","key_press":null,"trial_type":"html-keyboard-response","trial_index":16,"time_elapsed":40455,"internal_node_id":"0.0-8.0-1.2","subject":"0qhxm4v09e7auoh","sona":"7351"},{"trial_type":"turing-test","trial_index":17,"time_elapsed":45856,"internal_node_id":"0.0-8.0-2.2","subject":"0qhxm4v09e7auoh","sona":"7351"},{"rt":300.58999999982916,"stimulus":"<p>Welche Sequenz haben Sie als natürlicher empfunden?</p>","key_press":70,"test_part":"response","test_stimulus":{"position":1,"left":"bvh/vr_prediction_models/model(tmp)-dataset(pass-bottle)-numprim(7)-hold(1)/final-lines.txt","right":"bvh/pass-bottle-training1-lines.txt","att_check":false},"trial_type":"html-keyboard-response","trial_index":18,"time_elapsed":46158,"internal_node_id":"0.0-8.0-3.2","subject":"0qhxm4v09e7auoh","sona":"7351"},{"rt":356.6100000007282,"stimulus":"<p>Bereit?</p>","key_press":32,"trial_type":"html-keyboard-response","trial_index":19,"time_elapsed":46517,"internal_node_id":"0.0-8.0-0.3","subject":"0qhxm4v09e7auoh","sona":"7351"},{"rt":null,"stimulus":"<div style=\"font-size:60px;\">+</div>","key_press":null,"trial_type":"html-keyboard-response","trial_index":20,"time_elapsed":48520,"internal_node_id":"0.0-8.0-1.3","subject":"0qhxm4v09e7auoh","sona":"7351"},{"trial_type":"turing-test","trial_index":21,"time_elapsed":55173,"internal_node_id":"0.0-8.0-2.3","subject":"0qhxm4v09e7auoh","sona":"7351"},{"rt":270.249999999578,"stimulus":"<p>Welche Sequenz haben Sie als natürlicher empfunden?</p>","key_press":74,"test_part":"response","test_stimulus":{"position":1,"left":"bvh/vr_prediction_models/model(vcgpdm)-dataset(pass-bottle)-mode(ELBO)-parts(1)-dyn(30)-lvm(30)-hold(0)/final-lines.txt","right":"bvh/pass-bottle-training0-lines.txt","att_check":false},"trial_type":"html-keyboard-response","trial_index":22,"time_elapsed":55446,"internal_node_id":"0.0-8.0-3.3","subject":"0qhxm4v09e7auoh","sona":"7351"},{"rt":329.99000000017986,"stimulus":"<p>Bereit?</p>","key_press":32,"trial_type":"html-keyboard-response","trial_index":23,"time_elapsed":55778,"internal_node_id":"0.0-8.0-0.4","subject":"0qhxm4v09e7auoh","sona":"7351"},{"rt":null,"stimulus":"<div style=\"font-size:60px;\">+</div>","key_press":null,"trial_type":"html-keyboard-response","trial_index":24,"time_elapsed":57780,"internal_node_id":"0.0-8.0-1.4","subject":"0qhxm4v09e7auoh","sona":"7351"},{"trial_type":"turing-test","trial_index":25,"time_elapsed":61317,"internal_node_id":"0.0-8.0-2.4","subject":"0qhxm4v09e7auoh","sona":"7351"},{"rt":262.57499999974243,"stimulus":"<p>Welche Sequenz haben Sie als natürlicher empfunden?</p>","key_press":74,"test_part":"response","test_stimulus":{"position":1,"left":"bvh/vr_prediction_models/model(vcgpdm)-dataset(pass-bottle-hold)-mode(ELBO)-parts(3)-dyn(25)-lvm(15)-hold(0)/final-lines.txt","right":"bvh/pass-bottle-hold-training0-lines.txt","att_check":false},"trial_type":"html-keyboard-response","trial_index":26,"time_elapsed":61582,"internal_node_id":"0.0-8.0-3.4","subject":"0qhxm4v09e7auoh","sona":"7351"},{"rt":249.4299999998475,"stimulus":"<p>Bereit?</p>","key_press":32,"trial_type":"html-keyboard-response","trial_index":27,"time_elapsed":61835,"internal_node_id":"0.0-8.0-0.5","subject":"0qhxm4v09e7auoh","sona":"7351"},{"rt":null,"stimulus":"<div style=\"font-size:60px;\">+</div>","key_press":null,"trial_type":"html-keyboard-response","trial_index":28,"time_elapsed":63838,"internal_node_id":"0.0-8.0-1.5","subject":"0qhxm4v09e7auoh","sona":"7351"},{"trial_type":"turing-test","trial_index":29,"time_elapsed":69792,"internal_node_id":"0.0-8.0-2.5","subject":"0qhxm4v09e7auoh","sona":"7351"},{"rt":327.64500000030966,"stimulus":"<p>Welche Sequenz haben Sie als natürlicher empfunden?</p>","key_press":74,"test_part":"response","test_stimulus":{"position":1,"left":"bvh/vr_prediction_models/model(vcgpdm)-dataset(pass-bottle)-mode(ELBO)-parts(1)-dyn(30)-lvm(35)-hold(4)/final-lines.txt","right":"bvh/pass-bottle-training4-lines.txt","att_check":false},"trial_type":"html-keyboard-response","trial_index":30,"time_elapsed":70127,"internal_node_id":"0.0-8.0-3.5","subject":"0qhxm4v09e7auoh","sona":"7351"},{"rt":272.0949999993609,"stimulus":"<p>Bereit?</p>","key_press":32,"trial_type":"html-keyboard-response","trial_index":31,"time_elapsed":70401,"internal_node_id":"0.0-8.0-0.6","subject":"0qhxm4v09e7auoh","sona":"7351"},{"rt":null,"stimulus":"<div style=\"font-size:60px;\">+</div>","key_press":null,"trial_type":"html-keyboard-response","trial_index":32,"time_elapsed":72403,"internal_node_id":"0.0-8.0-1.6","subject":"0qhxm4v09e7auoh","sona":"7351"},{"trial_type":"turing-test","trial_index":33,"time_elapsed":75870,"internal_node_id":"0.0-8.0-2.6","subject":"0qhxm4v09e7auoh","sona":"7351"},{"rt":310.1450000003679,"stimulus":"<p>Welche Sequenz haben Sie als natürlicher empfunden?</p>","key_press":74,"test_part":"response","test_stimulus":{"position":0,"left":"bvh/return-bottle-hold-training2-lines.txt","right":"bvh/vr_prediction_models/model(tmp)-dataset(return-bottle-hold)-numprim(14)-hold(2)/final-lines.txt","att_check":false},"trial_type":"html-keyboard-response","trial_index":34,"time_elapsed":76183,"internal_node_id":"0.0-8.0-3.6","subject":"0qhxm4v09e7auoh","sona":"7351"},{"rt":207.8149999997404,"stimulus":"<p>Bereit?</p>","key_press":32,"trial_type":"html-keyboard-response","trial_index":35,"time_elapsed":76395,"internal_node_id":"0.0-8.0-0.7","subject":"0qhxm4v09e7auoh","sona":"7351"},{"rt":null,"stimulus":"<div style=\"font-size:60px;\">+</div>","key_press":null,"trial_type":"html-keyboard-response","trial_index":36,"time_elapsed":78399,"internal_node_id":"0.0-8.0-1.7","subject":"0qhxm4v09e7auoh","sona":"7351"},{"trial_type":"turing-test","trial_index":37,"time_elapsed":81887,"internal_node_id":"0.0-8.0-2.7","subject":"0qhxm4v09e7auoh","sona":"7351"},{"rt":670.4200000003766,"stimulus":"<p>Welche Sequenz haben Sie als natürlicher empfunden?</p>","key_press":74,"test_part":"response","test_stimulus":{"position":1,"left":"bvh/vr_prediction_models/model(tmp)-dataset(pass-bottle-hold)-numprim(15)-hold(4)/final-lines.txt","right":"bvh/pass-bottle-hold-training4-lines.txt","att_check":false},"trial_type":"html-keyboard-response","trial_index":38,"time_elapsed":82561,"internal_node_id":"0.0-8.0-3.7","subject":"0qhxm4v09e7auoh","sona":"7351"},{"rt":423.47499999959837,"stimulus":"<p>Bereit?</p>","key_press":32,"trial_type":"html-keyboard-response","trial_index":39,"time_elapsed":82989,"internal_node_id":"0.0-8.0-0.8","subject":"0qhxm4v09e7auoh","sona":"7351"},{"rt":null,"stimulus":"<div style=\"font-size:60px;\">+</div>","key_press":null,"trial_type":"html-keyboard-response","trial_index":40,"time_elapsed":84991,"internal_node_id":"0.0-8.0-1.8","subject":"0qhxm4v09e7auoh","sona":"7351"},{"trial_type":"turing-test","trial_index":41,"time_elapsed":90644,"internal_node_id":"0.0-8.0-2.8","subject":"0qhxm4v09e7auoh","sona":"7351"},{"rt":224.84499999972468,"stimulus":"<p>Welche Sequenz haben Sie als natürlicher empfunden?</p>","key_press":70,"test_part":"response","test_stimulus":{"position":1,"left":"bvh/vr_prediction_models/model(vcgpdm)-dataset(pass-bottle)-mode(ELBO)-parts(3)-dyn(25)-lvm(30)-hold(1)/final-lines.txt","right":"bvh/pass-bottle-training1-lines.txt","att_check":false},"trial_type":"html-keyboard-response","trial_index":42,"time_elapsed":90872,"internal_node_id":"0.0-8.0-3.8","subject":"0qhxm4v09e7auoh","sona":"7351"},{"rt":296.64000000047963,"stimulus":"<p>Bereit?</p>","key_press":32,"trial_type":"html-keyboard-response","trial_index":43,"time_elapsed":91174,"internal_node_id":"0.0-8.0-0.9","subject":"0qhxm4v09e7auoh","sona":"7351"},{"rt":null,"stimulus":"<div style=\"font-size:60px;\">+</div>","key_press":null,"trial_type":"html-keyboard-response","trial_index":44,"time_elapsed":93176,"internal_node_id":"0.0-8.0-1.9","subject":"0qhxm4v09e7auoh","sona":"7351"},{"trial_type":"turing-test","trial_index":45,"time_elapsed":96723,"internal_node_id":"0.0-8.0-2.9","subject":"0qhxm4v09e7auoh","sona":"7351"},{"rt":318.35999999931664,"stimulus":"<p>Welche Sequenz haben Sie als natürlicher empfunden?</p>","key_press":74,"test_part":"response","test_stimulus":{"position":1,"left":"bvh/vr_prediction_models/model(vcgpdm)-dataset(pass-bottle-hold)-mode(ELBO)-parts(1)-dyn(35)-lvm(10)-hold(1)/final-lines.txt","right":"bvh/pass-bottle-hold-training1-lines.txt","att_check":false},"trial_type":"html-keyboard-response","trial_index":46,"time_elapsed":97045,"internal_node_id":"0.0-8.0-3.9","subject":"0qhxm4v09e7auoh","sona":"7351"},{"rt":283.2599999992526,"stimulus":"<p>Bereit?</p>","key_press":32,"trial_type":"html-keyboard-response","trial_index":47,"time_elapsed":97332,"internal_node_id":"0.0-8.0-0.10","subject":"0qhxm4v09e7auoh","sona":"7351"},{"rt":null,"stimulus":"<div style=\"font-size:60px;\">+</div>","key_press":null,"trial_type":"html-keyboard-response","trial_index":48,"time_elapsed":99335,"internal_node_id":"0.0-8.0-1.10","subject":"0qhxm4v09e7auoh","sona":"7351"},{"trial_type":"turing-test","trial_index":49,"time_elapsed":102915,"internal_node_id":"0.0-8.0-2.10","subject":"0qhxm4v09e7auoh","sona":"7351"},{"rt":224.87499999988358,"stimulus":"<p>Welche Sequenz haben Sie als natürlicher empfunden?</p>","key_press":74,"test_part":"response","test_stimulus":{"position":1,"left":"bvh/vr_prediction_models/model(vcgpdm)-dataset(pass-bottle-hold)-mode(ELBO)-parts(3)-dyn(20)-lvm(20)-hold(2)/final-lines.txt","right":"bvh/pass-bottle-hold-training2-lines.txt","att_check":false},"trial_type":"html-keyboard-response","trial_index":50,"time_elapsed":103144,"internal_node_id":"0.0-8.0-3.10","subject":"0qhxm4v09e7auoh","sona":"7351"},{"rt":251.994999999617,"stimulus":"<p>Bereit?</p>","key_press":32,"trial_type":"html-keyboard-response","trial_index":51,"time_elapsed":103400,"internal_node_id":"0.0-8.0-0.11","subject":"0qhxm4v09e7auoh","sona":"7351"},{"rt":null,"stimulus":"<div style=\"font-size:60px;\">+</div>","key_press":null,"trial_type":"html-keyboard-response","trial_index":52,"time_elapsed":105403,"internal_node_id":"0.0-8.0-1.11","subject":"0qhxm4v09e7auoh","sona":"7351"}]