[{"rt":11140.06999999765,"stimulus":"<p>Welcome!<br> Please choose your language to start the experiment in the chosen language.</p><p>Willkommen!<br> Bitte wählen Sie eine Sprache, um das Experiment in der ausgewählten Sprache zu starten</p>","button_pressed":"1","trial_type":"html-button-response","trial_index":0,"time_elapsed":11241,"internal_node_id":"0.0-0.0","subject":"fv9xqnsya73yk95","sona":"7567"},{"view_history":"[{\"page_index\":0,\"viewing_time\":5073.3450000007},{\"page_index\":1,\"viewing_time\":11238.184999998339},{\"page_index\":2,\"viewing_time\":2089.140000000043},{\"page_index\":3,\"viewing_time\":1437.8500000020722},{\"page_index\":4,\"viewing_time\":1895.6149999976333}]","rt":21735.095,"trial_type":"instructions","trial_index":1,"time_elapsed":32977,"internal_node_id":"0.0-1.0-0.0","subject":"fv9xqnsya73yk95","sona":"7567"},{"rt":2037.159999999858,"stimulus":"<p>Bereit?</p>","key_press":32,"trial_type":"html-keyboard-response","trial_index":2,"time_elapsed":35016,"internal_node_id":"0.0-3.0","subject":"fv9xqnsya73yk95","sona":"7567"},{"rt":null,"stimulus":"<div style=\"font-size:60px;\">+</div>","key_press":null,"trial_type":"html-keyboard-response","trial_index":3,"time_elapsed":37021,"internal_node_id":"0.0-4.0","subject":"fv9xqnsya73yk95","sona":"7567"},{"trial_type":"training","trial_index":4,"time_elapsed":40638,"internal_node_id":"0.0-5.0","subject":"fv9xqnsya73yk95","sona":"7567"},{"rt":998.6499999977241,"stimulus":"<p>Welche Sequenz haben Sie als natürlicher empfunden?</p>","key_press":70,"trial_type":"html-keyboard-response","trial_index":5,"time_elapsed":41640,"internal_node_id":"0.0-6.0","subject":"fv9xqnsya73yk95","sona":"7567"},{"rt":2665.5699999973876,"stimulus":"<p>Das Experiment startet nun.</p><p><small>Bitte drücken Sie den Knopf, wenn Sie bereit sind.</small></p>","button_pressed":"0","trial_type":"html-button-response","trial_index":6,"time_elapsed":44307,"internal_node_id":"0.0-7.0","subject":"fv9xqnsya73yk95","sona":"7567"},{"rt":1855.4949999997916,"stimulus":"<p>Bereit?</p>","key_press":32,"trial_type":"html-keyboard-response","trial_index":7,"time_elapsed":46163,"internal_node_id":"0.0-8.0-0.0","subject":"fv9xqnsya73yk95","sona":"7567"},{"rt":null,"stimulus":"<div style=\"font-size:60px;\">+</div>","key_press":null,"trial_type":"html-keyboard-response","trial_index":8,"time_elapsed":48186,"internal_node_id":"0.0-8.0-1.0","subject":"fv9xqnsya73yk95","sona":"7567"},{"trial_type":"turing-test","trial_index":9,"time_elapsed":51660,"internal_node_id":"0.0-8.0-2.0","subject":"fv9xqnsya73yk95","sona":"7567"},{"rt":362.13000000134343,"stimulus":"<p>Welche Sequenz haben Sie als natürlicher empfunden?</p>","key_press":70,"test_part":"response","test_stimulus":{"position":1,"left":"bvh/vr_prediction_models/model(vcgpdm)-dataset(pass-bottle-hold)-mode(ELBO)-parts(3)-dyn(15)-lvm(30)-hold(2)/final-lines.txt","right":"bvh/pass-bottle-hold-training2-lines.txt","att_check":false},"trial_type":"html-keyboard-response","trial_index":10,"time_elapsed":52027,"internal_node_id":"0.0-8.0-3.0","subject":"fv9xqnsya73yk95","sona":"7567"},{"rt":1893.725000001723,"stimulus":"<p>Bereit?</p>","key_press":32,"trial_type":"html-keyboard-response","trial_index":11,"time_elapsed":53925,"internal_node_id":"0.0-8.0-0.1","subject":"fv9xqnsya73yk95","sona":"7567"},{"rt":null,"stimulus":"<div style=\"font-size:60px;\">+</div>","key_press":null,"trial_type":"html-keyboard-response","trial_index":12,"time_elapsed":55944,"internal_node_id":"0.0-8.0-1.1","subject":"fv9xqnsya73yk95","sona":"7567"},{"trial_type":"turing-test","trial_index":13,"time_elapsed":62100,"internal_node_id":"0.0-8.0-2.1","subject":"fv9xqnsya73yk95","sona":"7567"},{"rt":460.18499999991036,"stimulus":"<p>Welche Sequenz haben Sie als natürlicher empfunden?</p>","key_press":74,"test_part":"response","test_stimulus":{"position":0,"left":"bvh/pass-bottle-training2-lines.txt","right":"bvh/vr_prediction_models/model(dmp)-dataset(pass-bottle)-npsi(90)-hold(2)/final-lines.txt","att_check":false},"trial_type":"html-keyboard-response","trial_index":14,"time_elapsed":62567,"internal_node_id":"0.0-8.0-3.1","subject":"fv9xqnsya73yk95","sona":"7567"},{"rt":3066.4450000003853,"stimulus":"<p>Bereit?</p>","key_press":32,"trial_type":"html-keyboard-response","trial_index":15,"time_elapsed":65637,"internal_node_id":"0.0-8.0-0.2","subject":"fv9xqnsya73yk95","sona":"7567"},{"rt":null,"stimulus":"<div style=\"font-size:60px;\">+</div>","key_press":null,"trial_type":"html-keyboard-response","trial_index":16,"time_elapsed":67646,"internal_node_id":"0.0-8.0-1.2","subject":"fv9xqnsya73yk95","sona":"7567"},{"trial_type":"turing-test","trial_index":17,"time_elapsed":71127,"internal_node_id":"0.0-8.0-2.2","subject":"fv9xqnsya73yk95","sona":"7567"},{"rt":295.2100000002247,"stimulus":"<p>Welche Sequenz haben Sie als natürlicher empfunden?</p>","key_press":70,"test_part":"response","test_stimulus":{"position":0,"left":"bvh/return-bottle-hold-training2-lines.txt","right":"bvh/vr_prediction_models/model(tmp)-dataset(return-bottle-hold)-numprim(9)-hold(2)/final-lines.txt","att_check":false},"trial_type":"html-keyboard-response","trial_index":18,"time_elapsed":71428,"internal_node_id":"0.0-8.0-3.2","subject":"fv9xqnsya73yk95","sona":"7567"},{"rt":400.9550000009767,"stimulus":"<p>Bereit?</p>","key_press":32,"trial_type":"html-keyboard-response","trial_index":19,"time_elapsed":71836,"internal_node_id":"0.0-8.0-0.3","subject":"fv9xqnsya73yk95","sona":"7567"},{"rt":null,"stimulus":"<div style=\"font-size:60px;\">+</div>","key_press":null,"trial_type":"html-keyboard-response","trial_index":20,"time_elapsed":73854,"internal_node_id":"0.0-8.0-1.3","subject":"fv9xqnsya73yk95","sona":"7567"},{"trial_type":"turing-test","trial_index":21,"time_elapsed":79247,"internal_node_id":"0.0-8.0-2.3","subject":"fv9xqnsya73yk95","sona":"7567"},{"rt":329.939999999624,"stimulus":"<p>Welche Sequenz haben Sie als natürlicher empfunden?</p>","key_press":70,"test_part":"response","test_stimulus":{"position":0,"left":"bvh/return-bottle-training0-lines.txt","right":"bvh/vr_prediction_models/model(dmp)-dataset(return-bottle)-npsi(90)-hold(0)/final-lines.txt","att_check":false},"trial_type":"html-keyboard-response","trial_index":22,"time_elapsed":79587,"internal_node_id":"0.0-8.0-3.3","subject":"fv9xqnsya73yk95","sona":"7567"},{"rt":414.23500000018976,"stimulus":"<p>Bereit?</p>","key_press":32,"trial_type":"html-keyboard-response","trial_index":23,"time_elapsed":80007,"internal_node_id":"0.0-8.0-0.4","subject":"fv9xqnsya73yk95","sona":"7567"},{"rt":null,"stimulus":"<div style=\"font-size:60px;\">+</div>","key_press":null,"trial_type":"html-keyboard-response","trial_index":24,"time_elapsed":82031,"internal_node_id":"0.0-8.0-1.4","subject":"fv9xqnsya73yk95","sona":"7567"},{"trial_type":"turing-test","trial_index":25,"time_elapsed":85458,"internal_node_id":"0.0-8.0-2.4","subject":"fv9xqnsya73yk95","sona":"7567"},{"rt":30.26500000123633,"stimulus":"<p>Welche Sequenz haben Sie als natürlicher empfunden?</p>","key_press":70,"test_part":"response","test_stimulus":{"position":1,"left":"bvh/vr_prediction_models/model(vcgpdm)-dataset(pass-bottle-hold)-mode(ELBO)-parts(3)-dyn(15)-lvm(30)-hold(0)/final-lines.txt","right":"bvh/pass-bottle-hold-training0-lines.txt","att_check":false},"trial_type":"html-keyboard-response","trial_index":26,"time_elapsed":85492,"internal_node_id":"0.0-8.0-3.4","subject":"fv9xqnsya73yk95","sona":"7567"},{"rt":679.7349999978906,"stimulus":"<p>Bereit?</p>","key_press":32,"trial_type":"html-keyboard-response","trial_index":27,"time_elapsed":86175,"internal_node_id":"0.0-8.0-0.5","subject":"fv9xqnsya73yk95","sona":"7567"},{"rt":null,"stimulus":"<div style=\"font-size:60px;\">+</div>","key_press":null,"trial_type":"html-keyboard-response","trial_index":28,"time_elapsed":88197,"internal_node_id":"0.0-8.0-1.5","subject":"fv9xqnsya73yk95","sona":"7567"},{"trial_type":"turing-test","trial_index":29,"time_elapsed":91921,"internal_node_id":"0.0-8.0-2.5","subject":"fv9xqnsya73yk95","sona":"7567"},{"rt":355.0649999997404,"stimulus":"<p>Welche Sequenz haben Sie als natürlicher empfunden?</p>","key_press":70,"test_part":"response","test_stimulus":{"position":0,"left":"bvh/return-bottle-hold-training3-lines.txt","right":"bvh/vr_prediction_models/model(dmp)-dataset(return-bottle-hold)-npsi(20)-hold(3)/final-lines.txt","att_check":false},"trial_type":"html-keyboard-response","trial_index":30,"time_elapsed":92286,"internal_node_id":"0.0-8.0-3.5","subject":"fv9xqnsya73yk95","sona":"7567"},{"rt":5885.459999997693,"stimulus":"<p>Bereit?</p>","key_press":32,"trial_type":"html-keyboard-response","trial_index":31,"time_elapsed":98175,"internal_node_id":"0.0-8.0-0.6","subject":"fv9xqnsya73yk95","sona":"7567"},{"rt":null,"stimulus":"<div style=\"font-size:60px;\">+</div>","key_press":null,"trial_type":"html-keyboard-response","trial_index":32,"time_elapsed":100192,"internal_node_id":"0.0-8.0-1.6","subject":"fv9xqnsya73yk95","sona":"7567"},{"trial_type":"turing-test","trial_index":33,"time_elapsed":106282,"internal_node_id":"0.0-8.0-2.6","subject":"fv9xqnsya73yk95","sona":"7567"},{"rt":421.1749999994936,"stimulus":"<p>Welche Sequenz haben Sie als natürlicher empfunden?</p>","key_press":70,"test_part":"response","test_stimulus":{"position":0,"left":"bvh/return-bottle-training1-lines.txt","right":"bvh/vr_prediction_models/model(tmp)-dataset(return-bottle)-numprim(8)-hold(1)/final-lines.txt","att_check":false},"trial_type":"html-keyboard-response","trial_index":34,"time_elapsed":106714,"internal_node_id":"0.0-8.0-3.6","subject":"fv9xqnsya73yk95","sona":"7567"},{"rt":487.07500000091386,"stimulus":"<p>Bereit?</p>","key_press":32,"trial_type":"html-keyboard-response","trial_index":35,"time_elapsed":107207,"internal_node_id":"0.0-8.0-0.7","subject":"fv9xqnsya73yk95","sona":"7567"},{"rt":null,"stimulus":"<div style=\"font-size:60px;\">+</div>","key_press":null,"trial_type":"html-keyboard-response","trial_index":36,"time_elapsed":109224,"internal_node_id":"0.0-8.0-1.7","subject":"fv9xqnsya73yk95","sona":"7567"},{"trial_type":"turing-test","trial_index":37,"time_elapsed":112658,"internal_node_id":"0.0-8.0-2.7","subject":"fv9xqnsya73yk95","sona":"7567"},{"rt":638.4199999993143,"stimulus":"<p>Welche Sequenz haben Sie als natürlicher empfunden?</p>","key_press":70,"test_part":"response","test_stimulus":{"position":1,"left":"bvh/vr_prediction_models/model(vcgpdm)-dataset(pass-bottle-hold)-mode(ELBO)-parts(3)-dyn(20)-lvm(35)-hold(0)/final-lines.txt","right":"bvh/pass-bottle-hold-training0-lines.txt","att_check":false},"trial_type":"html-keyboard-response","trial_index":38,"time_elapsed":113303,"internal_node_id":"0.0-8.0-3.7","subject":"fv9xqnsya73yk95","sona":"7567"},{"rt":952.3899999985588,"stimulus":"<p>Bereit?</p>","key_press":32,"trial_type":"html-keyboard-response","trial_index":39,"time_elapsed":114261,"internal_node_id":"0.0-8.0-0.8","subject":"fv9xqnsya73yk95","sona":"7567"},{"rt":null,"stimulus":"<div style=\"font-size:60px;\">+</div>","key_press":null,"trial_type":"html-keyboard-response","trial_index":40,"time_elapsed":116271,"internal_node_id":"0.0-8.0-1.8","subject":"fv9xqnsya73yk95","sona":"7567"},{"trial_type":"turing-test","trial_index":41,"time_elapsed":122160,"internal_node_id":"0.0-8.0-2.8","subject":"fv9xqnsya73yk95","sona":"7567"},{"rt":402.05499999865424,"stimulus":"<p>Welche Sequenz haben Sie als natürlicher empfunden?</p>","key_press":74,"test_part":"response","test_stimulus":{"position":0,"left":"bvh/pass-bottle-training3-lines.txt","right":"bvh/vr_prediction_models/model(vcgpdm)-dataset(pass-bottle)-mode(ELBO)-parts(1)-dyn(30)-lvm(20)-hold(3)/final-lines.txt","att_check":false},"trial_type":"html-keyboard-response","trial_index":42,"time_elapsed":122572,"internal_node_id":"0.0-8.0-3.8","subject":"fv9xqnsya73yk95","sona":"7567"},{"rt":303.50499999985914,"stimulus":"<p>Bereit?</p>","key_press":32,"trial_type":"html-keyboard-response","trial_index":43,"time_elapsed":122882,"internal_node_id":"0.0-8.0-0.9","subject":"fv9xqnsya73yk95","sona":"7567"},{"rt":null,"stimulus":"<div style=\"font-size:60px;\">+</div>","key_press":null,"trial_type":"html-keyboard-response","trial_index":44,"time_elapsed":124896,"internal_node_id":"0.0-8.0-1.9","subject":"fv9xqnsya73yk95","sona":"7567"},{"trial_type":"turing-test","trial_index":45,"time_elapsed":128526,"internal_node_id":"0.0-8.0-2.9","subject":"fv9xqnsya73yk95","sona":"7567"},{"rt":164.14000000077067,"stimulus":"<p>Welche Sequenz haben Sie als natürlicher empfunden?</p>","key_press":70,"test_part":"response","test_stimulus":{"position":0,"left":"bvh/pass-bottle-hold-training3-lines.txt","right":"bvh/vr_prediction_models/model(tmp)-dataset(pass-bottle-hold)-numprim(14)-hold(3)/final-lines.txt","att_check":false},"trial_type":"html-keyboard-response","trial_index":46,"time_elapsed":128700,"internal_node_id":"0.0-8.0-3.9","subject":"fv9xqnsya73yk95","sona":"7567"},{"rt":428.5600000002887,"stimulus":"<p>Bereit?</p>","key_press":32,"trial_type":"html-keyboard-response","trial_index":47,"time_elapsed":129136,"internal_node_id":"0.0-8.0-0.10","subject":"fv9xqnsya73yk95","sona":"7567"},{"rt":null,"stimulus":"<div style=\"font-size:60px;\">+</div>","key_press":null,"trial_type":"html-keyboard-response","trial_index":48,"time_elapsed":131168,"internal_node_id":"0.0-8.0-1.10","subject":"fv9xqnsya73yk95","sona":"7567"},{"trial_type":"turing-test","trial_index":49,"time_elapsed":137034,"internal_node_id":"0.0-8.0-2.10","subject":"fv9xqnsya73yk95","sona":"7567"},{"rt":237.03999999997905,"stimulus":"<p>Welche Sequenz haben Sie als natürlicher empfunden?</p>","key_press":70,"test_part":"response","test_stimulus":{"position":0,"left":"bvh/pass-bottle-training3-lines.txt","right":"bvh/vr_prediction_models/model(vcgpdm)-dataset(pass-bottle)-mode(ELBO)-parts(3)-dyn(35)-lvm(20)-hold(3)/final-lines.txt","att_check":false},"trial_type":"html-keyboard-response","trial_index":50,"time_elapsed":137281,"internal_node_id":"0.0-8.0-3.10","subject":"fv9xqnsya73yk95","sona":"7567"},{"rt":339.3599999981234,"stimulus":"<p>Bereit?</p>","key_press":32,"trial_type":"html-keyboard-response","trial_index":51,"time_elapsed":137627,"internal_node_id":"0.0-8.0-0.11","subject":"fv9xqnsya73yk95","sona":"7567"},{"rt":null,"stimulus":"<div style=\"font-size:60px;\">+</div>","key_press":null,"trial_type":"html-keyboard-response","trial_index":52,"time_elapsed":139652,"internal_node_id":"0.0-8.0-1.11","subject":"fv9xqnsya73yk95","sona":"7567"}]