[{"rt":906,"stimulus":"<p>Welcome!<br> Please choose your language to start the experiment in the chosen language.</p><p>Willkommen!<br> Bitte wählen Sie eine Sprache, um das Experiment in der ausgewählten Sprache zu starten</p>","button_pressed":"1","trial_type":"html-button-response","trial_index":0,"time_elapsed":952,"internal_node_id":"0.0-0.0","subject":"wa1qrmn1kyokx25","sona":"3973"},{"view_history":"[{\"page_index\":0,\"viewing_time\":406},{\"page_index\":1,\"viewing_time\":710.0000000000005},{\"page_index\":2,\"viewing_time\":311.99999999999955},{\"page_index\":3,\"viewing_time\":762},{\"page_index\":4,\"viewing_time\":785.9999999999995}]","rt":2975.9999999999995,"trial_type":"instructions","trial_index":1,"time_elapsed":3929,"internal_node_id":"0.0-1.0-0.0","subject":"wa1qrmn1kyokx25","sona":"3973"},{"rt":692,"stimulus":"<p>Bereit?</p>","key_press":32,"trial_type":"html-keyboard-response","trial_index":2,"time_elapsed":4623,"internal_node_id":"0.0-3.0","subject":"wa1qrmn1kyokx25","sona":"3973"},{"rt":null,"stimulus":"<div style=\"font-size:60px;\">+</div>","key_press":null,"trial_type":"html-keyboard-response","trial_index":3,"time_elapsed":6626,"internal_node_id":"0.0-4.0","subject":"wa1qrmn1kyokx25","sona":"3973"},{"trial_type":"training","trial_index":4,"time_elapsed":9840,"internal_node_id":"0.0-5.0","subject":"wa1qrmn1kyokx25","sona":"3973"},{"rt":410.9999999999982,"stimulus":"<p>Welche Sequenz haben Sie als natürlicher empfunden?</p>","key_press":70,"trial_type":"html-keyboard-response","trial_index":5,"time_elapsed":10252,"internal_node_id":"0.0-6.0","subject":"wa1qrmn1kyokx25","sona":"3973"},{"rt":1942,"stimulus":"<p>Das Experiment startet nun.</p><p><small>Bitte drücken Sie den Knopf, wenn Sie bereit sind.</small></p>","button_pressed":"0","trial_type":"html-button-response","trial_index":6,"time_elapsed":12195,"internal_node_id":"0.0-7.0","subject":"wa1qrmn1kyokx25","sona":"3973"},{"rt":944,"stimulus":"<p>Bereit?</p>","key_press":32,"trial_type":"html-keyboard-response","trial_index":7,"time_elapsed":13140,"internal_node_id":"0.0-8.0-0.0","subject":"wa1qrmn1kyokx25","sona":"3973"},{"rt":null,"stimulus":"<div style=\"font-size:60px;\">+</div>","key_press":null,"trial_type":"html-keyboard-response","trial_index":8,"time_elapsed":15141,"internal_node_id":"0.0-8.0-1.0","subject":"wa1qrmn1kyokx25","sona":"3973"},{"trial_type":"turing-test","trial_index":9,"time_elapsed":21740,"internal_node_id":"0.0-8.0-2.0","subject":"wa1qrmn1kyokx25","sona":"3973"},{"rt":477,"stimulus":"<p>Welche Sequenz haben Sie als natürlicher empfunden?</p>","key_press":74,"test_part":"response","test_stimulus":{"position":1,"left":"bvh/vr_prediction_models/model(tmp)-dataset(return-bottle)-numprim(5)-hold(2)/final-lines.txt","right":"bvh/return-bottle-training2-lines.txt","att_check":false},"trial_type":"html-keyboard-response","trial_index":10,"time_elapsed":22219,"internal_node_id":"0.0-8.0-3.0","subject":"wa1qrmn1kyokx25","sona":"3973"},{"rt":237.00000000000364,"stimulus":"<p>Bereit?</p>","key_press":32,"trial_type":"html-keyboard-response","trial_index":11,"time_elapsed":22458,"internal_node_id":"0.0-8.0-0.1","subject":"wa1qrmn1kyokx25","sona":"3973"},{"rt":null,"stimulus":"<div style=\"font-size:60px;\">+</div>","key_press":null,"trial_type":"html-keyboard-response","trial_index":12,"time_elapsed":24461,"internal_node_id":"0.0-8.0-1.1","subject":"wa1qrmn1kyokx25","sona":"3973"},{"trial_type":"turing-test","trial_index":13,"time_elapsed":28115,"internal_node_id":"0.0-8.0-2.1","subject":"wa1qrmn1kyokx25","sona":"3973"},{"rt":388,"stimulus":"<p>Welche Sequenz haben Sie als natürlicher empfunden?</p>","key_press":70,"test_part":"response","test_stimulus":{"position":0,"left":"bvh/pass-bottle-hold-training4-lines.txt","right":"bvh/vr_prediction_models/model(vcgpdm)-dataset(pass-bottle-hold)-mode(ELBO)-parts(3)-dyn(20)-lvm(20)-hold(4)/final-lines.txt","att_check":false},"trial_type":"html-keyboard-response","trial_index":14,"time_elapsed":28505,"internal_node_id":"0.0-8.0-3.1","subject":"wa1qrmn1kyokx25","sona":"3973"},{"rt":269,"stimulus":"<p>Bereit?</p>","key_press":32,"trial_type":"html-keyboard-response","trial_index":15,"time_elapsed":28776,"internal_node_id":"0.0-8.0-0.2","subject":"wa1qrmn1kyokx25","sona":"3973"},{"rt":null,"stimulus":"<div style=\"font-size:60px;\">+</div>","key_press":null,"trial_type":"html-keyboard-response","trial_index":16,"time_elapsed":30779,"internal_node_id":"0.0-8.0-1.2","subject":"wa1qrmn1kyokx25","sona":"3973"},{"trial_type":"turing-test","trial_index":17,"time_elapsed":34410,"internal_node_id":"0.0-8.0-2.2","subject":"wa1qrmn1kyokx25","sona":"3973"},{"rt":1394,"stimulus":"<p>Welche Sequenz haben Sie als natürlicher empfunden?</p>","key_press":74,"test_part":"response","test_stimulus":{"position":0,"left":"bvh/pass-bottle-hold-training3-lines.txt","right":"bvh/vr_prediction_models/model(vcgpdm)-dataset(pass-bottle-hold)-mode(ELBO)-parts(3)-dyn(20)-lvm(20)-hold(3)/final-lines.txt","att_check":false},"trial_type":"html-keyboard-response","trial_index":18,"time_elapsed":35807,"internal_node_id":"0.0-8.0-3.2","subject":"wa1qrmn1kyokx25","sona":"3973"},{"rt":206,"stimulus":"<p>Bereit?</p>","key_press":32,"trial_type":"html-keyboard-response","trial_index":19,"time_elapsed":36014,"internal_node_id":"0.0-8.0-0.3","subject":"wa1qrmn1kyokx25","sona":"3973"},{"rt":null,"stimulus":"<div style=\"font-size:60px;\">+</div>","key_press":null,"trial_type":"html-keyboard-response","trial_index":20,"time_elapsed":38016,"internal_node_id":"0.0-8.0-1.3","subject":"wa1qrmn1kyokx25","sona":"3973"},{"trial_type":"turing-test","trial_index":21,"time_elapsed":41584,"internal_node_id":"0.0-8.0-2.3","subject":"wa1qrmn1kyokx25","sona":"3973"},{"rt":1198,"stimulus":"<p>Welche Sequenz haben Sie als natürlicher empfunden?</p>","key_press":74,"test_part":"response","test_stimulus":{"position":1,"left":"bvh/vr_prediction_models/model(dmp)-dataset(pass-bottle-hold)-npsi(20)-hold(4)/final-lines.txt","right":"bvh/pass-bottle-hold-training4-lines.txt","att_check":false},"trial_type":"html-keyboard-response","trial_index":22,"time_elapsed":42784,"internal_node_id":"0.0-8.0-3.3","subject":"wa1qrmn1kyokx25","sona":"3973"},{"rt":590,"stimulus":"<p>Bereit?</p>","key_press":32,"trial_type":"html-keyboard-response","trial_index":23,"time_elapsed":43376,"internal_node_id":"0.0-8.0-0.4","subject":"wa1qrmn1kyokx25","sona":"3973"},{"rt":null,"stimulus":"<div style=\"font-size:60px;\">+</div>","key_press":null,"trial_type":"html-keyboard-response","trial_index":24,"time_elapsed":45379,"internal_node_id":"0.0-8.0-1.4","subject":"wa1qrmn1kyokx25","sona":"3973"},{"trial_type":"turing-test","trial_index":25,"time_elapsed":48946,"internal_node_id":"0.0-8.0-2.4","subject":"wa1qrmn1kyokx25","sona":"3973"},{"rt":496,"stimulus":"<p>Welche Sequenz haben Sie als natürlicher empfunden?</p>","key_press":74,"test_part":"response","test_stimulus":{"position":1,"left":"bvh/vr_prediction_models/model(tmp)-dataset(return-bottle-hold)-numprim(5)-hold(3)/final-lines.txt","right":"bvh/return-bottle-hold-training3-lines.txt","att_check":false},"trial_type":"html-keyboard-response","trial_index":26,"time_elapsed":49444,"internal_node_id":"0.0-8.0-3.4","subject":"wa1qrmn1kyokx25","sona":"3973"},{"rt":189.99999999999272,"stimulus":"<p>Bereit?</p>","key_press":32,"trial_type":"html-keyboard-response","trial_index":27,"time_elapsed":49636,"internal_node_id":"0.0-8.0-0.5","subject":"wa1qrmn1kyokx25","sona":"3973"},{"rt":null,"stimulus":"<div style=\"font-size:60px;\">+</div>","key_press":null,"trial_type":"html-keyboard-response","trial_index":28,"time_elapsed":51639,"internal_node_id":"0.0-8.0-1.5","subject":"wa1qrmn1kyokx25","sona":"3973"},{"trial_type":"turing-test","trial_index":29,"time_elapsed":57756,"internal_node_id":"0.0-8.0-2.5","subject":"wa1qrmn1kyokx25","sona":"3973"},{"rt":446.0000000000073,"stimulus":"<p>Welche Sequenz haben Sie als natürlicher empfunden?</p>","key_press":74,"test_part":"response","test_stimulus":{"position":1,"left":"bvh/vr_prediction_models/model(vcgpdm)-dataset(return-bottle)-mode(ELBO)-parts(1)-dyn(20)-lvm(30)-hold(1)/final-lines.txt","right":"bvh/return-bottle-training1-lines.txt","att_check":false},"trial_type":"html-keyboard-response","trial_index":30,"time_elapsed":58205,"internal_node_id":"0.0-8.0-3.5","subject":"wa1qrmn1kyokx25","sona":"3973"},{"rt":269,"stimulus":"<p>Bereit?</p>","key_press":32,"trial_type":"html-keyboard-response","trial_index":31,"time_elapsed":58476,"internal_node_id":"0.0-8.0-0.6","subject":"wa1qrmn1kyokx25","sona":"3973"},{"rt":null,"stimulus":"<div style=\"font-size:60px;\">+</div>","key_press":null,"trial_type":"html-keyboard-response","trial_index":32,"time_elapsed":60479,"internal_node_id":"0.0-8.0-1.6","subject":"wa1qrmn1kyokx25","sona":"3973"},{"trial_type":"turing-test","trial_index":33,"time_elapsed":63911,"internal_node_id":"0.0-8.0-2.6","subject":"wa1qrmn1kyokx25","sona":"3973"},{"rt":4501,"stimulus":"<p>Welche Sequenz haben Sie als natürlicher empfunden?</p>","key_press":74,"test_part":"response","test_stimulus":{"position":0,"left":"bvh/pass-bottle-hold-training0-lines.txt","right":"bvh/vr_prediction_models/model(vcgpdm)-dataset(pass-bottle-hold)-mode(ELBO)-parts(3)-dyn(25)-lvm(25)-hold(0)/final-lines.txt","att_check":false},"trial_type":"html-keyboard-response","trial_index":34,"time_elapsed":68415,"internal_node_id":"0.0-8.0-3.6","subject":"wa1qrmn1kyokx25","sona":"3973"},{"rt":436.00000000001455,"stimulus":"<p>Bereit?</p>","key_press":32,"trial_type":"html-keyboard-response","trial_index":35,"time_elapsed":68853,"internal_node_id":"0.0-8.0-0.7","subject":"wa1qrmn1kyokx25","sona":"3973"},{"rt":null,"stimulus":"<div style=\"font-size:60px;\">+</div>","key_press":null,"trial_type":"html-keyboard-response","trial_index":36,"time_elapsed":70856,"internal_node_id":"0.0-8.0-1.7","subject":"wa1qrmn1kyokx25","sona":"3973"},{"trial_type":"turing-test","trial_index":37,"time_elapsed":76640,"internal_node_id":"0.0-8.0-2.7","subject":"wa1qrmn1kyokx25","sona":"3973"},{"rt":1299,"stimulus":"<p>Welche Sequenz haben Sie als natürlicher empfunden?</p>","key_press":74,"test_part":"response","test_stimulus":{"position":1,"left":"bvh/vr_prediction_models/model(dmp)-dataset(pass-bottle)-npsi(40)-hold(3)/final-lines.txt","right":"bvh/pass-bottle-training3-lines.txt","att_check":false},"trial_type":"html-keyboard-response","trial_index":38,"time_elapsed":77941,"internal_node_id":"0.0-8.0-3.7","subject":"wa1qrmn1kyokx25","sona":"3973"},{"rt":286.00000000001455,"stimulus":"<p>Bereit?</p>","key_press":32,"trial_type":"html-keyboard-response","trial_index":39,"time_elapsed":78228,"internal_node_id":"0.0-8.0-0.8","subject":"wa1qrmn1kyokx25","sona":"3973"},{"rt":null,"stimulus":"<div style=\"font-size:60px;\">+</div>","key_press":null,"trial_type":"html-keyboard-response","trial_index":40,"time_elapsed":80231,"internal_node_id":"0.0-8.0-1.8","subject":"wa1qrmn1kyokx25","sona":"3973"},{"trial_type":"turing-test","trial_index":41,"time_elapsed":85981,"internal_node_id":"0.0-8.0-2.8","subject":"wa1qrmn1kyokx25","sona":"3973"},{"rt":717,"stimulus":"<p>Welche Sequenz haben Sie als natürlicher empfunden?</p>","key_press":74,"test_part":"response","test_stimulus":{"position":0,"left":"bvh/return-bottle-training4-lines.txt","right":"bvh/vr_prediction_models/model(dmp)-dataset(return-bottle)-npsi(10)-hold(4)/final-lines.txt","att_check":false},"trial_type":"html-keyboard-response","trial_index":42,"time_elapsed":86701,"internal_node_id":"0.0-8.0-3.8","subject":"wa1qrmn1kyokx25","sona":"3973"},{"rt":286,"stimulus":"<p>Bereit?</p>","key_press":32,"trial_type":"html-keyboard-response","trial_index":43,"time_elapsed":86989,"internal_node_id":"0.0-8.0-0.9","subject":"wa1qrmn1kyokx25","sona":"3973"},{"rt":null,"stimulus":"<div style=\"font-size:60px;\">+</div>","key_press":null,"trial_type":"html-keyboard-response","trial_index":44,"time_elapsed":88992,"internal_node_id":"0.0-8.0-1.9","subject":"wa1qrmn1kyokx25","sona":"3973"},{"trial_type":"turing-test","trial_index":45,"time_elapsed":94594,"internal_node_id":"0.0-8.0-2.9","subject":"wa1qrmn1kyokx25","sona":"3973"},{"rt":13154.000000000015,"stimulus":"<p>Welche Sequenz haben Sie als natürlicher empfunden?</p>","key_press":74,"test_part":"response","test_stimulus":{"position":1,"left":"bvh/vr_prediction_models/model(tmp)-dataset(return-bottle)-numprim(3)-hold(4)/final-lines.txt","right":"bvh/return-bottle-training4-lines.txt","att_check":false},"trial_type":"html-keyboard-response","trial_index":46,"time_elapsed":107750,"internal_node_id":"0.0-8.0-3.9","subject":"wa1qrmn1kyokx25","sona":"3973"},{"rt":333,"stimulus":"<p>Bereit?</p>","key_press":32,"trial_type":"html-keyboard-response","trial_index":47,"time_elapsed":108086,"internal_node_id":"0.0-8.0-0.10","subject":"wa1qrmn1kyokx25","sona":"3973"},{"rt":null,"stimulus":"<div style=\"font-size:60px;\">+</div>","key_press":null,"trial_type":"html-keyboard-response","trial_index":48,"time_elapsed":110087,"internal_node_id":"0.0-8.0-1.10","subject":"wa1qrmn1kyokx25","sona":"3973"},{"trial_type":"turing-test","trial_index":49,"time_elapsed":113458,"internal_node_id":"0.0-8.0-2.10","subject":"wa1qrmn1kyokx25","sona":"3973"},{"rt":1225,"stimulus":"<p>Welche Sequenz haben Sie als natürlicher empfunden?</p>","key_press":74,"test_part":"response","test_stimulus":{"position":1,"left":"bvh/vr_prediction_models/model(tmp)-dataset(return-bottle-hold)-numprim(7)-hold(1)/final-lines.txt","right":"bvh/return-bottle-hold-training1-lines.txt","att_check":false},"trial_type":"html-keyboard-response","trial_index":50,"time_elapsed":114686,"internal_node_id":"0.0-8.0-3.10","subject":"wa1qrmn1kyokx25","sona":"3973"},{"rt":198,"stimulus":"<p>Bereit?</p>","key_press":32,"trial_type":"html-keyboard-response","trial_index":51,"time_elapsed":114886,"internal_node_id":"0.0-8.0-0.11","subject":"wa1qrmn1kyokx25","sona":"3973"},{"rt":null,"stimulus":"<div style=\"font-size:60px;\">+</div>","key_press":null,"trial_type":"html-keyboard-response","trial_index":52,"time_elapsed":116889,"internal_node_id":"0.0-8.0-1.11","subject":"wa1qrmn1kyokx25","sona":"3973"},{"trial_type":"turing-test","trial_index":53,"time_elapsed":122940,"internal_node_id":"0.0-8.0-2.11","subject":"wa1qrmn1kyokx25","sona":"3973"}]