[{"rt":5243.309999999838,"stimulus":"<p>Welcome!<br> Please choose your language to start the experiment in the chosen language.</p><p>Willkommen!<br> Bitte wählen Sie eine Sprache, um das Experiment in der ausgewählten Sprache zu starten</p>","button_pressed":"1","trial_type":"html-button-response","trial_index":0,"time_elapsed":5290,"internal_node_id":"0.0-0.0","subject":"b2n3cjv1bfm7ays","sona":"7813"},{"view_history":"[{\"page_index\":0,\"viewing_time\":10138.505000000805},{\"page_index\":1,\"viewing_time\":3455.3450000003068},{\"page_index\":2,\"viewing_time\":7413.784999998825},{\"page_index\":3,\"viewing_time\":6342.145000000528},{\"page_index\":4,\"viewing_time\":4442.530000000261}]","rt":31793.24000000088,"trial_type":"instructions","trial_index":1,"time_elapsed":37084,"internal_node_id":"0.0-1.0-0.0","subject":"b2n3cjv1bfm7ays","sona":"7813"},{"rt":1731.9299999999203,"stimulus":"<p>Bereit?</p>","key_press":32,"trial_type":"html-keyboard-response","trial_index":2,"time_elapsed":38818,"internal_node_id":"0.0-3.0","subject":"b2n3cjv1bfm7ays","sona":"7813"},{"rt":null,"stimulus":"<div style=\"font-size:60px;\">+</div>","key_press":null,"trial_type":"html-keyboard-response","trial_index":3,"time_elapsed":40828,"internal_node_id":"0.0-4.0","subject":"b2n3cjv1bfm7ays","sona":"7813"},{"trial_type":"training","trial_index":4,"time_elapsed":44135,"internal_node_id":"0.0-5.0","subject":"b2n3cjv1bfm7ays","sona":"7813"},{"rt":1419.4900000002235,"stimulus":"<p>Welche Sequenz haben Sie als natürlicher empfunden?</p>","key_press":70,"trial_type":"html-keyboard-response","trial_index":5,"time_elapsed":45556,"internal_node_id":"0.0-6.0","subject":"b2n3cjv1bfm7ays","sona":"7813"},{"rt":4121.134999999413,"stimulus":"<p>Das Experiment startet nun.</p><p><small>Bitte drücken Sie den Knopf, wenn Sie bereit sind.</small></p>","button_pressed":"0","trial_type":"html-button-response","trial_index":6,"time_elapsed":49678,"internal_node_id":"0.0-7.0","subject":"b2n3cjv1bfm7ays","sona":"7813"},{"rt":1498.9649999988615,"stimulus":"<p>Bereit?</p>","key_press":32,"trial_type":"html-keyboard-response","trial_index":7,"time_elapsed":51178,"internal_node_id":"0.0-8.0-0.0","subject":"b2n3cjv1bfm7ays","sona":"7813"},{"rt":null,"stimulus":"<div style=\"font-size:60px;\">+</div>","key_press":null,"trial_type":"html-keyboard-response","trial_index":8,"time_elapsed":53185,"internal_node_id":"0.0-8.0-1.0","subject":"b2n3cjv1bfm7ays","sona":"7813"},{"trial_type":"turing-test","trial_index":9,"time_elapsed":56443,"internal_node_id":"0.0-8.0-2.0","subject":"b2n3cjv1bfm7ays","sona":"7813"},{"rt":2276.495000000068,"stimulus":"<p>Welche Sequenz haben Sie als natürlicher empfunden?</p>","key_press":74,"test_part":"response","test_stimulus":{"position":1,"left":"bvh/vr_prediction_models/model(tmp)-dataset(pass-bottle-hold)-numprim(6)-hold(0)/final-lines.txt","right":"bvh/pass-bottle-hold-training0-lines.txt","att_check":false},"trial_type":"html-keyboard-response","trial_index":10,"time_elapsed":58722,"internal_node_id":"0.0-8.0-3.0","subject":"b2n3cjv1bfm7ays","sona":"7813"},{"rt":1057.6149999997142,"stimulus":"<p>Bereit?</p>","key_press":32,"trial_type":"html-keyboard-response","trial_index":11,"time_elapsed":59781,"internal_node_id":"0.0-8.0-0.1","subject":"b2n3cjv1bfm7ays","sona":"7813"},{"rt":null,"stimulus":"<div style=\"font-size:60px;\">+</div>","key_press":null,"trial_type":"html-keyboard-response","trial_index":12,"time_elapsed":61791,"internal_node_id":"0.0-8.0-1.1","subject":"b2n3cjv1bfm7ays","sona":"7813"},{"trial_type":"turing-test","trial_index":13,"time_elapsed":67953,"internal_node_id":"0.0-8.0-2.1","subject":"b2n3cjv1bfm7ays","sona":"7813"},{"rt":2230.3650000012567,"stimulus":"<p>Welche Sequenz haben Sie als natürlicher empfunden?</p>","key_press":74,"test_part":"response","test_stimulus":{"position":1,"left":"bvh/vr_prediction_models/model(vcgpdm)-dataset(pass-bottle)-mode(MAP)-parts(3)-hold(2)/final-lines.txt","right":"bvh/pass-bottle-training2-lines.txt","att_check":false},"trial_type":"html-keyboard-response","trial_index":14,"time_elapsed":70186,"internal_node_id":"0.0-8.0-3.1","subject":"b2n3cjv1bfm7ays","sona":"7813"},{"rt":668.1699999990087,"stimulus":"<p>Bereit?</p>","key_press":32,"trial_type":"html-keyboard-response","trial_index":15,"time_elapsed":70855,"internal_node_id":"0.0-8.0-0.2","subject":"b2n3cjv1bfm7ays","sona":"7813"},{"rt":null,"stimulus":"<div style=\"font-size:60px;\">+</div>","key_press":null,"trial_type":"html-keyboard-response","trial_index":16,"time_elapsed":72866,"internal_node_id":"0.0-8.0-1.2","subject":"b2n3cjv1bfm7ays","sona":"7813"},{"trial_type":"turing-test","trial_index":17,"time_elapsed":76370,"internal_node_id":"0.0-8.0-2.2","subject":"b2n3cjv1bfm7ays","sona":"7813"},{"rt":1235.0149999983842,"stimulus":"<p>Welche Sequenz haben Sie als natürlicher empfunden?</p>","key_press":70,"test_part":"response","test_stimulus":{"position":0,"left":"bvh/pass-bottle-hold-training3-lines.txt","right":"bvh/vr_prediction_models/model(tmp)-dataset(pass-bottle-hold)-numprim(14)-hold(3)/final-lines.txt","att_check":false},"trial_type":"html-keyboard-response","trial_index":18,"time_elapsed":77607,"internal_node_id":"0.0-8.0-3.2","subject":"b2n3cjv1bfm7ays","sona":"7813"},{"rt":645.6699999998818,"stimulus":"<p>Bereit?</p>","key_press":32,"trial_type":"html-keyboard-response","trial_index":19,"time_elapsed":78254,"internal_node_id":"0.0-8.0-0.3","subject":"b2n3cjv1bfm7ays","sona":"7813"},{"rt":null,"stimulus":"<div style=\"font-size:60px;\">+</div>","key_press":null,"trial_type":"html-keyboard-response","trial_index":20,"time_elapsed":80264,"internal_node_id":"0.0-8.0-1.3","subject":"b2n3cjv1bfm7ays","sona":"7813"},{"trial_type":"turing-test","trial_index":21,"time_elapsed":86053,"internal_node_id":"0.0-8.0-2.3","subject":"b2n3cjv1bfm7ays","sona":"7813"},{"rt":1359.2499999995198,"stimulus":"<p>Welche Sequenz haben Sie als natürlicher empfunden?</p>","key_press":70,"test_part":"response","test_stimulus":{"position":0,"left":"bvh/pass-bottle-training4-lines.txt","right":"bvh/vr_prediction_models/model(vcgpdm)-dataset(pass-bottle)-mode(ELBO)-parts(1)-dyn(35)-lvm(10)-hold(4)/final-lines.txt","att_check":false},"trial_type":"html-keyboard-response","trial_index":22,"time_elapsed":87415,"internal_node_id":"0.0-8.0-3.3","subject":"b2n3cjv1bfm7ays","sona":"7813"},{"rt":517.135000000053,"stimulus":"<p>Bereit?</p>","key_press":32,"trial_type":"html-keyboard-response","trial_index":23,"time_elapsed":87934,"internal_node_id":"0.0-8.0-0.4","subject":"b2n3cjv1bfm7ays","sona":"7813"},{"rt":null,"stimulus":"<div style=\"font-size:60px;\">+</div>","key_press":null,"trial_type":"html-keyboard-response","trial_index":24,"time_elapsed":89944,"internal_node_id":"0.0-8.0-1.4","subject":"b2n3cjv1bfm7ays","sona":"7813"},{"trial_type":"turing-test","trial_index":25,"time_elapsed":95991,"internal_node_id":"0.0-8.0-2.4","subject":"b2n3cjv1bfm7ays","sona":"7813"},{"rt":810.075000001234,"stimulus":"<p>Welche Sequenz haben Sie als natürlicher empfunden?</p>","key_press":74,"test_part":"response","test_stimulus":{"position":1,"left":"bvh/vr_prediction_models/model(tmp)-dataset(pass-bottle)-numprim(8)-hold(2)/final-lines.txt","right":"bvh/pass-bottle-training2-lines.txt","att_check":false},"trial_type":"html-keyboard-response","trial_index":26,"time_elapsed":96803,"internal_node_id":"0.0-8.0-3.4","subject":"b2n3cjv1bfm7ays","sona":"7813"},{"rt":626.0299999994459,"stimulus":"<p>Bereit?</p>","key_press":32,"trial_type":"html-keyboard-response","trial_index":27,"time_elapsed":97431,"internal_node_id":"0.0-8.0-0.5","subject":"b2n3cjv1bfm7ays","sona":"7813"},{"rt":null,"stimulus":"<div style=\"font-size:60px;\">+</div>","key_press":null,"trial_type":"html-keyboard-response","trial_index":28,"time_elapsed":99435,"internal_node_id":"0.0-8.0-1.5","subject":"b2n3cjv1bfm7ays","sona":"7813"},{"trial_type":"turing-test","trial_index":29,"time_elapsed":104513,"internal_node_id":"0.0-8.0-2.5","subject":"b2n3cjv1bfm7ays","sona":"7813"},{"rt":481.35999999976775,"stimulus":"<p>Welche Sequenz haben Sie als natürlicher empfunden?</p>","key_press":70,"test_part":"response","test_stimulus":{"position":0,"left":"bvh/return-bottle-hold-training0-lines.txt","right":"bvh/vr_prediction_models/model(dmp)-dataset(return-bottle-hold)-npsi(70)-hold(0)/final-lines.txt","att_check":false},"trial_type":"html-keyboard-response","trial_index":30,"time_elapsed":104996,"internal_node_id":"0.0-8.0-3.5","subject":"b2n3cjv1bfm7ays","sona":"7813"},{"rt":699.7599999995145,"stimulus":"<p>Bereit?</p>","key_press":32,"trial_type":"html-keyboard-response","trial_index":31,"time_elapsed":105698,"internal_node_id":"0.0-8.0-0.6","subject":"b2n3cjv1bfm7ays","sona":"7813"},{"rt":null,"stimulus":"<div style=\"font-size:60px;\">+</div>","key_press":null,"trial_type":"html-keyboard-response","trial_index":32,"time_elapsed":107706,"internal_node_id":"0.0-8.0-1.6","subject":"b2n3cjv1bfm7ays","sona":"7813"},{"trial_type":"turing-test","trial_index":33,"time_elapsed":113481,"internal_node_id":"0.0-8.0-2.6","subject":"b2n3cjv1bfm7ays","sona":"7813"},{"rt":823.259999999209,"stimulus":"<p>Welche Sequenz haben Sie als natürlicher empfunden?</p>","key_press":74,"test_part":"response","test_stimulus":{"position":1,"left":"bvh/vr_prediction_models/model(vcgpdm)-dataset(return-bottle)-mode(ELBO)-parts(3)-dyn(10)-lvm(25)-hold(3)/final-lines.txt","right":"bvh/return-bottle-training3-lines.txt","att_check":false},"trial_type":"html-keyboard-response","trial_index":34,"time_elapsed":114307,"internal_node_id":"0.0-8.0-3.6","subject":"b2n3cjv1bfm7ays","sona":"7813"},{"rt":745.8749999987049,"stimulus":"<p>Bereit?</p>","key_press":32,"trial_type":"html-keyboard-response","trial_index":35,"time_elapsed":115055,"internal_node_id":"0.0-8.0-0.7","subject":"b2n3cjv1bfm7ays","sona":"7813"},{"rt":null,"stimulus":"<div style=\"font-size:60px;\">+</div>","key_press":null,"trial_type":"html-keyboard-response","trial_index":36,"time_elapsed":117063,"internal_node_id":"0.0-8.0-1.7","subject":"b2n3cjv1bfm7ays","sona":"7813"},{"trial_type":"turing-test","trial_index":37,"time_elapsed":122113,"internal_node_id":"0.0-8.0-2.7","subject":"b2n3cjv1bfm7ays","sona":"7813"},{"rt":422.035000001415,"stimulus":"<p>Welche Sequenz haben Sie als natürlicher empfunden?</p>","key_press":70,"test_part":"response","test_stimulus":{"position":0,"left":"bvh/return-bottle-hold-training0-lines.txt","right":"bvh/vr_prediction_models/model(dmp)-dataset(return-bottle-hold)-npsi(90)-hold(0)/final-lines.txt","att_check":false},"trial_type":"html-keyboard-response","trial_index":38,"time_elapsed":122537,"internal_node_id":"0.0-8.0-3.7","subject":"b2n3cjv1bfm7ays","sona":"7813"},{"rt":832.5199999999313,"stimulus":"<p>Bereit?</p>","key_press":32,"trial_type":"html-keyboard-response","trial_index":39,"time_elapsed":123371,"internal_node_id":"0.0-8.0-0.8","subject":"b2n3cjv1bfm7ays","sona":"7813"},{"rt":null,"stimulus":"<div style=\"font-size:60px;\">+</div>","key_press":null,"trial_type":"html-keyboard-response","trial_index":40,"time_elapsed":125382,"internal_node_id":"0.0-8.0-1.8","subject":"b2n3cjv1bfm7ays","sona":"7813"},{"trial_type":"turing-test","trial_index":41,"time_elapsed":131122,"internal_node_id":"0.0-8.0-2.8","subject":"b2n3cjv1bfm7ays","sona":"7813"},{"rt":743.0000000003783,"stimulus":"<p>Welche Sequenz haben Sie als natürlicher empfunden?</p>","key_press":70,"test_part":"response","test_stimulus":{"position":0,"left":"bvh/return-bottle-training3-lines.txt","right":"bvh/vr_prediction_models/model(vcgpdm)-dataset(return-bottle)-mode(ELBO)-parts(1)-dyn(35)-lvm(30)-hold(3)/final-lines.txt","att_check":false},"trial_type":"html-keyboard-response","trial_index":42,"time_elapsed":131867,"internal_node_id":"0.0-8.0-3.8","subject":"b2n3cjv1bfm7ays","sona":"7813"},{"rt":411.33500000066124,"stimulus":"<p>Bereit?</p>","key_press":32,"trial_type":"html-keyboard-response","trial_index":43,"time_elapsed":132280,"internal_node_id":"0.0-8.0-0.9","subject":"b2n3cjv1bfm7ays","sona":"7813"},{"rt":null,"stimulus":"<div style=\"font-size:60px;\">+</div>","key_press":null,"trial_type":"html-keyboard-response","trial_index":44,"time_elapsed":134287,"internal_node_id":"0.0-8.0-1.9","subject":"b2n3cjv1bfm7ays","sona":"7813"},{"trial_type":"turing-test","trial_index":45,"time_elapsed":137590,"internal_node_id":"0.0-8.0-2.9","subject":"b2n3cjv1bfm7ays","sona":"7813"},{"rt":710.6250000015134,"stimulus":"<p>Welche Sequenz haben Sie als natürlicher empfunden?</p>","key_press":70,"test_part":"response","test_stimulus":{"position":0,"left":"bvh/return-bottle-hold-training1-lines.txt","right":"bvh/vr_prediction_models/model(dmp)-dataset(return-bottle-hold)-npsi(40)-hold(1)/final-lines.txt","att_check":false},"trial_type":"html-keyboard-response","trial_index":46,"time_elapsed":138303,"internal_node_id":"0.0-8.0-3.9","subject":"b2n3cjv1bfm7ays","sona":"7813"},{"rt":496.97999999989406,"stimulus":"<p>Bereit?</p>","key_press":32,"trial_type":"html-keyboard-response","trial_index":47,"time_elapsed":138801,"internal_node_id":"0.0-8.0-0.10","subject":"b2n3cjv1bfm7ays","sona":"7813"},{"rt":null,"stimulus":"<div style=\"font-size:60px;\">+</div>","key_press":null,"trial_type":"html-keyboard-response","trial_index":48,"time_elapsed":140809,"internal_node_id":"0.0-8.0-1.10","subject":"b2n3cjv1bfm7ays","sona":"7813"},{"trial_type":"turing-test","trial_index":49,"time_elapsed":146852,"internal_node_id":"0.0-8.0-2.10","subject":"b2n3cjv1bfm7ays","sona":"7813"},{"rt":545.1500000017404,"stimulus":"<p>Welche Sequenz haben Sie als natürlicher empfunden?</p>","key_press":74,"test_part":"response","test_stimulus":{"position":1,"left":"bvh/vr_prediction_models/model(tmp)-dataset(return-bottle)-numprim(13)-hold(1)/final-lines.txt","right":"bvh/return-bottle-training1-lines.txt","att_check":false},"trial_type":"html-keyboard-response","trial_index":50,"time_elapsed":147401,"internal_node_id":"0.0-8.0-3.10","subject":"b2n3cjv1bfm7ays","sona":"7813"},{"rt":454.99500000005355,"stimulus":"<p>Bereit?</p>","key_press":32,"trial_type":"html-keyboard-response","trial_index":51,"time_elapsed":147858,"internal_node_id":"0.0-8.0-0.11","subject":"b2n3cjv1bfm7ays","sona":"7813"},{"rt":null,"stimulus":"<div style=\"font-size:60px;\">+</div>","key_press":null,"trial_type":"html-keyboard-response","trial_index":52,"time_elapsed":149869,"internal_node_id":"0.0-8.0-1.11","subject":"b2n3cjv1bfm7ays","sona":"7813"}]