[{"rt":14206,"stimulus":"<p>Welcome!<br> Please choose your language to start the experiment in the chosen language.</p><p>Willkommen!<br> Bitte wählen Sie eine Sprache, um das Experiment in der ausgewählten Sprache zu starten</p>","button_pressed":"0","trial_type":"html-button-response","trial_index":0,"time_elapsed":14211,"internal_node_id":"0.0-0.0","subject":"p8l2311xkyheo6w","sona":"9550"},{"view_history":"[{\"page_index\":0,\"viewing_time\":8155},{\"page_index\":1,\"viewing_time\":7036},{\"page_index\":2,\"viewing_time\":5327},{\"page_index\":3,\"viewing_time\":8560},{\"page_index\":4,\"viewing_time\":3028}]","rt":32106,"trial_type":"instructions","trial_index":1,"time_elapsed":46318,"internal_node_id":"0.0-2.0-0.0","subject":"p8l2311xkyheo6w","sona":"9550"},{"rt":1825,"stimulus":"<p>Ready?</p>","key_press":32,"trial_type":"html-keyboard-response","trial_index":2,"time_elapsed":48145,"internal_node_id":"0.0-3.0","subject":"p8l2311xkyheo6w","sona":"9550"},{"rt":null,"stimulus":"<div style=\"font-size:60px;\">+</div>","key_press":null,"trial_type":"html-keyboard-response","trial_index":3,"time_elapsed":50175,"internal_node_id":"0.0-4.0","subject":"p8l2311xkyheo6w","sona":"9550"},{"trial_type":"training","trial_index":4,"time_elapsed":53673,"internal_node_id":"0.0-5.0","subject":"p8l2311xkyheo6w","sona":"9550"},{"rt":8552,"stimulus":"<p>Which sequence did you perceive as more natural?</p>","key_press":70,"trial_type":"html-keyboard-response","trial_index":5,"time_elapsed":62228,"internal_node_id":"0.0-6.0","subject":"p8l2311xkyheo6w","sona":"9550"},{"rt":3072,"stimulus":"<p>The experiment starts now.</p><p><small>Please click the button if you are ready.</small></p>","button_pressed":"0","trial_type":"html-button-response","trial_index":6,"time_elapsed":65304,"internal_node_id":"0.0-7.0","subject":"p8l2311xkyheo6w","sona":"9550"},{"rt":1442,"stimulus":"<p>Ready?</p>","key_press":32,"trial_type":"html-keyboard-response","trial_index":7,"time_elapsed":66749,"internal_node_id":"0.0-8.0-0.0","subject":"p8l2311xkyheo6w","sona":"9550"},{"rt":null,"stimulus":"<div style=\"font-size:60px;\">+</div>","key_press":null,"trial_type":"html-keyboard-response","trial_index":8,"time_elapsed":68774,"internal_node_id":"0.0-8.0-1.0","subject":"p8l2311xkyheo6w","sona":"9550"},{"trial_type":"turing-test","trial_index":9,"time_elapsed":72277,"internal_node_id":"0.0-8.0-2.0","subject":"p8l2311xkyheo6w","sona":"9550"},{"rt":3333,"stimulus":"<p>Which sequence did you perceive as more natural?</p>","key_press":74,"test_part":"response","test_stimulus":{"position":0,"left":"bvh/return-bottle-hold-training2-lines.txt","right":"bvh/vr_prediction_models/model(tmp)-dataset(return-bottle-hold)-numprim(6)-hold(2)/final-lines.txt","att_check":false},"trial_type":"html-keyboard-response","trial_index":10,"time_elapsed":75613,"internal_node_id":"0.0-8.0-3.0","subject":"p8l2311xkyheo6w","sona":"9550"},{"rt":4159,"stimulus":"<p>Ready?</p>","key_press":32,"trial_type":"html-keyboard-response","trial_index":11,"time_elapsed":79774,"internal_node_id":"0.0-8.0-0.1","subject":"p8l2311xkyheo6w","sona":"9550"},{"rt":null,"stimulus":"<div style=\"font-size:60px;\">+</div>","key_press":null,"trial_type":"html-keyboard-response","trial_index":12,"time_elapsed":81798,"internal_node_id":"0.0-8.0-1.1","subject":"p8l2311xkyheo6w","sona":"9550"},{"trial_type":"turing-test","trial_index":13,"time_elapsed":85451,"internal_node_id":"0.0-8.0-2.1","subject":"p8l2311xkyheo6w","sona":"9550"},{"rt":994,"stimulus":"<p>Which sequence did you perceive as more natural?</p>","key_press":70,"test_part":"response","test_stimulus":{"position":1,"left":"bvh/vr_prediction_models/model(tmp)-dataset(return-bottle-hold)-numprim(12)-hold(3)/final-lines.txt","right":"bvh/return-bottle-hold-training3-lines.txt","att_check":false},"trial_type":"html-keyboard-response","trial_index":14,"time_elapsed":86448,"internal_node_id":"0.0-8.0-3.1","subject":"p8l2311xkyheo6w","sona":"9550"},{"rt":1074,"stimulus":"<p>Ready?</p>","key_press":32,"trial_type":"html-keyboard-response","trial_index":15,"time_elapsed":87525,"internal_node_id":"0.0-8.0-0.2","subject":"p8l2311xkyheo6w","sona":"9550"},{"rt":null,"stimulus":"<div style=\"font-size:60px;\">+</div>","key_press":null,"trial_type":"html-keyboard-response","trial_index":16,"time_elapsed":89541,"internal_node_id":"0.0-8.0-1.2","subject":"p8l2311xkyheo6w","sona":"9550"},{"trial_type":"turing-test","trial_index":17,"time_elapsed":92979,"internal_node_id":"0.0-8.0-2.2","subject":"p8l2311xkyheo6w","sona":"9550"},{"rt":2520,"stimulus":"<p>Which sequence did you perceive as more natural?</p>","key_press":70,"test_part":"response","test_stimulus":{"position":1,"left":"bvh/vr_prediction_models/model(vcgpdm)-dataset(pass-bottle-hold)-mode(ELBO)-parts(3)-dyn(20)-lvm(35)-hold(1)/final-lines.txt","right":"bvh/pass-bottle-hold-training1-lines.txt","att_check":false},"trial_type":"html-keyboard-response","trial_index":18,"time_elapsed":95504,"internal_node_id":"0.0-8.0-3.2","subject":"p8l2311xkyheo6w","sona":"9550"},{"rt":1017,"stimulus":"<p>Ready?</p>","key_press":32,"trial_type":"html-keyboard-response","trial_index":19,"time_elapsed":96523,"internal_node_id":"0.0-8.0-0.3","subject":"p8l2311xkyheo6w","sona":"9550"},{"rt":null,"stimulus":"<div style=\"font-size:60px;\">+</div>","key_press":null,"trial_type":"html-keyboard-response","trial_index":20,"time_elapsed":98549,"internal_node_id":"0.0-8.0-1.3","subject":"p8l2311xkyheo6w","sona":"9550"},{"trial_type":"turing-test","trial_index":21,"time_elapsed":102287,"internal_node_id":"0.0-8.0-2.3","subject":"p8l2311xkyheo6w","sona":"9550"},{"rt":969,"stimulus":"<p>Which sequence did you perceive as more natural?</p>","key_press":74,"test_part":"response","test_stimulus":{"position":1,"left":"bvh/vr_prediction_models/model(vcgpdm)-dataset(pass-bottle-hold)-mode(ELBO)-parts(1)-dyn(30)-lvm(30)-hold(3)/final-lines.txt","right":"bvh/pass-bottle-hold-training3-lines.txt","att_check":false},"trial_type":"html-keyboard-response","trial_index":22,"time_elapsed":103265,"internal_node_id":"0.0-8.0-3.3","subject":"p8l2311xkyheo6w","sona":"9550"},{"rt":672,"stimulus":"<p>Ready?</p>","key_press":32,"trial_type":"html-keyboard-response","trial_index":23,"time_elapsed":103940,"internal_node_id":"0.0-8.0-0.4","subject":"p8l2311xkyheo6w","sona":"9550"},{"rt":null,"stimulus":"<div style=\"font-size:60px;\">+</div>","key_press":null,"trial_type":"html-keyboard-response","trial_index":24,"time_elapsed":105967,"internal_node_id":"0.0-8.0-1.4","subject":"p8l2311xkyheo6w","sona":"9550"},{"trial_type":"turing-test","trial_index":25,"time_elapsed":111923,"internal_node_id":"0.0-8.0-2.4","subject":"p8l2311xkyheo6w","sona":"9550"},{"rt":4371,"stimulus":"<p>Which sequence did you perceive as more natural?</p>","key_press":70,"test_part":"response","test_stimulus":{"position":1,"left":"bvh/vr_prediction_models/model(vcgpdm)-dataset(return-bottle)-mode(ELBO)-parts(1)-dyn(35)-lvm(10)-hold(4)/final-lines.txt","right":"bvh/return-bottle-training4-lines.txt","att_check":false},"trial_type":"html-keyboard-response","trial_index":26,"time_elapsed":116298,"internal_node_id":"0.0-8.0-3.4","subject":"p8l2311xkyheo6w","sona":"9550"},{"rt":744,"stimulus":"<p>Ready?</p>","key_press":32,"trial_type":"html-keyboard-response","trial_index":27,"time_elapsed":117044,"internal_node_id":"0.0-8.0-0.5","subject":"p8l2311xkyheo6w","sona":"9550"},{"rt":null,"stimulus":"<div style=\"font-size:60px;\">+</div>","key_press":null,"trial_type":"html-keyboard-response","trial_index":28,"time_elapsed":119073,"internal_node_id":"0.0-8.0-1.5","subject":"p8l2311xkyheo6w","sona":"9550"},{"trial_type":"turing-test","trial_index":29,"time_elapsed":122799,"internal_node_id":"0.0-8.0-2.5","subject":"p8l2311xkyheo6w","sona":"9550"},{"rt":3469,"stimulus":"<p>Which sequence did you perceive as more natural?</p>","key_press":74,"test_part":"response","test_stimulus":{"position":0,"left":"bvh/pass-bottle-hold-training3-lines.txt","right":"bvh/vr_prediction_models/model(vcgpdm)-dataset(pass-bottle-hold)-mode(ELBO)-parts(3)-dyn(20)-lvm(20)-hold(3)/final-lines.txt","att_check":false},"trial_type":"html-keyboard-response","trial_index":30,"time_elapsed":126271,"internal_node_id":"0.0-8.0-3.5","subject":"p8l2311xkyheo6w","sona":"9550"},{"rt":619,"stimulus":"<p>Ready?</p>","key_press":32,"trial_type":"html-keyboard-response","trial_index":31,"time_elapsed":126893,"internal_node_id":"0.0-8.0-0.6","subject":"p8l2311xkyheo6w","sona":"9550"},{"rt":null,"stimulus":"<div style=\"font-size:60px;\">+</div>","key_press":null,"trial_type":"html-keyboard-response","trial_index":32,"time_elapsed":128919,"internal_node_id":"0.0-8.0-1.6","subject":"p8l2311xkyheo6w","sona":"9550"},{"trial_type":"turing-test","trial_index":33,"time_elapsed":132536,"internal_node_id":"0.0-8.0-2.6","subject":"p8l2311xkyheo6w","sona":"9550"},{"rt":4039,"stimulus":"<p>Which sequence did you perceive as more natural?</p>","key_press":70,"test_part":"response","test_stimulus":{"position":0,"left":"bvh/return-bottle-hold-training2-lines.txt","right":"bvh/vr_prediction_models/model(vcgpdm)-dataset(return-bottle-hold)-mode(ELBO)-parts(3)-dyn(30)-lvm(15)-hold(2)/final-lines.txt","att_check":false},"trial_type":"html-keyboard-response","trial_index":34,"time_elapsed":136580,"internal_node_id":"0.0-8.0-3.6","subject":"p8l2311xkyheo6w","sona":"9550"},{"rt":816,"stimulus":"<p>Ready?</p>","key_press":32,"trial_type":"html-keyboard-response","trial_index":35,"time_elapsed":137399,"internal_node_id":"0.0-8.0-0.7","subject":"p8l2311xkyheo6w","sona":"9550"},{"rt":null,"stimulus":"<div style=\"font-size:60px;\">+</div>","key_press":null,"trial_type":"html-keyboard-response","trial_index":36,"time_elapsed":139425,"internal_node_id":"0.0-8.0-1.7","subject":"p8l2311xkyheo6w","sona":"9550"},{"trial_type":"turing-test","trial_index":37,"time_elapsed":144725,"internal_node_id":"0.0-8.0-2.7","subject":"p8l2311xkyheo6w","sona":"9550"},{"rt":9912,"stimulus":"<p>Which sequence did you perceive as more natural?</p>","key_press":70,"test_part":"response","test_stimulus":{"position":0,"left":"bvh/return-bottle-hold-training0-lines.txt","right":"bvh/vr_prediction_models/model(vcgpdm)-dataset(return-bottle-hold)-mode(ELBO)-parts(3)-dyn(20)-lvm(20)-hold(0)/final-lines.txt","att_check":false},"trial_type":"html-keyboard-response","trial_index":38,"time_elapsed":154641,"internal_node_id":"0.0-8.0-3.7","subject":"p8l2311xkyheo6w","sona":"9550"},{"rt":1666,"stimulus":"<p>Ready?</p>","key_press":32,"trial_type":"html-keyboard-response","trial_index":39,"time_elapsed":156308,"internal_node_id":"0.0-8.0-0.8","subject":"p8l2311xkyheo6w","sona":"9550"},{"rt":null,"stimulus":"<div style=\"font-size:60px;\">+</div>","key_press":null,"trial_type":"html-keyboard-response","trial_index":40,"time_elapsed":158325,"internal_node_id":"0.0-8.0-1.8","subject":"p8l2311xkyheo6w","sona":"9550"},{"trial_type":"turing-test","trial_index":41,"time_elapsed":162037,"internal_node_id":"0.0-8.0-2.8","subject":"p8l2311xkyheo6w","sona":"9550"},{"rt":1277,"stimulus":"<p>Which sequence did you perceive as more natural?</p>","key_press":74,"test_part":"response","test_stimulus":{"position":1,"left":"bvh/vr_prediction_models/model(vcgpdm)-dataset(pass-bottle-hold)-mode(ELBO)-parts(1)-dyn(30)-lvm(35)-hold(0)/final-lines.txt","right":"bvh/pass-bottle-hold-training0-lines.txt","att_check":false},"trial_type":"html-keyboard-response","trial_index":42,"time_elapsed":163320,"internal_node_id":"0.0-8.0-3.8","subject":"p8l2311xkyheo6w","sona":"9550"},{"rt":655,"stimulus":"<p>Ready?</p>","key_press":32,"trial_type":"html-keyboard-response","trial_index":43,"time_elapsed":163979,"internal_node_id":"0.0-8.0-0.9","subject":"p8l2311xkyheo6w","sona":"9550"},{"rt":null,"stimulus":"<div style=\"font-size:60px;\">+</div>","key_press":null,"trial_type":"html-keyboard-response","trial_index":44,"time_elapsed":165998,"internal_node_id":"0.0-8.0-1.9","subject":"p8l2311xkyheo6w","sona":"9550"},{"trial_type":"turing-test","trial_index":45,"time_elapsed":169716,"internal_node_id":"0.0-8.0-2.9","subject":"p8l2311xkyheo6w","sona":"9550"},{"rt":549,"stimulus":"<p>Which sequence did you perceive as more natural?</p>","key_press":74,"test_part":"response","test_stimulus":{"position":1,"left":"bvh/vr_prediction_models/model(tmp)-dataset(pass-bottle-hold)-numprim(4)-hold(2)/final-lines.txt","right":"bvh/pass-bottle-hold-training2-lines.txt","att_check":false},"trial_type":"html-keyboard-response","trial_index":46,"time_elapsed":170274,"internal_node_id":"0.0-8.0-3.9","subject":"p8l2311xkyheo6w","sona":"9550"},{"rt":620,"stimulus":"<p>Ready?</p>","key_press":32,"trial_type":"html-keyboard-response","trial_index":47,"time_elapsed":170900,"internal_node_id":"0.0-8.0-0.10","subject":"p8l2311xkyheo6w","sona":"9550"},{"rt":null,"stimulus":"<div style=\"font-size:60px;\">+</div>","key_press":null,"trial_type":"html-keyboard-response","trial_index":48,"time_elapsed":172927,"internal_node_id":"0.0-8.0-1.10","subject":"p8l2311xkyheo6w","sona":"9550"},{"trial_type":"turing-test","trial_index":49,"time_elapsed":178812,"internal_node_id":"0.0-8.0-2.10","subject":"p8l2311xkyheo6w","sona":"9550"},{"rt":528,"stimulus":"<p>Which sequence did you perceive as more natural?</p>","key_press":70,"test_part":"response","test_stimulus":{"position":0,"left":"bvh/pass-bottle-training4-lines.txt","right":"bvh/vr_prediction_models/model(vcgpdm)-dataset(pass-bottle)-mode(ELBO)-parts(1)-dyn(30)-lvm(30)-hold(4)/final-lines.txt","att_check":false},"trial_type":"html-keyboard-response","trial_index":50,"time_elapsed":179345,"internal_node_id":"0.0-8.0-3.10","subject":"p8l2311xkyheo6w","sona":"9550"},{"rt":581,"stimulus":"<p>Ready?</p>","key_press":32,"trial_type":"html-keyboard-response","trial_index":51,"time_elapsed":179931,"internal_node_id":"0.0-8.0-0.11","subject":"p8l2311xkyheo6w","sona":"9550"},{"rt":null,"stimulus":"<div style=\"font-size:60px;\">+</div>","key_press":null,"trial_type":"html-keyboard-response","trial_index":52,"time_elapsed":181942,"internal_node_id":"0.0-8.0-1.11","subject":"p8l2311xkyheo6w","sona":"9550"},{"trial_type":"turing-test","trial_index":53,"time_elapsed":185844,"internal_node_id":"0.0-8.0-2.11","subject":"p8l2311xkyheo6w","sona":"9550"}]