[{"rt":1607.4099999968894,"stimulus":"<p>Welcome!<br> Please choose your language to start the experiment in the chosen language.</p><p>Willkommen!<br> Bitte wählen Sie eine Sprache, um das Experiment in der ausgewählten Sprache zu starten</p>","button_pressed":"1","trial_type":"html-button-response","trial_index":0,"time_elapsed":1664,"internal_node_id":"0.0-0.0","subject":"p43xrm5tqmc6aee","sona":"9580"},{"view_history":"[{\"page_index\":0,\"viewing_time\":1709.115000005113},{\"page_index\":1,\"viewing_time\":2021.0000000079162},{\"page_index\":2,\"viewing_time\":1098.9399999962188},{\"page_index\":3,\"viewing_time\":1488.5649999778252},{\"page_index\":4,\"viewing_time\":1507.49500002712}]","rt":7827.049999992596,"trial_type":"instructions","trial_index":1,"time_elapsed":9493,"internal_node_id":"0.0-1.0-0.0","subject":"p43xrm5tqmc6aee","sona":"9580"},{"rt":1840.8650000055786,"stimulus":"<p>Bereit?</p>","key_press":32,"trial_type":"html-keyboard-response","trial_index":2,"time_elapsed":11337,"internal_node_id":"0.0-3.0","subject":"p43xrm5tqmc6aee","sona":"9580"},{"rt":null,"stimulus":"<div style=\"font-size:60px;\">+</div>","key_press":null,"trial_type":"html-keyboard-response","trial_index":3,"time_elapsed":13359,"internal_node_id":"0.0-4.0","subject":"p43xrm5tqmc6aee","sona":"9580"},{"trial_type":"training","trial_index":4,"time_elapsed":16640,"internal_node_id":"0.0-5.0","subject":"p43xrm5tqmc6aee","sona":"9580"},{"rt":431.8899999780115,"stimulus":"<p>Welche Sequenz haben Sie als natürlicher empfunden?</p>","key_press":70,"trial_type":"html-keyboard-response","trial_index":5,"time_elapsed":17074,"internal_node_id":"0.0-6.0","subject":"p43xrm5tqmc6aee","sona":"9580"},{"rt":2118.0350000213366,"stimulus":"<p>Das Experiment startet nun.</p><p><small>Bitte drücken Sie den Knopf, wenn Sie bereit sind.</small></p>","button_pressed":"0","trial_type":"html-button-response","trial_index":6,"time_elapsed":19194,"internal_node_id":"0.0-7.0","subject":"p43xrm5tqmc6aee","sona":"9580"},{"rt":944.2099999869242,"stimulus":"<p>Bereit?</p>","key_press":32,"trial_type":"html-keyboard-response","trial_index":7,"time_elapsed":20140,"internal_node_id":"0.0-8.0-0.0","subject":"p43xrm5tqmc6aee","sona":"9580"},{"rt":null,"stimulus":"<div style=\"font-size:60px;\">+</div>","key_press":null,"trial_type":"html-keyboard-response","trial_index":8,"time_elapsed":22155,"internal_node_id":"0.0-8.0-1.0","subject":"p43xrm5tqmc6aee","sona":"9580"},{"trial_type":"turing-test","trial_index":9,"time_elapsed":27954,"internal_node_id":"0.0-8.0-2.0","subject":"p43xrm5tqmc6aee","sona":"9580"},{"rt":353.41999999945983,"stimulus":"<p>Welche Sequenz haben Sie als natürlicher empfunden?</p>","key_press":74,"test_part":"response","test_stimulus":{"position":1,"left":"bvh/vr_prediction_models/model(tmp)-dataset(return-bottle)-numprim(6)-hold(4)/final-lines.txt","right":"bvh/return-bottle-training4-lines.txt","att_check":false},"trial_type":"html-keyboard-response","trial_index":10,"time_elapsed":28314,"internal_node_id":"0.0-8.0-3.0","subject":"p43xrm5tqmc6aee","sona":"9580"},{"rt":300.6549999990966,"stimulus":"<p>Bereit?</p>","key_press":32,"trial_type":"html-keyboard-response","trial_index":11,"time_elapsed":28619,"internal_node_id":"0.0-8.0-0.1","subject":"p43xrm5tqmc6aee","sona":"9580"},{"rt":null,"stimulus":"<div style=\"font-size:60px;\">+</div>","key_press":null,"trial_type":"html-keyboard-response","trial_index":12,"time_elapsed":30650,"internal_node_id":"0.0-8.0-1.1","subject":"p43xrm5tqmc6aee","sona":"9580"},{"trial_type":"turing-test","trial_index":13,"time_elapsed":36393,"internal_node_id":"0.0-8.0-2.1","subject":"p43xrm5tqmc6aee","sona":"9580"},{"rt":458.94500002032146,"stimulus":"<p>Welche Sequenz haben Sie als natürlicher empfunden?</p>","key_press":70,"test_part":"response","test_stimulus":{"position":0,"left":"bvh/return-bottle-training4-lines.txt","right":"bvh/vr_prediction_models/model(vcgpdm)-dataset(return-bottle)-mode(ELBO)-parts(1)-dyn(20)-lvm(30)-hold(4)/final-lines.txt","att_check":false},"trial_type":"html-keyboard-response","trial_index":14,"time_elapsed":36856,"internal_node_id":"0.0-8.0-3.1","subject":"p43xrm5tqmc6aee","sona":"9580"},{"rt":320.86000000708736,"stimulus":"<p>Bereit?</p>","key_press":32,"trial_type":"html-keyboard-response","trial_index":15,"time_elapsed":37180,"internal_node_id":"0.0-8.0-0.2","subject":"p43xrm5tqmc6aee","sona":"9580"},{"rt":null,"stimulus":"<div style=\"font-size:60px;\">+</div>","key_press":null,"trial_type":"html-keyboard-response","trial_index":16,"time_elapsed":39194,"internal_node_id":"0.0-8.0-1.2","subject":"p43xrm5tqmc6aee","sona":"9580"},{"trial_type":"turing-test","trial_index":17,"time_elapsed":44928,"internal_node_id":"0.0-8.0-2.2","subject":"p43xrm5tqmc6aee","sona":"9580"},{"rt":1553.539999993518,"stimulus":"<p>Welche Sequenz haben Sie als natürlicher empfunden?</p>","key_press":70,"test_part":"response","test_stimulus":{"position":0,"left":"bvh/pass-bottle-training4-lines.txt","right":"bvh/vr_prediction_models/model(dmp)-dataset(pass-bottle)-npsi(70)-hold(4)/final-lines.txt","att_check":false},"trial_type":"html-keyboard-response","trial_index":18,"time_elapsed":46488,"internal_node_id":"0.0-8.0-3.2","subject":"p43xrm5tqmc6aee","sona":"9580"},{"rt":337.96500001335517,"stimulus":"<p>Bereit?</p>","key_press":32,"trial_type":"html-keyboard-response","trial_index":19,"time_elapsed":46828,"internal_node_id":"0.0-8.0-0.3","subject":"p43xrm5tqmc6aee","sona":"9580"},{"rt":null,"stimulus":"<div style=\"font-size:60px;\">+</div>","key_press":null,"trial_type":"html-keyboard-response","trial_index":20,"time_elapsed":48849,"internal_node_id":"0.0-8.0-1.3","subject":"p43xrm5tqmc6aee","sona":"9580"},{"trial_type":"turing-test","trial_index":21,"time_elapsed":55147,"internal_node_id":"0.0-8.0-2.3","subject":"p43xrm5tqmc6aee","sona":"9580"},{"rt":487.1500000008382,"stimulus":"<p>Welche Sequenz haben Sie als natürlicher empfunden?</p>","key_press":74,"test_part":"response","test_stimulus":{"position":0,"left":"bvh/pass-bottle-training2-lines.txt","right":"bvh/vr_prediction_models/model(vcgpdm)-dataset(pass-bottle)-mode(ELBO)-parts(1)-dyn(20)-lvm(5)-hold(2)/final-lines.txt","att_check":false},"trial_type":"html-keyboard-response","trial_index":22,"time_elapsed":55641,"internal_node_id":"0.0-8.0-3.3","subject":"p43xrm5tqmc6aee","sona":"9580"},{"rt":371.0999999893829,"stimulus":"<p>Bereit?</p>","key_press":32,"trial_type":"html-keyboard-response","trial_index":23,"time_elapsed":56016,"internal_node_id":"0.0-8.0-0.4","subject":"p43xrm5tqmc6aee","sona":"9580"},{"rt":null,"stimulus":"<div style=\"font-size:60px;\">+</div>","key_press":null,"trial_type":"html-keyboard-response","trial_index":24,"time_elapsed":58044,"internal_node_id":"0.0-8.0-1.4","subject":"p43xrm5tqmc6aee","sona":"9580"},{"trial_type":"turing-test","trial_index":25,"time_elapsed":61306,"internal_node_id":"0.0-8.0-2.4","subject":"p43xrm5tqmc6aee","sona":"9580"},{"rt":454.35499999439344,"stimulus":"<p>Welche Sequenz haben Sie als natürlicher empfunden?</p>","key_press":74,"test_part":"response","test_stimulus":{"position":0,"left":"bvh/pass-bottle-hold-training2-lines.txt","right":"bvh/vr_prediction_models/model(dmp)-dataset(pass-bottle-hold)-npsi(50)-hold(2)/final-lines.txt","att_check":false},"trial_type":"html-keyboard-response","trial_index":26,"time_elapsed":61763,"internal_node_id":"0.0-8.0-3.4","subject":"p43xrm5tqmc6aee","sona":"9580"},{"rt":316.0399999760557,"stimulus":"<p>Bereit?</p>","key_press":32,"trial_type":"html-keyboard-response","trial_index":27,"time_elapsed":62083,"internal_node_id":"0.0-8.0-0.5","subject":"p43xrm5tqmc6aee","sona":"9580"},{"rt":null,"stimulus":"<div style=\"font-size:60px;\">+</div>","key_press":null,"trial_type":"html-keyboard-response","trial_index":28,"time_elapsed":64101,"internal_node_id":"0.0-8.0-1.5","subject":"p43xrm5tqmc6aee","sona":"9580"},{"trial_type":"turing-test","trial_index":29,"time_elapsed":69452,"internal_node_id":"0.0-8.0-2.5","subject":"p43xrm5tqmc6aee","sona":"9580"},{"rt":582.2000000043772,"stimulus":"<p>Welche Sequenz haben Sie als natürlicher empfunden?</p>","key_press":74,"test_part":"response","test_stimulus":{"position":1,"left":"bvh/vr_prediction_models/model(vcgpdm)-dataset(return-bottle-hold)-mode(ELBO)-parts(1)-dyn(20)-lvm(30)-hold(0)/final-lines.txt","right":"bvh/return-bottle-hold-training0-lines.txt","att_check":false},"trial_type":"html-keyboard-response","trial_index":30,"time_elapsed":70045,"internal_node_id":"0.0-8.0-3.5","subject":"p43xrm5tqmc6aee","sona":"9580"},{"rt":285.47999999136664,"stimulus":"<p>Bereit?</p>","key_press":32,"trial_type":"html-keyboard-response","trial_index":31,"time_elapsed":70334,"internal_node_id":"0.0-8.0-0.6","subject":"p43xrm5tqmc6aee","sona":"9580"},{"rt":null,"stimulus":"<div style=\"font-size:60px;\">+</div>","key_press":null,"trial_type":"html-keyboard-response","trial_index":32,"time_elapsed":72355,"internal_node_id":"0.0-8.0-1.6","subject":"p43xrm5tqmc6aee","sona":"9580"},{"trial_type":"turing-test","trial_index":33,"time_elapsed":75610,"internal_node_id":"0.0-8.0-2.6","subject":"p43xrm5tqmc6aee","sona":"9580"},{"rt":439.84499998623505,"stimulus":"<p>Welche Sequenz haben Sie als natürlicher empfunden?</p>","key_press":74,"test_part":"response","test_stimulus":{"position":0,"left":"bvh/return-bottle-hold-training1-lines.txt","right":"bvh/vr_prediction_models/model(tmp)-dataset(return-bottle-hold)-numprim(11)-hold(1)/final-lines.txt","att_check":false},"trial_type":"html-keyboard-response","trial_index":34,"time_elapsed":76053,"internal_node_id":"0.0-8.0-3.6","subject":"p43xrm5tqmc6aee","sona":"9580"},{"rt":315.679999999702,"stimulus":"<p>Bereit?</p>","key_press":32,"trial_type":"html-keyboard-response","trial_index":35,"time_elapsed":76373,"internal_node_id":"0.0-8.0-0.7","subject":"p43xrm5tqmc6aee","sona":"9580"},{"rt":null,"stimulus":"<div style=\"font-size:60px;\">+</div>","key_press":null,"trial_type":"html-keyboard-response","trial_index":36,"time_elapsed":78395,"internal_node_id":"0.0-8.0-1.7","subject":"p43xrm5tqmc6aee","sona":"9580"},{"trial_type":"turing-test","trial_index":37,"time_elapsed":84721,"internal_node_id":"0.0-8.0-2.7","subject":"p43xrm5tqmc6aee","sona":"9580"},{"rt":23882.27000000188,"stimulus":"<p>Welche Sequenz haben Sie als natürlicher empfunden?</p>","key_press":70,"test_part":"response","test_stimulus":{"position":1,"left":"bvh/vr_prediction_models/model(vcgpdm)-dataset(pass-bottle)-mode(ELBO)-parts(1)-dyn(30)-lvm(30)-hold(2)/final-lines.txt","right":"bvh/pass-bottle-training2-lines.txt","att_check":false},"trial_type":"html-keyboard-response","trial_index":38,"time_elapsed":108610,"internal_node_id":"0.0-8.0-3.7","subject":"p43xrm5tqmc6aee","sona":"9580"},{"rt":690.0800000003073,"stimulus":"<p>Bereit?</p>","key_press":32,"trial_type":"html-keyboard-response","trial_index":39,"time_elapsed":109304,"internal_node_id":"0.0-8.0-0.8","subject":"p43xrm5tqmc6aee","sona":"9580"},{"rt":null,"stimulus":"<div style=\"font-size:60px;\">+</div>","key_press":null,"trial_type":"html-keyboard-response","trial_index":40,"time_elapsed":111322,"internal_node_id":"0.0-8.0-1.8","subject":"p43xrm5tqmc6aee","sona":"9580"},{"trial_type":"turing-test","trial_index":41,"time_elapsed":117524,"internal_node_id":"0.0-8.0-2.8","subject":"p43xrm5tqmc6aee","sona":"9580"},{"rt":386.1599999945611,"stimulus":"<p>Welche Sequenz haben Sie als natürlicher empfunden?</p>","key_press":70,"test_part":"response","test_stimulus":{"position":0,"left":"bvh/return-bottle-training1-lines.txt","right":"bvh/vr_prediction_models/model(vcgpdm)-dataset(return-bottle)-mode(ELBO)-parts(3)-dyn(10)-lvm(25)-hold(1)/final-lines.txt","att_check":false},"trial_type":"html-keyboard-response","trial_index":42,"time_elapsed":117917,"internal_node_id":"0.0-8.0-3.8","subject":"p43xrm5tqmc6aee","sona":"9580"},{"rt":356.4900000055786,"stimulus":"<p>Bereit?</p>","key_press":32,"trial_type":"html-keyboard-response","trial_index":43,"time_elapsed":118277,"internal_node_id":"0.0-8.0-0.9","subject":"p43xrm5tqmc6aee","sona":"9580"},{"rt":null,"stimulus":"<div style=\"font-size:60px;\">+</div>","key_press":null,"trial_type":"html-keyboard-response","trial_index":44,"time_elapsed":120296,"internal_node_id":"0.0-8.0-1.9","subject":"p43xrm5tqmc6aee","sona":"9580"},{"trial_type":"turing-test","trial_index":45,"time_elapsed":123888,"internal_node_id":"0.0-8.0-2.9","subject":"p43xrm5tqmc6aee","sona":"9580"},{"rt":471.1400000087451,"stimulus":"<p>Welche Sequenz haben Sie als natürlicher empfunden?</p>","key_press":74,"test_part":"response","test_stimulus":{"position":1,"left":"bvh/vr_prediction_models/model(vcgpdm)-dataset(pass-bottle-hold)-mode(MAP)-parts(3)-hold(0)/final-lines.txt","right":"bvh/pass-bottle-hold-training0-lines.txt","att_check":false},"trial_type":"html-keyboard-response","trial_index":46,"time_elapsed":124365,"internal_node_id":"0.0-8.0-3.9","subject":"p43xrm5tqmc6aee","sona":"9580"},{"rt":245.88000000221655,"stimulus":"<p>Bereit?</p>","key_press":32,"trial_type":"html-keyboard-response","trial_index":47,"time_elapsed":124614,"internal_node_id":"0.0-8.0-0.10","subject":"p43xrm5tqmc6aee","sona":"9580"},{"rt":null,"stimulus":"<div style=\"font-size:60px;\">+</div>","key_press":null,"trial_type":"html-keyboard-response","trial_index":48,"time_elapsed":126635,"internal_node_id":"0.0-8.0-1.10","subject":"p43xrm5tqmc6aee","sona":"9580"},{"trial_type":"turing-test","trial_index":49,"time_elapsed":130374,"internal_node_id":"0.0-8.0-2.10","subject":"p43xrm5tqmc6aee","sona":"9580"},{"rt":563.5450000117999,"stimulus":"<p>Welche Sequenz haben Sie als natürlicher empfunden?</p>","key_press":74,"test_part":"response","test_stimulus":{"position":0,"left":"bvh/pass-bottle-hold-training3-lines.txt","right":"bvh/vr_prediction_models/model(vcgpdm)-dataset(pass-bottle-hold)-mode(ELBO)-parts(3)-dyn(35)-lvm(20)-hold(3)/final-lines.txt","att_check":false},"trial_type":"html-keyboard-response","trial_index":50,"time_elapsed":130944,"internal_node_id":"0.0-8.0-3.10","subject":"p43xrm5tqmc6aee","sona":"9580"},{"rt":231.18000000249594,"stimulus":"<p>Bereit?</p>","key_press":32,"trial_type":"html-keyboard-response","trial_index":51,"time_elapsed":131178,"internal_node_id":"0.0-8.0-0.11","subject":"p43xrm5tqmc6aee","sona":"9580"},{"rt":null,"stimulus":"<div style=\"font-size:60px;\">+</div>","key_press":null,"trial_type":"html-keyboard-response","trial_index":52,"time_elapsed":133187,"internal_node_id":"0.0-8.0-1.11","subject":"p43xrm5tqmc6aee","sona":"9580"}]