[{"rt":3329.624999999396,"stimulus":"<p>Welcome!<br> Please choose your language to start the experiment in the chosen language.</p><p>Willkommen!<br> Bitte wählen Sie eine Sprache, um das Experiment in der ausgewählten Sprache zu starten</p>","button_pressed":"1","trial_type":"html-button-response","trial_index":0,"time_elapsed":3354,"internal_node_id":"0.0-0.0","subject":"1pfysx87leqhjhs","sona":"7918"},{"view_history":"[{\"page_index\":0,\"viewing_time\":7005.755000000136},{\"page_index\":1,\"viewing_time\":4252.809999999954},{\"page_index\":2,\"viewing_time\":6328.000000000429},{\"page_index\":3,\"viewing_time\":4958.959999999934},{\"page_index\":4,\"viewing_time\":8101.064999999835}]","rt":30647.125000000415,"trial_type":"instructions","trial_index":1,"time_elapsed":34002,"internal_node_id":"0.0-1.0-0.0","subject":"1pfysx87leqhjhs","sona":"7918"},{"rt":2831.970000000183,"stimulus":"<p>Bereit?</p>","key_press":32,"trial_type":"html-keyboard-response","trial_index":2,"time_elapsed":36835,"internal_node_id":"0.0-3.0","subject":"1pfysx87leqhjhs","sona":"7918"},{"rt":null,"stimulus":"<div style=\"font-size:60px;\">+</div>","key_press":null,"trial_type":"html-keyboard-response","trial_index":3,"time_elapsed":38838,"internal_node_id":"0.0-4.0","subject":"1pfysx87leqhjhs","sona":"7918"},{"trial_type":"training","trial_index":4,"time_elapsed":42180,"internal_node_id":"0.0-5.0","subject":"1pfysx87leqhjhs","sona":"7918"},{"rt":2534.9000000005617,"stimulus":"<p>Welche Sequenz haben Sie als natürlicher empfunden?</p>","key_press":70,"trial_type":"html-keyboard-response","trial_index":5,"time_elapsed":44717,"internal_node_id":"0.0-6.0","subject":"1pfysx87leqhjhs","sona":"7918"},{"rt":5803.214999999909,"stimulus":"<p>Das Experiment startet nun.</p><p><small>Bitte drücken Sie den Knopf, wenn Sie bereit sind.</small></p>","button_pressed":"0","trial_type":"html-button-response","trial_index":6,"time_elapsed":50521,"internal_node_id":"0.0-7.0","subject":"1pfysx87leqhjhs","sona":"7918"},{"rt":1866.4199999993798,"stimulus":"<p>Bereit?</p>","key_press":32,"trial_type":"html-keyboard-response","trial_index":7,"time_elapsed":52389,"internal_node_id":"0.0-8.0-0.0","subject":"1pfysx87leqhjhs","sona":"7918"},{"rt":null,"stimulus":"<div style=\"font-size:60px;\">+</div>","key_press":null,"trial_type":"html-keyboard-response","trial_index":8,"time_elapsed":54393,"internal_node_id":"0.0-8.0-1.0","subject":"1pfysx87leqhjhs","sona":"7918"},{"trial_type":"turing-test","trial_index":9,"time_elapsed":58077,"internal_node_id":"0.0-8.0-2.0","subject":"1pfysx87leqhjhs","sona":"7918"},{"rt":1846.7549999995754,"stimulus":"<p>Welche Sequenz haben Sie als natürlicher empfunden?</p>","key_press":74,"test_part":"response","test_stimulus":{"position":1,"left":"bvh/vr_prediction_models/model(vcgpdm)-dataset(pass-bottle-hold)-mode(ELBO)-parts(3)-dyn(20)-lvm(20)-hold(4)/final-lines.txt","right":"bvh/pass-bottle-hold-training4-lines.txt","att_check":false},"trial_type":"html-keyboard-response","trial_index":10,"time_elapsed":59928,"internal_node_id":"0.0-8.0-3.0","subject":"1pfysx87leqhjhs","sona":"7918"},{"rt":1091.6449999995166,"stimulus":"<p>Bereit?</p>","key_press":32,"trial_type":"html-keyboard-response","trial_index":11,"time_elapsed":61023,"internal_node_id":"0.0-8.0-0.1","subject":"1pfysx87leqhjhs","sona":"7918"},{"rt":null,"stimulus":"<div style=\"font-size:60px;\">+</div>","key_press":null,"trial_type":"html-keyboard-response","trial_index":12,"time_elapsed":63025,"internal_node_id":"0.0-8.0-1.1","subject":"1pfysx87leqhjhs","sona":"7918"},{"trial_type":"turing-test","trial_index":13,"time_elapsed":66310,"internal_node_id":"0.0-8.0-2.1","subject":"1pfysx87leqhjhs","sona":"7918"},{"rt":867.825000000259,"stimulus":"<p>Welche Sequenz haben Sie als natürlicher empfunden?</p>","key_press":74,"test_part":"response","test_stimulus":{"position":1,"left":"bvh/vr_prediction_models/model(dmp)-dataset(return-bottle-hold)-npsi(20)-hold(1)/final-lines.txt","right":"bvh/return-bottle-hold-training1-lines.txt","att_check":false},"trial_type":"html-keyboard-response","trial_index":14,"time_elapsed":67181,"internal_node_id":"0.0-8.0-3.1","subject":"1pfysx87leqhjhs","sona":"7918"},{"rt":1354.6900000001187,"stimulus":"<p>Bereit?</p>","key_press":32,"trial_type":"html-keyboard-response","trial_index":15,"time_elapsed":68538,"internal_node_id":"0.0-8.0-0.2","subject":"1pfysx87leqhjhs","sona":"7918"},{"rt":null,"stimulus":"<div style=\"font-size:60px;\">+</div>","key_press":null,"trial_type":"html-keyboard-response","trial_index":16,"time_elapsed":70542,"internal_node_id":"0.0-8.0-1.2","subject":"1pfysx87leqhjhs","sona":"7918"},{"trial_type":"turing-test","trial_index":17,"time_elapsed":73674,"internal_node_id":"0.0-8.0-2.2","subject":"1pfysx87leqhjhs","sona":"7918"},{"rt":1264.87499999984,"stimulus":"<p>Welche Sequenz haben Sie als natürlicher empfunden?</p>","key_press":70,"test_part":"response","test_stimulus":{"position":1,"left":"bvh/vr_prediction_models/model(tmp)-dataset(pass-bottle-hold)-numprim(13)-hold(1)/final-lines.txt","right":"bvh/pass-bottle-hold-training1-lines.txt","att_check":false},"trial_type":"html-keyboard-response","trial_index":18,"time_elapsed":74942,"internal_node_id":"0.0-8.0-3.2","subject":"1pfysx87leqhjhs","sona":"7918"},{"rt":1704.3549999998504,"stimulus":"<p>Bereit?</p>","key_press":32,"trial_type":"html-keyboard-response","trial_index":19,"time_elapsed":76649,"internal_node_id":"0.0-8.0-0.3","subject":"1pfysx87leqhjhs","sona":"7918"},{"rt":null,"stimulus":"<div style=\"font-size:60px;\">+</div>","key_press":null,"trial_type":"html-keyboard-response","trial_index":20,"time_elapsed":78652,"internal_node_id":"0.0-8.0-1.3","subject":"1pfysx87leqhjhs","sona":"7918"},{"trial_type":"turing-test","trial_index":21,"time_elapsed":82179,"internal_node_id":"0.0-8.0-2.3","subject":"1pfysx87leqhjhs","sona":"7918"},{"rt":1356.485000000248,"stimulus":"<p>Welche Sequenz haben Sie als natürlicher empfunden?</p>","key_press":70,"test_part":"response","test_stimulus":{"position":0,"left":"bvh/return-bottle-hold-training2-lines.txt","right":"bvh/vr_prediction_models/model(vcgpdm)-dataset(return-bottle-hold)-mode(ELBO)-parts(3)-dyn(10)-lvm(30)-hold(2)/final-lines.txt","att_check":false},"trial_type":"html-keyboard-response","trial_index":22,"time_elapsed":83539,"internal_node_id":"0.0-8.0-3.3","subject":"1pfysx87leqhjhs","sona":"7918"},{"rt":1113.7599999992817,"stimulus":"<p>Bereit?</p>","key_press":32,"trial_type":"html-keyboard-response","trial_index":23,"time_elapsed":84656,"internal_node_id":"0.0-8.0-0.4","subject":"1pfysx87leqhjhs","sona":"7918"},{"rt":null,"stimulus":"<div style=\"font-size:60px;\">+</div>","key_press":null,"trial_type":"html-keyboard-response","trial_index":24,"time_elapsed":86658,"internal_node_id":"0.0-8.0-1.4","subject":"1pfysx87leqhjhs","sona":"7918"},{"trial_type":"turing-test","trial_index":25,"time_elapsed":92088,"internal_node_id":"0.0-8.0-2.4","subject":"1pfysx87leqhjhs","sona":"7918"},{"rt":869.41500000011,"stimulus":"<p>Welche Sequenz haben Sie als natürlicher empfunden?</p>","key_press":74,"test_part":"response","test_stimulus":{"position":1,"left":"bvh/vr_prediction_models/model(tmp)-dataset(pass-bottle)-numprim(14)-hold(1)/final-lines.txt","right":"bvh/pass-bottle-training1-lines.txt","att_check":false},"trial_type":"html-keyboard-response","trial_index":26,"time_elapsed":92961,"internal_node_id":"0.0-8.0-3.4","subject":"1pfysx87leqhjhs","sona":"7918"},{"rt":1137.960000000021,"stimulus":"<p>Bereit?</p>","key_press":32,"trial_type":"html-keyboard-response","trial_index":27,"time_elapsed":94101,"internal_node_id":"0.0-8.0-0.5","subject":"1pfysx87leqhjhs","sona":"7918"},{"rt":null,"stimulus":"<div style=\"font-size:60px;\">+</div>","key_press":null,"trial_type":"html-keyboard-response","trial_index":28,"time_elapsed":96103,"internal_node_id":"0.0-8.0-1.5","subject":"1pfysx87leqhjhs","sona":"7918"},{"trial_type":"turing-test","trial_index":29,"time_elapsed":101838,"internal_node_id":"0.0-8.0-2.5","subject":"1pfysx87leqhjhs","sona":"7918"},{"rt":643.4349999999395,"stimulus":"<p>Welche Sequenz haben Sie als natürlicher empfunden?</p>","key_press":74,"test_part":"response","test_stimulus":{"position":0,"left":"bvh/return-bottle-training3-lines.txt","right":"bvh/vr_prediction_models/model(dmp)-dataset(return-bottle)-npsi(90)-hold(3)/final-lines.txt","att_check":true},"trial_type":"html-keyboard-response","trial_index":30,"time_elapsed":102485,"internal_node_id":"0.0-8.0-3.5","subject":"1pfysx87leqhjhs","sona":"7918"},{"rt":776.4999999999418,"stimulus":"<p>Bereit?</p>","key_press":32,"trial_type":"html-keyboard-response","trial_index":31,"time_elapsed":103262,"internal_node_id":"0.0-8.0-0.6","subject":"1pfysx87leqhjhs","sona":"7918"},{"rt":null,"stimulus":"<div style=\"font-size:60px;\">+</div>","key_press":null,"trial_type":"html-keyboard-response","trial_index":32,"time_elapsed":105264,"internal_node_id":"0.0-8.0-1.6","subject":"1pfysx87leqhjhs","sona":"7918"},{"trial_type":"turing-test","trial_index":33,"time_elapsed":110771,"internal_node_id":"0.0-8.0-2.6","subject":"1pfysx87leqhjhs","sona":"7918"},{"rt":889.0700000001816,"stimulus":"<p>Welche Sequenz haben Sie als natürlicher empfunden?</p>","key_press":74,"test_part":"response","test_stimulus":{"position":1,"left":"bvh/vr_prediction_models/model(vcgpdm)-dataset(return-bottle)-mode(ELBO)-parts(1)-dyn(35)-lvm(10)-hold(0)/final-lines.txt","right":"bvh/return-bottle-training0-lines.txt","att_check":false},"trial_type":"html-keyboard-response","trial_index":34,"time_elapsed":111662,"internal_node_id":"0.0-8.0-3.6","subject":"1pfysx87leqhjhs","sona":"7918"},{"rt":1176.785000000571,"stimulus":"<p>Bereit?</p>","key_press":32,"trial_type":"html-keyboard-response","trial_index":35,"time_elapsed":112840,"internal_node_id":"0.0-8.0-0.7","subject":"1pfysx87leqhjhs","sona":"7918"},{"rt":null,"stimulus":"<div style=\"font-size:60px;\">+</div>","key_press":null,"trial_type":"html-keyboard-response","trial_index":36,"time_elapsed":114842,"internal_node_id":"0.0-8.0-1.7","subject":"1pfysx87leqhjhs","sona":"7918"},{"trial_type":"turing-test","trial_index":37,"time_elapsed":118092,"internal_node_id":"0.0-8.0-2.7","subject":"1pfysx87leqhjhs","sona":"7918"},{"rt":620.4649999999674,"stimulus":"<p>Welche Sequenz haben Sie als natürlicher empfunden?</p>","key_press":70,"test_part":"response","test_stimulus":{"position":0,"left":"bvh/pass-bottle-hold-training0-lines.txt","right":"bvh/vr_prediction_models/model(tmp)-dataset(pass-bottle-hold)-numprim(9)-hold(0)/final-lines.txt","att_check":false},"trial_type":"html-keyboard-response","trial_index":38,"time_elapsed":118713,"internal_node_id":"0.0-8.0-3.7","subject":"1pfysx87leqhjhs","sona":"7918"},{"rt":621.0500000006577,"stimulus":"<p>Bereit?</p>","key_press":32,"trial_type":"html-keyboard-response","trial_index":39,"time_elapsed":119337,"internal_node_id":"0.0-8.0-0.8","subject":"1pfysx87leqhjhs","sona":"7918"},{"rt":null,"stimulus":"<div style=\"font-size:60px;\">+</div>","key_press":null,"trial_type":"html-keyboard-response","trial_index":40,"time_elapsed":121340,"internal_node_id":"0.0-8.0-1.8","subject":"1pfysx87leqhjhs","sona":"7918"},{"trial_type":"turing-test","trial_index":41,"time_elapsed":126443,"internal_node_id":"0.0-8.0-2.8","subject":"1pfysx87leqhjhs","sona":"7918"},{"rt":1418.9699999997101,"stimulus":"<p>Welche Sequenz haben Sie als natürlicher empfunden?</p>","key_press":70,"test_part":"response","test_stimulus":{"position":0,"left":"bvh/return-bottle-hold-training0-lines.txt","right":"bvh/vr_prediction_models/model(vcgpdm)-dataset(return-bottle-hold)-mode(ELBO)-parts(3)-dyn(10)-lvm(10)-hold(0)/final-lines.txt","att_check":false},"trial_type":"html-keyboard-response","trial_index":42,"time_elapsed":127866,"internal_node_id":"0.0-8.0-3.8","subject":"1pfysx87leqhjhs","sona":"7918"},{"rt":818.7450000004901,"stimulus":"<p>Bereit?</p>","key_press":32,"trial_type":"html-keyboard-response","trial_index":43,"time_elapsed":128686,"internal_node_id":"0.0-8.0-0.9","subject":"1pfysx87leqhjhs","sona":"7918"},{"rt":null,"stimulus":"<div style=\"font-size:60px;\">+</div>","key_press":null,"trial_type":"html-keyboard-response","trial_index":44,"time_elapsed":130690,"internal_node_id":"0.0-8.0-1.9","subject":"1pfysx87leqhjhs","sona":"7918"},{"trial_type":"turing-test","trial_index":45,"time_elapsed":136433,"internal_node_id":"0.0-8.0-2.9","subject":"1pfysx87leqhjhs","sona":"7918"},{"rt":1239.0900000000256,"stimulus":"<p>Welche Sequenz haben Sie als natürlicher empfunden?</p>","key_press":74,"test_part":"response","test_stimulus":{"position":1,"left":"bvh/vr_prediction_models/model(vcgpdm)-dataset(return-bottle)-mode(ELBO)-parts(1)-dyn(20)-lvm(30)-hold(3)/final-lines.txt","right":"bvh/return-bottle-training3-lines.txt","att_check":false},"trial_type":"html-keyboard-response","trial_index":46,"time_elapsed":137676,"internal_node_id":"0.0-8.0-3.9","subject":"1pfysx87leqhjhs","sona":"7918"},{"rt":825.3649999996996,"stimulus":"<p>Bereit?</p>","key_press":32,"trial_type":"html-keyboard-response","trial_index":47,"time_elapsed":138505,"internal_node_id":"0.0-8.0-0.10","subject":"1pfysx87leqhjhs","sona":"7918"},{"rt":null,"stimulus":"<div style=\"font-size:60px;\">+</div>","key_press":null,"trial_type":"html-keyboard-response","trial_index":48,"time_elapsed":140507,"internal_node_id":"0.0-8.0-1.10","subject":"1pfysx87leqhjhs","sona":"7918"},{"trial_type":"turing-test","trial_index":49,"time_elapsed":145938,"internal_node_id":"0.0-8.0-2.10","subject":"1pfysx87leqhjhs","sona":"7918"},{"rt":481.6700000001292,"stimulus":"<p>Welche Sequenz haben Sie als natürlicher empfunden?</p>","key_press":70,"test_part":"response","test_stimulus":{"position":0,"left":"bvh/pass-bottle-training1-lines.txt","right":"bvh/vr_prediction_models/model(vcgpdm)-dataset(pass-bottle)-mode(ELBO)-parts(1)-dyn(15)-lvm(35)-hold(1)/final-lines.txt","att_check":false},"trial_type":"html-keyboard-response","trial_index":50,"time_elapsed":146424,"internal_node_id":"0.0-8.0-3.10","subject":"1pfysx87leqhjhs","sona":"7918"},{"rt":7105.360000000481,"stimulus":"<p>Bereit?</p>","key_press":32,"trial_type":"html-keyboard-response","trial_index":51,"time_elapsed":153531,"internal_node_id":"0.0-8.0-0.11","subject":"1pfysx87leqhjhs","sona":"7918"},{"rt":null,"stimulus":"<div style=\"font-size:60px;\">+</div>","key_press":null,"trial_type":"html-keyboard-response","trial_index":52,"time_elapsed":155534,"internal_node_id":"0.0-8.0-1.11","subject":"1pfysx87leqhjhs","sona":"7918"}]