[{"rt":2296,"stimulus":"<p>Welcome!<br> Please choose your language to start the experiment in the chosen language.</p><p>Willkommen!<br> Bitte wählen Sie eine Sprache, um das Experiment in der ausgewählten Sprache zu starten</p>","button_pressed":"1","trial_type":"html-button-response","trial_index":0,"time_elapsed":2305,"internal_node_id":"0.0-0.0","subject":"xgysraet16eulpf","sona":"9160"},{"view_history":"[{\"page_index\":0,\"viewing_time\":859},{\"page_index\":1,\"viewing_time\":1376},{\"page_index\":2,\"viewing_time\":5151},{\"page_index\":3,\"viewing_time\":8676},{\"page_index\":4,\"viewing_time\":1506}]","rt":17568,"trial_type":"instructions","trial_index":1,"time_elapsed":19874,"internal_node_id":"0.0-1.0-0.0","subject":"xgysraet16eulpf","sona":"9160"},{"rt":1280,"stimulus":"<p>Bereit?</p>","key_press":32,"trial_type":"html-keyboard-response","trial_index":2,"time_elapsed":21159,"internal_node_id":"0.0-3.0","subject":"xgysraet16eulpf","sona":"9160"},{"rt":null,"stimulus":"<div style=\"font-size:60px;\">+</div>","key_press":null,"trial_type":"html-keyboard-response","trial_index":3,"time_elapsed":23183,"internal_node_id":"0.0-4.0","subject":"xgysraet16eulpf","sona":"9160"},{"trial_type":"training","trial_index":4,"time_elapsed":26931,"internal_node_id":"0.0-5.0","subject":"xgysraet16eulpf","sona":"9160"},{"rt":311,"stimulus":"<p>Welche Sequenz haben Sie als natürlicher empfunden?</p>","key_press":70,"trial_type":"html-keyboard-response","trial_index":5,"time_elapsed":27247,"internal_node_id":"0.0-6.0","subject":"xgysraet16eulpf","sona":"9160"},{"rt":3736,"stimulus":"<p>Das Experiment startet nun.</p><p><small>Bitte drücken Sie den Knopf, wenn Sie bereit sind.</small></p>","button_pressed":"0","trial_type":"html-button-response","trial_index":6,"time_elapsed":30987,"internal_node_id":"0.0-7.0","subject":"xgysraet16eulpf","sona":"9160"},{"rt":1236,"stimulus":"<p>Bereit?</p>","key_press":32,"trial_type":"html-keyboard-response","trial_index":7,"time_elapsed":32227,"internal_node_id":"0.0-8.0-0.0","subject":"xgysraet16eulpf","sona":"9160"},{"rt":null,"stimulus":"<div style=\"font-size:60px;\">+</div>","key_press":null,"trial_type":"html-keyboard-response","trial_index":8,"time_elapsed":34252,"internal_node_id":"0.0-8.0-1.0","subject":"xgysraet16eulpf","sona":"9160"},{"trial_type":"turing-test","trial_index":9,"time_elapsed":37967,"internal_node_id":"0.0-8.0-2.0","subject":"xgysraet16eulpf","sona":"9160"},{"rt":439,"stimulus":"<p>Welche Sequenz haben Sie als natürlicher empfunden?</p>","key_press":74,"test_part":"response","test_stimulus":{"position":1,"left":"bvh/vr_prediction_models/model(dmp)-dataset(return-bottle-hold)-npsi(20)-hold(1)/final-lines.txt","right":"bvh/return-bottle-hold-training1-lines.txt","att_check":true},"trial_type":"html-keyboard-response","trial_index":10,"time_elapsed":38415,"internal_node_id":"0.0-8.0-3.0","subject":"xgysraet16eulpf","sona":"9160"},{"rt":142,"stimulus":"<p>Bereit?</p>","key_press":32,"trial_type":"html-keyboard-response","trial_index":11,"time_elapsed":38562,"internal_node_id":"0.0-8.0-0.1","subject":"xgysraet16eulpf","sona":"9160"},{"rt":null,"stimulus":"<div style=\"font-size:60px;\">+</div>","key_press":null,"trial_type":"html-keyboard-response","trial_index":12,"time_elapsed":40598,"internal_node_id":"0.0-8.0-1.1","subject":"xgysraet16eulpf","sona":"9160"},{"trial_type":"turing-test","trial_index":13,"time_elapsed":44399,"internal_node_id":"0.0-8.0-2.1","subject":"xgysraet16eulpf","sona":"9160"},{"rt":348,"stimulus":"<p>Welche Sequenz haben Sie als natürlicher empfunden?</p>","key_press":70,"test_part":"response","test_stimulus":{"position":0,"left":"bvh/pass-bottle-hold-training3-lines.txt","right":"bvh/vr_prediction_models/model(tmp)-dataset(pass-bottle-hold)-numprim(4)-hold(3)/final-lines.txt","att_check":false},"trial_type":"html-keyboard-response","trial_index":14,"time_elapsed":44752,"internal_node_id":"0.0-8.0-3.1","subject":"xgysraet16eulpf","sona":"9160"},{"rt":182,"stimulus":"<p>Bereit?</p>","key_press":32,"trial_type":"html-keyboard-response","trial_index":15,"time_elapsed":44941,"internal_node_id":"0.0-8.0-0.2","subject":"xgysraet16eulpf","sona":"9160"},{"rt":null,"stimulus":"<div style=\"font-size:60px;\">+</div>","key_press":null,"trial_type":"html-keyboard-response","trial_index":16,"time_elapsed":46979,"internal_node_id":"0.0-8.0-1.2","subject":"xgysraet16eulpf","sona":"9160"},{"trial_type":"turing-test","trial_index":17,"time_elapsed":54076,"internal_node_id":"0.0-8.0-2.2","subject":"xgysraet16eulpf","sona":"9160"},{"rt":377,"stimulus":"<p>Welche Sequenz haben Sie als natürlicher empfunden?</p>","key_press":74,"test_part":"response","test_stimulus":{"position":1,"left":"bvh/vr_prediction_models/model(tmp)-dataset(pass-bottle)-numprim(8)-hold(0)/final-lines.txt","right":"bvh/pass-bottle-training0-lines.txt","att_check":false},"trial_type":"html-keyboard-response","trial_index":18,"time_elapsed":54461,"internal_node_id":"0.0-8.0-3.2","subject":"xgysraet16eulpf","sona":"9160"},{"rt":138,"stimulus":"<p>Bereit?</p>","key_press":32,"trial_type":"html-keyboard-response","trial_index":19,"time_elapsed":54604,"internal_node_id":"0.0-8.0-0.3","subject":"xgysraet16eulpf","sona":"9160"},{"rt":null,"stimulus":"<div style=\"font-size:60px;\">+</div>","key_press":null,"trial_type":"html-keyboard-response","trial_index":20,"time_elapsed":56626,"internal_node_id":"0.0-8.0-1.3","subject":"xgysraet16eulpf","sona":"9160"},{"trial_type":"turing-test","trial_index":21,"time_elapsed":63210,"internal_node_id":"0.0-8.0-2.3","subject":"xgysraet16eulpf","sona":"9160"},{"rt":333,"stimulus":"<p>Welche Sequenz haben Sie als natürlicher empfunden?</p>","key_press":74,"test_part":"response","test_stimulus":{"position":1,"left":"bvh/vr_prediction_models/model(vcgpdm)-dataset(pass-bottle)-mode(ELBO)-parts(1)-dyn(15)-lvm(35)-hold(2)/final-lines.txt","right":"bvh/pass-bottle-training2-lines.txt","att_check":false},"trial_type":"html-keyboard-response","trial_index":22,"time_elapsed":63552,"internal_node_id":"0.0-8.0-3.3","subject":"xgysraet16eulpf","sona":"9160"},{"rt":179,"stimulus":"<p>Bereit?</p>","key_press":32,"trial_type":"html-keyboard-response","trial_index":23,"time_elapsed":63735,"internal_node_id":"0.0-8.0-0.4","subject":"xgysraet16eulpf","sona":"9160"},{"rt":null,"stimulus":"<div style=\"font-size:60px;\">+</div>","key_press":null,"trial_type":"html-keyboard-response","trial_index":24,"time_elapsed":65776,"internal_node_id":"0.0-8.0-1.4","subject":"xgysraet16eulpf","sona":"9160"},{"trial_type":"turing-test","trial_index":25,"time_elapsed":71462,"internal_node_id":"0.0-8.0-2.4","subject":"xgysraet16eulpf","sona":"9160"},{"rt":288,"stimulus":"<p>Welche Sequenz haben Sie als natürlicher empfunden?</p>","key_press":70,"test_part":"response","test_stimulus":{"position":0,"left":"bvh/return-bottle-training0-lines.txt","right":"bvh/vr_prediction_models/model(dmp)-dataset(return-bottle)-npsi(100)-hold(0)/final-lines.txt","att_check":false},"trial_type":"html-keyboard-response","trial_index":26,"time_elapsed":71758,"internal_node_id":"0.0-8.0-3.4","subject":"xgysraet16eulpf","sona":"9160"},{"rt":228,"stimulus":"<p>Bereit?</p>","key_press":32,"trial_type":"html-keyboard-response","trial_index":27,"time_elapsed":71992,"internal_node_id":"0.0-8.0-0.5","subject":"xgysraet16eulpf","sona":"9160"},{"rt":null,"stimulus":"<div style=\"font-size:60px;\">+</div>","key_press":null,"trial_type":"html-keyboard-response","trial_index":28,"time_elapsed":74004,"internal_node_id":"0.0-8.0-1.5","subject":"xgysraet16eulpf","sona":"9160"},{"trial_type":"turing-test","trial_index":29,"time_elapsed":80073,"internal_node_id":"0.0-8.0-2.5","subject":"xgysraet16eulpf","sona":"9160"},{"rt":349,"stimulus":"<p>Welche Sequenz haben Sie als natürlicher empfunden?</p>","key_press":74,"test_part":"response","test_stimulus":{"position":1,"left":"bvh/vr_prediction_models/model(dmp)-dataset(return-bottle)-npsi(50)-hold(4)/final-lines.txt","right":"bvh/return-bottle-training4-lines.txt","att_check":false},"trial_type":"html-keyboard-response","trial_index":30,"time_elapsed":80425,"internal_node_id":"0.0-8.0-3.5","subject":"xgysraet16eulpf","sona":"9160"},{"rt":135,"stimulus":"<p>Bereit?</p>","key_press":32,"trial_type":"html-keyboard-response","trial_index":31,"time_elapsed":80562,"internal_node_id":"0.0-8.0-0.6","subject":"xgysraet16eulpf","sona":"9160"},{"rt":null,"stimulus":"<div style=\"font-size:60px;\">+</div>","key_press":null,"trial_type":"html-keyboard-response","trial_index":32,"time_elapsed":82582,"internal_node_id":"0.0-8.0-1.6","subject":"xgysraet16eulpf","sona":"9160"},{"trial_type":"turing-test","trial_index":33,"time_elapsed":87999,"internal_node_id":"0.0-8.0-2.6","subject":"xgysraet16eulpf","sona":"9160"},{"rt":295,"stimulus":"<p>Welche Sequenz haben Sie als natürlicher empfunden?</p>","key_press":74,"test_part":"response","test_stimulus":{"position":1,"left":"bvh/vr_prediction_models/model(dmp)-dataset(return-bottle-hold)-npsi(60)-hold(0)/final-lines.txt","right":"bvh/return-bottle-hold-training0-lines.txt","att_check":false},"trial_type":"html-keyboard-response","trial_index":34,"time_elapsed":88300,"internal_node_id":"0.0-8.0-3.6","subject":"xgysraet16eulpf","sona":"9160"},{"rt":191,"stimulus":"<p>Bereit?</p>","key_press":32,"trial_type":"html-keyboard-response","trial_index":35,"time_elapsed":88495,"internal_node_id":"0.0-8.0-0.7","subject":"xgysraet16eulpf","sona":"9160"},{"rt":null,"stimulus":"<div style=\"font-size:60px;\">+</div>","key_press":null,"trial_type":"html-keyboard-response","trial_index":36,"time_elapsed":90539,"internal_node_id":"0.0-8.0-1.7","subject":"xgysraet16eulpf","sona":"9160"},{"trial_type":"turing-test","trial_index":37,"time_elapsed":96432,"internal_node_id":"0.0-8.0-2.7","subject":"xgysraet16eulpf","sona":"9160"},{"rt":283,"stimulus":"<p>Welche Sequenz haben Sie als natürlicher empfunden?</p>","key_press":70,"test_part":"response","test_stimulus":{"position":0,"left":"bvh/pass-bottle-training1-lines.txt","right":"bvh/vr_prediction_models/model(vcgpdm)-dataset(pass-bottle)-mode(ELBO)-parts(3)-dyn(10)-lvm(10)-hold(1)/final-lines.txt","att_check":false},"trial_type":"html-keyboard-response","trial_index":38,"time_elapsed":96721,"internal_node_id":"0.0-8.0-3.7","subject":"xgysraet16eulpf","sona":"9160"},{"rt":165,"stimulus":"<p>Bereit?</p>","key_press":32,"trial_type":"html-keyboard-response","trial_index":39,"time_elapsed":96893,"internal_node_id":"0.0-8.0-0.8","subject":"xgysraet16eulpf","sona":"9160"},{"rt":null,"stimulus":"<div style=\"font-size:60px;\">+</div>","key_press":null,"trial_type":"html-keyboard-response","trial_index":40,"time_elapsed":98919,"internal_node_id":"0.0-8.0-1.8","subject":"xgysraet16eulpf","sona":"9160"},{"trial_type":"turing-test","trial_index":41,"time_elapsed":105060,"internal_node_id":"0.0-8.0-2.8","subject":"xgysraet16eulpf","sona":"9160"},{"rt":345,"stimulus":"<p>Welche Sequenz haben Sie als natürlicher empfunden?</p>","key_press":70,"test_part":"response","test_stimulus":{"position":0,"left":"bvh/pass-bottle-training3-lines.txt","right":"bvh/vr_prediction_models/model(dmp)-dataset(pass-bottle)-npsi(40)-hold(3)/final-lines.txt","att_check":true},"trial_type":"html-keyboard-response","trial_index":42,"time_elapsed":105414,"internal_node_id":"0.0-8.0-3.8","subject":"xgysraet16eulpf","sona":"9160"},{"rt":180,"stimulus":"<p>Bereit?</p>","key_press":32,"trial_type":"html-keyboard-response","trial_index":43,"time_elapsed":105600,"internal_node_id":"0.0-8.0-0.9","subject":"xgysraet16eulpf","sona":"9160"},{"rt":null,"stimulus":"<div style=\"font-size:60px;\">+</div>","key_press":null,"trial_type":"html-keyboard-response","trial_index":44,"time_elapsed":107620,"internal_node_id":"0.0-8.0-1.9","subject":"xgysraet16eulpf","sona":"9160"},{"trial_type":"turing-test","trial_index":45,"time_elapsed":111350,"internal_node_id":"0.0-8.0-2.9","subject":"xgysraet16eulpf","sona":"9160"},{"rt":238,"stimulus":"<p>Welche Sequenz haben Sie als natürlicher empfunden?</p>","key_press":70,"test_part":"response","test_stimulus":{"position":0,"left":"bvh/pass-bottle-hold-training0-lines.txt","right":"bvh/vr_prediction_models/model(vcgpdm)-dataset(pass-bottle-hold)-mode(MAP)-parts(1)-hold(0)/final-lines.txt","att_check":false},"trial_type":"html-keyboard-response","trial_index":46,"time_elapsed":111590,"internal_node_id":"0.0-8.0-3.9","subject":"xgysraet16eulpf","sona":"9160"},{"rt":185,"stimulus":"<p>Bereit?</p>","key_press":32,"trial_type":"html-keyboard-response","trial_index":47,"time_elapsed":111778,"internal_node_id":"0.0-8.0-0.10","subject":"xgysraet16eulpf","sona":"9160"},{"rt":null,"stimulus":"<div style=\"font-size:60px;\">+</div>","key_press":null,"trial_type":"html-keyboard-response","trial_index":48,"time_elapsed":113788,"internal_node_id":"0.0-8.0-1.10","subject":"xgysraet16eulpf","sona":"9160"},{"trial_type":"turing-test","trial_index":49,"time_elapsed":120126,"internal_node_id":"0.0-8.0-2.10","subject":"xgysraet16eulpf","sona":"9160"},{"rt":286,"stimulus":"<p>Welche Sequenz haben Sie als natürlicher empfunden?</p>","key_press":74,"test_part":"response","test_stimulus":{"position":1,"left":"bvh/vr_prediction_models/model(dmp)-dataset(return-bottle)-npsi(40)-hold(1)/final-lines.txt","right":"bvh/return-bottle-training1-lines.txt","att_check":false},"trial_type":"html-keyboard-response","trial_index":50,"time_elapsed":120414,"internal_node_id":"0.0-8.0-3.10","subject":"xgysraet16eulpf","sona":"9160"},{"rt":159,"stimulus":"<p>Bereit?</p>","key_press":32,"trial_type":"html-keyboard-response","trial_index":51,"time_elapsed":120575,"internal_node_id":"0.0-8.0-0.11","subject":"xgysraet16eulpf","sona":"9160"},{"rt":null,"stimulus":"<div style=\"font-size:60px;\">+</div>","key_press":null,"trial_type":"html-keyboard-response","trial_index":52,"time_elapsed":122593,"internal_node_id":"0.0-8.0-1.11","subject":"xgysraet16eulpf","sona":"9160"},{"trial_type":"turing-test","trial_index":53,"time_elapsed":126558,"internal_node_id":"0.0-8.0-2.11","subject":"xgysraet16eulpf","sona":"9160"},{"rt":335,"stimulus":"<p>Welche Sequenz haben Sie als natürlicher empfunden?</p>","key_press":74,"test_part":"response","test_stimulus":{"position":0,"left":"bvh/pass-bottle-hold-training4-lines.txt","right":"bvh/vr_prediction_models/model(vcgpdm)-dataset(pass-bottle-hold)-mode(ELBO)-parts(1)-dyn(30)-lvm(20)-hold(4)/final-lines.txt","att_check":false},"trial_type":"html-keyboard-response","trial_index":54,"time_elapsed":126895,"internal_node_id":"0.0-8.0-3.11","subject":"xgysraet16eulpf","sona":"9160"},{"rt":171,"stimulus":"<p>Bereit?</p>","key_press":32,"trial_type":"html-keyboard-response","trial_index":55,"time_elapsed":127067,"internal_node_id":"0.0-8.0-0.12","subject":"xgysraet16eulpf","sona":"9160"},{"rt":null,"stimulus":"<div style=\"font-size:60px;\">+</div>","key_press":null,"trial_type":"html-keyboard-response","trial_index":56,"time_elapsed":129083,"internal_node_id":"0.0-8.0-1.12","subject":"xgysraet16eulpf","sona":"9160"},{"trial_type":"turing-test","trial_index":57,"time_elapsed":132890,"internal_node_id":"0.0-8.0-2.12","subject":"xgysraet16eulpf","sona":"9160"},{"rt":963,"stimulus":"<p>Welche Sequenz haben Sie als natürlicher empfunden?</p>","key_press":70,"test_part":"response","test_stimulus":{"position":1,"left":"bvh/vr_prediction_models/model(vcgpdm)-dataset(pass-bottle-hold)-mode(ELBO)-parts(1)-dyn(15)-lvm(35)-hold(0)/final-lines.txt","right":"bvh/pass-bottle-hold-training0-lines.txt","att_check":false},"trial_type":"html-keyboard-response","trial_index":58,"time_elapsed":133854,"internal_node_id":"0.0-8.0-3.12","subject":"xgysraet16eulpf","sona":"9160"},{"rt":195,"stimulus":"<p>Bereit?</p>","key_press":32,"trial_type":"html-keyboard-response","trial_index":59,"time_elapsed":134050,"internal_node_id":"0.0-8.0-0.13","subject":"xgysraet16eulpf","sona":"9160"},{"rt":null,"stimulus":"<div style=\"font-size:60px;\">+</div>","key_press":null,"trial_type":"html-keyboard-response","trial_index":60,"time_elapsed":136060,"internal_node_id":"0.0-8.0-1.13","subject":"xgysraet16eulpf","sona":"9160"},{"trial_type":"turing-test","trial_index":61,"time_elapsed":142147,"internal_node_id":"0.0-8.0-2.13","subject":"xgysraet16eulpf","sona":"9160"},{"rt":2129,"stimulus":"<p>Welche Sequenz haben Sie als natürlicher empfunden?</p>","key_press":70,"test_part":"response","test_stimulus":{"position":1,"left":"bvh/vr_prediction_models/model(vcgpdm)-dataset(pass-bottle)-mode(ELBO)-parts(1)-dyn(10)-lvm(30)-hold(4)/final-lines.txt","right":"bvh/pass-bottle-training4-lines.txt","att_check":false},"trial_type":"html-keyboard-response","trial_index":62,"time_elapsed":144279,"internal_node_id":"0.0-8.0-3.13","subject":"xgysraet16eulpf","sona":"9160"},{"rt":212,"stimulus":"<p>Bereit?</p>","key_press":32,"trial_type":"html-keyboard-response","trial_index":63,"time_elapsed":144496,"internal_node_id":"0.0-8.0-0.14","subject":"xgysraet16eulpf","sona":"9160"},{"rt":null,"stimulus":"<div style=\"font-size:60px;\">+</div>","key_press":null,"trial_type":"html-keyboard-response","trial_index":64,"time_elapsed":146518,"internal_node_id":"0.0-8.0-1.14","subject":"xgysraet16eulpf","sona":"9160"},{"trial_type":"turing-test","trial_index":65,"time_elapsed":150259,"internal_node_id":"0.0-8.0-2.14","subject":"xgysraet16eulpf","sona":"9160"},{"rt":1925,"stimulus":"<p>Welche Sequenz haben Sie als natürlicher empfunden?</p>","key_press":74,"test_part":"response","test_stimulus":{"position":0,"left":"bvh/pass-bottle-hold-training2-lines.txt","right":"bvh/vr_prediction_models/model(vcgpdm)-dataset(pass-bottle-hold)-mode(ELBO)-parts(3)-dyn(10)-lvm(10)-hold(2)/final-lines.txt","att_check":false},"trial_type":"html-keyboard-response","trial_index":66,"time_elapsed":152192,"internal_node_id":"0.0-8.0-3.14","subject":"xgysraet16eulpf","sona":"9160"},{"rt":160,"stimulus":"<p>Bereit?</p>","key_press":32,"trial_type":"html-keyboard-response","trial_index":67,"time_elapsed":152358,"internal_node_id":"0.0-8.0-0.15","subject":"xgysraet16eulpf","sona":"9160"},{"rt":null,"stimulus":"<div style=\"font-size:60px;\">+</div>","key_press":null,"trial_type":"html-keyboard-response","trial_index":68,"time_elapsed":154398,"internal_node_id":"0.0-8.0-1.15","subject":"xgysraet16eulpf","sona":"9160"},{"trial_type":"turing-test","trial_index":69,"time_elapsed":158004,"internal_node_id":"0.0-8.0-2.15","subject":"xgysraet16eulpf","sona":"9160"},{"rt":233,"stimulus":"<p>Welche Sequenz haben Sie als natürlicher empfunden?</p>","key_press":74,"test_part":"response","test_stimulus":{"position":0,"left":"bvh/pass-bottle-hold-training1-lines.txt","right":"bvh/vr_prediction_models/model(vcgpdm)-dataset(pass-bottle-hold)-mode(ELBO)-parts(3)-dyn(25)-lvm(30)-hold(1)/final-lines.txt","att_check":false},"trial_type":"html-keyboard-response","trial_index":70,"time_elapsed":158239,"internal_node_id":"0.0-8.0-3.15","subject":"xgysraet16eulpf","sona":"9160"},{"rt":155,"stimulus":"<p>Bereit?</p>","key_press":32,"trial_type":"html-keyboard-response","trial_index":71,"time_elapsed":158402,"internal_node_id":"0.0-8.0-0.16","subject":"xgysraet16eulpf","sona":"9160"},{"rt":null,"stimulus":"<div style=\"font-size:60px;\">+</div>","key_press":null,"trial_type":"html-keyboard-response","trial_index":72,"time_elapsed":160426,"internal_node_id":"0.0-8.0-1.16","subject":"xgysraet16eulpf","sona":"9160"},{"trial_type":"turing-test","trial_index":73,"time_elapsed":166713,"internal_node_id":"0.0-8.0-2.16","subject":"xgysraet16eulpf","sona":"9160"},{"rt":254,"stimulus":"<p>Welche Sequenz haben Sie als natürlicher empfunden?</p>","key_press":74,"test_part":"response","test_stimulus":{"position":1,"left":"bvh/vr_prediction_models/model(tmp)-dataset(pass-bottle)-numprim(15)-hold(2)/final-lines.txt","right":"bvh/pass-bottle-training2-lines.txt","att_check":false},"trial_type":"html-keyboard-response","trial_index":74,"time_elapsed":166974,"internal_node_id":"0.0-8.0-3.16","subject":"xgysraet16eulpf","sona":"9160"},{"rt":129,"stimulus":"<p>Bereit?</p>","key_press":32,"trial_type":"html-keyboard-response","trial_index":75,"time_elapsed":167110,"internal_node_id":"0.0-8.0-0.17","subject":"xgysraet16eulpf","sona":"9160"},{"rt":null,"stimulus":"<div style=\"font-size:60px;\">+</div>","key_press":null,"trial_type":"html-keyboard-response","trial_index":76,"time_elapsed":169123,"internal_node_id":"0.0-8.0-1.17","subject":"xgysraet16eulpf","sona":"9160"},{"trial_type":"turing-test","trial_index":77,"time_elapsed":175184,"internal_node_id":"0.0-8.0-2.17","subject":"xgysraet16eulpf","sona":"9160"},{"rt":232,"stimulus":"<p>Welche Sequenz haben Sie als natürlicher empfunden?</p>","key_press":74,"test_part":"response","test_stimulus":{"position":1,"left":"bvh/vr_prediction_models/model(dmp)-dataset(return-bottle)-npsi(10)-hold(3)/final-lines.txt","right":"bvh/return-bottle-training3-lines.txt","att_check":false},"trial_type":"html-keyboard-response","trial_index":78,"time_elapsed":175420,"internal_node_id":"0.0-8.0-3.17","subject":"xgysraet16eulpf","sona":"9160"},{"rt":146,"stimulus":"<p>Bereit?</p>","key_press":32,"trial_type":"html-keyboard-response","trial_index":79,"time_elapsed":175575,"internal_node_id":"0.0-8.0-0.18","subject":"xgysraet16eulpf","sona":"9160"},{"rt":null,"stimulus":"<div style=\"font-size:60px;\">+</div>","key_press":null,"trial_type":"html-keyboard-response","trial_index":80,"time_elapsed":177604,"internal_node_id":"0.0-8.0-1.18","subject":"xgysraet16eulpf","sona":"9160"},{"trial_type":"turing-test","trial_index":81,"time_elapsed":181228,"internal_node_id":"0.0-8.0-2.18","subject":"xgysraet16eulpf","sona":"9160"},{"rt":191,"stimulus":"<p>Welche Sequenz haben Sie als natürlicher empfunden?</p>","key_press":74,"test_part":"response","test_stimulus":{"position":1,"left":"bvh/vr_prediction_models/model(vcgpdm)-dataset(pass-bottle-hold)-mode(ELBO)-parts(1)-dyn(20)-lvm(30)-hold(2)/final-lines.txt","right":"bvh/pass-bottle-hold-training2-lines.txt","att_check":false},"trial_type":"html-keyboard-response","trial_index":82,"time_elapsed":181433,"internal_node_id":"0.0-8.0-3.18","subject":"xgysraet16eulpf","sona":"9160"},{"rt":128,"stimulus":"<p>Bereit?</p>","key_press":32,"trial_type":"html-keyboard-response","trial_index":83,"time_elapsed":181572,"internal_node_id":"0.0-8.0-0.19","subject":"xgysraet16eulpf","sona":"9160"},{"rt":null,"stimulus":"<div style=\"font-size:60px;\">+</div>","key_press":null,"trial_type":"html-keyboard-response","trial_index":84,"time_elapsed":183608,"internal_node_id":"0.0-8.0-1.19","subject":"xgysraet16eulpf","sona":"9160"},{"trial_type":"turing-test","trial_index":85,"time_elapsed":187538,"internal_node_id":"0.0-8.0-2.19","subject":"xgysraet16eulpf","sona":"9160"},{"rt":393,"stimulus":"<p>Welche Sequenz haben Sie als natürlicher empfunden?</p>","key_press":74,"test_part":"response","test_stimulus":{"position":1,"left":"bvh/vr_prediction_models/model(vcgpdm)-dataset(pass-bottle-hold)-mode(MAP)-parts(1)-hold(3)/final-lines.txt","right":"bvh/pass-bottle-hold-training3-lines.txt","att_check":false},"trial_type":"html-keyboard-response","trial_index":86,"time_elapsed":187942,"internal_node_id":"0.0-8.0-3.19","subject":"xgysraet16eulpf","sona":"9160"},{"rt":130,"stimulus":"<p>Bereit?</p>","key_press":32,"trial_type":"html-keyboard-response","trial_index":87,"time_elapsed":188103,"internal_node_id":"0.0-8.0-0.20","subject":"xgysraet16eulpf","sona":"9160"},{"rt":null,"stimulus":"<div style=\"font-size:60px;\">+</div>","key_press":null,"trial_type":"html-keyboard-response","trial_index":88,"time_elapsed":190120,"internal_node_id":"0.0-8.0-1.20","subject":"xgysraet16eulpf","sona":"9160"},{"trial_type":"turing-test","trial_index":89,"time_elapsed":195786,"internal_node_id":"0.0-8.0-2.20","subject":"xgysraet16eulpf","sona":"9160"},{"rt":633,"stimulus":"<p>Welche Sequenz haben Sie als natürlicher empfunden?</p>","key_press":70,"test_part":"response","test_stimulus":{"position":0,"left":"bvh/return-bottle-training4-lines.txt","right":"bvh/vr_prediction_models/model(dmp)-dataset(return-bottle)-npsi(50)-hold(4)/final-lines.txt","att_check":false},"trial_type":"html-keyboard-response","trial_index":90,"time_elapsed":196428,"internal_node_id":"0.0-8.0-3.20","subject":"xgysraet16eulpf","sona":"9160"},{"rt":195,"stimulus":"<p>Bereit?</p>","key_press":32,"trial_type":"html-keyboard-response","trial_index":91,"time_elapsed":196631,"internal_node_id":"0.0-8.0-0.21","subject":"xgysraet16eulpf","sona":"9160"},{"rt":null,"stimulus":"<div style=\"font-size:60px;\">+</div>","key_press":null,"trial_type":"html-keyboard-response","trial_index":92,"time_elapsed":198665,"internal_node_id":"0.0-8.0-1.21","subject":"xgysraet16eulpf","sona":"9160"},{"trial_type":"turing-test","trial_index":93,"time_elapsed":205057,"internal_node_id":"0.0-8.0-2.21","subject":"xgysraet16eulpf","sona":"9160"},{"rt":276,"stimulus":"<p>Welche Sequenz haben Sie als natürlicher empfunden?</p>","key_press":70,"test_part":"response","test_stimulus":{"position":0,"left":"bvh/pass-bottle-training2-lines.txt","right":"bvh/vr_prediction_models/model(vcgpdm)-dataset(pass-bottle)-mode(ELBO)-parts(1)-dyn(30)-lvm(35)-hold(2)/final-lines.txt","att_check":false},"trial_type":"html-keyboard-response","trial_index":94,"time_elapsed":205341,"internal_node_id":"0.0-8.0-3.21","subject":"xgysraet16eulpf","sona":"9160"},{"rt":220,"stimulus":"<p>Bereit?</p>","key_press":32,"trial_type":"html-keyboard-response","trial_index":95,"time_elapsed":205570,"internal_node_id":"0.0-8.0-0.22","subject":"xgysraet16eulpf","sona":"9160"},{"rt":null,"stimulus":"<div style=\"font-size:60px;\">+</div>","key_press":null,"trial_type":"html-keyboard-response","trial_index":96,"time_elapsed":207594,"internal_node_id":"0.0-8.0-1.22","subject":"xgysraet16eulpf","sona":"9160"},{"trial_type":"turing-test","trial_index":97,"time_elapsed":214361,"internal_node_id":"0.0-8.0-2.22","subject":"xgysraet16eulpf","sona":"9160"},{"rt":290,"stimulus":"<p>Welche Sequenz haben Sie als natürlicher empfunden?</p>","key_press":70,"test_part":"response","test_stimulus":{"position":0,"left":"bvh/pass-bottle-training0-lines.txt","right":"bvh/vr_prediction_models/model(dmp)-dataset(pass-bottle)-npsi(100)-hold(0)/final-lines.txt","att_check":false},"trial_type":"html-keyboard-response","trial_index":98,"time_elapsed":214660,"internal_node_id":"0.0-8.0-3.22","subject":"xgysraet16eulpf","sona":"9160"},{"rt":234,"stimulus":"<p>Bereit?</p>","key_press":32,"trial_type":"html-keyboard-response","trial_index":99,"time_elapsed":214904,"internal_node_id":"0.0-8.0-0.23","subject":"xgysraet16eulpf","sona":"9160"},{"rt":null,"stimulus":"<div style=\"font-size:60px;\">+</div>","key_press":null,"trial_type":"html-keyboard-response","trial_index":100,"time_elapsed":216926,"internal_node_id":"0.0-8.0-1.23","subject":"xgysraet16eulpf","sona":"9160"},{"trial_type":"turing-test","trial_index":101,"time_elapsed":223959,"internal_node_id":"0.0-8.0-2.23","subject":"xgysraet16eulpf","sona":"9160"},{"rt":148,"stimulus":"<p>Welche Sequenz haben Sie als natürlicher empfunden?</p>","key_press":70,"test_part":"response","test_stimulus":{"position":0,"left":"bvh/pass-bottle-training0-lines.txt","right":"bvh/vr_prediction_models/model(vcgpdm)-dataset(pass-bottle)-mode(ELBO)-parts(3)-dyn(10)-lvm(10)-hold(0)/final-lines.txt","att_check":false},"trial_type":"html-keyboard-response","trial_index":102,"time_elapsed":224113,"internal_node_id":"0.0-8.0-3.23","subject":"xgysraet16eulpf","sona":"9160"},{"rt":144,"stimulus":"<p>Bereit?</p>","key_press":32,"trial_type":"html-keyboard-response","trial_index":103,"time_elapsed":224263,"internal_node_id":"0.0-8.0-0.24","subject":"xgysraet16eulpf","sona":"9160"},{"rt":null,"stimulus":"<div style=\"font-size:60px;\">+</div>","key_press":null,"trial_type":"html-keyboard-response","trial_index":104,"time_elapsed":226299,"internal_node_id":"0.0-8.0-1.24","subject":"xgysraet16eulpf","sona":"9160"},{"trial_type":"turing-test","trial_index":105,"time_elapsed":229872,"internal_node_id":"0.0-8.0-2.24","subject":"xgysraet16eulpf","sona":"9160"},{"rt":264,"stimulus":"<p>Welche Sequenz haben Sie als natürlicher empfunden?</p>","key_press":74,"test_part":"response","test_stimulus":{"position":0,"left":"bvh/pass-bottle-hold-training1-lines.txt","right":"bvh/vr_prediction_models/model(vcgpdm)-dataset(pass-bottle-hold)-mode(ELBO)-parts(3)-dyn(15)-lvm(30)-hold(1)/final-lines.txt","att_check":false},"trial_type":"html-keyboard-response","trial_index":106,"time_elapsed":230145,"internal_node_id":"0.0-8.0-3.24","subject":"xgysraet16eulpf","sona":"9160"},{"rt":114,"stimulus":"<p>Bereit?</p>","key_press":32,"trial_type":"html-keyboard-response","trial_index":107,"time_elapsed":230268,"internal_node_id":"0.0-8.0-0.25","subject":"xgysraet16eulpf","sona":"9160"},{"rt":null,"stimulus":"<div style=\"font-size:60px;\">+</div>","key_press":null,"trial_type":"html-keyboard-response","trial_index":108,"time_elapsed":232293,"internal_node_id":"0.0-8.0-1.25","subject":"xgysraet16eulpf","sona":"9160"},{"trial_type":"turing-test","trial_index":109,"time_elapsed":238113,"internal_node_id":"0.0-8.0-2.25","subject":"xgysraet16eulpf","sona":"9160"},{"rt":308,"stimulus":"<p>Welche Sequenz haben Sie als natürlicher empfunden?</p>","key_press":74,"test_part":"response","test_stimulus":{"position":1,"left":"bvh/vr_prediction_models/model(dmp)-dataset(pass-bottle)-npsi(90)-hold(4)/final-lines.txt","right":"bvh/pass-bottle-training4-lines.txt","att_check":false},"trial_type":"html-keyboard-response","trial_index":110,"time_elapsed":238430,"internal_node_id":"0.0-8.0-3.25","subject":"xgysraet16eulpf","sona":"9160"},{"rt":106,"stimulus":"<p>Bereit?</p>","key_press":32,"trial_type":"html-keyboard-response","trial_index":111,"time_elapsed":238544,"internal_node_id":"0.0-8.0-0.26","subject":"xgysraet16eulpf","sona":"9160"},{"rt":null,"stimulus":"<div style=\"font-size:60px;\">+</div>","key_press":null,"trial_type":"html-keyboard-response","trial_index":112,"time_elapsed":240573,"internal_node_id":"0.0-8.0-1.26","subject":"xgysraet16eulpf","sona":"9160"},{"trial_type":"turing-test","trial_index":113,"time_elapsed":246924,"internal_node_id":"0.0-8.0-2.26","subject":"xgysraet16eulpf","sona":"9160"},{"rt":141,"stimulus":"<p>Welche Sequenz haben Sie als natürlicher empfunden?</p>","key_press":70,"test_part":"response","test_stimulus":{"position":0,"left":"bvh/return-bottle-training1-lines.txt","right":"bvh/vr_prediction_models/model(tmp)-dataset(return-bottle)-numprim(10)-hold(1)/final-lines.txt","att_check":false},"trial_type":"html-keyboard-response","trial_index":114,"time_elapsed":247075,"internal_node_id":"0.0-8.0-3.26","subject":"xgysraet16eulpf","sona":"9160"},{"rt":177,"stimulus":"<p>Bereit?</p>","key_press":32,"trial_type":"html-keyboard-response","trial_index":115,"time_elapsed":247260,"internal_node_id":"0.0-8.0-0.27","subject":"xgysraet16eulpf","sona":"9160"},{"rt":null,"stimulus":"<div style=\"font-size:60px;\">+</div>","key_press":null,"trial_type":"html-keyboard-response","trial_index":116,"time_elapsed":249269,"internal_node_id":"0.0-8.0-1.27","subject":"xgysraet16eulpf","sona":"9160"},{"trial_type":"turing-test","trial_index":117,"time_elapsed":254511,"internal_node_id":"0.0-8.0-2.27","subject":"xgysraet16eulpf","sona":"9160"},{"rt":392,"stimulus":"<p>Welche Sequenz haben Sie als natürlicher empfunden?</p>","key_press":70,"test_part":"response","test_stimulus":{"position":0,"left":"bvh/return-bottle-hold-training0-lines.txt","right":"bvh/vr_prediction_models/model(dmp)-dataset(return-bottle-hold)-npsi(30)-hold(0)/final-lines.txt","att_check":false},"trial_type":"html-keyboard-response","trial_index":118,"time_elapsed":254907,"internal_node_id":"0.0-8.0-3.27","subject":"xgysraet16eulpf","sona":"9160"},{"rt":152,"stimulus":"<p>Bereit?</p>","key_press":32,"trial_type":"html-keyboard-response","trial_index":119,"time_elapsed":255066,"internal_node_id":"0.0-8.0-0.28","subject":"xgysraet16eulpf","sona":"9160"},{"rt":null,"stimulus":"<div style=\"font-size:60px;\">+</div>","key_press":null,"trial_type":"html-keyboard-response","trial_index":120,"time_elapsed":257094,"internal_node_id":"0.0-8.0-1.28","subject":"xgysraet16eulpf","sona":"9160"},{"trial_type":"turing-test","trial_index":121,"time_elapsed":260511,"internal_node_id":"0.0-8.0-2.28","subject":"xgysraet16eulpf","sona":"9160"},{"rt":235,"stimulus":"<p>Welche Sequenz haben Sie als natürlicher empfunden?</p>","key_press":74,"test_part":"response","test_stimulus":{"position":1,"left":"bvh/vr_prediction_models/model(dmp)-dataset(pass-bottle-hold)-npsi(10)-hold(2)/final-lines.txt","right":"bvh/pass-bottle-hold-training2-lines.txt","att_check":false},"trial_type":"html-keyboard-response","trial_index":122,"time_elapsed":260755,"internal_node_id":"0.0-8.0-3.28","subject":"xgysraet16eulpf","sona":"9160"},{"rt":141,"stimulus":"<p>Bereit?</p>","key_press":32,"trial_type":"html-keyboard-response","trial_index":123,"time_elapsed":260896,"internal_node_id":"0.0-8.0-0.29","subject":"xgysraet16eulpf","sona":"9160"},{"rt":null,"stimulus":"<div style=\"font-size:60px;\">+</div>","key_press":null,"trial_type":"html-keyboard-response","trial_index":124,"time_elapsed":262911,"internal_node_id":"0.0-8.0-1.29","subject":"xgysraet16eulpf","sona":"9160"},{"trial_type":"turing-test","trial_index":125,"time_elapsed":269484,"internal_node_id":"0.0-8.0-2.29","subject":"xgysraet16eulpf","sona":"9160"},{"rt":858,"stimulus":"<p>Welche Sequenz haben Sie als natürlicher empfunden?</p>","key_press":70,"test_part":"response","test_stimulus":{"position":1,"left":"bvh/vr_prediction_models/model(vcgpdm)-dataset(return-bottle)-mode(ELBO)-parts(1)-dyn(30)-lvm(20)-hold(1)/final-lines.txt","right":"bvh/return-bottle-training1-lines.txt","att_check":false},"trial_type":"html-keyboard-response","trial_index":126,"time_elapsed":270351,"internal_node_id":"0.0-8.0-3.29","subject":"xgysraet16eulpf","sona":"9160"},{"rt":212,"stimulus":"<p>Bereit?</p>","key_press":32,"trial_type":"html-keyboard-response","trial_index":127,"time_elapsed":270571,"internal_node_id":"0.0-8.0-0.30","subject":"xgysraet16eulpf","sona":"9160"},{"rt":null,"stimulus":"<div style=\"font-size:60px;\">+</div>","key_press":null,"trial_type":"html-keyboard-response","trial_index":128,"time_elapsed":272594,"internal_node_id":"0.0-8.0-1.30","subject":"xgysraet16eulpf","sona":"9160"},{"trial_type":"turing-test","trial_index":129,"time_elapsed":276568,"internal_node_id":"0.0-8.0-2.30","subject":"xgysraet16eulpf","sona":"9160"},{"rt":284,"stimulus":"<p>Welche Sequenz haben Sie als natürlicher empfunden?</p>","key_press":74,"test_part":"response","test_stimulus":{"position":1,"left":"bvh/vr_prediction_models/model(tmp)-dataset(return-bottle-hold)-numprim(9)-hold(3)/final-lines.txt","right":"bvh/return-bottle-hold-training3-lines.txt","att_check":false},"trial_type":"html-keyboard-response","trial_index":130,"time_elapsed":276862,"internal_node_id":"0.0-8.0-3.30","subject":"xgysraet16eulpf","sona":"9160"},{"rt":59,"stimulus":"<p>Bereit?</p>","key_press":32,"trial_type":"html-keyboard-response","trial_index":131,"time_elapsed":276932,"internal_node_id":"0.0-8.0-0.31","subject":"xgysraet16eulpf","sona":"9160"},{"rt":null,"stimulus":"<div style=\"font-size:60px;\">+</div>","key_press":null,"trial_type":"html-keyboard-response","trial_index":132,"time_elapsed":278958,"internal_node_id":"0.0-8.0-1.31","subject":"xgysraet16eulpf","sona":"9160"},{"trial_type":"turing-test","trial_index":133,"time_elapsed":282683,"internal_node_id":"0.0-8.0-2.31","subject":"xgysraet16eulpf","sona":"9160"},{"rt":341,"stimulus":"<p>Welche Sequenz haben Sie als natürlicher empfunden?</p>","key_press":74,"test_part":"response","test_stimulus":{"position":0,"left":"bvh/pass-bottle-hold-training0-lines.txt","right":"bvh/vr_prediction_models/model(vcgpdm)-dataset(pass-bottle-hold)-mode(ELBO)-parts(3)-dyn(10)-lvm(30)-hold(0)/final-lines.txt","att_check":false},"trial_type":"html-keyboard-response","trial_index":134,"time_elapsed":283036,"internal_node_id":"0.0-8.0-3.31","subject":"xgysraet16eulpf","sona":"9160"},{"rt":156,"stimulus":"<p>Bereit?</p>","key_press":32,"trial_type":"html-keyboard-response","trial_index":135,"time_elapsed":283202,"internal_node_id":"0.0-8.0-0.32","subject":"xgysraet16eulpf","sona":"9160"},{"rt":null,"stimulus":"<div style=\"font-size:60px;\">+</div>","key_press":null,"trial_type":"html-keyboard-response","trial_index":136,"time_elapsed":285223,"internal_node_id":"0.0-8.0-1.32","subject":"xgysraet16eulpf","sona":"9160"},{"trial_type":"turing-test","trial_index":137,"time_elapsed":289284,"internal_node_id":"0.0-8.0-2.32","subject":"xgysraet16eulpf","sona":"9160"},{"rt":8454,"stimulus":"<p>Welche Sequenz haben Sie als natürlicher empfunden?</p>","key_press":70,"test_part":"response","test_stimulus":{"position":0,"left":"bvh/pass-bottle-hold-training4-lines.txt","right":"bvh/vr_prediction_models/model(vcgpdm)-dataset(pass-bottle-hold)-mode(MAP)-parts(3)-hold(4)/final-lines.txt","att_check":false},"trial_type":"html-keyboard-response","trial_index":138,"time_elapsed":297748,"internal_node_id":"0.0-8.0-3.32","subject":"xgysraet16eulpf","sona":"9160"},{"rt":193,"stimulus":"<p>Bereit?</p>","key_press":32,"trial_type":"html-keyboard-response","trial_index":139,"time_elapsed":297949,"internal_node_id":"0.0-8.0-0.33","subject":"xgysraet16eulpf","sona":"9160"},{"rt":null,"stimulus":"<div style=\"font-size:60px;\">+</div>","key_press":null,"trial_type":"html-keyboard-response","trial_index":140,"time_elapsed":299964,"internal_node_id":"0.0-8.0-1.33","subject":"xgysraet16eulpf","sona":"9160"},{"trial_type":"turing-test","trial_index":141,"time_elapsed":306223,"internal_node_id":"0.0-8.0-2.33","subject":"xgysraet16eulpf","sona":"9160"},{"rt":341,"stimulus":"<p>Welche Sequenz haben Sie als natürlicher empfunden?</p>","key_press":70,"test_part":"response","test_stimulus":{"position":0,"left":"bvh/return-bottle-training4-lines.txt","right":"bvh/vr_prediction_models/model(vcgpdm)-dataset(return-bottle)-mode(ELBO)-parts(3)-dyn(20)-lvm(15)-hold(4)/final-lines.txt","att_check":false},"trial_type":"html-keyboard-response","trial_index":142,"time_elapsed":306574,"internal_node_id":"0.0-8.0-3.33","subject":"xgysraet16eulpf","sona":"9160"},{"rt":193,"stimulus":"<p>Bereit?</p>","key_press":32,"trial_type":"html-keyboard-response","trial_index":143,"time_elapsed":306777,"internal_node_id":"0.0-8.0-0.34","subject":"xgysraet16eulpf","sona":"9160"},{"rt":null,"stimulus":"<div style=\"font-size:60px;\">+</div>","key_press":null,"trial_type":"html-keyboard-response","trial_index":144,"time_elapsed":308804,"internal_node_id":"0.0-8.0-1.34","subject":"xgysraet16eulpf","sona":"9160"},{"trial_type":"turing-test","trial_index":145,"time_elapsed":314364,"internal_node_id":"0.0-8.0-2.34","subject":"xgysraet16eulpf","sona":"9160"},{"rt":715,"stimulus":"<p>Welche Sequenz haben Sie als natürlicher empfunden?</p>","key_press":70,"test_part":"response","test_stimulus":{"position":0,"left":"bvh/pass-bottle-training1-lines.txt","right":"bvh/vr_prediction_models/model(dmp)-dataset(pass-bottle)-npsi(30)-hold(1)/final-lines.txt","att_check":false},"trial_type":"html-keyboard-response","trial_index":146,"time_elapsed":315084,"internal_node_id":"0.0-8.0-3.34","subject":"xgysraet16eulpf","sona":"9160"},{"rt":227,"stimulus":"<p>Bereit?</p>","key_press":32,"trial_type":"html-keyboard-response","trial_index":147,"time_elapsed":315318,"internal_node_id":"0.0-8.0-0.35","subject":"xgysraet16eulpf","sona":"9160"},{"rt":null,"stimulus":"<div style=\"font-size:60px;\">+</div>","key_press":null,"trial_type":"html-keyboard-response","trial_index":148,"time_elapsed":317346,"internal_node_id":"0.0-8.0-1.35","subject":"xgysraet16eulpf","sona":"9160"},{"trial_type":"turing-test","trial_index":149,"time_elapsed":320968,"internal_node_id":"0.0-8.0-2.35","subject":"xgysraet16eulpf","sona":"9160"},{"rt":640,"stimulus":"<p>Welche Sequenz haben Sie als natürlicher empfunden?</p>","key_press":70,"test_part":"response","test_stimulus":{"position":1,"left":"bvh/vr_prediction_models/model(vcgpdm)-dataset(pass-bottle-hold)-mode(ELBO)-parts(3)-dyn(10)-lvm(30)-hold(1)/final-lines.txt","right":"bvh/pass-bottle-hold-training1-lines.txt","att_check":false},"trial_type":"html-keyboard-response","trial_index":150,"time_elapsed":321623,"internal_node_id":"0.0-8.0-3.35","subject":"xgysraet16eulpf","sona":"9160"},{"rt":217,"stimulus":"<p>Bereit?</p>","key_press":32,"trial_type":"html-keyboard-response","trial_index":151,"time_elapsed":321851,"internal_node_id":"0.0-8.0-0.36","subject":"xgysraet16eulpf","sona":"9160"},{"rt":null,"stimulus":"<div style=\"font-size:60px;\">+</div>","key_press":null,"trial_type":"html-keyboard-response","trial_index":152,"time_elapsed":323879,"internal_node_id":"0.0-8.0-1.36","subject":"xgysraet16eulpf","sona":"9160"},{"trial_type":"turing-test","trial_index":153,"time_elapsed":327858,"internal_node_id":"0.0-8.0-2.36","subject":"xgysraet16eulpf","sona":"9160"},{"rt":315,"stimulus":"<p>Welche Sequenz haben Sie als natürlicher empfunden?</p>","key_press":70,"test_part":"response","test_stimulus":{"position":0,"left":"bvh/return-bottle-hold-training2-lines.txt","right":"bvh/vr_prediction_models/model(vcgpdm)-dataset(return-bottle-hold)-mode(ELBO)-parts(3)-dyn(25)-lvm(25)-hold(2)/final-lines.txt","att_check":false},"trial_type":"html-keyboard-response","trial_index":154,"time_elapsed":328182,"internal_node_id":"0.0-8.0-3.36","subject":"xgysraet16eulpf","sona":"9160"},{"rt":168,"stimulus":"<p>Bereit?</p>","key_press":32,"trial_type":"html-keyboard-response","trial_index":155,"time_elapsed":328361,"internal_node_id":"0.0-8.0-0.37","subject":"xgysraet16eulpf","sona":"9160"},{"rt":null,"stimulus":"<div style=\"font-size:60px;\">+</div>","key_press":null,"trial_type":"html-keyboard-response","trial_index":156,"time_elapsed":330388,"internal_node_id":"0.0-8.0-1.37","subject":"xgysraet16eulpf","sona":"9160"},{"trial_type":"turing-test","trial_index":157,"time_elapsed":333979,"internal_node_id":"0.0-8.0-2.37","subject":"xgysraet16eulpf","sona":"9160"},{"rt":672,"stimulus":"<p>Welche Sequenz haben Sie als natürlicher empfunden?</p>","key_press":74,"test_part":"response","test_stimulus":{"position":1,"left":"bvh/vr_prediction_models/model(tmp)-dataset(pass-bottle-hold)-numprim(10)-hold(1)/final-lines.txt","right":"bvh/pass-bottle-hold-training1-lines.txt","att_check":false},"trial_type":"html-keyboard-response","trial_index":158,"time_elapsed":334660,"internal_node_id":"0.0-8.0-3.37","subject":"xgysraet16eulpf","sona":"9160"},{"rt":96,"stimulus":"<p>Bereit?</p>","key_press":32,"trial_type":"html-keyboard-response","trial_index":159,"time_elapsed":334764,"internal_node_id":"0.0-8.0-0.38","subject":"xgysraet16eulpf","sona":"9160"},{"rt":null,"stimulus":"<div style=\"font-size:60px;\">+</div>","key_press":null,"trial_type":"html-keyboard-response","trial_index":160,"time_elapsed":336800,"internal_node_id":"0.0-8.0-1.38","subject":"xgysraet16eulpf","sona":"9160"},{"trial_type":"turing-test","trial_index":161,"time_elapsed":343193,"internal_node_id":"0.0-8.0-2.38","subject":"xgysraet16eulpf","sona":"9160"},{"rt":298,"stimulus":"<p>Welche Sequenz haben Sie als natürlicher empfunden?</p>","key_press":74,"test_part":"response","test_stimulus":{"position":1,"left":"bvh/vr_prediction_models/model(vcgpdm)-dataset(return-bottle)-mode(MAP)-parts(1)-hold(1)/final-lines.txt","right":"bvh/return-bottle-training1-lines.txt","att_check":false},"trial_type":"html-keyboard-response","trial_index":162,"time_elapsed":343502,"internal_node_id":"0.0-8.0-3.38","subject":"xgysraet16eulpf","sona":"9160"},{"rt":128,"stimulus":"<p>Bereit?</p>","key_press":32,"trial_type":"html-keyboard-response","trial_index":163,"time_elapsed":343637,"internal_node_id":"0.0-8.0-0.39","subject":"xgysraet16eulpf","sona":"9160"},{"rt":null,"stimulus":"<div style=\"font-size:60px;\">+</div>","key_press":null,"trial_type":"html-keyboard-response","trial_index":164,"time_elapsed":345653,"internal_node_id":"0.0-8.0-1.39","subject":"xgysraet16eulpf","sona":"9160"},{"trial_type":"turing-test","trial_index":165,"time_elapsed":349014,"internal_node_id":"0.0-8.0-2.39","subject":"xgysraet16eulpf","sona":"9160"},{"rt":1465,"stimulus":"<p>Welche Sequenz haben Sie als natürlicher empfunden?</p>","key_press":74,"test_part":"response","test_stimulus":{"position":1,"left":"bvh/vr_prediction_models/model(dmp)-dataset(pass-bottle-hold)-npsi(50)-hold(1)/final-lines.txt","right":"bvh/pass-bottle-hold-training1-lines.txt","att_check":false},"trial_type":"html-keyboard-response","trial_index":166,"time_elapsed":350491,"internal_node_id":"0.0-8.0-3.39","subject":"xgysraet16eulpf","sona":"9160"},{"rt":131,"stimulus":"<p>Bereit?</p>","key_press":32,"trial_type":"html-keyboard-response","trial_index":167,"time_elapsed":350626,"internal_node_id":"0.0-8.0-0.40","subject":"xgysraet16eulpf","sona":"9160"},{"rt":null,"stimulus":"<div style=\"font-size:60px;\">+</div>","key_press":null,"trial_type":"html-keyboard-response","trial_index":168,"time_elapsed":352658,"internal_node_id":"0.0-8.0-1.40","subject":"xgysraet16eulpf","sona":"9160"},{"trial_type":"turing-test","trial_index":169,"time_elapsed":358522,"internal_node_id":"0.0-8.0-2.40","subject":"xgysraet16eulpf","sona":"9160"},{"rt":1059,"stimulus":"<p>Welche Sequenz haben Sie als natürlicher empfunden?</p>","key_press":74,"test_part":"response","test_stimulus":{"position":1,"left":"bvh/vr_prediction_models/model(tmp)-dataset(pass-bottle)-numprim(8)-hold(4)/final-lines.txt","right":"bvh/pass-bottle-training4-lines.txt","att_check":false},"trial_type":"html-keyboard-response","trial_index":170,"time_elapsed":359590,"internal_node_id":"0.0-8.0-3.40","subject":"xgysraet16eulpf","sona":"9160"},{"rt":123,"stimulus":"<p>Bereit?</p>","key_press":32,"trial_type":"html-keyboard-response","trial_index":171,"time_elapsed":359721,"internal_node_id":"0.0-8.0-0.41","subject":"xgysraet16eulpf","sona":"9160"},{"rt":null,"stimulus":"<div style=\"font-size:60px;\">+</div>","key_press":null,"trial_type":"html-keyboard-response","trial_index":172,"time_elapsed":361751,"internal_node_id":"0.0-8.0-1.41","subject":"xgysraet16eulpf","sona":"9160"},{"trial_type":"turing-test","trial_index":173,"time_elapsed":365440,"internal_node_id":"0.0-8.0-2.41","subject":"xgysraet16eulpf","sona":"9160"},{"rt":226,"stimulus":"<p>Welche Sequenz haben Sie als natürlicher empfunden?</p>","key_press":70,"test_part":"response","test_stimulus":{"position":0,"left":"bvh/return-bottle-hold-training2-lines.txt","right":"bvh/vr_prediction_models/model(tmp)-dataset(return-bottle-hold)-numprim(10)-hold(2)/final-lines.txt","att_check":false},"trial_type":"html-keyboard-response","trial_index":174,"time_elapsed":365672,"internal_node_id":"0.0-8.0-3.41","subject":"xgysraet16eulpf","sona":"9160"},{"rt":184,"stimulus":"<p>Bereit?</p>","key_press":32,"trial_type":"html-keyboard-response","trial_index":175,"time_elapsed":365865,"internal_node_id":"0.0-8.0-0.42","subject":"xgysraet16eulpf","sona":"9160"},{"rt":null,"stimulus":"<div style=\"font-size:60px;\">+</div>","key_press":null,"trial_type":"html-keyboard-response","trial_index":176,"time_elapsed":367881,"internal_node_id":"0.0-8.0-1.42","subject":"xgysraet16eulpf","sona":"9160"},{"trial_type":"turing-test","trial_index":177,"time_elapsed":371441,"internal_node_id":"0.0-8.0-2.42","subject":"xgysraet16eulpf","sona":"9160"},{"rt":483,"stimulus":"<p>Welche Sequenz haben Sie als natürlicher empfunden?</p>","key_press":74,"test_part":"response","test_stimulus":{"position":1,"left":"bvh/vr_prediction_models/model(vcgpdm)-dataset(pass-bottle-hold)-mode(MAP)-parts(3)-hold(4)/final-lines.txt","right":"bvh/pass-bottle-hold-training4-lines.txt","att_check":false},"trial_type":"html-keyboard-response","trial_index":178,"time_elapsed":371930,"internal_node_id":"0.0-8.0-3.42","subject":"xgysraet16eulpf","sona":"9160"},{"rt":89,"stimulus":"<p>Bereit?</p>","key_press":32,"trial_type":"html-keyboard-response","trial_index":179,"time_elapsed":372026,"internal_node_id":"0.0-8.0-0.43","subject":"xgysraet16eulpf","sona":"9160"},{"rt":null,"stimulus":"<div style=\"font-size:60px;\">+</div>","key_press":null,"trial_type":"html-keyboard-response","trial_index":180,"time_elapsed":374043,"internal_node_id":"0.0-8.0-1.43","subject":"xgysraet16eulpf","sona":"9160"},{"trial_type":"turing-test","trial_index":181,"time_elapsed":381259,"internal_node_id":"0.0-8.0-2.43","subject":"xgysraet16eulpf","sona":"9160"},{"rt":253,"stimulus":"<p>Welche Sequenz haben Sie als natürlicher empfunden?</p>","key_press":74,"test_part":"response","test_stimulus":{"position":1,"left":"bvh/vr_prediction_models/model(vcgpdm)-dataset(pass-bottle)-mode(ELBO)-parts(3)-dyn(30)-lvm(15)-hold(0)/final-lines.txt","right":"bvh/pass-bottle-training0-lines.txt","att_check":false},"trial_type":"html-keyboard-response","trial_index":182,"time_elapsed":381515,"internal_node_id":"0.0-8.0-3.43","subject":"xgysraet16eulpf","sona":"9160"},{"rt":146,"stimulus":"<p>Bereit?</p>","key_press":32,"trial_type":"html-keyboard-response","trial_index":183,"time_elapsed":381664,"internal_node_id":"0.0-8.0-0.44","subject":"xgysraet16eulpf","sona":"9160"},{"rt":null,"stimulus":"<div style=\"font-size:60px;\">+</div>","key_press":null,"trial_type":"html-keyboard-response","trial_index":184,"time_elapsed":383699,"internal_node_id":"0.0-8.0-1.44","subject":"xgysraet16eulpf","sona":"9160"},{"trial_type":"turing-test","trial_index":185,"time_elapsed":387780,"internal_node_id":"0.0-8.0-2.44","subject":"xgysraet16eulpf","sona":"9160"},{"rt":1373,"stimulus":"<p>Welche Sequenz haben Sie als natürlicher empfunden?</p>","key_press":70,"test_part":"response","test_stimulus":{"position":0,"left":"bvh/return-bottle-hold-training4-lines.txt","right":"bvh/vr_prediction_models/model(vcgpdm)-dataset(return-bottle-hold)-mode(ELBO)-parts(3)-dyn(25)-lvm(15)-hold(4)/final-lines.txt","att_check":false},"trial_type":"html-keyboard-response","trial_index":186,"time_elapsed":389160,"internal_node_id":"0.0-8.0-3.44","subject":"xgysraet16eulpf","sona":"9160"},{"rt":211,"stimulus":"<p>Bereit?</p>","key_press":32,"trial_type":"html-keyboard-response","trial_index":187,"time_elapsed":389381,"internal_node_id":"0.0-8.0-0.45","subject":"xgysraet16eulpf","sona":"9160"},{"rt":null,"stimulus":"<div style=\"font-size:60px;\">+</div>","key_press":null,"trial_type":"html-keyboard-response","trial_index":188,"time_elapsed":391400,"internal_node_id":"0.0-8.0-1.45","subject":"xgysraet16eulpf","sona":"9160"},{"trial_type":"turing-test","trial_index":189,"time_elapsed":398555,"internal_node_id":"0.0-8.0-2.45","subject":"xgysraet16eulpf","sona":"9160"},{"rt":624,"stimulus":"<p>Welche Sequenz haben Sie als natürlicher empfunden?</p>","key_press":74,"test_part":"response","test_stimulus":{"position":1,"left":"bvh/vr_prediction_models/model(vcgpdm)-dataset(pass-bottle)-mode(ELBO)-parts(1)-dyn(20)-lvm(5)-hold(0)/final-lines.txt","right":"bvh/pass-bottle-training0-lines.txt","att_check":false},"trial_type":"html-keyboard-response","trial_index":190,"time_elapsed":399184,"internal_node_id":"0.0-8.0-3.45","subject":"xgysraet16eulpf","sona":"9160"},{"rt":122,"stimulus":"<p>Bereit?</p>","key_press":32,"trial_type":"html-keyboard-response","trial_index":191,"time_elapsed":399314,"internal_node_id":"0.0-8.0-0.46","subject":"xgysraet16eulpf","sona":"9160"},{"rt":null,"stimulus":"<div style=\"font-size:60px;\">+</div>","key_press":null,"trial_type":"html-keyboard-response","trial_index":192,"time_elapsed":401336,"internal_node_id":"0.0-8.0-1.46","subject":"xgysraet16eulpf","sona":"9160"},{"trial_type":"turing-test","trial_index":193,"time_elapsed":406934,"internal_node_id":"0.0-8.0-2.46","subject":"xgysraet16eulpf","sona":"9160"},{"rt":330,"stimulus":"<p>Welche Sequenz haben Sie als natürlicher empfunden?</p>","key_press":70,"test_part":"response","test_stimulus":{"position":0,"left":"bvh/pass-bottle-training1-lines.txt","right":"bvh/vr_prediction_models/model(dmp)-dataset(pass-bottle)-npsi(100)-hold(1)/final-lines.txt","att_check":false},"trial_type":"html-keyboard-response","trial_index":194,"time_elapsed":407278,"internal_node_id":"0.0-8.0-3.46","subject":"xgysraet16eulpf","sona":"9160"},{"rt":154,"stimulus":"<p>Bereit?</p>","key_press":32,"trial_type":"html-keyboard-response","trial_index":195,"time_elapsed":407440,"internal_node_id":"0.0-8.0-0.47","subject":"xgysraet16eulpf","sona":"9160"},{"rt":null,"stimulus":"<div style=\"font-size:60px;\">+</div>","key_press":null,"trial_type":"html-keyboard-response","trial_index":196,"time_elapsed":409465,"internal_node_id":"0.0-8.0-1.47","subject":"xgysraet16eulpf","sona":"9160"},{"trial_type":"turing-test","trial_index":197,"time_elapsed":415436,"internal_node_id":"0.0-8.0-2.47","subject":"xgysraet16eulpf","sona":"9160"},{"rt":463,"stimulus":"<p>Welche Sequenz haben Sie als natürlicher empfunden?</p>","key_press":70,"test_part":"response","test_stimulus":{"position":1,"left":"bvh/vr_prediction_models/model(tmp)-dataset(pass-bottle)-numprim(6)-hold(3)/final-lines.txt","right":"bvh/pass-bottle-training3-lines.txt","att_check":false},"trial_type":"html-keyboard-response","trial_index":198,"time_elapsed":415908,"internal_node_id":"0.0-8.0-3.47","subject":"xgysraet16eulpf","sona":"9160"},{"rt":164,"stimulus":"<p>Bereit?</p>","key_press":32,"trial_type":"html-keyboard-response","trial_index":199,"time_elapsed":416082,"internal_node_id":"0.0-8.0-0.48","subject":"xgysraet16eulpf","sona":"9160"},{"rt":null,"stimulus":"<div style=\"font-size:60px;\">+</div>","key_press":null,"trial_type":"html-keyboard-response","trial_index":200,"time_elapsed":418115,"internal_node_id":"0.0-8.0-1.48","subject":"xgysraet16eulpf","sona":"9160"},{"trial_type":"turing-test","trial_index":201,"time_elapsed":424982,"internal_node_id":"0.0-8.0-2.48","subject":"xgysraet16eulpf","sona":"9160"},{"rt":1352,"stimulus":"<p>Welche Sequenz haben Sie als natürlicher empfunden?</p>","key_press":74,"test_part":"response","test_stimulus":{"position":0,"left":"bvh/return-bottle-training2-lines.txt","right":"bvh/vr_prediction_models/model(tmp)-dataset(return-bottle)-numprim(15)-hold(2)/final-lines.txt","att_check":false},"trial_type":"html-keyboard-response","trial_index":202,"time_elapsed":426346,"internal_node_id":"0.0-8.0-3.48","subject":"xgysraet16eulpf","sona":"9160"},{"rt":147,"stimulus":"<p>Bereit?</p>","key_press":32,"trial_type":"html-keyboard-response","trial_index":203,"time_elapsed":426502,"internal_node_id":"0.0-8.0-0.49","subject":"xgysraet16eulpf","sona":"9160"},{"rt":null,"stimulus":"<div style=\"font-size:60px;\">+</div>","key_press":null,"trial_type":"html-keyboard-response","trial_index":204,"time_elapsed":428525,"internal_node_id":"0.0-8.0-1.49","subject":"xgysraet16eulpf","sona":"9160"},{"trial_type":"turing-test","trial_index":205,"time_elapsed":434755,"internal_node_id":"0.0-8.0-2.49","subject":"xgysraet16eulpf","sona":"9160"},{"rt":283,"stimulus":"<p>Welche Sequenz haben Sie als natürlicher empfunden?</p>","key_press":70,"test_part":"response","test_stimulus":{"position":1,"left":"bvh/vr_prediction_models/model(vcgpdm)-dataset(pass-bottle)-mode(ELBO)-parts(1)-dyn(20)-lvm(20)-hold(4)/final-lines.txt","right":"bvh/pass-bottle-training4-lines.txt","att_check":false},"trial_type":"html-keyboard-response","trial_index":206,"time_elapsed":435048,"internal_node_id":"0.0-8.0-3.49","subject":"xgysraet16eulpf","sona":"9160"},{"rt":159,"stimulus":"<p>Bereit?</p>","key_press":32,"trial_type":"html-keyboard-response","trial_index":207,"time_elapsed":435222,"internal_node_id":"0.0-8.0-0.50","subject":"xgysraet16eulpf","sona":"9160"},{"rt":null,"stimulus":"<div style=\"font-size:60px;\">+</div>","key_press":null,"trial_type":"html-keyboard-response","trial_index":208,"time_elapsed":437237,"internal_node_id":"0.0-8.0-1.50","subject":"xgysraet16eulpf","sona":"9160"},{"trial_type":"turing-test","trial_index":209,"time_elapsed":440929,"internal_node_id":"0.0-8.0-2.50","subject":"xgysraet16eulpf","sona":"9160"},{"rt":676,"stimulus":"<p>Welche Sequenz haben Sie als natürlicher empfunden?</p>","key_press":74,"test_part":"response","test_stimulus":{"position":0,"left":"bvh/pass-bottle-hold-training4-lines.txt","right":"bvh/vr_prediction_models/model(dmp)-dataset(pass-bottle-hold)-npsi(30)-hold(4)/final-lines.txt","att_check":true},"trial_type":"html-keyboard-response","trial_index":210,"time_elapsed":441614,"internal_node_id":"0.0-8.0-3.50","subject":"xgysraet16eulpf","sona":"9160"},{"rt":113,"stimulus":"<p>Bereit?</p>","key_press":32,"trial_type":"html-keyboard-response","trial_index":211,"time_elapsed":441737,"internal_node_id":"0.0-8.0-0.51","subject":"xgysraet16eulpf","sona":"9160"},{"rt":null,"stimulus":"<div style=\"font-size:60px;\">+</div>","key_press":null,"trial_type":"html-keyboard-response","trial_index":212,"time_elapsed":443748,"internal_node_id":"0.0-8.0-1.51","subject":"xgysraet16eulpf","sona":"9160"},{"trial_type":"turing-test","trial_index":213,"time_elapsed":450777,"internal_node_id":"0.0-8.0-2.51","subject":"xgysraet16eulpf","sona":"9160"},{"rt":283,"stimulus":"<p>Welche Sequenz haben Sie als natürlicher empfunden?</p>","key_press":70,"test_part":"response","test_stimulus":{"position":0,"left":"bvh/pass-bottle-training0-lines.txt","right":"bvh/vr_prediction_models/model(dmp)-dataset(pass-bottle)-npsi(90)-hold(0)/final-lines.txt","att_check":false},"trial_type":"html-keyboard-response","trial_index":214,"time_elapsed":451069,"internal_node_id":"0.0-8.0-3.51","subject":"xgysraet16eulpf","sona":"9160"},{"rt":185,"stimulus":"<p>Bereit?</p>","key_press":32,"trial_type":"html-keyboard-response","trial_index":215,"time_elapsed":451264,"internal_node_id":"0.0-8.0-0.52","subject":"xgysraet16eulpf","sona":"9160"},{"rt":null,"stimulus":"<div style=\"font-size:60px;\">+</div>","key_press":null,"trial_type":"html-keyboard-response","trial_index":216,"time_elapsed":453299,"internal_node_id":"0.0-8.0-1.52","subject":"xgysraet16eulpf","sona":"9160"},{"trial_type":"turing-test","trial_index":217,"time_elapsed":457031,"internal_node_id":"0.0-8.0-2.52","subject":"xgysraet16eulpf","sona":"9160"},{"rt":1070,"stimulus":"<p>Welche Sequenz haben Sie als natürlicher empfunden?</p>","key_press":70,"test_part":"response","test_stimulus":{"position":0,"left":"bvh/return-bottle-hold-training1-lines.txt","right":"bvh/vr_prediction_models/model(vcgpdm)-dataset(return-bottle-hold)-mode(ELBO)-parts(3)-dyn(20)-lvm(35)-hold(1)/final-lines.txt","att_check":false},"trial_type":"html-keyboard-response","trial_index":218,"time_elapsed":458124,"internal_node_id":"0.0-8.0-3.52","subject":"xgysraet16eulpf","sona":"9160"},{"rt":158,"stimulus":"<p>Bereit?</p>","key_press":32,"trial_type":"html-keyboard-response","trial_index":219,"time_elapsed":458297,"internal_node_id":"0.0-8.0-0.53","subject":"xgysraet16eulpf","sona":"9160"},{"rt":null,"stimulus":"<div style=\"font-size:60px;\">+</div>","key_press":null,"trial_type":"html-keyboard-response","trial_index":220,"time_elapsed":460321,"internal_node_id":"0.0-8.0-1.53","subject":"xgysraet16eulpf","sona":"9160"},{"trial_type":"turing-test","trial_index":221,"time_elapsed":463989,"internal_node_id":"0.0-8.0-2.53","subject":"xgysraet16eulpf","sona":"9160"},{"rt":167,"stimulus":"<p>Welche Sequenz haben Sie als natürlicher empfunden?</p>","key_press":74,"test_part":"response","test_stimulus":{"position":0,"left":"bvh/pass-bottle-hold-training0-lines.txt","right":"bvh/vr_prediction_models/model(vcgpdm)-dataset(pass-bottle-hold)-mode(ELBO)-parts(1)-dyn(25)-lvm(35)-hold(0)/final-lines.txt","att_check":false},"trial_type":"html-keyboard-response","trial_index":222,"time_elapsed":464167,"internal_node_id":"0.0-8.0-3.53","subject":"xgysraet16eulpf","sona":"9160"},{"rt":99,"stimulus":"<p>Bereit?</p>","key_press":32,"trial_type":"html-keyboard-response","trial_index":223,"time_elapsed":464280,"internal_node_id":"0.0-8.0-0.54","subject":"xgysraet16eulpf","sona":"9160"},{"rt":null,"stimulus":"<div style=\"font-size:60px;\">+</div>","key_press":null,"trial_type":"html-keyboard-response","trial_index":224,"time_elapsed":466320,"internal_node_id":"0.0-8.0-1.54","subject":"xgysraet16eulpf","sona":"9160"},{"trial_type":"turing-test","trial_index":225,"time_elapsed":472320,"internal_node_id":"0.0-8.0-2.54","subject":"xgysraet16eulpf","sona":"9160"},{"rt":390,"stimulus":"<p>Welche Sequenz haben Sie als natürlicher empfunden?</p>","key_press":74,"test_part":"response","test_stimulus":{"position":0,"left":"bvh/return-bottle-training3-lines.txt","right":"bvh/vr_prediction_models/model(vcgpdm)-dataset(return-bottle)-mode(ELBO)-parts(3)-dyn(10)-lvm(25)-hold(3)/final-lines.txt","att_check":false},"trial_type":"html-keyboard-response","trial_index":226,"time_elapsed":472723,"internal_node_id":"0.0-8.0-3.54","subject":"xgysraet16eulpf","sona":"9160"},{"rt":149,"stimulus":"<p>Bereit?</p>","key_press":32,"trial_type":"html-keyboard-response","trial_index":227,"time_elapsed":472885,"internal_node_id":"0.0-8.0-0.55","subject":"xgysraet16eulpf","sona":"9160"},{"rt":null,"stimulus":"<div style=\"font-size:60px;\">+</div>","key_press":null,"trial_type":"html-keyboard-response","trial_index":228,"time_elapsed":474919,"internal_node_id":"0.0-8.0-1.55","subject":"xgysraet16eulpf","sona":"9160"},{"trial_type":"turing-test","trial_index":229,"time_elapsed":480637,"internal_node_id":"0.0-8.0-2.55","subject":"xgysraet16eulpf","sona":"9160"},{"rt":286,"stimulus":"<p>Welche Sequenz haben Sie als natürlicher empfunden?</p>","key_press":74,"test_part":"response","test_stimulus":{"position":1,"left":"bvh/vr_prediction_models/model(vcgpdm)-dataset(return-bottle)-mode(ELBO)-parts(1)-dyn(20)-lvm(5)-hold(0)/final-lines.txt","right":"bvh/return-bottle-training0-lines.txt","att_check":false},"trial_type":"html-keyboard-response","trial_index":230,"time_elapsed":480938,"internal_node_id":"0.0-8.0-3.55","subject":"xgysraet16eulpf","sona":"9160"},{"rt":159,"stimulus":"<p>Bereit?</p>","key_press":32,"trial_type":"html-keyboard-response","trial_index":231,"time_elapsed":481109,"internal_node_id":"0.0-8.0-0.56","subject":"xgysraet16eulpf","sona":"9160"},{"rt":null,"stimulus":"<div style=\"font-size:60px;\">+</div>","key_press":null,"trial_type":"html-keyboard-response","trial_index":232,"time_elapsed":483137,"internal_node_id":"0.0-8.0-1.56","subject":"xgysraet16eulpf","sona":"9160"},{"trial_type":"turing-test","trial_index":233,"time_elapsed":489164,"internal_node_id":"0.0-8.0-2.56","subject":"xgysraet16eulpf","sona":"9160"},{"rt":844,"stimulus":"<p>Welche Sequenz haben Sie als natürlicher empfunden?</p>","key_press":74,"test_part":"response","test_stimulus":{"position":1,"left":"bvh/vr_prediction_models/model(vcgpdm)-dataset(pass-bottle)-mode(ELBO)-parts(3)-dyn(20)-lvm(15)-hold(1)/final-lines.txt","right":"bvh/pass-bottle-training1-lines.txt","att_check":false},"trial_type":"html-keyboard-response","trial_index":234,"time_elapsed":490011,"internal_node_id":"0.0-8.0-3.56","subject":"xgysraet16eulpf","sona":"9160"},{"rt":201,"stimulus":"<p>Bereit?</p>","key_press":32,"trial_type":"html-keyboard-response","trial_index":235,"time_elapsed":490219,"internal_node_id":"0.0-8.0-0.57","subject":"xgysraet16eulpf","sona":"9160"},{"rt":null,"stimulus":"<div style=\"font-size:60px;\">+</div>","key_press":null,"trial_type":"html-keyboard-response","trial_index":236,"time_elapsed":492224,"internal_node_id":"0.0-8.0-1.57","subject":"xgysraet16eulpf","sona":"9160"},{"trial_type":"turing-test","trial_index":237,"time_elapsed":496300,"internal_node_id":"0.0-8.0-2.57","subject":"xgysraet16eulpf","sona":"9160"},{"rt":406,"stimulus":"<p>Welche Sequenz haben Sie als natürlicher empfunden?</p>","key_press":70,"test_part":"response","test_stimulus":{"position":0,"left":"bvh/return-bottle-hold-training4-lines.txt","right":"bvh/vr_prediction_models/model(vcgpdm)-dataset(return-bottle-hold)-mode(ELBO)-parts(1)-dyn(20)-lvm(30)-hold(4)/final-lines.txt","att_check":false},"trial_type":"html-keyboard-response","trial_index":238,"time_elapsed":496716,"internal_node_id":"0.0-8.0-3.57","subject":"xgysraet16eulpf","sona":"9160"},{"rt":224,"stimulus":"<p>Bereit?</p>","key_press":32,"trial_type":"html-keyboard-response","trial_index":239,"time_elapsed":496949,"internal_node_id":"0.0-8.0-0.58","subject":"xgysraet16eulpf","sona":"9160"},{"rt":null,"stimulus":"<div style=\"font-size:60px;\">+</div>","key_press":null,"trial_type":"html-keyboard-response","trial_index":240,"time_elapsed":498970,"internal_node_id":"0.0-8.0-1.58","subject":"xgysraet16eulpf","sona":"9160"},{"trial_type":"turing-test","trial_index":241,"time_elapsed":502623,"internal_node_id":"0.0-8.0-2.58","subject":"xgysraet16eulpf","sona":"9160"},{"rt":269,"stimulus":"<p>Welche Sequenz haben Sie als natürlicher empfunden?</p>","key_press":70,"test_part":"response","test_stimulus":{"position":1,"left":"bvh/vr_prediction_models/model(dmp)-dataset(pass-bottle-hold)-npsi(70)-hold(3)/final-lines.txt","right":"bvh/pass-bottle-hold-training3-lines.txt","att_check":false},"trial_type":"html-keyboard-response","trial_index":242,"time_elapsed":502903,"internal_node_id":"0.0-8.0-3.58","subject":"xgysraet16eulpf","sona":"9160"},{"rt":215,"stimulus":"<p>Bereit?</p>","key_press":32,"trial_type":"html-keyboard-response","trial_index":243,"time_elapsed":503127,"internal_node_id":"0.0-8.0-0.59","subject":"xgysraet16eulpf","sona":"9160"},{"rt":null,"stimulus":"<div style=\"font-size:60px;\">+</div>","key_press":null,"trial_type":"html-keyboard-response","trial_index":244,"time_elapsed":505164,"internal_node_id":"0.0-8.0-1.59","subject":"xgysraet16eulpf","sona":"9160"},{"trial_type":"turing-test","trial_index":245,"time_elapsed":510887,"internal_node_id":"0.0-8.0-2.59","subject":"xgysraet16eulpf","sona":"9160"},{"rt":876,"stimulus":"<p>Welche Sequenz haben Sie als natürlicher empfunden?</p>","key_press":74,"test_part":"response","test_stimulus":{"position":1,"left":"bvh/vr_prediction_models/model(vcgpdm)-dataset(return-bottle)-mode(ELBO)-parts(1)-dyn(35)-lvm(30)-hold(0)/final-lines.txt","right":"bvh/return-bottle-training0-lines.txt","att_check":false},"trial_type":"html-keyboard-response","trial_index":246,"time_elapsed":511773,"internal_node_id":"0.0-8.0-3.59","subject":"xgysraet16eulpf","sona":"9160"},{"rt":334,"stimulus":"<p>Bereit?</p>","key_press":32,"trial_type":"html-keyboard-response","trial_index":247,"time_elapsed":512118,"internal_node_id":"0.0-8.0-0.60","subject":"xgysraet16eulpf","sona":"9160"},{"rt":null,"stimulus":"<div style=\"font-size:60px;\">+</div>","key_press":null,"trial_type":"html-keyboard-response","trial_index":248,"time_elapsed":514158,"internal_node_id":"0.0-8.0-1.60","subject":"xgysraet16eulpf","sona":"9160"},{"trial_type":"turing-test","trial_index":249,"time_elapsed":518077,"internal_node_id":"0.0-8.0-2.60","subject":"xgysraet16eulpf","sona":"9160"},{"rt":845,"stimulus":"<p>Welche Sequenz haben Sie als natürlicher empfunden?</p>","key_press":74,"test_part":"response","test_stimulus":{"position":0,"left":"bvh/pass-bottle-hold-training4-lines.txt","right":"bvh/vr_prediction_models/model(vcgpdm)-dataset(pass-bottle-hold)-mode(ELBO)-parts(1)-dyn(10)-lvm(5)-hold(4)/final-lines.txt","att_check":false},"trial_type":"html-keyboard-response","trial_index":250,"time_elapsed":518935,"internal_node_id":"0.0-8.0-3.60","subject":"xgysraet16eulpf","sona":"9160"},{"rt":142,"stimulus":"<p>Bereit?</p>","key_press":32,"trial_type":"html-keyboard-response","trial_index":251,"time_elapsed":519092,"internal_node_id":"0.0-8.0-0.61","subject":"xgysraet16eulpf","sona":"9160"},{"rt":null,"stimulus":"<div style=\"font-size:60px;\">+</div>","key_press":null,"trial_type":"html-keyboard-response","trial_index":252,"time_elapsed":521117,"internal_node_id":"0.0-8.0-1.61","subject":"xgysraet16eulpf","sona":"9160"},{"trial_type":"turing-test","trial_index":253,"time_elapsed":527164,"internal_node_id":"0.0-8.0-2.61","subject":"xgysraet16eulpf","sona":"9160"},{"rt":497,"stimulus":"<p>Welche Sequenz haben Sie als natürlicher empfunden?</p>","key_press":70,"test_part":"response","test_stimulus":{"position":0,"left":"bvh/return-bottle-training3-lines.txt","right":"bvh/vr_prediction_models/model(vcgpdm)-dataset(return-bottle)-mode(ELBO)-parts(1)-dyn(30)-lvm(35)-hold(3)/final-lines.txt","att_check":false},"trial_type":"html-keyboard-response","trial_index":254,"time_elapsed":527674,"internal_node_id":"0.0-8.0-3.61","subject":"xgysraet16eulpf","sona":"9160"},{"rt":173,"stimulus":"<p>Bereit?</p>","key_press":32,"trial_type":"html-keyboard-response","trial_index":255,"time_elapsed":527850,"internal_node_id":"0.0-8.0-0.62","subject":"xgysraet16eulpf","sona":"9160"},{"rt":null,"stimulus":"<div style=\"font-size:60px;\">+</div>","key_press":null,"trial_type":"html-keyboard-response","trial_index":256,"time_elapsed":529874,"internal_node_id":"0.0-8.0-1.62","subject":"xgysraet16eulpf","sona":"9160"},{"trial_type":"turing-test","trial_index":257,"time_elapsed":535972,"internal_node_id":"0.0-8.0-2.62","subject":"xgysraet16eulpf","sona":"9160"},{"rt":238,"stimulus":"<p>Welche Sequenz haben Sie als natürlicher empfunden?</p>","key_press":70,"test_part":"response","test_stimulus":{"position":0,"left":"bvh/pass-bottle-training4-lines.txt","right":"bvh/vr_prediction_models/model(vcgpdm)-dataset(pass-bottle)-mode(ELBO)-parts(3)-dyn(25)-lvm(15)-hold(4)/final-lines.txt","att_check":false},"trial_type":"html-keyboard-response","trial_index":258,"time_elapsed":536223,"internal_node_id":"0.0-8.0-3.62","subject":"xgysraet16eulpf","sona":"9160"},{"rt":133,"stimulus":"<p>Bereit?</p>","key_press":32,"trial_type":"html-keyboard-response","trial_index":259,"time_elapsed":536368,"internal_node_id":"0.0-8.0-0.63","subject":"xgysraet16eulpf","sona":"9160"},{"rt":null,"stimulus":"<div style=\"font-size:60px;\">+</div>","key_press":null,"trial_type":"html-keyboard-response","trial_index":260,"time_elapsed":538382,"internal_node_id":"0.0-8.0-1.63","subject":"xgysraet16eulpf","sona":"9160"},{"trial_type":"turing-test","trial_index":261,"time_elapsed":544434,"internal_node_id":"0.0-8.0-2.63","subject":"xgysraet16eulpf","sona":"9160"},{"rt":1292,"stimulus":"<p>Welche Sequenz haben Sie als natürlicher empfunden?</p>","key_press":74,"test_part":"response","test_stimulus":{"position":1,"left":"bvh/vr_prediction_models/model(tmp)-dataset(pass-bottle)-numprim(4)-hold(3)/final-lines.txt","right":"bvh/pass-bottle-training3-lines.txt","att_check":false},"trial_type":"html-keyboard-response","trial_index":262,"time_elapsed":545729,"internal_node_id":"0.0-8.0-3.63","subject":"xgysraet16eulpf","sona":"9160"},{"rt":138,"stimulus":"<p>Bereit?</p>","key_press":32,"trial_type":"html-keyboard-response","trial_index":263,"time_elapsed":545871,"internal_node_id":"0.0-8.0-0.64","subject":"xgysraet16eulpf","sona":"9160"},{"rt":null,"stimulus":"<div style=\"font-size:60px;\">+</div>","key_press":null,"trial_type":"html-keyboard-response","trial_index":264,"time_elapsed":547884,"internal_node_id":"0.0-8.0-1.64","subject":"xgysraet16eulpf","sona":"9160"},{"trial_type":"turing-test","trial_index":265,"time_elapsed":551533,"internal_node_id":"0.0-8.0-2.64","subject":"xgysraet16eulpf","sona":"9160"},{"rt":466,"stimulus":"<p>Welche Sequenz haben Sie als natürlicher empfunden?</p>","key_press":70,"test_part":"response","test_stimulus":{"position":1,"left":"bvh/vr_prediction_models/model(vcgpdm)-dataset(return-bottle-hold)-mode(ELBO)-parts(3)-dyn(25)-lvm(15)-hold(4)/final-lines.txt","right":"bvh/return-bottle-hold-training4-lines.txt","att_check":false},"trial_type":"html-keyboard-response","trial_index":266,"time_elapsed":552004,"internal_node_id":"0.0-8.0-3.64","subject":"xgysraet16eulpf","sona":"9160"},{"rt":174,"stimulus":"<p>Bereit?</p>","key_press":32,"trial_type":"html-keyboard-response","trial_index":267,"time_elapsed":552182,"internal_node_id":"0.0-8.0-0.65","subject":"xgysraet16eulpf","sona":"9160"},{"rt":null,"stimulus":"<div style=\"font-size:60px;\">+</div>","key_press":null,"trial_type":"html-keyboard-response","trial_index":268,"time_elapsed":554211,"internal_node_id":"0.0-8.0-1.65","subject":"xgysraet16eulpf","sona":"9160"},{"trial_type":"turing-test","trial_index":269,"time_elapsed":560328,"internal_node_id":"0.0-8.0-2.65","subject":"xgysraet16eulpf","sona":"9160"},{"rt":4085,"stimulus":"<p>Welche Sequenz haben Sie als natürlicher empfunden?</p>","key_press":74,"test_part":"response","test_stimulus":{"position":0,"left":"bvh/pass-bottle-training2-lines.txt","right":"bvh/vr_prediction_models/model(dmp)-dataset(pass-bottle)-npsi(50)-hold(2)/final-lines.txt","att_check":false},"trial_type":"html-keyboard-response","trial_index":270,"time_elapsed":564422,"internal_node_id":"0.0-8.0-3.65","subject":"xgysraet16eulpf","sona":"9160"},{"rt":152,"stimulus":"<p>Bereit?</p>","key_press":32,"trial_type":"html-keyboard-response","trial_index":271,"time_elapsed":564584,"internal_node_id":"0.0-8.0-0.66","subject":"xgysraet16eulpf","sona":"9160"},{"rt":null,"stimulus":"<div style=\"font-size:60px;\">+</div>","key_press":null,"trial_type":"html-keyboard-response","trial_index":272,"time_elapsed":566606,"internal_node_id":"0.0-8.0-1.66","subject":"xgysraet16eulpf","sona":"9160"},{"trial_type":"turing-test","trial_index":273,"time_elapsed":573390,"internal_node_id":"0.0-8.0-2.66","subject":"xgysraet16eulpf","sona":"9160"},{"rt":367,"stimulus":"<p>Welche Sequenz haben Sie als natürlicher empfunden?</p>","key_press":70,"test_part":"response","test_stimulus":{"position":0,"left":"bvh/return-bottle-training2-lines.txt","right":"bvh/vr_prediction_models/model(dmp)-dataset(return-bottle)-npsi(90)-hold(2)/final-lines.txt","att_check":false},"trial_type":"html-keyboard-response","trial_index":274,"time_elapsed":573762,"internal_node_id":"0.0-8.0-3.66","subject":"xgysraet16eulpf","sona":"9160"},{"rt":172,"stimulus":"<p>Bereit?</p>","key_press":32,"trial_type":"html-keyboard-response","trial_index":275,"time_elapsed":573945,"internal_node_id":"0.0-8.0-0.67","subject":"xgysraet16eulpf","sona":"9160"},{"rt":null,"stimulus":"<div style=\"font-size:60px;\">+</div>","key_press":null,"trial_type":"html-keyboard-response","trial_index":276,"time_elapsed":575958,"internal_node_id":"0.0-8.0-1.67","subject":"xgysraet16eulpf","sona":"9160"},{"trial_type":"turing-test","trial_index":277,"time_elapsed":579818,"internal_node_id":"0.0-8.0-2.67","subject":"xgysraet16eulpf","sona":"9160"},{"rt":263,"stimulus":"<p>Welche Sequenz haben Sie als natürlicher empfunden?</p>","key_press":70,"test_part":"response","test_stimulus":{"position":0,"left":"bvh/return-bottle-hold-training2-lines.txt","right":"bvh/vr_prediction_models/model(vcgpdm)-dataset(return-bottle-hold)-mode(ELBO)-parts(3)-dyn(10)-lvm(25)-hold(2)/final-lines.txt","att_check":false},"trial_type":"html-keyboard-response","trial_index":278,"time_elapsed":580093,"internal_node_id":"0.0-8.0-3.67","subject":"xgysraet16eulpf","sona":"9160"},{"rt":12955,"stimulus":"<p>Bereit?</p>","key_press":32,"trial_type":"html-keyboard-response","trial_index":279,"time_elapsed":593059,"internal_node_id":"0.0-8.0-0.68","subject":"xgysraet16eulpf","sona":"9160"},{"rt":null,"stimulus":"<div style=\"font-size:60px;\">+</div>","key_press":null,"trial_type":"html-keyboard-response","trial_index":280,"time_elapsed":595100,"internal_node_id":"0.0-8.0-1.68","subject":"xgysraet16eulpf","sona":"9160"},{"trial_type":"turing-test","trial_index":281,"time_elapsed":601954,"internal_node_id":"0.0-8.0-2.68","subject":"xgysraet16eulpf","sona":"9160"},{"rt":277,"stimulus":"<p>Welche Sequenz haben Sie als natürlicher empfunden?</p>","key_press":70,"test_part":"response","test_stimulus":{"position":0,"left":"bvh/return-bottle-training2-lines.txt","right":"bvh/vr_prediction_models/model(vcgpdm)-dataset(return-bottle)-mode(ELBO)-parts(3)-dyn(10)-lvm(25)-hold(2)/final-lines.txt","att_check":false},"trial_type":"html-keyboard-response","trial_index":282,"time_elapsed":602244,"internal_node_id":"0.0-8.0-3.68","subject":"xgysraet16eulpf","sona":"9160"},{"rt":226,"stimulus":"<p>Bereit?</p>","key_press":32,"trial_type":"html-keyboard-response","trial_index":283,"time_elapsed":602482,"internal_node_id":"0.0-8.0-0.69","subject":"xgysraet16eulpf","sona":"9160"},{"rt":null,"stimulus":"<div style=\"font-size:60px;\">+</div>","key_press":null,"trial_type":"html-keyboard-response","trial_index":284,"time_elapsed":604514,"internal_node_id":"0.0-8.0-1.69","subject":"xgysraet16eulpf","sona":"9160"},{"trial_type":"turing-test","trial_index":285,"time_elapsed":610019,"internal_node_id":"0.0-8.0-2.69","subject":"xgysraet16eulpf","sona":"9160"},{"rt":932,"stimulus":"<p>Welche Sequenz haben Sie als natürlicher empfunden?</p>","key_press":74,"test_part":"response","test_stimulus":{"position":0,"left":"bvh/return-bottle-training0-lines.txt","right":"bvh/vr_prediction_models/model(dmp)-dataset(return-bottle)-npsi(60)-hold(0)/final-lines.txt","att_check":false},"trial_type":"html-keyboard-response","trial_index":286,"time_elapsed":610964,"internal_node_id":"0.0-8.0-3.69","subject":"xgysraet16eulpf","sona":"9160"},{"rt":156,"stimulus":"<p>Bereit?</p>","key_press":32,"trial_type":"html-keyboard-response","trial_index":287,"time_elapsed":611130,"internal_node_id":"0.0-8.0-0.70","subject":"xgysraet16eulpf","sona":"9160"},{"rt":null,"stimulus":"<div style=\"font-size:60px;\">+</div>","key_press":null,"trial_type":"html-keyboard-response","trial_index":288,"time_elapsed":613150,"internal_node_id":"0.0-8.0-1.70","subject":"xgysraet16eulpf","sona":"9160"},{"trial_type":"turing-test","trial_index":289,"time_elapsed":617148,"internal_node_id":"0.0-8.0-2.70","subject":"xgysraet16eulpf","sona":"9160"},{"rt":234,"stimulus":"<p>Welche Sequenz haben Sie als natürlicher empfunden?</p>","key_press":74,"test_part":"response","test_stimulus":{"position":1,"left":"bvh/vr_prediction_models/model(vcgpdm)-dataset(return-bottle-hold)-mode(ELBO)-parts(3)-dyn(10)-lvm(10)-hold(3)/final-lines.txt","right":"bvh/return-bottle-hold-training3-lines.txt","att_check":false},"trial_type":"html-keyboard-response","trial_index":290,"time_elapsed":617395,"internal_node_id":"0.0-8.0-3.70","subject":"xgysraet16eulpf","sona":"9160"},{"rt":125,"stimulus":"<p>Bereit?</p>","key_press":32,"trial_type":"html-keyboard-response","trial_index":291,"time_elapsed":617534,"internal_node_id":"0.0-8.0-0.71","subject":"xgysraet16eulpf","sona":"9160"},{"rt":null,"stimulus":"<div style=\"font-size:60px;\">+</div>","key_press":null,"trial_type":"html-keyboard-response","trial_index":292,"time_elapsed":619548,"internal_node_id":"0.0-8.0-1.71","subject":"xgysraet16eulpf","sona":"9160"},{"trial_type":"turing-test","trial_index":293,"time_elapsed":623118,"internal_node_id":"0.0-8.0-2.71","subject":"xgysraet16eulpf","sona":"9160"},{"rt":1826,"stimulus":"<p>Welche Sequenz haben Sie als natürlicher empfunden?</p>","key_press":74,"test_part":"response","test_stimulus":{"position":1,"left":"bvh/vr_prediction_models/model(tmp)-dataset(return-bottle-hold)-numprim(15)-hold(2)/final-lines.txt","right":"bvh/return-bottle-hold-training2-lines.txt","att_check":false},"trial_type":"html-keyboard-response","trial_index":294,"time_elapsed":624964,"internal_node_id":"0.0-8.0-3.71","subject":"xgysraet16eulpf","sona":"9160"},{"rt":126,"stimulus":"<p>Bereit?</p>","key_press":32,"trial_type":"html-keyboard-response","trial_index":295,"time_elapsed":625102,"internal_node_id":"0.0-8.0-0.72","subject":"xgysraet16eulpf","sona":"9160"},{"rt":null,"stimulus":"<div style=\"font-size:60px;\">+</div>","key_press":null,"trial_type":"html-keyboard-response","trial_index":296,"time_elapsed":627139,"internal_node_id":"0.0-8.0-1.72","subject":"xgysraet16eulpf","sona":"9160"},{"trial_type":"turing-test","trial_index":297,"time_elapsed":630971,"internal_node_id":"0.0-8.0-2.72","subject":"xgysraet16eulpf","sona":"9160"},{"rt":245,"stimulus":"<p>Welche Sequenz haben Sie als natürlicher empfunden?</p>","key_press":70,"test_part":"response","test_stimulus":{"position":0,"left":"bvh/return-bottle-hold-training2-lines.txt","right":"bvh/vr_prediction_models/model(vcgpdm)-dataset(return-bottle-hold)-mode(ELBO)-parts(1)-dyn(30)-lvm(20)-hold(2)/final-lines.txt","att_check":false},"trial_type":"html-keyboard-response","trial_index":298,"time_elapsed":631227,"internal_node_id":"0.0-8.0-3.72","subject":"xgysraet16eulpf","sona":"9160"},{"rt":170,"stimulus":"<p>Bereit?</p>","key_press":32,"trial_type":"html-keyboard-response","trial_index":299,"time_elapsed":631408,"internal_node_id":"0.0-8.0-0.73","subject":"xgysraet16eulpf","sona":"9160"},{"rt":null,"stimulus":"<div style=\"font-size:60px;\">+</div>","key_press":null,"trial_type":"html-keyboard-response","trial_index":300,"time_elapsed":633432,"internal_node_id":"0.0-8.0-1.73","subject":"xgysraet16eulpf","sona":"9160"},{"trial_type":"turing-test","trial_index":301,"time_elapsed":639769,"internal_node_id":"0.0-8.0-2.73","subject":"xgysraet16eulpf","sona":"9160"},{"rt":213,"stimulus":"<p>Welche Sequenz haben Sie als natürlicher empfunden?</p>","key_press":74,"test_part":"response","test_stimulus":{"position":1,"left":"bvh/vr_prediction_models/model(dmp)-dataset(pass-bottle)-npsi(10)-hold(3)/final-lines.txt","right":"bvh/pass-bottle-training3-lines.txt","att_check":false},"trial_type":"html-keyboard-response","trial_index":302,"time_elapsed":639987,"internal_node_id":"0.0-8.0-3.73","subject":"xgysraet16eulpf","sona":"9160"},{"rt":116,"stimulus":"<p>Bereit?</p>","key_press":32,"trial_type":"html-keyboard-response","trial_index":303,"time_elapsed":640113,"internal_node_id":"0.0-8.0-0.74","subject":"xgysraet16eulpf","sona":"9160"},{"rt":null,"stimulus":"<div style=\"font-size:60px;\">+</div>","key_press":null,"trial_type":"html-keyboard-response","trial_index":304,"time_elapsed":642140,"internal_node_id":"0.0-8.0-1.74","subject":"xgysraet16eulpf","sona":"9160"},{"trial_type":"turing-test","trial_index":305,"time_elapsed":645573,"internal_node_id":"0.0-8.0-2.74","subject":"xgysraet16eulpf","sona":"9160"},{"rt":1021,"stimulus":"<p>Welche Sequenz haben Sie als natürlicher empfunden?</p>","key_press":74,"test_part":"response","test_stimulus":{"position":1,"left":"bvh/vr_prediction_models/model(dmp)-dataset(pass-bottle-hold)-npsi(80)-hold(2)/final-lines.txt","right":"bvh/pass-bottle-hold-training2-lines.txt","att_check":false},"trial_type":"html-keyboard-response","trial_index":306,"time_elapsed":646606,"internal_node_id":"0.0-8.0-3.74","subject":"xgysraet16eulpf","sona":"9160"},{"rt":118,"stimulus":"<p>Bereit?</p>","key_press":32,"trial_type":"html-keyboard-response","trial_index":307,"time_elapsed":646736,"internal_node_id":"0.0-8.0-0.75","subject":"xgysraet16eulpf","sona":"9160"},{"rt":null,"stimulus":"<div style=\"font-size:60px;\">+</div>","key_press":null,"trial_type":"html-keyboard-response","trial_index":308,"time_elapsed":648754,"internal_node_id":"0.0-8.0-1.75","subject":"xgysraet16eulpf","sona":"9160"},{"trial_type":"turing-test","trial_index":309,"time_elapsed":652047,"internal_node_id":"0.0-8.0-2.75","subject":"xgysraet16eulpf","sona":"9160"},{"rt":326,"stimulus":"<p>Welche Sequenz haben Sie als natürlicher empfunden?</p>","key_press":70,"test_part":"response","test_stimulus":{"position":0,"left":"bvh/return-bottle-hold-training1-lines.txt","right":"bvh/vr_prediction_models/model(vcgpdm)-dataset(return-bottle-hold)-mode(ELBO)-parts(3)-dyn(20)-lvm(35)-hold(1)/final-lines.txt","att_check":false},"trial_type":"html-keyboard-response","trial_index":310,"time_elapsed":652385,"internal_node_id":"0.0-8.0-3.75","subject":"xgysraet16eulpf","sona":"9160"},{"rt":170,"stimulus":"<p>Bereit?</p>","key_press":32,"trial_type":"html-keyboard-response","trial_index":311,"time_elapsed":652567,"internal_node_id":"0.0-8.0-0.76","subject":"xgysraet16eulpf","sona":"9160"},{"rt":null,"stimulus":"<div style=\"font-size:60px;\">+</div>","key_press":null,"trial_type":"html-keyboard-response","trial_index":312,"time_elapsed":654598,"internal_node_id":"0.0-8.0-1.76","subject":"xgysraet16eulpf","sona":"9160"},{"trial_type":"turing-test","trial_index":313,"time_elapsed":660170,"internal_node_id":"0.0-8.0-2.76","subject":"xgysraet16eulpf","sona":"9160"},{"rt":356,"stimulus":"<p>Welche Sequenz haben Sie als natürlicher empfunden?</p>","key_press":74,"test_part":"response","test_stimulus":{"position":1,"left":"bvh/vr_prediction_models/model(dmp)-dataset(return-bottle)-npsi(80)-hold(0)/final-lines.txt","right":"bvh/return-bottle-training0-lines.txt","att_check":false},"trial_type":"html-keyboard-response","trial_index":314,"time_elapsed":660538,"internal_node_id":"0.0-8.0-3.76","subject":"xgysraet16eulpf","sona":"9160"},{"rt":160,"stimulus":"<p>Bereit?</p>","key_press":32,"trial_type":"html-keyboard-response","trial_index":315,"time_elapsed":660714,"internal_node_id":"0.0-8.0-0.77","subject":"xgysraet16eulpf","sona":"9160"},{"rt":null,"stimulus":"<div style=\"font-size:60px;\">+</div>","key_press":null,"trial_type":"html-keyboard-response","trial_index":316,"time_elapsed":662724,"internal_node_id":"0.0-8.0-1.77","subject":"xgysraet16eulpf","sona":"9160"},{"trial_type":"turing-test","trial_index":317,"time_elapsed":668712,"internal_node_id":"0.0-8.0-2.77","subject":"xgysraet16eulpf","sona":"9160"},{"rt":2297,"stimulus":"<p>Welche Sequenz haben Sie als natürlicher empfunden?</p>","key_press":74,"test_part":"response","test_stimulus":{"position":1,"left":"bvh/vr_prediction_models/model(dmp)-dataset(pass-bottle)-npsi(30)-hold(3)/final-lines.txt","right":"bvh/pass-bottle-training3-lines.txt","att_check":false},"trial_type":"html-keyboard-response","trial_index":318,"time_elapsed":671023,"internal_node_id":"0.0-8.0-3.77","subject":"xgysraet16eulpf","sona":"9160"},{"rt":179,"stimulus":"<p>Bereit?</p>","key_press":32,"trial_type":"html-keyboard-response","trial_index":319,"time_elapsed":671216,"internal_node_id":"0.0-8.0-0.78","subject":"xgysraet16eulpf","sona":"9160"},{"rt":null,"stimulus":"<div style=\"font-size:60px;\">+</div>","key_press":null,"trial_type":"html-keyboard-response","trial_index":320,"time_elapsed":673240,"internal_node_id":"0.0-8.0-1.78","subject":"xgysraet16eulpf","sona":"9160"},{"trial_type":"turing-test","trial_index":321,"time_elapsed":676804,"internal_node_id":"0.0-8.0-2.78","subject":"xgysraet16eulpf","sona":"9160"},{"rt":333,"stimulus":"<p>Welche Sequenz haben Sie als natürlicher empfunden?</p>","key_press":74,"test_part":"response","test_stimulus":{"position":1,"left":"bvh/vr_prediction_models/model(vcgpdm)-dataset(return-bottle-hold)-mode(ELBO)-parts(3)-dyn(10)-lvm(10)-hold(3)/final-lines.txt","right":"bvh/return-bottle-hold-training3-lines.txt","att_check":false},"trial_type":"html-keyboard-response","trial_index":322,"time_elapsed":677147,"internal_node_id":"0.0-8.0-3.78","subject":"xgysraet16eulpf","sona":"9160"},{"rt":122,"stimulus":"<p>Bereit?</p>","key_press":32,"trial_type":"html-keyboard-response","trial_index":323,"time_elapsed":677280,"internal_node_id":"0.0-8.0-0.79","subject":"xgysraet16eulpf","sona":"9160"},{"rt":null,"stimulus":"<div style=\"font-size:60px;\">+</div>","key_press":null,"trial_type":"html-keyboard-response","trial_index":324,"time_elapsed":679307,"internal_node_id":"0.0-8.0-1.79","subject":"xgysraet16eulpf","sona":"9160"},{"trial_type":"turing-test","trial_index":325,"time_elapsed":682873,"internal_node_id":"0.0-8.0-2.79","subject":"xgysraet16eulpf","sona":"9160"},{"rt":242,"stimulus":"<p>Welche Sequenz haben Sie als natürlicher empfunden?</p>","key_press":74,"test_part":"response","test_stimulus":{"position":1,"left":"bvh/vr_prediction_models/model(dmp)-dataset(return-bottle-hold)-npsi(30)-hold(2)/final-lines.txt","right":"bvh/return-bottle-hold-training2-lines.txt","att_check":false},"trial_type":"html-keyboard-response","trial_index":326,"time_elapsed":683129,"internal_node_id":"0.0-8.0-3.79","subject":"xgysraet16eulpf","sona":"9160"},{"rt":11913,"responses":"{\"age\":\" 21\",\"gender\":\"weiblich\"}","trial_type":"survey-text","trial_index":327,"time_elapsed":695089,"internal_node_id":"0.0-10.0-0.0","subject":"xgysraet16eulpf","sona":"9160"},{"rt":141441,"responses":"{\"area\":\"Arme, Wirbelsäule, Beine\",\"Q1\":\"wenn die Arme kreuz und quer sich schnell bewegten, Zusammenspiel von Arme, Beine und Wirbelsäule nicht so passte\",\"Q2\":\"schnelle Bewegungen, die unnatürlich waren: Arme flogen kreuz und quer herum;\\nStrichmännchen das auf dem Bildschirm nach unten oder oben wandert\"}","trial_type":"survey-text","trial_index":328,"time_elapsed":836544,"internal_node_id":"0.0-10.0-1.0","subject":"xgysraet16eulpf","sona":"9160"}]