[{"rt":6427.624999996624,"stimulus":"<p>Welcome!<br> Please choose your language to start the experiment in the chosen language.</p><p>Willkommen!<br> Bitte wählen Sie eine Sprache, um das Experiment in der ausgewählten Sprache zu starten</p>","button_pressed":"0","trial_type":"html-button-response","trial_index":0,"time_elapsed":6450,"internal_node_id":"0.0-0.0","subject":"rkb8hgvx0yyhf67","sona":"9562"},{"view_history":"[{\"page_index\":0,\"viewing_time\":37411.55499999877},{\"page_index\":1,\"viewing_time\":7903.405000004568},{\"page_index\":2,\"viewing_time\":10463.919999994687},{\"page_index\":1,\"viewing_time\":4715.120000008028},{\"page_index\":2,\"viewing_time\":4823.294999994687},{\"page_index\":3,\"viewing_time\":10280.74000000197},{\"page_index\":4,\"viewing_time\":5452.365000004647}]","rt":81052.76500000036,"trial_type":"instructions","trial_index":1,"time_elapsed":87492,"internal_node_id":"0.0-2.0-0.0","subject":"rkb8hgvx0yyhf67","sona":"9562"},{"rt":2317.480000012438,"stimulus":"<p>Ready?</p>","key_press":32,"trial_type":"html-keyboard-response","trial_index":2,"time_elapsed":89814,"internal_node_id":"0.0-3.0","subject":"rkb8hgvx0yyhf67","sona":"9562"},{"rt":null,"stimulus":"<div style=\"font-size:60px;\">+</div>","key_press":null,"trial_type":"html-keyboard-response","trial_index":3,"time_elapsed":91817,"internal_node_id":"0.0-4.0","subject":"rkb8hgvx0yyhf67","sona":"9562"},{"trial_type":"training","trial_index":4,"time_elapsed":95398,"internal_node_id":"0.0-5.0","subject":"rkb8hgvx0yyhf67","sona":"9562"},{"rt":600.5250000016531,"stimulus":"<p>Which sequence did you perceive as more natural?</p>","key_press":70,"trial_type":"html-keyboard-response","trial_index":5,"time_elapsed":96001,"internal_node_id":"0.0-6.0","subject":"rkb8hgvx0yyhf67","sona":"9562"},{"rt":4048.720000006142,"stimulus":"<p>The experiment starts now.</p><p><small>Please click the button if you are ready.</small></p>","button_pressed":"0","trial_type":"html-button-response","trial_index":6,"time_elapsed":100052,"internal_node_id":"0.0-7.0","subject":"rkb8hgvx0yyhf67","sona":"9562"},{"rt":2627.230000012787,"stimulus":"<p>Ready?</p>","key_press":32,"trial_type":"html-keyboard-response","trial_index":7,"time_elapsed":102683,"internal_node_id":"0.0-8.0-0.0","subject":"rkb8hgvx0yyhf67","sona":"9562"},{"rt":null,"stimulus":"<div style=\"font-size:60px;\">+</div>","key_press":null,"trial_type":"html-keyboard-response","trial_index":8,"time_elapsed":104688,"internal_node_id":"0.0-8.0-1.0","subject":"rkb8hgvx0yyhf67","sona":"9562"},{"trial_type":"turing-test","trial_index":9,"time_elapsed":110720,"internal_node_id":"0.0-8.0-2.0","subject":"rkb8hgvx0yyhf67","sona":"9562"},{"rt":79.76500000222586,"stimulus":"<p>Which sequence did you perceive as more natural?</p>","key_press":74,"test_part":"response","test_stimulus":{"position":1,"left":"bvh/vr_prediction_models/model(vcgpdm)-dataset(return-bottle)-mode(ELBO)-parts(3)-dyn(10)-lvm(25)-hold(4)/final-lines.txt","right":"bvh/return-bottle-training4-lines.txt","att_check":false},"trial_type":"html-keyboard-response","trial_index":10,"time_elapsed":110811,"internal_node_id":"0.0-8.0-3.0","subject":"rkb8hgvx0yyhf67","sona":"9562"},{"rt":2170.2749999967637,"stimulus":"<p>Ready?</p>","key_press":32,"trial_type":"html-keyboard-response","trial_index":11,"time_elapsed":112986,"internal_node_id":"0.0-8.0-0.1","subject":"rkb8hgvx0yyhf67","sona":"9562"},{"rt":null,"stimulus":"<div style=\"font-size:60px;\">+</div>","key_press":null,"trial_type":"html-keyboard-response","trial_index":12,"time_elapsed":114988,"internal_node_id":"0.0-8.0-1.1","subject":"rkb8hgvx0yyhf67","sona":"9562"},{"trial_type":"turing-test","trial_index":13,"time_elapsed":118609,"internal_node_id":"0.0-8.0-2.1","subject":"rkb8hgvx0yyhf67","sona":"9562"},{"rt":7647.660000002361,"stimulus":"<p>Which sequence did you perceive as more natural?</p>","key_press":70,"test_part":"response","test_stimulus":{"position":1,"left":"bvh/vr_prediction_models/model(vcgpdm)-dataset(return-bottle-hold)-mode(ELBO)-parts(1)-dyn(35)-lvm(10)-hold(1)/final-lines.txt","right":"bvh/return-bottle-hold-training1-lines.txt","att_check":false},"trial_type":"html-keyboard-response","trial_index":14,"time_elapsed":126262,"internal_node_id":"0.0-8.0-3.1","subject":"rkb8hgvx0yyhf67","sona":"9562"},{"rt":1395.394999999553,"stimulus":"<p>Ready?</p>","key_press":32,"trial_type":"html-keyboard-response","trial_index":15,"time_elapsed":127662,"internal_node_id":"0.0-8.0-0.2","subject":"rkb8hgvx0yyhf67","sona":"9562"},{"rt":null,"stimulus":"<div style=\"font-size:60px;\">+</div>","key_press":null,"trial_type":"html-keyboard-response","trial_index":16,"time_elapsed":129664,"internal_node_id":"0.0-8.0-1.2","subject":"rkb8hgvx0yyhf67","sona":"9562"},{"trial_type":"turing-test","trial_index":17,"time_elapsed":133313,"internal_node_id":"0.0-8.0-2.2","subject":"rkb8hgvx0yyhf67","sona":"9562"},{"rt":1532.070000001113,"stimulus":"<p>Which sequence did you perceive as more natural?</p>","key_press":74,"test_part":"response","test_stimulus":{"position":0,"left":"bvh/return-bottle-hold-training2-lines.txt","right":"bvh/vr_prediction_models/model(vcgpdm)-dataset(return-bottle-hold)-mode(ELBO)-parts(1)-dyn(15)-lvm(35)-hold(2)/final-lines.txt","att_check":false},"trial_type":"html-keyboard-response","trial_index":18,"time_elapsed":134850,"internal_node_id":"0.0-8.0-3.2","subject":"rkb8hgvx0yyhf67","sona":"9562"},{"rt":1283.210000008694,"stimulus":"<p>Ready?</p>","key_press":32,"trial_type":"html-keyboard-response","trial_index":19,"time_elapsed":136138,"internal_node_id":"0.0-8.0-0.3","subject":"rkb8hgvx0yyhf67","sona":"9562"},{"rt":null,"stimulus":"<div style=\"font-size:60px;\">+</div>","key_press":null,"trial_type":"html-keyboard-response","trial_index":20,"time_elapsed":138142,"internal_node_id":"0.0-8.0-1.3","subject":"rkb8hgvx0yyhf67","sona":"9562"},{"trial_type":"turing-test","trial_index":21,"time_elapsed":141588,"internal_node_id":"0.0-8.0-2.3","subject":"rkb8hgvx0yyhf67","sona":"9562"},{"rt":1531.8200000037905,"stimulus":"<p>Which sequence did you perceive as more natural?</p>","key_press":74,"test_part":"response","test_stimulus":{"position":0,"left":"bvh/pass-bottle-hold-training0-lines.txt","right":"bvh/vr_prediction_models/model(vcgpdm)-dataset(pass-bottle-hold)-mode(ELBO)-parts(1)-dyn(35)-lvm(30)-hold(0)/final-lines.txt","att_check":false},"trial_type":"html-keyboard-response","trial_index":22,"time_elapsed":143118,"internal_node_id":"0.0-8.0-3.3","subject":"rkb8hgvx0yyhf67","sona":"9562"},{"rt":1097.859999994398,"stimulus":"<p>Ready?</p>","key_press":32,"trial_type":"html-keyboard-response","trial_index":23,"time_elapsed":144218,"internal_node_id":"0.0-8.0-0.4","subject":"rkb8hgvx0yyhf67","sona":"9562"},{"rt":null,"stimulus":"<div style=\"font-size:60px;\">+</div>","key_press":null,"trial_type":"html-keyboard-response","trial_index":24,"time_elapsed":146221,"internal_node_id":"0.0-8.0-1.4","subject":"rkb8hgvx0yyhf67","sona":"9562"},{"trial_type":"turing-test","trial_index":25,"time_elapsed":150022,"internal_node_id":"0.0-8.0-2.4","subject":"rkb8hgvx0yyhf67","sona":"9562"},{"rt":709.034999992582,"stimulus":"<p>Which sequence did you perceive as more natural?</p>","key_press":70,"test_part":"response","test_stimulus":{"position":1,"left":"bvh/vr_prediction_models/model(dmp)-dataset(return-bottle-hold)-npsi(20)-hold(4)/final-lines.txt","right":"bvh/return-bottle-hold-training4-lines.txt","att_check":false},"trial_type":"html-keyboard-response","trial_index":26,"time_elapsed":150736,"internal_node_id":"0.0-8.0-3.4","subject":"rkb8hgvx0yyhf67","sona":"9562"},{"rt":603.9650000020629,"stimulus":"<p>Ready?</p>","key_press":32,"trial_type":"html-keyboard-response","trial_index":27,"time_elapsed":151345,"internal_node_id":"0.0-8.0-0.5","subject":"rkb8hgvx0yyhf67","sona":"9562"},{"rt":null,"stimulus":"<div style=\"font-size:60px;\">+</div>","key_press":null,"trial_type":"html-keyboard-response","trial_index":28,"time_elapsed":153348,"internal_node_id":"0.0-8.0-1.5","subject":"rkb8hgvx0yyhf67","sona":"9562"},{"trial_type":"turing-test","trial_index":29,"time_elapsed":156596,"internal_node_id":"0.0-8.0-2.5","subject":"rkb8hgvx0yyhf67","sona":"9562"},{"rt":424.1350000083912,"stimulus":"<p>Which sequence did you perceive as more natural?</p>","key_press":74,"test_part":"response","test_stimulus":{"position":0,"left":"bvh/pass-bottle-hold-training1-lines.txt","right":"bvh/vr_prediction_models/model(tmp)-dataset(pass-bottle-hold)-numprim(8)-hold(1)/final-lines.txt","att_check":false},"trial_type":"html-keyboard-response","trial_index":30,"time_elapsed":157026,"internal_node_id":"0.0-8.0-3.5","subject":"rkb8hgvx0yyhf67","sona":"9562"},{"rt":380.18999999621883,"stimulus":"<p>Ready?</p>","key_press":32,"trial_type":"html-keyboard-response","trial_index":31,"time_elapsed":157412,"internal_node_id":"0.0-8.0-0.6","subject":"rkb8hgvx0yyhf67","sona":"9562"},{"rt":null,"stimulus":"<div style=\"font-size:60px;\">+</div>","key_press":null,"trial_type":"html-keyboard-response","trial_index":32,"time_elapsed":159414,"internal_node_id":"0.0-8.0-1.6","subject":"rkb8hgvx0yyhf67","sona":"9562"},{"trial_type":"turing-test","trial_index":33,"time_elapsed":163201,"internal_node_id":"0.0-8.0-2.6","subject":"rkb8hgvx0yyhf67","sona":"9562"},{"rt":195.52000000840053,"stimulus":"<p>Which sequence did you perceive as more natural?</p>","key_press":74,"test_part":"response","test_stimulus":{"position":0,"left":"bvh/return-bottle-hold-training3-lines.txt","right":"bvh/vr_prediction_models/model(vcgpdm)-dataset(return-bottle-hold)-mode(ELBO)-parts(3)-dyn(25)-lvm(25)-hold(3)/final-lines.txt","att_check":false},"trial_type":"html-keyboard-response","trial_index":34,"time_elapsed":163402,"internal_node_id":"0.0-8.0-3.6","subject":"rkb8hgvx0yyhf67","sona":"9562"},{"rt":550.1499999954831,"stimulus":"<p>Ready?</p>","key_press":32,"trial_type":"html-keyboard-response","trial_index":35,"time_elapsed":163958,"internal_node_id":"0.0-8.0-0.7","subject":"rkb8hgvx0yyhf67","sona":"9562"},{"rt":null,"stimulus":"<div style=\"font-size:60px;\">+</div>","key_press":null,"trial_type":"html-keyboard-response","trial_index":36,"time_elapsed":165962,"internal_node_id":"0.0-8.0-1.7","subject":"rkb8hgvx0yyhf67","sona":"9562"},{"trial_type":"turing-test","trial_index":37,"time_elapsed":172558,"internal_node_id":"0.0-8.0-2.7","subject":"rkb8hgvx0yyhf67","sona":"9562"},{"rt":3555.2150000003166,"stimulus":"<p>Which sequence did you perceive as more natural?</p>","key_press":74,"test_part":"response","test_stimulus":{"position":1,"left":"bvh/vr_prediction_models/model(dmp)-dataset(return-bottle)-npsi(90)-hold(2)/final-lines.txt","right":"bvh/return-bottle-training2-lines.txt","att_check":true},"trial_type":"html-keyboard-response","trial_index":38,"time_elapsed":176121,"internal_node_id":"0.0-8.0-3.7","subject":"rkb8hgvx0yyhf67","sona":"9562"},{"rt":571.7750000039814,"stimulus":"<p>Ready?</p>","key_press":32,"trial_type":"html-keyboard-response","trial_index":39,"time_elapsed":176696,"internal_node_id":"0.0-8.0-0.8","subject":"rkb8hgvx0yyhf67","sona":"9562"},{"rt":null,"stimulus":"<div style=\"font-size:60px;\">+</div>","key_press":null,"trial_type":"html-keyboard-response","trial_index":40,"time_elapsed":178699,"internal_node_id":"0.0-8.0-1.8","subject":"rkb8hgvx0yyhf67","sona":"9562"},{"trial_type":"turing-test","trial_index":41,"time_elapsed":184655,"internal_node_id":"0.0-8.0-2.8","subject":"rkb8hgvx0yyhf67","sona":"9562"},{"rt":779.9599999998463,"stimulus":"<p>Which sequence did you perceive as more natural?</p>","key_press":74,"test_part":"response","test_stimulus":{"position":1,"left":"bvh/vr_prediction_models/model(vcgpdm)-dataset(pass-bottle)-mode(ELBO)-parts(3)-dyn(15)-lvm(30)-hold(4)/final-lines.txt","right":"bvh/pass-bottle-training4-lines.txt","att_check":false},"trial_type":"html-keyboard-response","trial_index":42,"time_elapsed":185441,"internal_node_id":"0.0-8.0-3.8","subject":"rkb8hgvx0yyhf67","sona":"9562"},{"rt":330.1449999999022,"stimulus":"<p>Ready?</p>","key_press":32,"trial_type":"html-keyboard-response","trial_index":43,"time_elapsed":185776,"internal_node_id":"0.0-8.0-0.9","subject":"rkb8hgvx0yyhf67","sona":"9562"},{"rt":null,"stimulus":"<div style=\"font-size:60px;\">+</div>","key_press":null,"trial_type":"html-keyboard-response","trial_index":44,"time_elapsed":187780,"internal_node_id":"0.0-8.0-1.9","subject":"rkb8hgvx0yyhf67","sona":"9562"},{"trial_type":"turing-test","trial_index":45,"time_elapsed":191422,"internal_node_id":"0.0-8.0-2.9","subject":"rkb8hgvx0yyhf67","sona":"9562"},{"rt":294.5250000047963,"stimulus":"<p>Which sequence did you perceive as more natural?</p>","key_press":74,"test_part":"response","test_stimulus":{"position":0,"left":"bvh/return-bottle-hold-training3-lines.txt","right":"bvh/vr_prediction_models/model(tmp)-dataset(return-bottle-hold)-numprim(13)-hold(3)/final-lines.txt","att_check":false},"trial_type":"html-keyboard-response","trial_index":46,"time_elapsed":191719,"internal_node_id":"0.0-8.0-3.9","subject":"rkb8hgvx0yyhf67","sona":"9562"},{"rt":284.94500000670087,"stimulus":"<p>Ready?</p>","key_press":32,"trial_type":"html-keyboard-response","trial_index":47,"time_elapsed":192009,"internal_node_id":"0.0-8.0-0.10","subject":"rkb8hgvx0yyhf67","sona":"9562"},{"rt":null,"stimulus":"<div style=\"font-size:60px;\">+</div>","key_press":null,"trial_type":"html-keyboard-response","trial_index":48,"time_elapsed":194012,"internal_node_id":"0.0-8.0-1.10","subject":"rkb8hgvx0yyhf67","sona":"9562"},{"trial_type":"turing-test","trial_index":49,"time_elapsed":199751,"internal_node_id":"0.0-8.0-2.10","subject":"rkb8hgvx0yyhf67","sona":"9562"},{"rt":373.10499999148306,"stimulus":"<p>Which sequence did you perceive as more natural?</p>","key_press":74,"test_part":"response","test_stimulus":{"position":1,"left":"bvh/vr_prediction_models/model(dmp)-dataset(return-bottle)-npsi(80)-hold(4)/final-lines.txt","right":"bvh/return-bottle-training4-lines.txt","att_check":false},"trial_type":"html-keyboard-response","trial_index":50,"time_elapsed":200131,"internal_node_id":"0.0-8.0-3.10","subject":"rkb8hgvx0yyhf67","sona":"9562"}]