[{"rt":13536,"stimulus":"<p>Welcome!<br> Please choose your language to start the experiment in the chosen language.</p><p>Willkommen!<br> Bitte wählen Sie eine Sprache um das Experiment in der ausgewählten Sprache zu starten</p>","button_pressed":"1","trial_type":"html-button-response","trial_index":0,"time_elapsed":13545,"internal_node_id":"0.0-0.0","subject":"pvmkyoht9kcvsng","sona":"THNS"},{"view_history":"[{\"page_index\":0,\"viewing_time\":7347},{\"page_index\":1,\"viewing_time\":8863},{\"page_index\":2,\"viewing_time\":4304},{\"page_index\":3,\"viewing_time\":11929}]","rt":32443,"trial_type":"instructions","trial_index":1,"time_elapsed":45991,"internal_node_id":"0.0-1.0-0.0","subject":"pvmkyoht9kcvsng","sona":"THNS"},{"rt":1459,"stimulus":"<p>Bereit?</p>","button_pressed":"0","trial_type":"html-button-response","trial_index":2,"time_elapsed":47455,"internal_node_id":"0.0-3.0","subject":"pvmkyoht9kcvsng","sona":"THNS"},{"rt":null,"stimulus":"<div style=\"font-size:60px;\">+</div>","key_press":null,"trial_type":"html-keyboard-response","trial_index":3,"time_elapsed":49473,"internal_node_id":"0.0-4.0","subject":"pvmkyoht9kcvsng","sona":"THNS"},{"trial_type":"training","trial_index":4,"time_elapsed":53002,"internal_node_id":"0.0-5.0","subject":"pvmkyoht9kcvsng","sona":"THNS"},{"rt":7114,"stimulus":"<p>Welche Sequenz haben Sie als natürlicher empfunden?</p>","button_pressed":"0","trial_type":"html-button-response","trial_index":5,"time_elapsed":60119,"internal_node_id":"0.0-6.0","subject":"pvmkyoht9kcvsng","sona":"THNS"},{"rt":6213,"stimulus":"<p>Das Experiment startet nun.</p><p> Bitte drücken Sie den Knopf, wenn Sie bereit sind.</p>","button_pressed":"0","trial_type":"html-button-response","trial_index":6,"time_elapsed":66333,"internal_node_id":"0.0-7.0","subject":"pvmkyoht9kcvsng","sona":"THNS"},{"rt":1118,"stimulus":"<p>Bereit?</p>","button_pressed":"0","trial_type":"html-button-response","trial_index":7,"time_elapsed":67453,"internal_node_id":"0.0-8.0-0.0","subject":"pvmkyoht9kcvsng","sona":"THNS"},{"rt":null,"stimulus":"<div style=\"font-size:60px;\">+</div>","key_press":null,"trial_type":"html-keyboard-response","trial_index":8,"time_elapsed":69465,"internal_node_id":"0.0-8.0-1.0","subject":"pvmkyoht9kcvsng","sona":"THNS"},{"trial_type":"turing-test","trial_index":9,"time_elapsed":75728,"internal_node_id":"0.0-8.0-2.0","subject":"pvmkyoht9kcvsng","sona":"THNS"},{"rt":846,"stimulus":"<p>Welche Sequenz haben Sie als natürlicher empfunden?</p>","button_pressed":"0","test_part":"response","test_stimulus":{"position":0,"left":"bvh/return-bottle-training1-lines.txt","right":"bvh/vr_prediction_models/model(vcgpdm)-dataset(return-bottle)-mode(ELBO)-parts(1)-dyn(25)-lvm(35)-hold(1)/final-lines.txt","att_check":false},"trial_type":"html-button-response","trial_index":10,"time_elapsed":76578,"internal_node_id":"0.0-8.0-3.0","subject":"pvmkyoht9kcvsng","sona":"THNS"},{"rt":1126,"stimulus":"<p>Bereit?</p>","button_pressed":"0","trial_type":"html-button-response","trial_index":11,"time_elapsed":77707,"internal_node_id":"0.0-8.0-0.1","subject":"pvmkyoht9kcvsng","sona":"THNS"},{"rt":null,"stimulus":"<div style=\"font-size:60px;\">+</div>","key_press":null,"trial_type":"html-keyboard-response","trial_index":12,"time_elapsed":79722,"internal_node_id":"0.0-8.0-1.1","subject":"pvmkyoht9kcvsng","sona":"THNS"},{"trial_type":"turing-test","trial_index":13,"time_elapsed":85260,"internal_node_id":"0.0-8.0-2.1","subject":"pvmkyoht9kcvsng","sona":"THNS"},{"rt":1064,"stimulus":"<p>Welche Sequenz haben Sie als natürlicher empfunden?</p>","button_pressed":"1","test_part":"response","test_stimulus":{"position":1,"left":"bvh/vr_prediction_models/model(vcgpdm)-dataset(return-bottle)-mode(ELBO)-parts(1)-dyn(35)-lvm(30)-hold(0)/final-lines.txt","right":"bvh/return-bottle-training0-lines.txt","att_check":false},"trial_type":"html-button-response","trial_index":14,"time_elapsed":86326,"internal_node_id":"0.0-8.0-3.1","subject":"pvmkyoht9kcvsng","sona":"THNS"},{"rt":822,"stimulus":"<p>Bereit?</p>","button_pressed":"0","trial_type":"html-button-response","trial_index":15,"time_elapsed":87149,"internal_node_id":"0.0-8.0-0.2","subject":"pvmkyoht9kcvsng","sona":"THNS"},{"rt":null,"stimulus":"<div style=\"font-size:60px;\">+</div>","key_press":null,"trial_type":"html-keyboard-response","trial_index":16,"time_elapsed":89160,"internal_node_id":"0.0-8.0-1.2","subject":"pvmkyoht9kcvsng","sona":"THNS"},{"trial_type":"turing-test","trial_index":17,"time_elapsed":94540,"internal_node_id":"0.0-8.0-2.2","subject":"pvmkyoht9kcvsng","sona":"THNS"},{"rt":1051,"stimulus":"<p>Welche Sequenz haben Sie als natürlicher empfunden?</p>","button_pressed":"1","test_part":"response","test_stimulus":{"position":1,"left":"bvh/vr_prediction_models/model(dmp)-dataset(return-bottle)-npsi(60)-hold(0)/final-lines.txt","right":"bvh/return-bottle-training0-lines.txt","att_check":false},"trial_type":"html-button-response","trial_index":18,"time_elapsed":95594,"internal_node_id":"0.0-8.0-3.2","subject":"pvmkyoht9kcvsng","sona":"THNS"},{"rt":766,"stimulus":"<p>Bereit?</p>","button_pressed":"0","trial_type":"html-button-response","trial_index":19,"time_elapsed":96362,"internal_node_id":"0.0-8.0-0.3","subject":"pvmkyoht9kcvsng","sona":"THNS"},{"rt":null,"stimulus":"<div style=\"font-size:60px;\">+</div>","key_press":null,"trial_type":"html-keyboard-response","trial_index":20,"time_elapsed":98376,"internal_node_id":"0.0-8.0-1.3","subject":"pvmkyoht9kcvsng","sona":"THNS"},{"trial_type":"turing-test","trial_index":21,"time_elapsed":104550,"internal_node_id":"0.0-8.0-2.3","subject":"pvmkyoht9kcvsng","sona":"THNS"},{"rt":754,"stimulus":"<p>Welche Sequenz haben Sie als natürlicher empfunden?</p>","button_pressed":"1","test_part":"response","test_stimulus":{"position":1,"left":"bvh/vr_prediction_models/model(vcgpdm)-dataset(return-bottle)-mode(ELBO)-parts(1)-dyn(30)-lvm(30)-hold(1)/final-lines.txt","right":"bvh/return-bottle-training1-lines.txt","att_check":false},"trial_type":"html-button-response","trial_index":22,"time_elapsed":105309,"internal_node_id":"0.0-8.0-3.3","subject":"pvmkyoht9kcvsng","sona":"THNS"},{"rt":851,"stimulus":"<p>Bereit?</p>","button_pressed":"0","trial_type":"html-button-response","trial_index":23,"time_elapsed":106161,"internal_node_id":"0.0-8.0-0.4","subject":"pvmkyoht9kcvsng","sona":"THNS"},{"rt":null,"stimulus":"<div style=\"font-size:60px;\">+</div>","key_press":null,"trial_type":"html-keyboard-response","trial_index":24,"time_elapsed":108176,"internal_node_id":"0.0-8.0-1.4","subject":"pvmkyoht9kcvsng","sona":"THNS"},{"trial_type":"turing-test","trial_index":25,"time_elapsed":111757,"internal_node_id":"0.0-8.0-2.4","subject":"pvmkyoht9kcvsng","sona":"THNS"},{"rt":1999,"stimulus":"<p>Welche Sequenz haben Sie als natürlicher empfunden?</p>","button_pressed":"0","test_part":"response","test_stimulus":{"position":0,"left":"bvh/pass-bottle-hold-training4-lines.txt","right":"bvh/vr_prediction_models/model(tmp)-dataset(pass-bottle-hold)-numprim(13)-hold(4)/final-lines.txt","att_check":false},"trial_type":"html-button-response","trial_index":26,"time_elapsed":113758,"internal_node_id":"0.0-8.0-3.4","subject":"pvmkyoht9kcvsng","sona":"THNS"},{"rt":897,"stimulus":"<p>Bereit?</p>","button_pressed":"0","trial_type":"html-button-response","trial_index":27,"time_elapsed":114658,"internal_node_id":"0.0-8.0-0.5","subject":"pvmkyoht9kcvsng","sona":"THNS"},{"rt":null,"stimulus":"<div style=\"font-size:60px;\">+</div>","key_press":null,"trial_type":"html-keyboard-response","trial_index":28,"time_elapsed":116674,"internal_node_id":"0.0-8.0-1.5","subject":"pvmkyoht9kcvsng","sona":"THNS"},{"trial_type":"turing-test","trial_index":29,"time_elapsed":120110,"internal_node_id":"0.0-8.0-2.5","subject":"pvmkyoht9kcvsng","sona":"THNS"},{"rt":761,"stimulus":"<p>Welche Sequenz haben Sie als natürlicher empfunden?</p>","button_pressed":"0","test_part":"response","test_stimulus":{"position":0,"left":"bvh/pass-bottle-hold-training0-lines.txt","right":"bvh/vr_prediction_models/model(vcgpdm)-dataset(pass-bottle-hold)-mode(ELBO)-parts(1)-dyn(15)-lvm(35)-hold(0)/final-lines.txt","att_check":false},"trial_type":"html-button-response","trial_index":30,"time_elapsed":120874,"internal_node_id":"0.0-8.0-3.5","subject":"pvmkyoht9kcvsng","sona":"THNS"},{"rt":966,"stimulus":"<p>Bereit?</p>","button_pressed":"0","trial_type":"html-button-response","trial_index":31,"time_elapsed":121841,"internal_node_id":"0.0-8.0-0.6","subject":"pvmkyoht9kcvsng","sona":"THNS"},{"rt":null,"stimulus":"<div style=\"font-size:60px;\">+</div>","key_press":null,"trial_type":"html-keyboard-response","trial_index":32,"time_elapsed":123861,"internal_node_id":"0.0-8.0-1.6","subject":"pvmkyoht9kcvsng","sona":"THNS"},{"trial_type":"turing-test","trial_index":33,"time_elapsed":129892,"internal_node_id":"0.0-8.0-2.6","subject":"pvmkyoht9kcvsng","sona":"THNS"},{"rt":1134,"stimulus":"<p>Welche Sequenz haben Sie als natürlicher empfunden?</p>","button_pressed":"0","test_part":"response","test_stimulus":{"position":0,"left":"bvh/return-bottle-training1-lines.txt","right":"bvh/vr_prediction_models/model(tmp)-dataset(return-bottle)-numprim(4)-hold(1)/final-lines.txt","att_check":false},"trial_type":"html-button-response","trial_index":34,"time_elapsed":131030,"internal_node_id":"0.0-8.0-3.6","subject":"pvmkyoht9kcvsng","sona":"THNS"},{"rt":618,"stimulus":"<p>Bereit?</p>","button_pressed":"0","trial_type":"html-button-response","trial_index":35,"time_elapsed":131650,"internal_node_id":"0.0-8.0-0.7","subject":"pvmkyoht9kcvsng","sona":"THNS"},{"rt":null,"stimulus":"<div style=\"font-size:60px;\">+</div>","key_press":null,"trial_type":"html-keyboard-response","trial_index":36,"time_elapsed":133671,"internal_node_id":"0.0-8.0-1.7","subject":"pvmkyoht9kcvsng","sona":"THNS"},{"trial_type":"turing-test","trial_index":37,"time_elapsed":137041,"internal_node_id":"0.0-8.0-2.7","subject":"pvmkyoht9kcvsng","sona":"THNS"},{"rt":835,"stimulus":"<p>Welche Sequenz haben Sie als natürlicher empfunden?</p>","button_pressed":"1","test_part":"response","test_stimulus":{"position":1,"left":"bvh/vr_prediction_models/model(dmp)-dataset(return-bottle-hold)-npsi(100)-hold(1)/final-lines.txt","right":"bvh/return-bottle-hold-training1-lines.txt","att_check":false},"trial_type":"html-button-response","trial_index":38,"time_elapsed":137881,"internal_node_id":"0.0-8.0-3.7","subject":"pvmkyoht9kcvsng","sona":"THNS"},{"rt":862,"stimulus":"<p>Bereit?</p>","button_pressed":"0","trial_type":"html-button-response","trial_index":39,"time_elapsed":138746,"internal_node_id":"0.0-8.0-0.8","subject":"pvmkyoht9kcvsng","sona":"THNS"},{"rt":null,"stimulus":"<div style=\"font-size:60px;\">+</div>","key_press":null,"trial_type":"html-keyboard-response","trial_index":40,"time_elapsed":140763,"internal_node_id":"0.0-8.0-1.8","subject":"pvmkyoht9kcvsng","sona":"THNS"},{"trial_type":"turing-test","trial_index":41,"time_elapsed":146078,"internal_node_id":"0.0-8.0-2.8","subject":"pvmkyoht9kcvsng","sona":"THNS"},{"rt":983,"stimulus":"<p>Welche Sequenz haben Sie als natürlicher empfunden?</p>","button_pressed":"1","test_part":"response","test_stimulus":{"position":1,"left":"bvh/vr_prediction_models/model(vcgpdm)-dataset(return-bottle-hold)-mode(ELBO)-parts(3)-dyn(25)-lvm(25)-hold(0)/final-lines.txt","right":"bvh/return-bottle-hold-training0-lines.txt","att_check":false},"trial_type":"html-button-response","trial_index":42,"time_elapsed":147066,"internal_node_id":"0.0-8.0-3.8","subject":"pvmkyoht9kcvsng","sona":"THNS"},{"rt":861,"stimulus":"<p>Bereit?</p>","button_pressed":"0","trial_type":"html-button-response","trial_index":43,"time_elapsed":147929,"internal_node_id":"0.0-8.0-0.9","subject":"pvmkyoht9kcvsng","sona":"THNS"},{"rt":null,"stimulus":"<div style=\"font-size:60px;\">+</div>","key_press":null,"trial_type":"html-keyboard-response","trial_index":44,"time_elapsed":149948,"internal_node_id":"0.0-8.0-1.9","subject":"pvmkyoht9kcvsng","sona":"THNS"},{"trial_type":"turing-test","trial_index":45,"time_elapsed":155336,"internal_node_id":"0.0-8.0-2.9","subject":"pvmkyoht9kcvsng","sona":"THNS"},{"rt":994,"stimulus":"<p>Welche Sequenz haben Sie als natürlicher empfunden?</p>","button_pressed":"1","test_part":"response","test_stimulus":{"position":0,"left":"bvh/return-bottle-training0-lines.txt","right":"bvh/vr_prediction_models/model(tmp)-dataset(return-bottle)-numprim(8)-hold(0)/final-lines.txt","att_check":false},"trial_type":"html-button-response","trial_index":46,"time_elapsed":156338,"internal_node_id":"0.0-8.0-3.9","subject":"pvmkyoht9kcvsng","sona":"THNS"},{"rt":763,"stimulus":"<p>Bereit?</p>","button_pressed":"0","trial_type":"html-button-response","trial_index":47,"time_elapsed":157105,"internal_node_id":"0.0-8.0-0.10","subject":"pvmkyoht9kcvsng","sona":"THNS"},{"rt":null,"stimulus":"<div style=\"font-size:60px;\">+</div>","key_press":null,"trial_type":"html-keyboard-response","trial_index":48,"time_elapsed":159120,"internal_node_id":"0.0-8.0-1.10","subject":"pvmkyoht9kcvsng","sona":"THNS"},{"trial_type":"turing-test","trial_index":49,"time_elapsed":165842,"internal_node_id":"0.0-8.0-2.10","subject":"pvmkyoht9kcvsng","sona":"THNS"},{"rt":573,"stimulus":"<p>Welche Sequenz haben Sie als natürlicher empfunden?</p>","button_pressed":"1","test_part":"response","test_stimulus":{"position":1,"left":"bvh/vr_prediction_models/model(tmp)-dataset(return-bottle)-numprim(7)-hold(2)/final-lines.txt","right":"bvh/return-bottle-training2-lines.txt","att_check":false},"trial_type":"html-button-response","trial_index":50,"time_elapsed":166418,"internal_node_id":"0.0-8.0-3.10","subject":"pvmkyoht9kcvsng","sona":"THNS"},{"rt":564,"stimulus":"<p>Bereit?</p>","button_pressed":"0","trial_type":"html-button-response","trial_index":51,"time_elapsed":166985,"internal_node_id":"0.0-8.0-0.11","subject":"pvmkyoht9kcvsng","sona":"THNS"},{"rt":null,"stimulus":"<div style=\"font-size:60px;\">+</div>","key_press":null,"trial_type":"html-keyboard-response","trial_index":52,"time_elapsed":169004,"internal_node_id":"0.0-8.0-1.11","subject":"pvmkyoht9kcvsng","sona":"THNS"},{"trial_type":"turing-test","trial_index":53,"time_elapsed":172713,"internal_node_id":"0.0-8.0-2.11","subject":"pvmkyoht9kcvsng","sona":"THNS"},{"rt":654,"stimulus":"<p>Welche Sequenz haben Sie als natürlicher empfunden?</p>","button_pressed":"1","test_part":"response","test_stimulus":{"position":1,"left":"bvh/vr_prediction_models/model(vcgpdm)-dataset(pass-bottle-hold)-mode(ELBO)-parts(3)-dyn(10)-lvm(25)-hold(2)/final-lines.txt","right":"bvh/pass-bottle-hold-training2-lines.txt","att_check":false},"trial_type":"html-button-response","trial_index":54,"time_elapsed":173369,"internal_node_id":"0.0-8.0-3.11","subject":"pvmkyoht9kcvsng","sona":"THNS"},{"rt":517,"stimulus":"<p>Bereit?</p>","button_pressed":"0","trial_type":"html-button-response","trial_index":55,"time_elapsed":173890,"internal_node_id":"0.0-8.0-0.12","subject":"pvmkyoht9kcvsng","sona":"THNS"},{"rt":null,"stimulus":"<div style=\"font-size:60px;\">+</div>","key_press":null,"trial_type":"html-keyboard-response","trial_index":56,"time_elapsed":175907,"internal_node_id":"0.0-8.0-1.12","subject":"pvmkyoht9kcvsng","sona":"THNS"},{"trial_type":"turing-test","trial_index":57,"time_elapsed":179668,"internal_node_id":"0.0-8.0-2.12","subject":"pvmkyoht9kcvsng","sona":"THNS"},{"rt":1545,"stimulus":"<p>Welche Sequenz haben Sie als natürlicher empfunden?</p>","button_pressed":"0","test_part":"response","test_stimulus":{"position":0,"left":"bvh/return-bottle-hold-training4-lines.txt","right":"bvh/vr_prediction_models/model(tmp)-dataset(return-bottle-hold)-numprim(8)-hold(4)/final-lines.txt","att_check":false},"trial_type":"html-button-response","trial_index":58,"time_elapsed":181217,"internal_node_id":"0.0-8.0-3.12","subject":"pvmkyoht9kcvsng","sona":"THNS"},{"rt":519,"stimulus":"<p>Bereit?</p>","button_pressed":"0","trial_type":"html-button-response","trial_index":59,"time_elapsed":181737,"internal_node_id":"0.0-8.0-0.13","subject":"pvmkyoht9kcvsng","sona":"THNS"},{"rt":null,"stimulus":"<div style=\"font-size:60px;\">+</div>","key_press":null,"trial_type":"html-keyboard-response","trial_index":60,"time_elapsed":183764,"internal_node_id":"0.0-8.0-1.13","subject":"pvmkyoht9kcvsng","sona":"THNS"},{"trial_type":"turing-test","trial_index":61,"time_elapsed":189688,"internal_node_id":"0.0-8.0-2.13","subject":"pvmkyoht9kcvsng","sona":"THNS"},{"rt":982,"stimulus":"<p>Welche Sequenz haben Sie als natürlicher empfunden?</p>","button_pressed":"1","test_part":"response","test_stimulus":{"position":1,"left":"bvh/vr_prediction_models/model(vcgpdm)-dataset(pass-bottle)-mode(ELBO)-parts(3)-dyn(25)-lvm(15)-hold(4)/final-lines.txt","right":"bvh/pass-bottle-training4-lines.txt","att_check":false},"trial_type":"html-button-response","trial_index":62,"time_elapsed":190673,"internal_node_id":"0.0-8.0-3.13","subject":"pvmkyoht9kcvsng","sona":"THNS"},{"rt":877,"stimulus":"<p>Bereit?</p>","button_pressed":"0","trial_type":"html-button-response","trial_index":63,"time_elapsed":191553,"internal_node_id":"0.0-8.0-0.14","subject":"pvmkyoht9kcvsng","sona":"THNS"},{"rt":null,"stimulus":"<div style=\"font-size:60px;\">+</div>","key_press":null,"trial_type":"html-keyboard-response","trial_index":64,"time_elapsed":193565,"internal_node_id":"0.0-8.0-1.14","subject":"pvmkyoht9kcvsng","sona":"THNS"},{"trial_type":"turing-test","trial_index":65,"time_elapsed":199719,"internal_node_id":"0.0-8.0-2.14","subject":"pvmkyoht9kcvsng","sona":"THNS"},{"rt":980,"stimulus":"<p>Welche Sequenz haben Sie als natürlicher empfunden?</p>","button_pressed":"1","test_part":"response","test_stimulus":{"position":1,"left":"bvh/vr_prediction_models/model(dmp)-dataset(pass-bottle)-npsi(50)-hold(2)/final-lines.txt","right":"bvh/pass-bottle-training2-lines.txt","att_check":false},"trial_type":"html-button-response","trial_index":66,"time_elapsed":200706,"internal_node_id":"0.0-8.0-3.14","subject":"pvmkyoht9kcvsng","sona":"THNS"},{"rt":685,"stimulus":"<p>Bereit?</p>","button_pressed":"0","trial_type":"html-button-response","trial_index":67,"time_elapsed":201393,"internal_node_id":"0.0-8.0-0.15","subject":"pvmkyoht9kcvsng","sona":"THNS"},{"rt":null,"stimulus":"<div style=\"font-size:60px;\">+</div>","key_press":null,"trial_type":"html-keyboard-response","trial_index":68,"time_elapsed":203406,"internal_node_id":"0.0-8.0-1.15","subject":"pvmkyoht9kcvsng","sona":"THNS"},{"trial_type":"turing-test","trial_index":69,"time_elapsed":209289,"internal_node_id":"0.0-8.0-2.15","subject":"pvmkyoht9kcvsng","sona":"THNS"},{"rt":806,"stimulus":"<p>Welche Sequenz haben Sie als natürlicher empfunden?</p>","button_pressed":"0","test_part":"response","test_stimulus":{"position":0,"left":"bvh/return-bottle-training4-lines.txt","right":"bvh/vr_prediction_models/model(dmp)-dataset(return-bottle)-npsi(70)-hold(4)/final-lines.txt","att_check":true},"trial_type":"html-button-response","trial_index":70,"time_elapsed":210097,"internal_node_id":"0.0-8.0-3.15","subject":"pvmkyoht9kcvsng","sona":"THNS"},{"rt":598,"stimulus":"<p>Bereit?</p>","button_pressed":"0","trial_type":"html-button-response","trial_index":71,"time_elapsed":210697,"internal_node_id":"0.0-8.0-0.16","subject":"pvmkyoht9kcvsng","sona":"THNS"},{"rt":null,"stimulus":"<div style=\"font-size:60px;\">+</div>","key_press":null,"trial_type":"html-keyboard-response","trial_index":72,"time_elapsed":212717,"internal_node_id":"0.0-8.0-1.16","subject":"pvmkyoht9kcvsng","sona":"THNS"},{"trial_type":"turing-test","trial_index":73,"time_elapsed":219660,"internal_node_id":"0.0-8.0-2.16","subject":"pvmkyoht9kcvsng","sona":"THNS"},{"rt":920,"stimulus":"<p>Welche Sequenz haben Sie als natürlicher empfunden?</p>","button_pressed":"0","test_part":"response","test_stimulus":{"position":0,"left":"bvh/pass-bottle-training0-lines.txt","right":"bvh/vr_prediction_models/model(vcgpdm)-dataset(pass-bottle)-mode(ELBO)-parts(1)-dyn(35)-lvm(10)-hold(0)/final-lines.txt","att_check":false},"trial_type":"html-button-response","trial_index":74,"time_elapsed":220585,"internal_node_id":"0.0-8.0-3.16","subject":"pvmkyoht9kcvsng","sona":"THNS"},{"rt":837,"stimulus":"<p>Bereit?</p>","button_pressed":"0","trial_type":"html-button-response","trial_index":75,"time_elapsed":221424,"internal_node_id":"0.0-8.0-0.17","subject":"pvmkyoht9kcvsng","sona":"THNS"},{"rt":null,"stimulus":"<div style=\"font-size:60px;\">+</div>","key_press":null,"trial_type":"html-keyboard-response","trial_index":76,"time_elapsed":223447,"internal_node_id":"0.0-8.0-1.17","subject":"pvmkyoht9kcvsng","sona":"THNS"},{"trial_type":"turing-test","trial_index":77,"time_elapsed":226991,"internal_node_id":"0.0-8.0-2.17","subject":"pvmkyoht9kcvsng","sona":"THNS"},{"rt":1629,"stimulus":"<p>Welche Sequenz haben Sie als natürlicher empfunden?</p>","button_pressed":"1","test_part":"response","test_stimulus":{"position":1,"left":"bvh/vr_prediction_models/model(vcgpdm)-dataset(pass-bottle-hold)-mode(ELBO)-parts(1)-dyn(10)-lvm(5)-hold(2)/final-lines.txt","right":"bvh/pass-bottle-hold-training2-lines.txt","att_check":false},"trial_type":"html-button-response","trial_index":78,"time_elapsed":228624,"internal_node_id":"0.0-8.0-3.17","subject":"pvmkyoht9kcvsng","sona":"THNS"},{"rt":558,"stimulus":"<p>Bereit?</p>","button_pressed":"0","trial_type":"html-button-response","trial_index":79,"time_elapsed":229185,"internal_node_id":"0.0-8.0-0.18","subject":"pvmkyoht9kcvsng","sona":"THNS"},{"rt":null,"stimulus":"<div style=\"font-size:60px;\">+</div>","key_press":null,"trial_type":"html-keyboard-response","trial_index":80,"time_elapsed":231205,"internal_node_id":"0.0-8.0-1.18","subject":"pvmkyoht9kcvsng","sona":"THNS"},{"trial_type":"turing-test","trial_index":81,"time_elapsed":234873,"internal_node_id":"0.0-8.0-2.18","subject":"pvmkyoht9kcvsng","sona":"THNS"},{"rt":878,"stimulus":"<p>Welche Sequenz haben Sie als natürlicher empfunden?</p>","button_pressed":"0","test_part":"response","test_stimulus":{"position":1,"left":"bvh/vr_prediction_models/model(dmp)-dataset(pass-bottle-hold)-npsi(40)-hold(3)/final-lines.txt","right":"bvh/pass-bottle-hold-training3-lines.txt","att_check":false},"trial_type":"html-button-response","trial_index":82,"time_elapsed":235753,"internal_node_id":"0.0-8.0-3.18","subject":"pvmkyoht9kcvsng","sona":"THNS"},{"rt":781,"stimulus":"<p>Bereit?</p>","button_pressed":"0","trial_type":"html-button-response","trial_index":83,"time_elapsed":236537,"internal_node_id":"0.0-8.0-0.19","subject":"pvmkyoht9kcvsng","sona":"THNS"},{"rt":null,"stimulus":"<div style=\"font-size:60px;\">+</div>","key_press":null,"trial_type":"html-keyboard-response","trial_index":84,"time_elapsed":238553,"internal_node_id":"0.0-8.0-1.19","subject":"pvmkyoht9kcvsng","sona":"THNS"},{"trial_type":"turing-test","trial_index":85,"time_elapsed":244225,"internal_node_id":"0.0-8.0-2.19","subject":"pvmkyoht9kcvsng","sona":"THNS"},{"rt":598,"stimulus":"<p>Welche Sequenz haben Sie als natürlicher empfunden?</p>","button_pressed":"1","test_part":"response","test_stimulus":{"position":1,"left":"bvh/vr_prediction_models/model(vcgpdm)-dataset(pass-bottle)-mode(ELBO)-parts(3)-dyn(20)-lvm(35)-hold(1)/final-lines.txt","right":"bvh/pass-bottle-training1-lines.txt","att_check":false},"trial_type":"html-button-response","trial_index":86,"time_elapsed":244825,"internal_node_id":"0.0-8.0-3.19","subject":"pvmkyoht9kcvsng","sona":"THNS"},{"rt":1013,"stimulus":"<p>Bereit?</p>","button_pressed":"0","trial_type":"html-button-response","trial_index":87,"time_elapsed":245841,"internal_node_id":"0.0-8.0-0.20","subject":"pvmkyoht9kcvsng","sona":"THNS"},{"rt":null,"stimulus":"<div style=\"font-size:60px;\">+</div>","key_press":null,"trial_type":"html-keyboard-response","trial_index":88,"time_elapsed":247866,"internal_node_id":"0.0-8.0-1.20","subject":"pvmkyoht9kcvsng","sona":"THNS"},{"trial_type":"turing-test","trial_index":89,"time_elapsed":253079,"internal_node_id":"0.0-8.0-2.20","subject":"pvmkyoht9kcvsng","sona":"THNS"},{"rt":2110,"stimulus":"<p>Welche Sequenz haben Sie als natürlicher empfunden?</p>","button_pressed":"1","test_part":"response","test_stimulus":{"position":0,"left":"bvh/return-bottle-hold-training0-lines.txt","right":"bvh/vr_prediction_models/model(vcgpdm)-dataset(return-bottle-hold)-mode(ELBO)-parts(3)-dyn(30)-lvm(15)-hold(0)/final-lines.txt","att_check":false},"trial_type":"html-button-response","trial_index":90,"time_elapsed":255193,"internal_node_id":"0.0-8.0-3.20","subject":"pvmkyoht9kcvsng","sona":"THNS"},{"rt":721,"stimulus":"<p>Bereit?</p>","button_pressed":"0","trial_type":"html-button-response","trial_index":91,"time_elapsed":255916,"internal_node_id":"0.0-8.0-0.21","subject":"pvmkyoht9kcvsng","sona":"THNS"},{"rt":null,"stimulus":"<div style=\"font-size:60px;\">+</div>","key_press":null,"trial_type":"html-keyboard-response","trial_index":92,"time_elapsed":257939,"internal_node_id":"0.0-8.0-1.21","subject":"pvmkyoht9kcvsng","sona":"THNS"},{"trial_type":"turing-test","trial_index":93,"time_elapsed":261690,"internal_node_id":"0.0-8.0-2.21","subject":"pvmkyoht9kcvsng","sona":"THNS"},{"rt":804,"stimulus":"<p>Welche Sequenz haben Sie als natürlicher empfunden?</p>","button_pressed":"0","test_part":"response","test_stimulus":{"position":1,"left":"bvh/vr_prediction_models/model(vcgpdm)-dataset(pass-bottle-hold)-mode(ELBO)-parts(3)-dyn(10)-lvm(10)-hold(3)/final-lines.txt","right":"bvh/pass-bottle-hold-training3-lines.txt","att_check":false},"trial_type":"html-button-response","trial_index":94,"time_elapsed":262497,"internal_node_id":"0.0-8.0-3.21","subject":"pvmkyoht9kcvsng","sona":"THNS"},{"rt":757,"stimulus":"<p>Bereit?</p>","button_pressed":"0","trial_type":"html-button-response","trial_index":95,"time_elapsed":263256,"internal_node_id":"0.0-8.0-0.22","subject":"pvmkyoht9kcvsng","sona":"THNS"},{"rt":null,"stimulus":"<div style=\"font-size:60px;\">+</div>","key_press":null,"trial_type":"html-keyboard-response","trial_index":96,"time_elapsed":265268,"internal_node_id":"0.0-8.0-1.22","subject":"pvmkyoht9kcvsng","sona":"THNS"},{"trial_type":"turing-test","trial_index":97,"time_elapsed":271165,"internal_node_id":"0.0-8.0-2.22","subject":"pvmkyoht9kcvsng","sona":"THNS"},{"rt":1447,"stimulus":"<p>Welche Sequenz haben Sie als natürlicher empfunden?</p>","button_pressed":"0","test_part":"response","test_stimulus":{"position":0,"left":"bvh/pass-bottle-training3-lines.txt","right":"bvh/vr_prediction_models/model(tmp)-dataset(pass-bottle)-numprim(3)-hold(3)/final-lines.txt","att_check":false},"trial_type":"html-button-response","trial_index":98,"time_elapsed":272616,"internal_node_id":"0.0-8.0-3.22","subject":"pvmkyoht9kcvsng","sona":"THNS"},{"rt":524,"stimulus":"<p>Bereit?</p>","button_pressed":"0","trial_type":"html-button-response","trial_index":99,"time_elapsed":273143,"internal_node_id":"0.0-8.0-0.23","subject":"pvmkyoht9kcvsng","sona":"THNS"},{"rt":null,"stimulus":"<div style=\"font-size:60px;\">+</div>","key_press":null,"trial_type":"html-keyboard-response","trial_index":100,"time_elapsed":275170,"internal_node_id":"0.0-8.0-1.23","subject":"pvmkyoht9kcvsng","sona":"THNS"},{"trial_type":"turing-test","trial_index":101,"time_elapsed":280247,"internal_node_id":"0.0-8.0-2.23","subject":"pvmkyoht9kcvsng","sona":"THNS"},{"rt":862,"stimulus":"<p>Welche Sequenz haben Sie als natürlicher empfunden?</p>","button_pressed":"0","test_part":"response","test_stimulus":{"position":0,"left":"bvh/return-bottle-hold-training0-lines.txt","right":"bvh/vr_prediction_models/model(dmp)-dataset(return-bottle-hold)-npsi(70)-hold(0)/final-lines.txt","att_check":true},"trial_type":"html-button-response","trial_index":102,"time_elapsed":281113,"internal_node_id":"0.0-8.0-3.23","subject":"pvmkyoht9kcvsng","sona":"THNS"},{"rt":766,"stimulus":"<p>Bereit?</p>","button_pressed":"0","trial_type":"html-button-response","trial_index":103,"time_elapsed":281881,"internal_node_id":"0.0-8.0-0.24","subject":"pvmkyoht9kcvsng","sona":"THNS"},{"rt":null,"stimulus":"<div style=\"font-size:60px;\">+</div>","key_press":null,"trial_type":"html-keyboard-response","trial_index":104,"time_elapsed":283897,"internal_node_id":"0.0-8.0-1.24","subject":"pvmkyoht9kcvsng","sona":"THNS"},{"trial_type":"turing-test","trial_index":105,"time_elapsed":287199,"internal_node_id":"0.0-8.0-2.24","subject":"pvmkyoht9kcvsng","sona":"THNS"},{"rt":752,"stimulus":"<p>Welche Sequenz haben Sie als natürlicher empfunden?</p>","button_pressed":"0","test_part":"response","test_stimulus":{"position":0,"left":"bvh/return-bottle-hold-training1-lines.txt","right":"bvh/vr_prediction_models/model(dmp)-dataset(return-bottle-hold)-npsi(40)-hold(1)/final-lines.txt","att_check":false},"trial_type":"html-button-response","trial_index":106,"time_elapsed":287952,"internal_node_id":"0.0-8.0-3.24","subject":"pvmkyoht9kcvsng","sona":"THNS"},{"rt":473,"stimulus":"<p>Bereit?</p>","button_pressed":"0","trial_type":"html-button-response","trial_index":107,"time_elapsed":288428,"internal_node_id":"0.0-8.0-0.25","subject":"pvmkyoht9kcvsng","sona":"THNS"},{"rt":null,"stimulus":"<div style=\"font-size:60px;\">+</div>","key_press":null,"trial_type":"html-keyboard-response","trial_index":108,"time_elapsed":290447,"internal_node_id":"0.0-8.0-1.25","subject":"pvmkyoht9kcvsng","sona":"THNS"},{"trial_type":"turing-test","trial_index":109,"time_elapsed":293843,"internal_node_id":"0.0-8.0-2.25","subject":"pvmkyoht9kcvsng","sona":"THNS"},{"rt":641,"stimulus":"<p>Welche Sequenz haben Sie als natürlicher empfunden?</p>","button_pressed":"1","test_part":"response","test_stimulus":{"position":1,"left":"bvh/vr_prediction_models/model(vcgpdm)-dataset(pass-bottle-hold)-mode(ELBO)-parts(3)-dyn(25)-lvm(30)-hold(1)/final-lines.txt","right":"bvh/pass-bottle-hold-training1-lines.txt","att_check":false},"trial_type":"html-button-response","trial_index":110,"time_elapsed":294487,"internal_node_id":"0.0-8.0-3.25","subject":"pvmkyoht9kcvsng","sona":"THNS"},{"rt":582,"stimulus":"<p>Bereit?</p>","button_pressed":"0","trial_type":"html-button-response","trial_index":111,"time_elapsed":295072,"internal_node_id":"0.0-8.0-0.26","subject":"pvmkyoht9kcvsng","sona":"THNS"},{"rt":null,"stimulus":"<div style=\"font-size:60px;\">+</div>","key_press":null,"trial_type":"html-keyboard-response","trial_index":112,"time_elapsed":297090,"internal_node_id":"0.0-8.0-1.26","subject":"pvmkyoht9kcvsng","sona":"THNS"},{"trial_type":"turing-test","trial_index":113,"time_elapsed":300890,"internal_node_id":"0.0-8.0-2.26","subject":"pvmkyoht9kcvsng","sona":"THNS"},{"rt":1064,"stimulus":"<p>Welche Sequenz haben Sie als natürlicher empfunden?</p>","button_pressed":"0","test_part":"response","test_stimulus":{"position":0,"left":"bvh/return-bottle-hold-training4-lines.txt","right":"bvh/vr_prediction_models/model(vcgpdm)-dataset(return-bottle-hold)-mode(ELBO)-parts(1)-dyn(35)-lvm(10)-hold(4)/final-lines.txt","att_check":false},"trial_type":"html-button-response","trial_index":114,"time_elapsed":301956,"internal_node_id":"0.0-8.0-3.26","subject":"pvmkyoht9kcvsng","sona":"THNS"},{"rt":562,"stimulus":"<p>Bereit?</p>","button_pressed":"0","trial_type":"html-button-response","trial_index":115,"time_elapsed":302520,"internal_node_id":"0.0-8.0-0.27","subject":"pvmkyoht9kcvsng","sona":"THNS"},{"rt":null,"stimulus":"<div style=\"font-size:60px;\">+</div>","key_press":null,"trial_type":"html-keyboard-response","trial_index":116,"time_elapsed":304539,"internal_node_id":"0.0-8.0-1.27","subject":"pvmkyoht9kcvsng","sona":"THNS"},{"trial_type":"turing-test","trial_index":117,"time_elapsed":310359,"internal_node_id":"0.0-8.0-2.27","subject":"pvmkyoht9kcvsng","sona":"THNS"},{"rt":3007,"stimulus":"<p>Welche Sequenz haben Sie als natürlicher empfunden?</p>","button_pressed":"1","test_part":"response","test_stimulus":{"position":1,"left":"bvh/vr_prediction_models/model(vcgpdm)-dataset(pass-bottle)-mode(ELBO)-parts(1)-dyn(15)-lvm(35)-hold(4)/final-lines.txt","right":"bvh/pass-bottle-training4-lines.txt","att_check":false},"trial_type":"html-button-response","trial_index":118,"time_elapsed":313369,"internal_node_id":"0.0-8.0-3.27","subject":"pvmkyoht9kcvsng","sona":"THNS"},{"rt":1284,"stimulus":"<p>Bereit?</p>","button_pressed":"0","trial_type":"html-button-response","trial_index":119,"time_elapsed":314656,"internal_node_id":"0.0-8.0-0.28","subject":"pvmkyoht9kcvsng","sona":"THNS"},{"rt":null,"stimulus":"<div style=\"font-size:60px;\">+</div>","key_press":null,"trial_type":"html-keyboard-response","trial_index":120,"time_elapsed":316670,"internal_node_id":"0.0-8.0-1.28","subject":"pvmkyoht9kcvsng","sona":"THNS"},{"trial_type":"turing-test","trial_index":121,"time_elapsed":320203,"internal_node_id":"0.0-8.0-2.28","subject":"pvmkyoht9kcvsng","sona":"THNS"},{"rt":2795,"stimulus":"<p>Welche Sequenz haben Sie als natürlicher empfunden?</p>","button_pressed":"0","test_part":"response","test_stimulus":{"position":0,"left":"bvh/pass-bottle-hold-training4-lines.txt","right":"bvh/vr_prediction_models/model(dmp)-dataset(pass-bottle-hold)-npsi(100)-hold(4)/final-lines.txt","att_check":false},"trial_type":"html-button-response","trial_index":122,"time_elapsed":322999,"internal_node_id":"0.0-8.0-3.28","subject":"pvmkyoht9kcvsng","sona":"THNS"},{"rt":514,"stimulus":"<p>Bereit?</p>","button_pressed":"0","trial_type":"html-button-response","trial_index":123,"time_elapsed":323516,"internal_node_id":"0.0-8.0-0.29","subject":"pvmkyoht9kcvsng","sona":"THNS"},{"rt":null,"stimulus":"<div style=\"font-size:60px;\">+</div>","key_press":null,"trial_type":"html-keyboard-response","trial_index":124,"time_elapsed":325540,"internal_node_id":"0.0-8.0-1.29","subject":"pvmkyoht9kcvsng","sona":"THNS"},{"trial_type":"turing-test","trial_index":125,"time_elapsed":331438,"internal_node_id":"0.0-8.0-2.29","subject":"pvmkyoht9kcvsng","sona":"THNS"},{"rt":3463,"stimulus":"<p>Welche Sequenz haben Sie als natürlicher empfunden?</p>","button_pressed":"1","test_part":"response","test_stimulus":{"position":1,"left":"bvh/vr_prediction_models/model(dmp)-dataset(pass-bottle)-npsi(40)-hold(3)/final-lines.txt","right":"bvh/pass-bottle-training3-lines.txt","att_check":false},"trial_type":"html-button-response","trial_index":126,"time_elapsed":334905,"internal_node_id":"0.0-8.0-3.29","subject":"pvmkyoht9kcvsng","sona":"THNS"},{"rt":653,"stimulus":"<p>Bereit?</p>","button_pressed":"0","trial_type":"html-button-response","trial_index":127,"time_elapsed":335560,"internal_node_id":"0.0-8.0-0.30","subject":"pvmkyoht9kcvsng","sona":"THNS"},{"rt":null,"stimulus":"<div style=\"font-size:60px;\">+</div>","key_press":null,"trial_type":"html-keyboard-response","trial_index":128,"time_elapsed":337584,"internal_node_id":"0.0-8.0-1.30","subject":"pvmkyoht9kcvsng","sona":"THNS"},{"trial_type":"turing-test","trial_index":129,"time_elapsed":343149,"internal_node_id":"0.0-8.0-2.30","subject":"pvmkyoht9kcvsng","sona":"THNS"},{"rt":629,"stimulus":"<p>Welche Sequenz haben Sie als natürlicher empfunden?</p>","button_pressed":"1","test_part":"response","test_stimulus":{"position":0,"left":"bvh/pass-bottle-training1-lines.txt","right":"bvh/vr_prediction_models/model(vcgpdm)-dataset(pass-bottle)-mode(ELBO)-parts(3)-dyn(10)-lvm(10)-hold(1)/final-lines.txt","att_check":false},"trial_type":"html-button-response","trial_index":130,"time_elapsed":343784,"internal_node_id":"0.0-8.0-3.30","subject":"pvmkyoht9kcvsng","sona":"THNS"},{"rt":469,"stimulus":"<p>Bereit?</p>","button_pressed":"0","trial_type":"html-button-response","trial_index":131,"time_elapsed":344255,"internal_node_id":"0.0-8.0-0.31","subject":"pvmkyoht9kcvsng","sona":"THNS"},{"rt":null,"stimulus":"<div style=\"font-size:60px;\">+</div>","key_press":null,"trial_type":"html-keyboard-response","trial_index":132,"time_elapsed":346276,"internal_node_id":"0.0-8.0-1.31","subject":"pvmkyoht9kcvsng","sona":"THNS"},{"trial_type":"turing-test","trial_index":133,"time_elapsed":349985,"internal_node_id":"0.0-8.0-2.31","subject":"pvmkyoht9kcvsng","sona":"THNS"},{"rt":1236,"stimulus":"<p>Welche Sequenz haben Sie als natürlicher empfunden?</p>","button_pressed":"1","test_part":"response","test_stimulus":{"position":1,"left":"bvh/vr_prediction_models/model(dmp)-dataset(return-bottle-hold)-npsi(40)-hold(4)/final-lines.txt","right":"bvh/return-bottle-hold-training4-lines.txt","att_check":false},"trial_type":"html-button-response","trial_index":134,"time_elapsed":351228,"internal_node_id":"0.0-8.0-3.31","subject":"pvmkyoht9kcvsng","sona":"THNS"},{"rt":556,"stimulus":"<p>Bereit?</p>","button_pressed":"0","trial_type":"html-button-response","trial_index":135,"time_elapsed":351788,"internal_node_id":"0.0-8.0-0.32","subject":"pvmkyoht9kcvsng","sona":"THNS"},{"rt":null,"stimulus":"<div style=\"font-size:60px;\">+</div>","key_press":null,"trial_type":"html-keyboard-response","trial_index":136,"time_elapsed":353812,"internal_node_id":"0.0-8.0-1.32","subject":"pvmkyoht9kcvsng","sona":"THNS"},{"trial_type":"turing-test","trial_index":137,"time_elapsed":357563,"internal_node_id":"0.0-8.0-2.32","subject":"pvmkyoht9kcvsng","sona":"THNS"},{"rt":660,"stimulus":"<p>Welche Sequenz haben Sie als natürlicher empfunden?</p>","button_pressed":"1","test_part":"response","test_stimulus":{"position":0,"left":"bvh/pass-bottle-hold-training3-lines.txt","right":"bvh/vr_prediction_models/model(vcgpdm)-dataset(pass-bottle-hold)-mode(ELBO)-parts(3)-dyn(25)-lvm(30)-hold(3)/final-lines.txt","att_check":false},"trial_type":"html-button-response","trial_index":138,"time_elapsed":358228,"internal_node_id":"0.0-8.0-3.32","subject":"pvmkyoht9kcvsng","sona":"THNS"},{"rt":930,"stimulus":"<p>Bereit?</p>","button_pressed":"0","trial_type":"html-button-response","trial_index":139,"time_elapsed":359160,"internal_node_id":"0.0-8.0-0.33","subject":"pvmkyoht9kcvsng","sona":"THNS"},{"rt":null,"stimulus":"<div style=\"font-size:60px;\">+</div>","key_press":null,"trial_type":"html-keyboard-response","trial_index":140,"time_elapsed":361178,"internal_node_id":"0.0-8.0-1.33","subject":"pvmkyoht9kcvsng","sona":"THNS"},{"trial_type":"turing-test","trial_index":141,"time_elapsed":364672,"internal_node_id":"0.0-8.0-2.33","subject":"pvmkyoht9kcvsng","sona":"THNS"},{"rt":1080,"stimulus":"<p>Welche Sequenz haben Sie als natürlicher empfunden?</p>","button_pressed":"0","test_part":"response","test_stimulus":{"position":0,"left":"bvh/return-bottle-hold-training1-lines.txt","right":"bvh/vr_prediction_models/model(vcgpdm)-dataset(return-bottle-hold)-mode(ELBO)-parts(1)-dyn(20)-lvm(30)-hold(1)/final-lines.txt","att_check":false},"trial_type":"html-button-response","trial_index":142,"time_elapsed":365756,"internal_node_id":"0.0-8.0-3.33","subject":"pvmkyoht9kcvsng","sona":"THNS"},{"rt":911,"stimulus":"<p>Bereit?</p>","button_pressed":"0","trial_type":"html-button-response","trial_index":143,"time_elapsed":366671,"internal_node_id":"0.0-8.0-0.34","subject":"pvmkyoht9kcvsng","sona":"THNS"},{"rt":null,"stimulus":"<div style=\"font-size:60px;\">+</div>","key_press":null,"trial_type":"html-keyboard-response","trial_index":144,"time_elapsed":368690,"internal_node_id":"0.0-8.0-1.34","subject":"pvmkyoht9kcvsng","sona":"THNS"},{"trial_type":"turing-test","trial_index":145,"time_elapsed":375496,"internal_node_id":"0.0-8.0-2.34","subject":"pvmkyoht9kcvsng","sona":"THNS"},{"rt":633,"stimulus":"<p>Welche Sequenz haben Sie als natürlicher empfunden?</p>","button_pressed":"0","test_part":"response","test_stimulus":{"position":1,"left":"bvh/vr_prediction_models/model(vcgpdm)-dataset(return-bottle)-mode(ELBO)-parts(3)-dyn(30)-lvm(15)-hold(2)/final-lines.txt","right":"bvh/return-bottle-training2-lines.txt","att_check":false},"trial_type":"html-button-response","trial_index":146,"time_elapsed":376136,"internal_node_id":"0.0-8.0-3.34","subject":"pvmkyoht9kcvsng","sona":"THNS"},{"rt":604,"stimulus":"<p>Bereit?</p>","button_pressed":"0","trial_type":"html-button-response","trial_index":147,"time_elapsed":376744,"internal_node_id":"0.0-8.0-0.35","subject":"pvmkyoht9kcvsng","sona":"THNS"},{"rt":null,"stimulus":"<div style=\"font-size:60px;\">+</div>","key_press":null,"trial_type":"html-keyboard-response","trial_index":148,"time_elapsed":378768,"internal_node_id":"0.0-8.0-1.35","subject":"pvmkyoht9kcvsng","sona":"THNS"},{"trial_type":"turing-test","trial_index":149,"time_elapsed":384049,"internal_node_id":"0.0-8.0-2.35","subject":"pvmkyoht9kcvsng","sona":"THNS"},{"rt":682,"stimulus":"<p>Welche Sequenz haben Sie als natürlicher empfunden?</p>","button_pressed":"1","test_part":"response","test_stimulus":{"position":1,"left":"bvh/vr_prediction_models/model(vcgpdm)-dataset(return-bottle-hold)-mode(ELBO)-parts(1)-dyn(10)-lvm(25)-hold(0)/final-lines.txt","right":"bvh/return-bottle-hold-training0-lines.txt","att_check":false},"trial_type":"html-button-response","trial_index":150,"time_elapsed":384736,"internal_node_id":"0.0-8.0-3.35","subject":"pvmkyoht9kcvsng","sona":"THNS"},{"rt":406,"stimulus":"<p>Bereit?</p>","button_pressed":"0","trial_type":"html-button-response","trial_index":151,"time_elapsed":385143,"internal_node_id":"0.0-8.0-0.36","subject":"pvmkyoht9kcvsng","sona":"THNS"},{"rt":null,"stimulus":"<div style=\"font-size:60px;\">+</div>","key_press":null,"trial_type":"html-keyboard-response","trial_index":152,"time_elapsed":387167,"internal_node_id":"0.0-8.0-1.36","subject":"pvmkyoht9kcvsng","sona":"THNS"},{"trial_type":"turing-test","trial_index":153,"time_elapsed":392631,"internal_node_id":"0.0-8.0-2.36","subject":"pvmkyoht9kcvsng","sona":"THNS"},{"rt":645,"stimulus":"<p>Welche Sequenz haben Sie als natürlicher empfunden?</p>","button_pressed":"1","test_part":"response","test_stimulus":{"position":1,"left":"bvh/vr_prediction_models/model(tmp)-dataset(return-bottle)-numprim(9)-hold(0)/final-lines.txt","right":"bvh/return-bottle-training0-lines.txt","att_check":false},"trial_type":"html-button-response","trial_index":154,"time_elapsed":393280,"internal_node_id":"0.0-8.0-3.36","subject":"pvmkyoht9kcvsng","sona":"THNS"},{"rt":589,"stimulus":"<p>Bereit?</p>","button_pressed":"0","trial_type":"html-button-response","trial_index":155,"time_elapsed":393872,"internal_node_id":"0.0-8.0-0.37","subject":"pvmkyoht9kcvsng","sona":"THNS"},{"rt":null,"stimulus":"<div style=\"font-size:60px;\">+</div>","key_press":null,"trial_type":"html-keyboard-response","trial_index":156,"time_elapsed":395889,"internal_node_id":"0.0-8.0-1.37","subject":"pvmkyoht9kcvsng","sona":"THNS"},{"trial_type":"turing-test","trial_index":157,"time_elapsed":399185,"internal_node_id":"0.0-8.0-2.37","subject":"pvmkyoht9kcvsng","sona":"THNS"},{"rt":665,"stimulus":"<p>Welche Sequenz haben Sie als natürlicher empfunden?</p>","button_pressed":"0","test_part":"response","test_stimulus":{"position":0,"left":"bvh/pass-bottle-hold-training2-lines.txt","right":"bvh/vr_prediction_models/model(dmp)-dataset(pass-bottle-hold)-npsi(20)-hold(2)/final-lines.txt","att_check":false},"trial_type":"html-button-response","trial_index":158,"time_elapsed":399856,"internal_node_id":"0.0-8.0-3.37","subject":"pvmkyoht9kcvsng","sona":"THNS"},{"rt":804,"stimulus":"<p>Bereit?</p>","button_pressed":"0","trial_type":"html-button-response","trial_index":159,"time_elapsed":400664,"internal_node_id":"0.0-8.0-0.38","subject":"pvmkyoht9kcvsng","sona":"THNS"},{"rt":null,"stimulus":"<div style=\"font-size:60px;\">+</div>","key_press":null,"trial_type":"html-keyboard-response","trial_index":160,"time_elapsed":402685,"internal_node_id":"0.0-8.0-1.38","subject":"pvmkyoht9kcvsng","sona":"THNS"},{"trial_type":"turing-test","trial_index":161,"time_elapsed":408874,"internal_node_id":"0.0-8.0-2.38","subject":"pvmkyoht9kcvsng","sona":"THNS"},{"rt":776,"stimulus":"<p>Welche Sequenz haben Sie als natürlicher empfunden?</p>","button_pressed":"1","test_part":"response","test_stimulus":{"position":1,"left":"bvh/vr_prediction_models/model(vcgpdm)-dataset(return-bottle)-mode(ELBO)-parts(1)-dyn(10)-lvm(30)-hold(1)/final-lines.txt","right":"bvh/return-bottle-training1-lines.txt","att_check":false},"trial_type":"html-button-response","trial_index":162,"time_elapsed":409655,"internal_node_id":"0.0-8.0-3.38","subject":"pvmkyoht9kcvsng","sona":"THNS"},{"rt":494,"stimulus":"<p>Bereit?</p>","button_pressed":"0","trial_type":"html-button-response","trial_index":163,"time_elapsed":410151,"internal_node_id":"0.0-8.0-0.39","subject":"pvmkyoht9kcvsng","sona":"THNS"},{"rt":null,"stimulus":"<div style=\"font-size:60px;\">+</div>","key_press":null,"trial_type":"html-keyboard-response","trial_index":164,"time_elapsed":412166,"internal_node_id":"0.0-8.0-1.39","subject":"pvmkyoht9kcvsng","sona":"THNS"},{"trial_type":"turing-test","trial_index":165,"time_elapsed":417636,"internal_node_id":"0.0-8.0-2.39","subject":"pvmkyoht9kcvsng","sona":"THNS"},{"rt":1386,"stimulus":"<p>Welche Sequenz haben Sie als natürlicher empfunden?</p>","button_pressed":"1","test_part":"response","test_stimulus":{"position":1,"left":"bvh/vr_prediction_models/model(dmp)-dataset(return-bottle)-npsi(20)-hold(0)/final-lines.txt","right":"bvh/return-bottle-training0-lines.txt","att_check":false},"trial_type":"html-button-response","trial_index":166,"time_elapsed":419028,"internal_node_id":"0.0-8.0-3.39","subject":"pvmkyoht9kcvsng","sona":"THNS"},{"rt":1040,"stimulus":"<p>Bereit?</p>","button_pressed":"0","trial_type":"html-button-response","trial_index":167,"time_elapsed":420071,"internal_node_id":"0.0-8.0-0.40","subject":"pvmkyoht9kcvsng","sona":"THNS"},{"rt":null,"stimulus":"<div style=\"font-size:60px;\">+</div>","key_press":null,"trial_type":"html-keyboard-response","trial_index":168,"time_elapsed":422089,"internal_node_id":"0.0-8.0-1.40","subject":"pvmkyoht9kcvsng","sona":"THNS"},{"trial_type":"turing-test","trial_index":169,"time_elapsed":428117,"internal_node_id":"0.0-8.0-2.40","subject":"pvmkyoht9kcvsng","sona":"THNS"},{"rt":1489,"stimulus":"<p>Welche Sequenz haben Sie als natürlicher empfunden?</p>","button_pressed":"1","test_part":"response","test_stimulus":{"position":1,"left":"bvh/vr_prediction_models/model(vcgpdm)-dataset(return-bottle)-mode(MAP)-parts(3)-hold(3)/final-lines.txt","right":"bvh/return-bottle-training3-lines.txt","att_check":false},"trial_type":"html-button-response","trial_index":170,"time_elapsed":429611,"internal_node_id":"0.0-8.0-3.40","subject":"pvmkyoht9kcvsng","sona":"THNS"},{"rt":536,"stimulus":"<p>Bereit?</p>","button_pressed":"0","trial_type":"html-button-response","trial_index":171,"time_elapsed":430151,"internal_node_id":"0.0-8.0-0.41","subject":"pvmkyoht9kcvsng","sona":"THNS"},{"rt":null,"stimulus":"<div style=\"font-size:60px;\">+</div>","key_press":null,"trial_type":"html-keyboard-response","trial_index":172,"time_elapsed":432167,"internal_node_id":"0.0-8.0-1.41","subject":"pvmkyoht9kcvsng","sona":"THNS"},{"trial_type":"turing-test","trial_index":173,"time_elapsed":435875,"internal_node_id":"0.0-8.0-2.41","subject":"pvmkyoht9kcvsng","sona":"THNS"},{"rt":607,"stimulus":"<p>Welche Sequenz haben Sie als natürlicher empfunden?</p>","button_pressed":"1","test_part":"response","test_stimulus":{"position":1,"left":"bvh/vr_prediction_models/model(tmp)-dataset(return-bottle-hold)-numprim(14)-hold(4)/final-lines.txt","right":"bvh/return-bottle-hold-training4-lines.txt","att_check":false},"trial_type":"html-button-response","trial_index":174,"time_elapsed":436488,"internal_node_id":"0.0-8.0-3.41","subject":"pvmkyoht9kcvsng","sona":"THNS"},{"rt":185,"stimulus":"<p>Bereit?</p>","button_pressed":"0","trial_type":"html-button-response","trial_index":175,"time_elapsed":436675,"internal_node_id":"0.0-8.0-0.42","subject":"pvmkyoht9kcvsng","sona":"THNS"},{"rt":null,"stimulus":"<div style=\"font-size:60px;\">+</div>","key_press":null,"trial_type":"html-keyboard-response","trial_index":176,"time_elapsed":438690,"internal_node_id":"0.0-8.0-1.42","subject":"pvmkyoht9kcvsng","sona":"THNS"},{"trial_type":"turing-test","trial_index":177,"time_elapsed":441951,"internal_node_id":"0.0-8.0-2.42","subject":"pvmkyoht9kcvsng","sona":"THNS"},{"rt":2126,"stimulus":"<p>Welche Sequenz haben Sie als natürlicher empfunden?</p>","button_pressed":"0","test_part":"response","test_stimulus":{"position":1,"left":"bvh/vr_prediction_models/model(dmp)-dataset(pass-bottle-hold)-npsi(40)-hold(1)/final-lines.txt","right":"bvh/pass-bottle-hold-training1-lines.txt","att_check":true},"trial_type":"html-button-response","trial_index":178,"time_elapsed":444079,"internal_node_id":"0.0-8.0-3.42","subject":"pvmkyoht9kcvsng","sona":"THNS"},{"rt":814,"stimulus":"<p>Bereit?</p>","button_pressed":"0","trial_type":"html-button-response","trial_index":179,"time_elapsed":444895,"internal_node_id":"0.0-8.0-0.43","subject":"pvmkyoht9kcvsng","sona":"THNS"},{"rt":null,"stimulus":"<div style=\"font-size:60px;\">+</div>","key_press":null,"trial_type":"html-keyboard-response","trial_index":180,"time_elapsed":446923,"internal_node_id":"0.0-8.0-1.43","subject":"pvmkyoht9kcvsng","sona":"THNS"},{"trial_type":"turing-test","trial_index":181,"time_elapsed":453586,"internal_node_id":"0.0-8.0-2.43","subject":"pvmkyoht9kcvsng","sona":"THNS"},{"rt":1158,"stimulus":"<p>Welche Sequenz haben Sie als natürlicher empfunden?</p>","button_pressed":"0","test_part":"response","test_stimulus":{"position":0,"left":"bvh/return-bottle-training2-lines.txt","right":"bvh/vr_prediction_models/model(vcgpdm)-dataset(return-bottle)-mode(ELBO)-parts(3)-dyn(10)-lvm(25)-hold(2)/final-lines.txt","att_check":false},"trial_type":"html-button-response","trial_index":182,"time_elapsed":454751,"internal_node_id":"0.0-8.0-3.43","subject":"pvmkyoht9kcvsng","sona":"THNS"},{"rt":605,"stimulus":"<p>Bereit?</p>","button_pressed":"0","trial_type":"html-button-response","trial_index":183,"time_elapsed":455359,"internal_node_id":"0.0-8.0-0.44","subject":"pvmkyoht9kcvsng","sona":"THNS"},{"rt":null,"stimulus":"<div style=\"font-size:60px;\">+</div>","key_press":null,"trial_type":"html-keyboard-response","trial_index":184,"time_elapsed":457373,"internal_node_id":"0.0-8.0-1.44","subject":"pvmkyoht9kcvsng","sona":"THNS"},{"trial_type":"turing-test","trial_index":185,"time_elapsed":462600,"internal_node_id":"0.0-8.0-2.44","subject":"pvmkyoht9kcvsng","sona":"THNS"},{"rt":1488,"stimulus":"<p>Welche Sequenz haben Sie als natürlicher empfunden?</p>","button_pressed":"1","test_part":"response","test_stimulus":{"position":0,"left":"bvh/return-bottle-hold-training0-lines.txt","right":"bvh/vr_prediction_models/model(vcgpdm)-dataset(return-bottle-hold)-mode(ELBO)-parts(3)-dyn(15)-lvm(30)-hold(0)/final-lines.txt","att_check":false},"trial_type":"html-button-response","trial_index":186,"time_elapsed":464100,"internal_node_id":"0.0-8.0-3.44","subject":"pvmkyoht9kcvsng","sona":"THNS"},{"rt":663,"stimulus":"<p>Bereit?</p>","button_pressed":"0","trial_type":"html-button-response","trial_index":187,"time_elapsed":464767,"internal_node_id":"0.0-8.0-0.45","subject":"pvmkyoht9kcvsng","sona":"THNS"},{"rt":null,"stimulus":"<div style=\"font-size:60px;\">+</div>","key_press":null,"trial_type":"html-keyboard-response","trial_index":188,"time_elapsed":466782,"internal_node_id":"0.0-8.0-1.45","subject":"pvmkyoht9kcvsng","sona":"THNS"},{"trial_type":"turing-test","trial_index":189,"time_elapsed":470270,"internal_node_id":"0.0-8.0-2.45","subject":"pvmkyoht9kcvsng","sona":"THNS"},{"rt":634,"stimulus":"<p>Welche Sequenz haben Sie als natürlicher empfunden?</p>","button_pressed":"0","test_part":"response","test_stimulus":{"position":0,"left":"bvh/return-bottle-hold-training1-lines.txt","right":"bvh/vr_prediction_models/model(vcgpdm)-dataset(return-bottle-hold)-mode(ELBO)-parts(3)-dyn(35)-lvm(20)-hold(1)/final-lines.txt","att_check":false},"trial_type":"html-button-response","trial_index":190,"time_elapsed":470907,"internal_node_id":"0.0-8.0-3.45","subject":"pvmkyoht9kcvsng","sona":"THNS"},{"rt":472,"stimulus":"<p>Bereit?</p>","button_pressed":"0","trial_type":"html-button-response","trial_index":191,"time_elapsed":471383,"internal_node_id":"0.0-8.0-0.46","subject":"pvmkyoht9kcvsng","sona":"THNS"},{"rt":null,"stimulus":"<div style=\"font-size:60px;\">+</div>","key_press":null,"trial_type":"html-keyboard-response","trial_index":192,"time_elapsed":473411,"internal_node_id":"0.0-8.0-1.46","subject":"pvmkyoht9kcvsng","sona":"THNS"},{"trial_type":"turing-test","trial_index":193,"time_elapsed":478580,"internal_node_id":"0.0-8.0-2.46","subject":"pvmkyoht9kcvsng","sona":"THNS"},{"rt":531,"stimulus":"<p>Welche Sequenz haben Sie als natürlicher empfunden?</p>","button_pressed":"1","test_part":"response","test_stimulus":{"position":1,"left":"bvh/vr_prediction_models/model(dmp)-dataset(return-bottle-hold)-npsi(20)-hold(0)/final-lines.txt","right":"bvh/return-bottle-hold-training0-lines.txt","att_check":true},"trial_type":"html-button-response","trial_index":194,"time_elapsed":479119,"internal_node_id":"0.0-8.0-3.46","subject":"pvmkyoht9kcvsng","sona":"THNS"},{"rt":836,"stimulus":"<p>Bereit?</p>","button_pressed":"0","trial_type":"html-button-response","trial_index":195,"time_elapsed":479959,"internal_node_id":"0.0-8.0-0.47","subject":"pvmkyoht9kcvsng","sona":"THNS"},{"rt":null,"stimulus":"<div style=\"font-size:60px;\">+</div>","key_press":null,"trial_type":"html-keyboard-response","trial_index":196,"time_elapsed":481989,"internal_node_id":"0.0-8.0-1.47","subject":"pvmkyoht9kcvsng","sona":"THNS"},{"trial_type":"turing-test","trial_index":197,"time_elapsed":488209,"internal_node_id":"0.0-8.0-2.47","subject":"pvmkyoht9kcvsng","sona":"THNS"},{"rt":828,"stimulus":"<p>Welche Sequenz haben Sie als natürlicher empfunden?</p>","button_pressed":"0","test_part":"response","test_stimulus":{"position":0,"left":"bvh/pass-bottle-training2-lines.txt","right":"bvh/vr_prediction_models/model(vcgpdm)-dataset(pass-bottle)-mode(ELBO)-parts(3)-dyn(20)-lvm(15)-hold(2)/final-lines.txt","att_check":false},"trial_type":"html-button-response","trial_index":198,"time_elapsed":489043,"internal_node_id":"0.0-8.0-3.47","subject":"pvmkyoht9kcvsng","sona":"THNS"},{"rt":493,"stimulus":"<p>Bereit?</p>","button_pressed":"0","trial_type":"html-button-response","trial_index":199,"time_elapsed":489539,"internal_node_id":"0.0-8.0-0.48","subject":"pvmkyoht9kcvsng","sona":"THNS"},{"rt":null,"stimulus":"<div style=\"font-size:60px;\">+</div>","key_press":null,"trial_type":"html-keyboard-response","trial_index":200,"time_elapsed":491560,"internal_node_id":"0.0-8.0-1.48","subject":"pvmkyoht9kcvsng","sona":"THNS"},{"trial_type":"turing-test","trial_index":201,"time_elapsed":494870,"internal_node_id":"0.0-8.0-2.48","subject":"pvmkyoht9kcvsng","sona":"THNS"},{"rt":904,"stimulus":"<p>Welche Sequenz haben Sie als natürlicher empfunden?</p>","button_pressed":"0","test_part":"response","test_stimulus":{"position":0,"left":"bvh/pass-bottle-hold-training2-lines.txt","right":"bvh/vr_prediction_models/model(dmp)-dataset(pass-bottle-hold)-npsi(50)-hold(2)/final-lines.txt","att_check":false},"trial_type":"html-button-response","trial_index":202,"time_elapsed":495778,"internal_node_id":"0.0-8.0-3.48","subject":"pvmkyoht9kcvsng","sona":"THNS"},{"rt":537,"stimulus":"<p>Bereit?</p>","button_pressed":"0","trial_type":"html-button-response","trial_index":203,"time_elapsed":496319,"internal_node_id":"0.0-8.0-0.49","subject":"pvmkyoht9kcvsng","sona":"THNS"},{"rt":null,"stimulus":"<div style=\"font-size:60px;\">+</div>","key_press":null,"trial_type":"html-keyboard-response","trial_index":204,"time_elapsed":498331,"internal_node_id":"0.0-8.0-1.49","subject":"pvmkyoht9kcvsng","sona":"THNS"},{"trial_type":"turing-test","trial_index":205,"time_elapsed":503904,"internal_node_id":"0.0-8.0-2.49","subject":"pvmkyoht9kcvsng","sona":"THNS"},{"rt":837,"stimulus":"<p>Welche Sequenz haben Sie als natürlicher empfunden?</p>","button_pressed":"0","test_part":"response","test_stimulus":{"position":0,"left":"bvh/return-bottle-training0-lines.txt","right":"bvh/vr_prediction_models/model(vcgpdm)-dataset(return-bottle)-mode(ELBO)-parts(1)-dyn(30)-lvm(30)-hold(0)/final-lines.txt","att_check":false},"trial_type":"html-button-response","trial_index":206,"time_elapsed":504747,"internal_node_id":"0.0-8.0-3.49","subject":"pvmkyoht9kcvsng","sona":"THNS"},{"rt":732,"stimulus":"<p>Bereit?</p>","button_pressed":"0","trial_type":"html-button-response","trial_index":207,"time_elapsed":505483,"internal_node_id":"0.0-8.0-0.50","subject":"pvmkyoht9kcvsng","sona":"THNS"},{"rt":null,"stimulus":"<div style=\"font-size:60px;\">+</div>","key_press":null,"trial_type":"html-keyboard-response","trial_index":208,"time_elapsed":507507,"internal_node_id":"0.0-8.0-1.50","subject":"pvmkyoht9kcvsng","sona":"THNS"},{"trial_type":"turing-test","trial_index":209,"time_elapsed":513399,"internal_node_id":"0.0-8.0-2.50","subject":"pvmkyoht9kcvsng","sona":"THNS"},{"rt":581,"stimulus":"<p>Welche Sequenz haben Sie als natürlicher empfunden?</p>","button_pressed":"1","test_part":"response","test_stimulus":{"position":0,"left":"bvh/pass-bottle-training3-lines.txt","right":"bvh/vr_prediction_models/model(vcgpdm)-dataset(pass-bottle)-mode(ELBO)-parts(1)-dyn(35)-lvm(30)-hold(3)/final-lines.txt","att_check":false},"trial_type":"html-button-response","trial_index":210,"time_elapsed":513987,"internal_node_id":"0.0-8.0-3.50","subject":"pvmkyoht9kcvsng","sona":"THNS"},{"rt":329,"stimulus":"<p>Bereit?</p>","button_pressed":"0","trial_type":"html-button-response","trial_index":211,"time_elapsed":514319,"internal_node_id":"0.0-8.0-0.51","subject":"pvmkyoht9kcvsng","sona":"THNS"},{"rt":null,"stimulus":"<div style=\"font-size:60px;\">+</div>","key_press":null,"trial_type":"html-keyboard-response","trial_index":212,"time_elapsed":516342,"internal_node_id":"0.0-8.0-1.51","subject":"pvmkyoht9kcvsng","sona":"THNS"},{"trial_type":"turing-test","trial_index":213,"time_elapsed":522211,"internal_node_id":"0.0-8.0-2.51","subject":"pvmkyoht9kcvsng","sona":"THNS"},{"rt":646,"stimulus":"<p>Welche Sequenz haben Sie als natürlicher empfunden?</p>","button_pressed":"1","test_part":"response","test_stimulus":{"position":0,"left":"bvh/pass-bottle-training4-lines.txt","right":"bvh/vr_prediction_models/model(vcgpdm)-dataset(pass-bottle)-mode(ELBO)-parts(3)-dyn(25)-lvm(30)-hold(4)/final-lines.txt","att_check":false},"trial_type":"html-button-response","trial_index":214,"time_elapsed":522862,"internal_node_id":"0.0-8.0-3.51","subject":"pvmkyoht9kcvsng","sona":"THNS"},{"rt":218,"stimulus":"<p>Bereit?</p>","button_pressed":"0","trial_type":"html-button-response","trial_index":215,"time_elapsed":523083,"internal_node_id":"0.0-8.0-0.52","subject":"pvmkyoht9kcvsng","sona":"THNS"},{"rt":null,"stimulus":"<div style=\"font-size:60px;\">+</div>","key_press":null,"trial_type":"html-keyboard-response","trial_index":216,"time_elapsed":525109,"internal_node_id":"0.0-8.0-1.52","subject":"pvmkyoht9kcvsng","sona":"THNS"},{"trial_type":"turing-test","trial_index":217,"time_elapsed":531240,"internal_node_id":"0.0-8.0-2.52","subject":"pvmkyoht9kcvsng","sona":"THNS"},{"rt":615,"stimulus":"<p>Welche Sequenz haben Sie als natürlicher empfunden?</p>","button_pressed":"1","test_part":"response","test_stimulus":{"position":1,"left":"bvh/vr_prediction_models/model(tmp)-dataset(pass-bottle)-numprim(4)-hold(2)/final-lines.txt","right":"bvh/pass-bottle-training2-lines.txt","att_check":false},"trial_type":"html-button-response","trial_index":218,"time_elapsed":531859,"internal_node_id":"0.0-8.0-3.52","subject":"pvmkyoht9kcvsng","sona":"THNS"},{"rt":180,"stimulus":"<p>Bereit?</p>","button_pressed":"0","trial_type":"html-button-response","trial_index":219,"time_elapsed":532043,"internal_node_id":"0.0-8.0-0.53","subject":"pvmkyoht9kcvsng","sona":"THNS"},{"rt":null,"stimulus":"<div style=\"font-size:60px;\">+</div>","key_press":null,"trial_type":"html-keyboard-response","trial_index":220,"time_elapsed":534058,"internal_node_id":"0.0-8.0-1.53","subject":"pvmkyoht9kcvsng","sona":"THNS"},{"trial_type":"turing-test","trial_index":221,"time_elapsed":540255,"internal_node_id":"0.0-8.0-2.53","subject":"pvmkyoht9kcvsng","sona":"THNS"},{"rt":1170,"stimulus":"<p>Welche Sequenz haben Sie als natürlicher empfunden?</p>","button_pressed":"1","test_part":"response","test_stimulus":{"position":1,"left":"bvh/vr_prediction_models/model(vcgpdm)-dataset(return-bottle)-mode(ELBO)-parts(1)-dyn(20)-lvm(20)-hold(1)/final-lines.txt","right":"bvh/return-bottle-training1-lines.txt","att_check":false},"trial_type":"html-button-response","trial_index":222,"time_elapsed":541430,"internal_node_id":"0.0-8.0-3.53","subject":"pvmkyoht9kcvsng","sona":"THNS"},{"rt":448,"stimulus":"<p>Bereit?</p>","button_pressed":"0","trial_type":"html-button-response","trial_index":223,"time_elapsed":541882,"internal_node_id":"0.0-8.0-0.54","subject":"pvmkyoht9kcvsng","sona":"THNS"},{"rt":null,"stimulus":"<div style=\"font-size:60px;\">+</div>","key_press":null,"trial_type":"html-keyboard-response","trial_index":224,"time_elapsed":543903,"internal_node_id":"0.0-8.0-1.54","subject":"pvmkyoht9kcvsng","sona":"THNS"},{"trial_type":"turing-test","trial_index":225,"time_elapsed":549654,"internal_node_id":"0.0-8.0-2.54","subject":"pvmkyoht9kcvsng","sona":"THNS"},{"rt":2494,"stimulus":"<p>Welche Sequenz haben Sie als natürlicher empfunden?</p>","button_pressed":"1","test_part":"response","test_stimulus":{"position":1,"left":"bvh/vr_prediction_models/model(dmp)-dataset(pass-bottle)-npsi(90)-hold(4)/final-lines.txt","right":"bvh/pass-bottle-training4-lines.txt","att_check":true},"trial_type":"html-button-response","trial_index":226,"time_elapsed":552150,"internal_node_id":"0.0-8.0-3.54","subject":"pvmkyoht9kcvsng","sona":"THNS"},{"rt":67880,"stimulus":"<p>Bereit?</p>","button_pressed":"0","trial_type":"html-button-response","trial_index":227,"time_elapsed":620034,"internal_node_id":"0.0-8.0-0.55","subject":"pvmkyoht9kcvsng","sona":"THNS"},{"rt":null,"stimulus":"<div style=\"font-size:60px;\">+</div>","key_press":null,"trial_type":"html-keyboard-response","trial_index":228,"time_elapsed":622053,"internal_node_id":"0.0-8.0-1.55","subject":"pvmkyoht9kcvsng","sona":"THNS"},{"trial_type":"turing-test","trial_index":229,"time_elapsed":628846,"internal_node_id":"0.0-8.0-2.55","subject":"pvmkyoht9kcvsng","sona":"THNS"},{"rt":1615,"stimulus":"<p>Welche Sequenz haben Sie als natürlicher empfunden?</p>","button_pressed":"1","test_part":"response","test_stimulus":{"position":0,"left":"bvh/pass-bottle-training0-lines.txt","right":"bvh/vr_prediction_models/model(tmp)-dataset(pass-bottle)-numprim(12)-hold(0)/final-lines.txt","att_check":false},"trial_type":"html-button-response","trial_index":230,"time_elapsed":630470,"internal_node_id":"0.0-8.0-3.55","subject":"pvmkyoht9kcvsng","sona":"THNS"},{"rt":696,"stimulus":"<p>Bereit?</p>","button_pressed":"0","trial_type":"html-button-response","trial_index":231,"time_elapsed":631170,"internal_node_id":"0.0-8.0-0.56","subject":"pvmkyoht9kcvsng","sona":"THNS"},{"rt":null,"stimulus":"<div style=\"font-size:60px;\">+</div>","key_press":null,"trial_type":"html-keyboard-response","trial_index":232,"time_elapsed":633187,"internal_node_id":"0.0-8.0-1.56","subject":"pvmkyoht9kcvsng","sona":"THNS"},{"trial_type":"turing-test","trial_index":233,"time_elapsed":638636,"internal_node_id":"0.0-8.0-2.56","subject":"pvmkyoht9kcvsng","sona":"THNS"},{"rt":597,"stimulus":"<p>Welche Sequenz haben Sie als natürlicher empfunden?</p>","button_pressed":"1","test_part":"response","test_stimulus":{"position":1,"left":"bvh/vr_prediction_models/model(dmp)-dataset(return-bottle)-npsi(40)-hold(0)/final-lines.txt","right":"bvh/return-bottle-training0-lines.txt","att_check":false},"trial_type":"html-button-response","trial_index":234,"time_elapsed":639242,"internal_node_id":"0.0-8.0-3.56","subject":"pvmkyoht9kcvsng","sona":"THNS"},{"rt":716,"stimulus":"<p>Bereit?</p>","button_pressed":"0","trial_type":"html-button-response","trial_index":235,"time_elapsed":639962,"internal_node_id":"0.0-8.0-0.57","subject":"pvmkyoht9kcvsng","sona":"THNS"},{"rt":null,"stimulus":"<div style=\"font-size:60px;\">+</div>","key_press":null,"trial_type":"html-keyboard-response","trial_index":236,"time_elapsed":641976,"internal_node_id":"0.0-8.0-1.57","subject":"pvmkyoht9kcvsng","sona":"THNS"},{"trial_type":"turing-test","trial_index":237,"time_elapsed":647778,"internal_node_id":"0.0-8.0-2.57","subject":"pvmkyoht9kcvsng","sona":"THNS"},{"rt":737,"stimulus":"<p>Welche Sequenz haben Sie als natürlicher empfunden?</p>","button_pressed":"0","test_part":"response","test_stimulus":{"position":0,"left":"bvh/pass-bottle-training3-lines.txt","right":"bvh/vr_prediction_models/model(dmp)-dataset(pass-bottle)-npsi(50)-hold(3)/final-lines.txt","att_check":false},"trial_type":"html-button-response","trial_index":238,"time_elapsed":648521,"internal_node_id":"0.0-8.0-3.57","subject":"pvmkyoht9kcvsng","sona":"THNS"},{"rt":544,"stimulus":"<p>Bereit?</p>","button_pressed":"0","trial_type":"html-button-response","trial_index":239,"time_elapsed":649070,"internal_node_id":"0.0-8.0-0.58","subject":"pvmkyoht9kcvsng","sona":"THNS"},{"rt":null,"stimulus":"<div style=\"font-size:60px;\">+</div>","key_press":null,"trial_type":"html-keyboard-response","trial_index":240,"time_elapsed":651097,"internal_node_id":"0.0-8.0-1.58","subject":"pvmkyoht9kcvsng","sona":"THNS"},{"trial_type":"turing-test","trial_index":241,"time_elapsed":657937,"internal_node_id":"0.0-8.0-2.58","subject":"pvmkyoht9kcvsng","sona":"THNS"},{"rt":3044,"stimulus":"<p>Welche Sequenz haben Sie als natürlicher empfunden?</p>","button_pressed":"0","test_part":"response","test_stimulus":{"position":0,"left":"bvh/pass-bottle-training0-lines.txt","right":"bvh/vr_prediction_models/model(vcgpdm)-dataset(pass-bottle)-mode(ELBO)-parts(1)-dyn(10)-lvm(30)-hold(0)/final-lines.txt","att_check":false},"trial_type":"html-button-response","trial_index":242,"time_elapsed":660987,"internal_node_id":"0.0-8.0-3.58","subject":"pvmkyoht9kcvsng","sona":"THNS"},{"rt":593,"stimulus":"<p>Bereit?</p>","button_pressed":"0","trial_type":"html-button-response","trial_index":243,"time_elapsed":661586,"internal_node_id":"0.0-8.0-0.59","subject":"pvmkyoht9kcvsng","sona":"THNS"},{"rt":null,"stimulus":"<div style=\"font-size:60px;\">+</div>","key_press":null,"trial_type":"html-keyboard-response","trial_index":244,"time_elapsed":663595,"internal_node_id":"0.0-8.0-1.59","subject":"pvmkyoht9kcvsng","sona":"THNS"},{"trial_type":"turing-test","trial_index":245,"time_elapsed":669008,"internal_node_id":"0.0-8.0-2.59","subject":"pvmkyoht9kcvsng","sona":"THNS"},{"rt":1793,"stimulus":"<p>Welche Sequenz haben Sie als natürlicher empfunden?</p>","button_pressed":"0","test_part":"response","test_stimulus":{"position":0,"left":"bvh/return-bottle-training0-lines.txt","right":"bvh/vr_prediction_models/model(dmp)-dataset(return-bottle)-npsi(30)-hold(0)/final-lines.txt","att_check":false},"trial_type":"html-button-response","trial_index":246,"time_elapsed":670805,"internal_node_id":"0.0-8.0-3.59","subject":"pvmkyoht9kcvsng","sona":"THNS"},{"rt":480,"stimulus":"<p>Bereit?</p>","button_pressed":"0","trial_type":"html-button-response","trial_index":247,"time_elapsed":671289,"internal_node_id":"0.0-8.0-0.60","subject":"pvmkyoht9kcvsng","sona":"THNS"},{"rt":null,"stimulus":"<div style=\"font-size:60px;\">+</div>","key_press":null,"trial_type":"html-keyboard-response","trial_index":248,"time_elapsed":673301,"internal_node_id":"0.0-8.0-1.60","subject":"pvmkyoht9kcvsng","sona":"THNS"},{"trial_type":"turing-test","trial_index":249,"time_elapsed":678706,"internal_node_id":"0.0-8.0-2.60","subject":"pvmkyoht9kcvsng","sona":"THNS"},{"rt":851,"stimulus":"<p>Welche Sequenz haben Sie als natürlicher empfunden?</p>","button_pressed":"0","test_part":"response","test_stimulus":{"position":0,"left":"bvh/pass-bottle-training1-lines.txt","right":"bvh/vr_prediction_models/model(tmp)-dataset(pass-bottle)-numprim(5)-hold(1)/final-lines.txt","att_check":false},"trial_type":"html-button-response","trial_index":250,"time_elapsed":679561,"internal_node_id":"0.0-8.0-3.60","subject":"pvmkyoht9kcvsng","sona":"THNS"},{"rt":926,"stimulus":"<p>Bereit?</p>","button_pressed":"0","trial_type":"html-button-response","trial_index":251,"time_elapsed":680489,"internal_node_id":"0.0-8.0-0.61","subject":"pvmkyoht9kcvsng","sona":"THNS"},{"rt":null,"stimulus":"<div style=\"font-size:60px;\">+</div>","key_press":null,"trial_type":"html-keyboard-response","trial_index":252,"time_elapsed":682494,"internal_node_id":"0.0-8.0-1.61","subject":"pvmkyoht9kcvsng","sona":"THNS"},{"trial_type":"turing-test","trial_index":253,"time_elapsed":689042,"internal_node_id":"0.0-8.0-2.61","subject":"pvmkyoht9kcvsng","sona":"THNS"},{"rt":1024,"stimulus":"<p>Welche Sequenz haben Sie als natürlicher empfunden?</p>","button_pressed":"0","test_part":"response","test_stimulus":{"position":0,"left":"bvh/return-bottle-training2-lines.txt","right":"bvh/vr_prediction_models/model(dmp)-dataset(return-bottle)-npsi(50)-hold(2)/final-lines.txt","att_check":true},"trial_type":"html-button-response","trial_index":254,"time_elapsed":690069,"internal_node_id":"0.0-8.0-3.61","subject":"pvmkyoht9kcvsng","sona":"THNS"},{"rt":389,"stimulus":"<p>Bereit?</p>","button_pressed":"0","trial_type":"html-button-response","trial_index":255,"time_elapsed":690461,"internal_node_id":"0.0-8.0-0.62","subject":"pvmkyoht9kcvsng","sona":"THNS"},{"rt":null,"stimulus":"<div style=\"font-size:60px;\">+</div>","key_press":null,"trial_type":"html-keyboard-response","trial_index":256,"time_elapsed":692482,"internal_node_id":"0.0-8.0-1.62","subject":"pvmkyoht9kcvsng","sona":"THNS"},{"trial_type":"turing-test","trial_index":257,"time_elapsed":698325,"internal_node_id":"0.0-8.0-2.62","subject":"pvmkyoht9kcvsng","sona":"THNS"},{"rt":2225,"stimulus":"<p>Welche Sequenz haben Sie als natürlicher empfunden?</p>","button_pressed":"0","test_part":"response","test_stimulus":{"position":0,"left":"bvh/pass-bottle-training4-lines.txt","right":"bvh/vr_prediction_models/model(vcgpdm)-dataset(pass-bottle)-mode(ELBO)-parts(1)-dyn(10)-lvm(25)-hold(4)/final-lines.txt","att_check":false},"trial_type":"html-button-response","trial_index":258,"time_elapsed":700553,"internal_node_id":"0.0-8.0-3.62","subject":"pvmkyoht9kcvsng","sona":"THNS"},{"rt":1156,"stimulus":"<p>Bereit?</p>","button_pressed":"0","trial_type":"html-button-response","trial_index":259,"time_elapsed":701712,"internal_node_id":"0.0-8.0-0.63","subject":"pvmkyoht9kcvsng","sona":"THNS"},{"rt":null,"stimulus":"<div style=\"font-size:60px;\">+</div>","key_press":null,"trial_type":"html-keyboard-response","trial_index":260,"time_elapsed":703730,"internal_node_id":"0.0-8.0-1.63","subject":"pvmkyoht9kcvsng","sona":"THNS"},{"trial_type":"turing-test","trial_index":261,"time_elapsed":709122,"internal_node_id":"0.0-8.0-2.63","subject":"pvmkyoht9kcvsng","sona":"THNS"},{"rt":2713,"stimulus":"<p>Welche Sequenz haben Sie als natürlicher empfunden?</p>","button_pressed":"0","test_part":"response","test_stimulus":{"position":0,"left":"bvh/return-bottle-training0-lines.txt","right":"bvh/vr_prediction_models/model(tmp)-dataset(return-bottle)-numprim(10)-hold(0)/final-lines.txt","att_check":false},"trial_type":"html-button-response","trial_index":262,"time_elapsed":711842,"internal_node_id":"0.0-8.0-3.63","subject":"pvmkyoht9kcvsng","sona":"THNS"},{"rt":974,"stimulus":"<p>Bereit?</p>","button_pressed":"0","trial_type":"html-button-response","trial_index":263,"time_elapsed":712817,"internal_node_id":"0.0-8.0-0.64","subject":"pvmkyoht9kcvsng","sona":"THNS"},{"rt":null,"stimulus":"<div style=\"font-size:60px;\">+</div>","key_press":null,"trial_type":"html-keyboard-response","trial_index":264,"time_elapsed":714841,"internal_node_id":"0.0-8.0-1.64","subject":"pvmkyoht9kcvsng","sona":"THNS"},{"trial_type":"turing-test","trial_index":265,"time_elapsed":719946,"internal_node_id":"0.0-8.0-2.64","subject":"pvmkyoht9kcvsng","sona":"THNS"},{"rt":672,"stimulus":"<p>Welche Sequenz haben Sie als natürlicher empfunden?</p>","button_pressed":"0","test_part":"response","test_stimulus":{"position":0,"left":"bvh/return-bottle-hold-training0-lines.txt","right":"bvh/vr_prediction_models/model(dmp)-dataset(return-bottle-hold)-npsi(10)-hold(0)/final-lines.txt","att_check":false},"trial_type":"html-button-response","trial_index":266,"time_elapsed":720625,"internal_node_id":"0.0-8.0-3.64","subject":"pvmkyoht9kcvsng","sona":"THNS"},{"rt":966,"stimulus":"<p>Bereit?</p>","button_pressed":"0","trial_type":"html-button-response","trial_index":267,"time_elapsed":721593,"internal_node_id":"0.0-8.0-0.65","subject":"pvmkyoht9kcvsng","sona":"THNS"},{"rt":null,"stimulus":"<div style=\"font-size:60px;\">+</div>","key_press":null,"trial_type":"html-keyboard-response","trial_index":268,"time_elapsed":723614,"internal_node_id":"0.0-8.0-1.65","subject":"pvmkyoht9kcvsng","sona":"THNS"},{"trial_type":"turing-test","trial_index":269,"time_elapsed":729557,"internal_node_id":"0.0-8.0-2.65","subject":"pvmkyoht9kcvsng","sona":"THNS"},{"rt":910,"stimulus":"<p>Welche Sequenz haben Sie als natürlicher empfunden?</p>","button_pressed":"1","test_part":"response","test_stimulus":{"position":1,"left":"bvh/vr_prediction_models/model(vcgpdm)-dataset(return-bottle)-mode(ELBO)-parts(3)-dyn(25)-lvm(15)-hold(4)/final-lines.txt","right":"bvh/return-bottle-training4-lines.txt","att_check":false},"trial_type":"html-button-response","trial_index":270,"time_elapsed":730473,"internal_node_id":"0.0-8.0-3.65","subject":"pvmkyoht9kcvsng","sona":"THNS"},{"rt":740,"stimulus":"<p>Bereit?</p>","button_pressed":"0","trial_type":"html-button-response","trial_index":271,"time_elapsed":731217,"internal_node_id":"0.0-8.0-0.66","subject":"pvmkyoht9kcvsng","sona":"THNS"},{"rt":null,"stimulus":"<div style=\"font-size:60px;\">+</div>","key_press":null,"trial_type":"html-keyboard-response","trial_index":272,"time_elapsed":733235,"internal_node_id":"0.0-8.0-1.66","subject":"pvmkyoht9kcvsng","sona":"THNS"},{"trial_type":"turing-test","trial_index":273,"time_elapsed":736893,"internal_node_id":"0.0-8.0-2.66","subject":"pvmkyoht9kcvsng","sona":"THNS"},{"rt":928,"stimulus":"<p>Welche Sequenz haben Sie als natürlicher empfunden?</p>","button_pressed":"1","test_part":"response","test_stimulus":{"position":1,"left":"bvh/vr_prediction_models/model(dmp)-dataset(pass-bottle-hold)-npsi(70)-hold(4)/final-lines.txt","right":"bvh/pass-bottle-hold-training4-lines.txt","att_check":false},"trial_type":"html-button-response","trial_index":274,"time_elapsed":737825,"internal_node_id":"0.0-8.0-3.66","subject":"pvmkyoht9kcvsng","sona":"THNS"},{"rt":477,"stimulus":"<p>Bereit?</p>","button_pressed":"0","trial_type":"html-button-response","trial_index":275,"time_elapsed":738306,"internal_node_id":"0.0-8.0-0.67","subject":"pvmkyoht9kcvsng","sona":"THNS"},{"rt":null,"stimulus":"<div style=\"font-size:60px;\">+</div>","key_press":null,"trial_type":"html-keyboard-response","trial_index":276,"time_elapsed":740330,"internal_node_id":"0.0-8.0-1.67","subject":"pvmkyoht9kcvsng","sona":"THNS"},{"trial_type":"turing-test","trial_index":277,"time_elapsed":743996,"internal_node_id":"0.0-8.0-2.67","subject":"pvmkyoht9kcvsng","sona":"THNS"},{"rt":495,"stimulus":"<p>Welche Sequenz haben Sie als natürlicher empfunden?</p>","button_pressed":"0","test_part":"response","test_stimulus":{"position":0,"left":"bvh/return-bottle-hold-training2-lines.txt","right":"bvh/vr_prediction_models/model(vcgpdm)-dataset(return-bottle-hold)-mode(ELBO)-parts(3)-dyn(30)-lvm(15)-hold(2)/final-lines.txt","att_check":false},"trial_type":"html-button-response","trial_index":278,"time_elapsed":744497,"internal_node_id":"0.0-8.0-3.67","subject":"pvmkyoht9kcvsng","sona":"THNS"},{"rt":861,"stimulus":"<p>Bereit?</p>","button_pressed":"0","trial_type":"html-button-response","trial_index":279,"time_elapsed":745362,"internal_node_id":"0.0-8.0-0.68","subject":"pvmkyoht9kcvsng","sona":"THNS"},{"rt":null,"stimulus":"<div style=\"font-size:60px;\">+</div>","key_press":null,"trial_type":"html-keyboard-response","trial_index":280,"time_elapsed":747384,"internal_node_id":"0.0-8.0-1.68","subject":"pvmkyoht9kcvsng","sona":"THNS"},{"trial_type":"turing-test","trial_index":281,"time_elapsed":753289,"internal_node_id":"0.0-8.0-2.68","subject":"pvmkyoht9kcvsng","sona":"THNS"},{"rt":1380,"stimulus":"<p>Welche Sequenz haben Sie als natürlicher empfunden?</p>","button_pressed":"1","test_part":"response","test_stimulus":{"position":1,"left":"bvh/vr_prediction_models/model(vcgpdm)-dataset(pass-bottle)-mode(ELBO)-parts(3)-dyn(20)-lvm(35)-hold(3)/final-lines.txt","right":"bvh/pass-bottle-training3-lines.txt","att_check":false},"trial_type":"html-button-response","trial_index":282,"time_elapsed":754673,"internal_node_id":"0.0-8.0-3.68","subject":"pvmkyoht9kcvsng","sona":"THNS"},{"rt":508,"stimulus":"<p>Bereit?</p>","button_pressed":"0","trial_type":"html-button-response","trial_index":283,"time_elapsed":755185,"internal_node_id":"0.0-8.0-0.69","subject":"pvmkyoht9kcvsng","sona":"THNS"},{"rt":null,"stimulus":"<div style=\"font-size:60px;\">+</div>","key_press":null,"trial_type":"html-keyboard-response","trial_index":284,"time_elapsed":757210,"internal_node_id":"0.0-8.0-1.69","subject":"pvmkyoht9kcvsng","sona":"THNS"},{"trial_type":"turing-test","trial_index":285,"time_elapsed":760679,"internal_node_id":"0.0-8.0-2.69","subject":"pvmkyoht9kcvsng","sona":"THNS"},{"rt":1023,"stimulus":"<p>Welche Sequenz haben Sie als natürlicher empfunden?</p>","button_pressed":"0","test_part":"response","test_stimulus":{"position":0,"left":"bvh/return-bottle-hold-training2-lines.txt","right":"bvh/vr_prediction_models/model(tmp)-dataset(return-bottle-hold)-numprim(12)-hold(2)/final-lines.txt","att_check":false},"trial_type":"html-button-response","trial_index":286,"time_elapsed":761705,"internal_node_id":"0.0-8.0-3.69","subject":"pvmkyoht9kcvsng","sona":"THNS"},{"rt":782,"stimulus":"<p>Bereit?</p>","button_pressed":"0","trial_type":"html-button-response","trial_index":287,"time_elapsed":762488,"internal_node_id":"0.0-8.0-0.70","subject":"pvmkyoht9kcvsng","sona":"THNS"},{"rt":null,"stimulus":"<div style=\"font-size:60px;\">+</div>","key_press":null,"trial_type":"html-keyboard-response","trial_index":288,"time_elapsed":764510,"internal_node_id":"0.0-8.0-1.70","subject":"pvmkyoht9kcvsng","sona":"THNS"},{"trial_type":"turing-test","trial_index":289,"time_elapsed":769911,"internal_node_id":"0.0-8.0-2.70","subject":"pvmkyoht9kcvsng","sona":"THNS"},{"rt":644,"stimulus":"<p>Welche Sequenz haben Sie als natürlicher empfunden?</p>","button_pressed":"0","test_part":"response","test_stimulus":{"position":0,"left":"bvh/return-bottle-training0-lines.txt","right":"bvh/vr_prediction_models/model(tmp)-dataset(return-bottle)-numprim(7)-hold(0)/final-lines.txt","att_check":false},"trial_type":"html-button-response","trial_index":290,"time_elapsed":770561,"internal_node_id":"0.0-8.0-3.70","subject":"pvmkyoht9kcvsng","sona":"THNS"},{"rt":444,"stimulus":"<p>Bereit?</p>","button_pressed":"0","trial_type":"html-button-response","trial_index":291,"time_elapsed":771009,"internal_node_id":"0.0-8.0-0.71","subject":"pvmkyoht9kcvsng","sona":"THNS"},{"rt":null,"stimulus":"<div style=\"font-size:60px;\">+</div>","key_press":null,"trial_type":"html-keyboard-response","trial_index":292,"time_elapsed":773034,"internal_node_id":"0.0-8.0-1.71","subject":"pvmkyoht9kcvsng","sona":"THNS"},{"trial_type":"turing-test","trial_index":293,"time_elapsed":779292,"internal_node_id":"0.0-8.0-2.71","subject":"pvmkyoht9kcvsng","sona":"THNS"},{"rt":774,"stimulus":"<p>Welche Sequenz haben Sie als natürlicher empfunden?</p>","button_pressed":"1","test_part":"response","test_stimulus":{"position":1,"left":"bvh/vr_prediction_models/model(vcgpdm)-dataset(return-bottle)-mode(ELBO)-parts(1)-dyn(20)-lvm(30)-hold(1)/final-lines.txt","right":"bvh/return-bottle-training1-lines.txt","att_check":false},"trial_type":"html-button-response","trial_index":294,"time_elapsed":780072,"internal_node_id":"0.0-8.0-3.71","subject":"pvmkyoht9kcvsng","sona":"THNS"},{"rt":532,"stimulus":"<p>Bereit?</p>","button_pressed":"0","trial_type":"html-button-response","trial_index":295,"time_elapsed":780608,"internal_node_id":"0.0-8.0-0.72","subject":"pvmkyoht9kcvsng","sona":"THNS"},{"rt":null,"stimulus":"<div style=\"font-size:60px;\">+</div>","key_press":null,"trial_type":"html-keyboard-response","trial_index":296,"time_elapsed":782627,"internal_node_id":"0.0-8.0-1.72","subject":"pvmkyoht9kcvsng","sona":"THNS"},{"trial_type":"turing-test","trial_index":297,"time_elapsed":786119,"internal_node_id":"0.0-8.0-2.72","subject":"pvmkyoht9kcvsng","sona":"THNS"},{"rt":730,"stimulus":"<p>Welche Sequenz haben Sie als natürlicher empfunden?</p>","button_pressed":"0","test_part":"response","test_stimulus":{"position":0,"left":"bvh/pass-bottle-hold-training0-lines.txt","right":"bvh/vr_prediction_models/model(vcgpdm)-dataset(pass-bottle-hold)-mode(ELBO)-parts(1)-dyn(35)-lvm(10)-hold(0)/final-lines.txt","att_check":false},"trial_type":"html-button-response","trial_index":298,"time_elapsed":786853,"internal_node_id":"0.0-8.0-3.72","subject":"pvmkyoht9kcvsng","sona":"THNS"},{"rt":817,"stimulus":"<p>Bereit?</p>","button_pressed":"0","trial_type":"html-button-response","trial_index":299,"time_elapsed":787673,"internal_node_id":"0.0-8.0-0.73","subject":"pvmkyoht9kcvsng","sona":"THNS"},{"rt":null,"stimulus":"<div style=\"font-size:60px;\">+</div>","key_press":null,"trial_type":"html-keyboard-response","trial_index":300,"time_elapsed":789701,"internal_node_id":"0.0-8.0-1.73","subject":"pvmkyoht9kcvsng","sona":"THNS"},{"trial_type":"turing-test","trial_index":301,"time_elapsed":793174,"internal_node_id":"0.0-8.0-2.73","subject":"pvmkyoht9kcvsng","sona":"THNS"},{"rt":2112,"stimulus":"<p>Welche Sequenz haben Sie als natürlicher empfunden?</p>","button_pressed":"0","test_part":"response","test_stimulus":{"position":0,"left":"bvh/return-bottle-hold-training2-lines.txt","right":"bvh/vr_prediction_models/model(dmp)-dataset(return-bottle-hold)-npsi(50)-hold(2)/final-lines.txt","att_check":true},"trial_type":"html-button-response","trial_index":302,"time_elapsed":795293,"internal_node_id":"0.0-8.0-3.73","subject":"pvmkyoht9kcvsng","sona":"THNS"},{"rt":808,"stimulus":"<p>Bereit?</p>","button_pressed":"0","trial_type":"html-button-response","trial_index":303,"time_elapsed":796105,"internal_node_id":"0.0-8.0-0.74","subject":"pvmkyoht9kcvsng","sona":"THNS"},{"rt":null,"stimulus":"<div style=\"font-size:60px;\">+</div>","key_press":null,"trial_type":"html-keyboard-response","trial_index":304,"time_elapsed":798122,"internal_node_id":"0.0-8.0-1.74","subject":"pvmkyoht9kcvsng","sona":"THNS"},{"trial_type":"turing-test","trial_index":305,"time_elapsed":801724,"internal_node_id":"0.0-8.0-2.74","subject":"pvmkyoht9kcvsng","sona":"THNS"},{"rt":3919,"stimulus":"<p>Welche Sequenz haben Sie als natürlicher empfunden?</p>","button_pressed":"0","test_part":"response","test_stimulus":{"position":1,"left":"bvh/vr_prediction_models/model(tmp)-dataset(pass-bottle-hold)-numprim(6)-hold(4)/final-lines.txt","right":"bvh/pass-bottle-hold-training4-lines.txt","att_check":false},"trial_type":"html-button-response","trial_index":306,"time_elapsed":805649,"internal_node_id":"0.0-8.0-3.74","subject":"pvmkyoht9kcvsng","sona":"THNS"},{"rt":492,"stimulus":"<p>Bereit?</p>","button_pressed":"0","trial_type":"html-button-response","trial_index":307,"time_elapsed":806145,"internal_node_id":"0.0-8.0-0.75","subject":"pvmkyoht9kcvsng","sona":"THNS"},{"rt":null,"stimulus":"<div style=\"font-size:60px;\">+</div>","key_press":null,"trial_type":"html-keyboard-response","trial_index":308,"time_elapsed":808158,"internal_node_id":"0.0-8.0-1.75","subject":"pvmkyoht9kcvsng","sona":"THNS"},{"trial_type":"turing-test","trial_index":309,"time_elapsed":811537,"internal_node_id":"0.0-8.0-2.75","subject":"pvmkyoht9kcvsng","sona":"THNS"},{"rt":1414,"stimulus":"<p>Welche Sequenz haben Sie als natürlicher empfunden?</p>","button_pressed":"1","test_part":"response","test_stimulus":{"position":1,"left":"bvh/vr_prediction_models/model(vcgpdm)-dataset(pass-bottle-hold)-mode(ELBO)-parts(1)-dyn(25)-lvm(35)-hold(1)/final-lines.txt","right":"bvh/pass-bottle-hold-training1-lines.txt","att_check":false},"trial_type":"html-button-response","trial_index":310,"time_elapsed":812956,"internal_node_id":"0.0-8.0-3.75","subject":"pvmkyoht9kcvsng","sona":"THNS"},{"rt":473,"stimulus":"<p>Bereit?</p>","button_pressed":"0","trial_type":"html-button-response","trial_index":311,"time_elapsed":813433,"internal_node_id":"0.0-8.0-0.76","subject":"pvmkyoht9kcvsng","sona":"THNS"},{"rt":null,"stimulus":"<div style=\"font-size:60px;\">+</div>","key_press":null,"trial_type":"html-keyboard-response","trial_index":312,"time_elapsed":815447,"internal_node_id":"0.0-8.0-1.76","subject":"pvmkyoht9kcvsng","sona":"THNS"},{"trial_type":"turing-test","trial_index":313,"time_elapsed":818852,"internal_node_id":"0.0-8.0-2.76","subject":"pvmkyoht9kcvsng","sona":"THNS"},{"rt":675,"stimulus":"<p>Welche Sequenz haben Sie als natürlicher empfunden?</p>","button_pressed":"0","test_part":"response","test_stimulus":{"position":0,"left":"bvh/pass-bottle-hold-training1-lines.txt","right":"bvh/vr_prediction_models/model(vcgpdm)-dataset(pass-bottle-hold)-mode(ELBO)-parts(1)-dyn(30)-lvm(30)-hold(1)/final-lines.txt","att_check":false},"trial_type":"html-button-response","trial_index":314,"time_elapsed":819528,"internal_node_id":"0.0-8.0-3.76","subject":"pvmkyoht9kcvsng","sona":"THNS"},{"rt":523,"stimulus":"<p>Bereit?</p>","button_pressed":"0","trial_type":"html-button-response","trial_index":315,"time_elapsed":820056,"internal_node_id":"0.0-8.0-0.77","subject":"pvmkyoht9kcvsng","sona":"THNS"},{"rt":null,"stimulus":"<div style=\"font-size:60px;\">+</div>","key_press":null,"trial_type":"html-keyboard-response","trial_index":316,"time_elapsed":822086,"internal_node_id":"0.0-8.0-1.77","subject":"pvmkyoht9kcvsng","sona":"THNS"},{"trial_type":"turing-test","trial_index":317,"time_elapsed":827968,"internal_node_id":"0.0-8.0-2.77","subject":"pvmkyoht9kcvsng","sona":"THNS"},{"rt":651,"stimulus":"<p>Welche Sequenz haben Sie als natürlicher empfunden?</p>","button_pressed":"0","test_part":"response","test_stimulus":{"position":0,"left":"bvh/return-bottle-training4-lines.txt","right":"bvh/vr_prediction_models/model(vcgpdm)-dataset(return-bottle)-mode(ELBO)-parts(1)-dyn(30)-lvm(20)-hold(4)/final-lines.txt","att_check":false},"trial_type":"html-button-response","trial_index":318,"time_elapsed":828624,"internal_node_id":"0.0-8.0-3.77","subject":"pvmkyoht9kcvsng","sona":"THNS"},{"rt":725,"stimulus":"<p>Bereit?</p>","button_pressed":"0","trial_type":"html-button-response","trial_index":319,"time_elapsed":829352,"internal_node_id":"0.0-8.0-0.78","subject":"pvmkyoht9kcvsng","sona":"THNS"},{"rt":null,"stimulus":"<div style=\"font-size:60px;\">+</div>","key_press":null,"trial_type":"html-keyboard-response","trial_index":320,"time_elapsed":831369,"internal_node_id":"0.0-8.0-1.78","subject":"pvmkyoht9kcvsng","sona":"THNS"},{"trial_type":"turing-test","trial_index":321,"time_elapsed":836848,"internal_node_id":"0.0-8.0-2.78","subject":"pvmkyoht9kcvsng","sona":"THNS"},{"rt":1645,"stimulus":"<p>Welche Sequenz haben Sie als natürlicher empfunden?</p>","button_pressed":"1","test_part":"response","test_stimulus":{"position":1,"left":"bvh/vr_prediction_models/model(dmp)-dataset(return-bottle)-npsi(100)-hold(0)/final-lines.txt","right":"bvh/return-bottle-training0-lines.txt","att_check":false},"trial_type":"html-button-response","trial_index":322,"time_elapsed":838496,"internal_node_id":"0.0-8.0-3.78","subject":"pvmkyoht9kcvsng","sona":"THNS"},{"rt":6418,"stimulus":"<p>Bereit?</p>","button_pressed":"0","trial_type":"html-button-response","trial_index":323,"time_elapsed":844917,"internal_node_id":"0.0-8.0-0.79","subject":"pvmkyoht9kcvsng","sona":"THNS"},{"rt":null,"stimulus":"<div style=\"font-size:60px;\">+</div>","key_press":null,"trial_type":"html-keyboard-response","trial_index":324,"time_elapsed":846932,"internal_node_id":"0.0-8.0-1.79","subject":"pvmkyoht9kcvsng","sona":"THNS"},{"trial_type":"turing-test","trial_index":325,"time_elapsed":850275,"internal_node_id":"0.0-8.0-2.79","subject":"pvmkyoht9kcvsng","sona":"THNS"},{"rt":929,"stimulus":"<p>Welche Sequenz haben Sie als natürlicher empfunden?</p>","button_pressed":"1","test_part":"response","test_stimulus":{"position":1,"left":"bvh/vr_prediction_models/model(dmp)-dataset(return-bottle-hold)-npsi(10)-hold(1)/final-lines.txt","right":"bvh/return-bottle-hold-training1-lines.txt","att_check":true},"trial_type":"html-button-response","trial_index":326,"time_elapsed":851208,"internal_node_id":"0.0-8.0-3.79","subject":"pvmkyoht9kcvsng","sona":"THNS"},{"rt":985,"stimulus":"<p>Bereit?</p>","button_pressed":"0","trial_type":"html-button-response","trial_index":327,"time_elapsed":852196,"internal_node_id":"0.0-8.0-0.80","subject":"pvmkyoht9kcvsng","sona":"THNS"},{"rt":null,"stimulus":"<div style=\"font-size:60px;\">+</div>","key_press":null,"trial_type":"html-keyboard-response","trial_index":328,"time_elapsed":854213,"internal_node_id":"0.0-8.0-1.80","subject":"pvmkyoht9kcvsng","sona":"THNS"},{"trial_type":"turing-test","trial_index":329,"time_elapsed":858106,"internal_node_id":"0.0-8.0-2.80","subject":"pvmkyoht9kcvsng","sona":"THNS"},{"rt":2614,"stimulus":"<p>Welche Sequenz haben Sie als natürlicher empfunden?</p>","button_pressed":"0","test_part":"response","test_stimulus":{"position":1,"left":"bvh/vr_prediction_models/model(vcgpdm)-dataset(return-bottle-hold)-mode(MAP)-parts(3)-hold(3)/final-lines.txt","right":"bvh/return-bottle-hold-training3-lines.txt","att_check":false},"trial_type":"html-button-response","trial_index":330,"time_elapsed":860724,"internal_node_id":"0.0-8.0-3.80","subject":"pvmkyoht9kcvsng","sona":"THNS"},{"rt":476,"stimulus":"<p>Bereit?</p>","button_pressed":"0","trial_type":"html-button-response","trial_index":331,"time_elapsed":861203,"internal_node_id":"0.0-8.0-0.81","subject":"pvmkyoht9kcvsng","sona":"THNS"},{"rt":null,"stimulus":"<div style=\"font-size:60px;\">+</div>","key_press":null,"trial_type":"html-keyboard-response","trial_index":332,"time_elapsed":863219,"internal_node_id":"0.0-8.0-1.81","subject":"pvmkyoht9kcvsng","sona":"THNS"},{"trial_type":"turing-test","trial_index":333,"time_elapsed":869974,"internal_node_id":"0.0-8.0-2.81","subject":"pvmkyoht9kcvsng","sona":"THNS"},{"rt":708,"stimulus":"<p>Welche Sequenz haben Sie als natürlicher empfunden?</p>","button_pressed":"0","test_part":"response","test_stimulus":{"position":0,"left":"bvh/pass-bottle-training0-lines.txt","right":"bvh/vr_prediction_models/model(tmp)-dataset(pass-bottle)-numprim(13)-hold(0)/final-lines.txt","att_check":false},"trial_type":"html-button-response","trial_index":334,"time_elapsed":870692,"internal_node_id":"0.0-8.0-3.81","subject":"pvmkyoht9kcvsng","sona":"THNS"},{"rt":1024,"stimulus":"<p>Bereit?</p>","button_pressed":"0","trial_type":"html-button-response","trial_index":335,"time_elapsed":871720,"internal_node_id":"0.0-8.0-0.82","subject":"pvmkyoht9kcvsng","sona":"THNS"},{"rt":null,"stimulus":"<div style=\"font-size:60px;\">+</div>","key_press":null,"trial_type":"html-keyboard-response","trial_index":336,"time_elapsed":873747,"internal_node_id":"0.0-8.0-1.82","subject":"pvmkyoht9kcvsng","sona":"THNS"},{"trial_type":"turing-test","trial_index":337,"time_elapsed":877213,"internal_node_id":"0.0-8.0-2.82","subject":"pvmkyoht9kcvsng","sona":"THNS"},{"rt":1251,"stimulus":"<p>Welche Sequenz haben Sie als natürlicher empfunden?</p>","button_pressed":"0","test_part":"response","test_stimulus":{"position":0,"left":"bvh/return-bottle-hold-training2-lines.txt","right":"bvh/vr_prediction_models/model(tmp)-dataset(return-bottle-hold)-numprim(15)-hold(2)/final-lines.txt","att_check":false},"trial_type":"html-button-response","trial_index":338,"time_elapsed":878468,"internal_node_id":"0.0-8.0-3.82","subject":"pvmkyoht9kcvsng","sona":"THNS"},{"rt":8716,"stimulus":"<p>Bereit?</p>","button_pressed":"0","trial_type":"html-button-response","trial_index":339,"time_elapsed":887188,"internal_node_id":"0.0-8.0-0.83","subject":"pvmkyoht9kcvsng","sona":"THNS"},{"rt":null,"stimulus":"<div style=\"font-size:60px;\">+</div>","key_press":null,"trial_type":"html-keyboard-response","trial_index":340,"time_elapsed":889210,"internal_node_id":"0.0-8.0-1.83","subject":"pvmkyoht9kcvsng","sona":"THNS"},{"trial_type":"turing-test","trial_index":341,"time_elapsed":895943,"internal_node_id":"0.0-8.0-2.83","subject":"pvmkyoht9kcvsng","sona":"THNS"},{"rt":4159,"stimulus":"<p>Welche Sequenz haben Sie als natürlicher empfunden?</p>","button_pressed":"0","test_part":"response","test_stimulus":{"position":0,"left":"bvh/pass-bottle-training0-lines.txt","right":"bvh/vr_prediction_models/model(tmp)-dataset(pass-bottle)-numprim(3)-hold(0)/final-lines.txt","att_check":false},"trial_type":"html-button-response","trial_index":342,"time_elapsed":900108,"internal_node_id":"0.0-8.0-3.83","subject":"pvmkyoht9kcvsng","sona":"THNS"},{"rt":627,"stimulus":"<p>Bereit?</p>","button_pressed":"0","trial_type":"html-button-response","trial_index":343,"time_elapsed":900739,"internal_node_id":"0.0-8.0-0.84","subject":"pvmkyoht9kcvsng","sona":"THNS"},{"rt":null,"stimulus":"<div style=\"font-size:60px;\">+</div>","key_press":null,"trial_type":"html-keyboard-response","trial_index":344,"time_elapsed":902756,"internal_node_id":"0.0-8.0-1.84","subject":"pvmkyoht9kcvsng","sona":"THNS"},{"trial_type":"turing-test","trial_index":345,"time_elapsed":909039,"internal_node_id":"0.0-8.0-2.84","subject":"pvmkyoht9kcvsng","sona":"THNS"},{"rt":1055,"stimulus":"<p>Welche Sequenz haben Sie als natürlicher empfunden?</p>","button_pressed":"1","test_part":"response","test_stimulus":{"position":1,"left":"bvh/vr_prediction_models/model(vcgpdm)-dataset(pass-bottle)-mode(ELBO)-parts(3)-dyn(10)-lvm(25)-hold(2)/final-lines.txt","right":"bvh/pass-bottle-training2-lines.txt","att_check":false},"trial_type":"html-button-response","trial_index":346,"time_elapsed":910100,"internal_node_id":"0.0-8.0-3.84","subject":"pvmkyoht9kcvsng","sona":"THNS"},{"rt":524,"stimulus":"<p>Bereit?</p>","button_pressed":"0","trial_type":"html-button-response","trial_index":347,"time_elapsed":910628,"internal_node_id":"0.0-8.0-0.85","subject":"pvmkyoht9kcvsng","sona":"THNS"},{"rt":null,"stimulus":"<div style=\"font-size:60px;\">+</div>","key_press":null,"trial_type":"html-keyboard-response","trial_index":348,"time_elapsed":912643,"internal_node_id":"0.0-8.0-1.85","subject":"pvmkyoht9kcvsng","sona":"THNS"},{"trial_type":"turing-test","trial_index":349,"time_elapsed":916329,"internal_node_id":"0.0-8.0-2.85","subject":"pvmkyoht9kcvsng","sona":"THNS"},{"rt":835,"stimulus":"<p>Welche Sequenz haben Sie als natürlicher empfunden?</p>","button_pressed":"1","test_part":"response","test_stimulus":{"position":1,"left":"bvh/vr_prediction_models/model(vcgpdm)-dataset(pass-bottle-hold)-mode(MAP)-parts(1)-hold(3)/final-lines.txt","right":"bvh/pass-bottle-hold-training3-lines.txt","att_check":false},"trial_type":"html-button-response","trial_index":350,"time_elapsed":917172,"internal_node_id":"0.0-8.0-3.85","subject":"pvmkyoht9kcvsng","sona":"THNS"},{"rt":1076,"stimulus":"<p>Bereit?</p>","button_pressed":"0","trial_type":"html-button-response","trial_index":351,"time_elapsed":918252,"internal_node_id":"0.0-8.0-0.86","subject":"pvmkyoht9kcvsng","sona":"THNS"},{"rt":null,"stimulus":"<div style=\"font-size:60px;\">+</div>","key_press":null,"trial_type":"html-keyboard-response","trial_index":352,"time_elapsed":920273,"internal_node_id":"0.0-8.0-1.86","subject":"pvmkyoht9kcvsng","sona":"THNS"},{"trial_type":"turing-test","trial_index":353,"time_elapsed":923735,"internal_node_id":"0.0-8.0-2.86","subject":"pvmkyoht9kcvsng","sona":"THNS"},{"rt":1023,"stimulus":"<p>Welche Sequenz haben Sie als natürlicher empfunden?</p>","button_pressed":"0","test_part":"response","test_stimulus":{"position":0,"left":"bvh/pass-bottle-hold-training0-lines.txt","right":"bvh/vr_prediction_models/model(vcgpdm)-dataset(pass-bottle-hold)-mode(ELBO)-parts(1)-dyn(30)-lvm(35)-hold(0)/final-lines.txt","att_check":false},"trial_type":"html-button-response","trial_index":354,"time_elapsed":924764,"internal_node_id":"0.0-8.0-3.86","subject":"pvmkyoht9kcvsng","sona":"THNS"},{"rt":708,"stimulus":"<p>Bereit?</p>","button_pressed":"0","trial_type":"html-button-response","trial_index":355,"time_elapsed":925475,"internal_node_id":"0.0-8.0-0.87","subject":"pvmkyoht9kcvsng","sona":"THNS"},{"rt":null,"stimulus":"<div style=\"font-size:60px;\">+</div>","key_press":null,"trial_type":"html-keyboard-response","trial_index":356,"time_elapsed":927499,"internal_node_id":"0.0-8.0-1.87","subject":"pvmkyoht9kcvsng","sona":"THNS"},{"trial_type":"turing-test","trial_index":357,"time_elapsed":930727,"internal_node_id":"0.0-8.0-2.87","subject":"pvmkyoht9kcvsng","sona":"THNS"},{"rt":753,"stimulus":"<p>Welche Sequenz haben Sie als natürlicher empfunden?</p>","button_pressed":"0","test_part":"response","test_stimulus":{"position":0,"left":"bvh/pass-bottle-hold-training1-lines.txt","right":"bvh/vr_prediction_models/model(dmp)-dataset(pass-bottle-hold)-npsi(10)-hold(1)/final-lines.txt","att_check":false},"trial_type":"html-button-response","trial_index":358,"time_elapsed":931484,"internal_node_id":"0.0-8.0-3.87","subject":"pvmkyoht9kcvsng","sona":"THNS"},{"rt":820,"stimulus":"<p>Bereit?</p>","button_pressed":"0","trial_type":"html-button-response","trial_index":359,"time_elapsed":932308,"internal_node_id":"0.0-8.0-0.88","subject":"pvmkyoht9kcvsng","sona":"THNS"},{"rt":null,"stimulus":"<div style=\"font-size:60px;\">+</div>","key_press":null,"trial_type":"html-keyboard-response","trial_index":360,"time_elapsed":934314,"internal_node_id":"0.0-8.0-1.88","subject":"pvmkyoht9kcvsng","sona":"THNS"},{"trial_type":"turing-test","trial_index":361,"time_elapsed":937790,"internal_node_id":"0.0-8.0-2.88","subject":"pvmkyoht9kcvsng","sona":"THNS"},{"rt":4759,"stimulus":"<p>Welche Sequenz haben Sie als natürlicher empfunden?</p>","button_pressed":"1","test_part":"response","test_stimulus":{"position":1,"left":"bvh/vr_prediction_models/model(vcgpdm)-dataset(return-bottle-hold)-mode(MAP)-parts(3)-hold(1)/final-lines.txt","right":"bvh/return-bottle-hold-training1-lines.txt","att_check":false},"trial_type":"html-button-response","trial_index":362,"time_elapsed":942555,"internal_node_id":"0.0-8.0-3.88","subject":"pvmkyoht9kcvsng","sona":"THNS"},{"rt":860,"stimulus":"<p>Bereit?</p>","button_pressed":"0","trial_type":"html-button-response","trial_index":363,"time_elapsed":943420,"internal_node_id":"0.0-8.0-0.89","subject":"pvmkyoht9kcvsng","sona":"THNS"},{"rt":null,"stimulus":"<div style=\"font-size:60px;\">+</div>","key_press":null,"trial_type":"html-keyboard-response","trial_index":364,"time_elapsed":945446,"internal_node_id":"0.0-8.0-1.89","subject":"pvmkyoht9kcvsng","sona":"THNS"},{"trial_type":"turing-test","trial_index":365,"time_elapsed":949240,"internal_node_id":"0.0-8.0-2.89","subject":"pvmkyoht9kcvsng","sona":"THNS"},{"rt":821,"stimulus":"<p>Welche Sequenz haben Sie als natürlicher empfunden?</p>","button_pressed":"1","test_part":"response","test_stimulus":{"position":1,"left":"bvh/vr_prediction_models/model(vcgpdm)-dataset(pass-bottle-hold)-mode(ELBO)-parts(1)-dyn(30)-lvm(35)-hold(3)/final-lines.txt","right":"bvh/pass-bottle-hold-training3-lines.txt","att_check":false},"trial_type":"html-button-response","trial_index":366,"time_elapsed":950068,"internal_node_id":"0.0-8.0-3.89","subject":"pvmkyoht9kcvsng","sona":"THNS"},{"rt":436,"stimulus":"<p>Bereit?</p>","button_pressed":"0","trial_type":"html-button-response","trial_index":367,"time_elapsed":950507,"internal_node_id":"0.0-8.0-0.90","subject":"pvmkyoht9kcvsng","sona":"THNS"},{"rt":null,"stimulus":"<div style=\"font-size:60px;\">+</div>","key_press":null,"trial_type":"html-keyboard-response","trial_index":368,"time_elapsed":952527,"internal_node_id":"0.0-8.0-1.90","subject":"pvmkyoht9kcvsng","sona":"THNS"},{"t