[{"rt":1565,"stimulus":"<p>Welcome!<br> Please choose your language to start the experiment in the chosen language.</p><p>Willkommen!<br> Bitte wählen Sie eine Sprache, um das Experiment in der ausgewählten Sprache zu starten</p>","button_pressed":"1","trial_type":"html-button-response","trial_index":0,"time_elapsed":1587,"internal_node_id":"0.0-0.0","subject":"htk2uz9wdltc1kz","sona":"9160"},{"view_history":"[{\"page_index\":0,\"viewing_time\":902},{\"page_index\":1,\"viewing_time\":1034},{\"page_index\":2,\"viewing_time\":6727},{\"page_index\":3,\"viewing_time\":1154},{\"page_index\":4,\"viewing_time\":9991}]","rt":19809,"trial_type":"instructions","trial_index":1,"time_elapsed":21399,"internal_node_id":"0.0-1.0-0.0","subject":"htk2uz9wdltc1kz","sona":"9160"},{"rt":1678,"stimulus":"<p>Bereit?</p>","key_press":32,"trial_type":"html-keyboard-response","trial_index":2,"time_elapsed":23078,"internal_node_id":"0.0-3.0","subject":"htk2uz9wdltc1kz","sona":"9160"},{"rt":null,"stimulus":"<div style=\"font-size:60px;\">+</div>","key_press":null,"trial_type":"html-keyboard-response","trial_index":3,"time_elapsed":25094,"internal_node_id":"0.0-4.0","subject":"htk2uz9wdltc1kz","sona":"9160"},{"trial_type":"training","trial_index":4,"time_elapsed":28705,"internal_node_id":"0.0-5.0","subject":"htk2uz9wdltc1kz","sona":"9160"},{"rt":356,"stimulus":"<p>Welche Sequenz haben Sie als natürlicher empfunden?</p>","key_press":70,"trial_type":"html-keyboard-response","trial_index":5,"time_elapsed":29068,"internal_node_id":"0.0-6.0","subject":"htk2uz9wdltc1kz","sona":"9160"},{"rt":1441,"stimulus":"<p>Das Experiment startet nun.</p><p><small>Bitte drücken Sie den Knopf, wenn Sie bereit sind.</small></p>","button_pressed":"0","trial_type":"html-button-response","trial_index":6,"time_elapsed":30513,"internal_node_id":"0.0-7.0","subject":"htk2uz9wdltc1kz","sona":"9160"},{"rt":1226,"stimulus":"<p>Bereit?</p>","key_press":32,"trial_type":"html-keyboard-response","trial_index":7,"time_elapsed":31743,"internal_node_id":"0.0-8.0-0.0","subject":"htk2uz9wdltc1kz","sona":"9160"},{"rt":null,"stimulus":"<div style=\"font-size:60px;\">+</div>","key_press":null,"trial_type":"html-keyboard-response","trial_index":8,"time_elapsed":33755,"internal_node_id":"0.0-8.0-1.0","subject":"htk2uz9wdltc1kz","sona":"9160"},{"trial_type":"turing-test","trial_index":9,"time_elapsed":39128,"internal_node_id":"0.0-8.0-2.0","subject":"htk2uz9wdltc1kz","sona":"9160"},{"rt":451,"stimulus":"<p>Welche Sequenz haben Sie als natürlicher empfunden?</p>","key_press":74,"test_part":"response","test_stimulus":{"position":1,"left":"bvh/vr_prediction_models/model(vcgpdm)-dataset(return-bottle-hold)-mode(ELBO)-parts(1)-dyn(25)-lvm(35)-hold(0)/final-lines.txt","right":"bvh/return-bottle-hold-training0-lines.txt","att_check":false},"trial_type":"html-keyboard-response","trial_index":10,"time_elapsed":39586,"internal_node_id":"0.0-8.0-3.0","subject":"htk2uz9wdltc1kz","sona":"9160"},{"rt":151,"stimulus":"<p>Bereit?</p>","key_press":32,"trial_type":"html-keyboard-response","trial_index":11,"time_elapsed":39744,"internal_node_id":"0.0-8.0-0.1","subject":"htk2uz9wdltc1kz","sona":"9160"},{"rt":null,"stimulus":"<div style=\"font-size:60px;\">+</div>","key_press":null,"trial_type":"html-keyboard-response","trial_index":12,"time_elapsed":41761,"internal_node_id":"0.0-8.0-1.1","subject":"htk2uz9wdltc1kz","sona":"9160"},{"trial_type":"turing-test","trial_index":13,"time_elapsed":47792,"internal_node_id":"0.0-8.0-2.1","subject":"htk2uz9wdltc1kz","sona":"9160"},{"rt":269,"stimulus":"<p>Welche Sequenz haben Sie als natürlicher empfunden?</p>","key_press":74,"test_part":"response","test_stimulus":{"position":1,"left":"bvh/vr_prediction_models/model(tmp)-dataset(pass-bottle)-numprim(5)-hold(3)/final-lines.txt","right":"bvh/pass-bottle-training3-lines.txt","att_check":false},"trial_type":"html-keyboard-response","trial_index":14,"time_elapsed":48066,"internal_node_id":"0.0-8.0-3.1","subject":"htk2uz9wdltc1kz","sona":"9160"},{"rt":131,"stimulus":"<p>Bereit?</p>","key_press":32,"trial_type":"html-keyboard-response","trial_index":15,"time_elapsed":48199,"internal_node_id":"0.0-8.0-0.2","subject":"htk2uz9wdltc1kz","sona":"9160"},{"rt":null,"stimulus":"<div style=\"font-size:60px;\">+</div>","key_press":null,"trial_type":"html-keyboard-response","trial_index":16,"time_elapsed":50212,"internal_node_id":"0.0-8.0-1.2","subject":"htk2uz9wdltc1kz","sona":"9160"},{"trial_type":"turing-test","trial_index":17,"time_elapsed":53992,"internal_node_id":"0.0-8.0-2.2","subject":"htk2uz9wdltc1kz","sona":"9160"},{"rt":383,"stimulus":"<p>Welche Sequenz haben Sie als natürlicher empfunden?</p>","key_press":74,"test_part":"response","test_stimulus":{"position":1,"left":"bvh/vr_prediction_models/model(vcgpdm)-dataset(pass-bottle-hold)-mode(ELBO)-parts(3)-dyn(10)-lvm(10)-hold(4)/final-lines.txt","right":"bvh/pass-bottle-hold-training4-lines.txt","att_check":false},"trial_type":"html-keyboard-response","trial_index":18,"time_elapsed":54382,"internal_node_id":"0.0-8.0-3.2","subject":"htk2uz9wdltc1kz","sona":"9160"},{"rt":141,"stimulus":"<p>Bereit?</p>","key_press":32,"trial_type":"html-keyboard-response","trial_index":19,"time_elapsed":54528,"internal_node_id":"0.0-8.0-0.3","subject":"htk2uz9wdltc1kz","sona":"9160"},{"rt":null,"stimulus":"<div style=\"font-size:60px;\">+</div>","key_press":null,"trial_type":"html-keyboard-response","trial_index":20,"time_elapsed":56563,"internal_node_id":"0.0-8.0-1.3","subject":"htk2uz9wdltc1kz","sona":"9160"},{"trial_type":"turing-test","trial_index":21,"time_elapsed":60202,"internal_node_id":"0.0-8.0-2.3","subject":"htk2uz9wdltc1kz","sona":"9160"},{"rt":629,"stimulus":"<p>Welche Sequenz haben Sie als natürlicher empfunden?</p>","key_press":74,"test_part":"response","test_stimulus":{"position":0,"left":"bvh/pass-bottle-hold-training4-lines.txt","right":"bvh/vr_prediction_models/model(tmp)-dataset(pass-bottle-hold)-numprim(11)-hold(4)/final-lines.txt","att_check":false},"trial_type":"html-keyboard-response","trial_index":22,"time_elapsed":60839,"internal_node_id":"0.0-8.0-3.3","subject":"htk2uz9wdltc1kz","sona":"9160"},{"rt":153,"stimulus":"<p>Bereit?</p>","key_press":32,"trial_type":"html-keyboard-response","trial_index":23,"time_elapsed":60998,"internal_node_id":"0.0-8.0-0.4","subject":"htk2uz9wdltc1kz","sona":"9160"},{"rt":null,"stimulus":"<div style=\"font-size:60px;\">+</div>","key_press":null,"trial_type":"html-keyboard-response","trial_index":24,"time_elapsed":63022,"internal_node_id":"0.0-8.0-1.4","subject":"htk2uz9wdltc1kz","sona":"9160"},{"trial_type":"turing-test","trial_index":25,"time_elapsed":68581,"internal_node_id":"0.0-8.0-2.4","subject":"htk2uz9wdltc1kz","sona":"9160"},{"rt":285,"stimulus":"<p>Welche Sequenz haben Sie als natürlicher empfunden?</p>","key_press":74,"test_part":"response","test_stimulus":{"position":1,"left":"bvh/vr_prediction_models/model(tmp)-dataset(pass-bottle)-numprim(12)-hold(1)/final-lines.txt","right":"bvh/pass-bottle-training1-lines.txt","att_check":false},"trial_type":"html-keyboard-response","trial_index":26,"time_elapsed":68868,"internal_node_id":"0.0-8.0-3.4","subject":"htk2uz9wdltc1kz","sona":"9160"},{"rt":150,"stimulus":"<p>Bereit?</p>","key_press":32,"trial_type":"html-keyboard-response","trial_index":27,"time_elapsed":69024,"internal_node_id":"0.0-8.0-0.5","subject":"htk2uz9wdltc1kz","sona":"9160"},{"rt":null,"stimulus":"<div style=\"font-size:60px;\">+</div>","key_press":null,"trial_type":"html-keyboard-response","trial_index":28,"time_elapsed":71081,"internal_node_id":"0.0-8.0-1.5","subject":"htk2uz9wdltc1kz","sona":"9160"},{"trial_type":"turing-test","trial_index":29,"time_elapsed":78044,"internal_node_id":"0.0-8.0-2.5","subject":"htk2uz9wdltc1kz","sona":"9160"},{"rt":534,"stimulus":"<p>Welche Sequenz haben Sie als natürlicher empfunden?</p>","key_press":70,"test_part":"response","test_stimulus":{"position":0,"left":"bvh/return-bottle-training2-lines.txt","right":"bvh/vr_prediction_models/model(vcgpdm)-dataset(return-bottle)-mode(ELBO)-parts(1)-dyn(35)-lvm(30)-hold(2)/final-lines.txt","att_check":false},"trial_type":"html-keyboard-response","trial_index":30,"time_elapsed":78590,"internal_node_id":"0.0-8.0-3.5","subject":"htk2uz9wdltc1kz","sona":"9160"},{"rt":235,"stimulus":"<p>Bereit?</p>","key_press":32,"trial_type":"html-keyboard-response","trial_index":31,"time_elapsed":78829,"internal_node_id":"0.0-8.0-0.6","subject":"htk2uz9wdltc1kz","sona":"9160"},{"rt":null,"stimulus":"<div style=\"font-size:60px;\">+</div>","key_press":null,"trial_type":"html-keyboard-response","trial_index":32,"time_elapsed":80865,"internal_node_id":"0.0-8.0-1.6","subject":"htk2uz9wdltc1kz","sona":"9160"},{"trial_type":"turing-test","trial_index":33,"time_elapsed":84464,"internal_node_id":"0.0-8.0-2.6","subject":"htk2uz9wdltc1kz","sona":"9160"},{"rt":220,"stimulus":"<p>Welche Sequenz haben Sie als natürlicher empfunden?</p>","key_press":70,"test_part":"response","test_stimulus":{"position":0,"left":"bvh/return-bottle-hold-training2-lines.txt","right":"bvh/vr_prediction_models/model(dmp)-dataset(return-bottle-hold)-npsi(70)-hold(2)/final-lines.txt","att_check":false},"trial_type":"html-keyboard-response","trial_index":34,"time_elapsed":84689,"internal_node_id":"0.0-8.0-3.6","subject":"htk2uz9wdltc1kz","sona":"9160"},{"rt":226,"stimulus":"<p>Bereit?</p>","key_press":32,"trial_type":"html-keyboard-response","trial_index":35,"time_elapsed":84921,"internal_node_id":"0.0-8.0-0.7","subject":"htk2uz9wdltc1kz","sona":"9160"},{"rt":null,"stimulus":"<div style=\"font-size:60px;\">+</div>","key_press":null,"trial_type":"html-keyboard-response","trial_index":36,"time_elapsed":86944,"internal_node_id":"0.0-8.0-1.7","subject":"htk2uz9wdltc1kz","sona":"9160"},{"trial_type":"turing-test","trial_index":37,"time_elapsed":92608,"internal_node_id":"0.0-8.0-2.7","subject":"htk2uz9wdltc1kz","sona":"9160"},{"rt":419,"stimulus":"<p>Welche Sequenz haben Sie als natürlicher empfunden?</p>","key_press":74,"test_part":"response","test_stimulus":{"position":1,"left":"bvh/vr_prediction_models/model(vcgpdm)-dataset(pass-bottle)-mode(ELBO)-parts(1)-dyn(15)-lvm(35)-hold(1)/final-lines.txt","right":"bvh/pass-bottle-training1-lines.txt","att_check":false},"trial_type":"html-keyboard-response","trial_index":38,"time_elapsed":93034,"internal_node_id":"0.0-8.0-3.7","subject":"htk2uz9wdltc1kz","sona":"9160"},{"rt":238,"stimulus":"<p>Bereit?</p>","key_press":32,"trial_type":"html-keyboard-response","trial_index":39,"time_elapsed":93279,"internal_node_id":"0.0-8.0-0.8","subject":"htk2uz9wdltc1kz","sona":"9160"},{"rt":null,"stimulus":"<div style=\"font-size:60px;\">+</div>","key_press":null,"trial_type":"html-keyboard-response","trial_index":40,"time_elapsed":95294,"internal_node_id":"0.0-8.0-1.8","subject":"htk2uz9wdltc1kz","sona":"9160"},{"trial_type":"turing-test","trial_index":41,"time_elapsed":98818,"internal_node_id":"0.0-8.0-2.8","subject":"htk2uz9wdltc1kz","sona":"9160"},{"rt":1292,"stimulus":"<p>Welche Sequenz haben Sie als natürlicher empfunden?</p>","key_press":74,"test_part":"response","test_stimulus":{"position":0,"left":"bvh/pass-bottle-hold-training2-lines.txt","right":"bvh/vr_prediction_models/model(vcgpdm)-dataset(pass-bottle-hold)-mode(ELBO)-parts(1)-dyn(20)-lvm(20)-hold(2)/final-lines.txt","att_check":false},"trial_type":"html-keyboard-response","trial_index":42,"time_elapsed":100112,"internal_node_id":"0.0-8.0-3.8","subject":"htk2uz9wdltc1kz","sona":"9160"},{"rt":141,"stimulus":"<p>Bereit?</p>","key_press":32,"trial_type":"html-keyboard-response","trial_index":43,"time_elapsed":100259,"internal_node_id":"0.0-8.0-0.9","subject":"htk2uz9wdltc1kz","sona":"9160"},{"rt":null,"stimulus":"<div style=\"font-size:60px;\">+</div>","key_press":null,"trial_type":"html-keyboard-response","trial_index":44,"time_elapsed":102286,"internal_node_id":"0.0-8.0-1.9","subject":"htk2uz9wdltc1kz","sona":"9160"},{"trial_type":"turing-test","trial_index":45,"time_elapsed":108296,"internal_node_id":"0.0-8.0-2.9","subject":"htk2uz9wdltc1kz","sona":"9160"},{"rt":282,"stimulus":"<p>Welche Sequenz haben Sie als natürlicher empfunden?</p>","key_press":74,"test_part":"response","test_stimulus":{"position":1,"left":"bvh/vr_prediction_models/model(vcgpdm)-dataset(return-bottle)-mode(ELBO)-parts(3)-dyn(35)-lvm(20)-hold(4)/final-lines.txt","right":"bvh/return-bottle-training4-lines.txt","att_check":false},"trial_type":"html-keyboard-response","trial_index":46,"time_elapsed":108587,"internal_node_id":"0.0-8.0-3.9","subject":"htk2uz9wdltc1kz","sona":"9160"},{"rt":155,"stimulus":"<p>Bereit?</p>","key_press":32,"trial_type":"html-keyboard-response","trial_index":47,"time_elapsed":108752,"internal_node_id":"0.0-8.0-0.10","subject":"htk2uz9wdltc1kz","sona":"9160"},{"rt":null,"stimulus":"<div style=\"font-size:60px;\">+</div>","key_press":null,"trial_type":"html-keyboard-response","trial_index":48,"time_elapsed":110761,"internal_node_id":"0.0-8.0-1.10","subject":"htk2uz9wdltc1kz","sona":"9160"},{"trial_type":"turing-test","trial_index":49,"time_elapsed":114579,"internal_node_id":"0.0-8.0-2.10","subject":"htk2uz9wdltc1kz","sona":"9160"},{"rt":292,"stimulus":"<p>Welche Sequenz haben Sie als natürlicher empfunden?</p>","key_press":70,"test_part":"response","test_stimulus":{"position":0,"left":"bvh/pass-bottle-hold-training4-lines.txt","right":"bvh/vr_prediction_models/model(dmp)-dataset(pass-bottle-hold)-npsi(100)-hold(4)/final-lines.txt","att_check":false},"trial_type":"html-keyboard-response","trial_index":50,"time_elapsed":114878,"internal_node_id":"0.0-8.0-3.10","subject":"htk2uz9wdltc1kz","sona":"9160"},{"rt":163,"stimulus":"<p>Bereit?</p>","key_press":32,"trial_type":"html-keyboard-response","trial_index":51,"time_elapsed":115048,"internal_node_id":"0.0-8.0-0.11","subject":"htk2uz9wdltc1kz","sona":"9160"},{"rt":null,"stimulus":"<div style=\"font-size:60px;\">+</div>","key_press":null,"trial_type":"html-keyboard-response","trial_index":52,"time_elapsed":117069,"internal_node_id":"0.0-8.0-1.11","subject":"htk2uz9wdltc1kz","sona":"9160"},{"trial_type":"turing-test","trial_index":53,"time_elapsed":120896,"internal_node_id":"0.0-8.0-2.11","subject":"htk2uz9wdltc1kz","sona":"9160"},{"rt":278,"stimulus":"<p>Welche Sequenz haben Sie als natürlicher empfunden?</p>","key_press":70,"test_part":"response","test_stimulus":{"position":0,"left":"bvh/pass-bottle-hold-training3-lines.txt","right":"bvh/vr_prediction_models/model(vcgpdm)-dataset(pass-bottle-hold)-mode(ELBO)-parts(3)-dyn(35)-lvm(20)-hold(3)/final-lines.txt","att_check":false},"trial_type":"html-keyboard-response","trial_index":54,"time_elapsed":121181,"internal_node_id":"0.0-8.0-3.11","subject":"htk2uz9wdltc1kz","sona":"9160"},{"rt":172,"stimulus":"<p>Bereit?</p>","key_press":32,"trial_type":"html-keyboard-response","trial_index":55,"time_elapsed":121360,"internal_node_id":"0.0-8.0-0.12","subject":"htk2uz9wdltc1kz","sona":"9160"},{"rt":null,"stimulus":"<div style=\"font-size:60px;\">+</div>","key_press":null,"trial_type":"html-keyboard-response","trial_index":56,"time_elapsed":123376,"internal_node_id":"0.0-8.0-1.12","subject":"htk2uz9wdltc1kz","sona":"9160"},{"trial_type":"turing-test","trial_index":57,"time_elapsed":129380,"internal_node_id":"0.0-8.0-2.12","subject":"htk2uz9wdltc1kz","sona":"9160"},{"rt":384,"stimulus":"<p>Welche Sequenz haben Sie als natürlicher empfunden?</p>","key_press":74,"test_part":"response","test_stimulus":{"position":1,"left":"bvh/vr_prediction_models/model(vcgpdm)-dataset(pass-bottle)-mode(ELBO)-parts(3)-dyn(20)-lvm(15)-hold(3)/final-lines.txt","right":"bvh/pass-bottle-training3-lines.txt","att_check":false},"trial_type":"html-keyboard-response","trial_index":58,"time_elapsed":129770,"internal_node_id":"0.0-8.0-3.12","subject":"htk2uz9wdltc1kz","sona":"9160"},{"rt":164,"stimulus":"<p>Bereit?</p>","key_press":32,"trial_type":"html-keyboard-response","trial_index":59,"time_elapsed":129942,"internal_node_id":"0.0-8.0-0.13","subject":"htk2uz9wdltc1kz","sona":"9160"},{"rt":null,"stimulus":"<div style=\"font-size:60px;\">+</div>","key_press":null,"trial_type":"html-keyboard-response","trial_index":60,"time_elapsed":131981,"internal_node_id":"0.0-8.0-1.13","subject":"htk2uz9wdltc1kz","sona":"9160"},{"trial_type":"turing-test","trial_index":61,"time_elapsed":135834,"internal_node_id":"0.0-8.0-2.13","subject":"htk2uz9wdltc1kz","sona":"9160"},{"rt":393,"stimulus":"<p>Welche Sequenz haben Sie als natürlicher empfunden?</p>","key_press":74,"test_part":"response","test_stimulus":{"position":0,"left":"bvh/return-bottle-hold-training3-lines.txt","right":"bvh/vr_prediction_models/model(dmp)-dataset(return-bottle-hold)-npsi(100)-hold(3)/final-lines.txt","att_check":true},"trial_type":"html-keyboard-response","trial_index":62,"time_elapsed":136233,"internal_node_id":"0.0-8.0-3.13","subject":"htk2uz9wdltc1kz","sona":"9160"},{"rt":163,"stimulus":"<p>Bereit?</p>","key_press":32,"trial_type":"html-keyboard-response","trial_index":63,"time_elapsed":136402,"internal_node_id":"0.0-8.0-0.14","subject":"htk2uz9wdltc1kz","sona":"9160"},{"rt":null,"stimulus":"<div style=\"font-size:60px;\">+</div>","key_press":null,"trial_type":"html-keyboard-response","trial_index":64,"time_elapsed":138434,"internal_node_id":"0.0-8.0-1.14","subject":"htk2uz9wdltc1kz","sona":"9160"},{"trial_type":"turing-test","trial_index":65,"time_elapsed":144406,"internal_node_id":"0.0-8.0-2.14","subject":"htk2uz9wdltc1kz","sona":"9160"},{"rt":243,"stimulus":"<p>Welche Sequenz haben Sie als natürlicher empfunden?</p>","key_press":74,"test_part":"response","test_stimulus":{"position":1,"left":"bvh/vr_prediction_models/model(tmp)-dataset(return-bottle)-numprim(3)-hold(3)/final-lines.txt","right":"bvh/return-bottle-training3-lines.txt","att_check":false},"trial_type":"html-keyboard-response","trial_index":66,"time_elapsed":144657,"internal_node_id":"0.0-8.0-3.14","subject":"htk2uz9wdltc1kz","sona":"9160"},{"rt":106,"stimulus":"<p>Bereit?</p>","key_press":32,"trial_type":"html-keyboard-response","trial_index":67,"time_elapsed":144771,"internal_node_id":"0.0-8.0-0.15","subject":"htk2uz9wdltc1kz","sona":"9160"},{"rt":null,"stimulus":"<div style=\"font-size:60px;\">+</div>","key_press":null,"trial_type":"html-keyboard-response","trial_index":68,"time_elapsed":146780,"internal_node_id":"0.0-8.0-1.15","subject":"htk2uz9wdltc1kz","sona":"9160"},{"trial_type":"turing-test","trial_index":69,"time_elapsed":152395,"internal_node_id":"0.0-8.0-2.15","subject":"htk2uz9wdltc1kz","sona":"9160"},{"rt":308,"stimulus":"<p>Welche Sequenz haben Sie als natürlicher empfunden?</p>","key_press":74,"test_part":"response","test_stimulus":{"position":1,"left":"bvh/vr_prediction_models/model(vcgpdm)-dataset(pass-bottle)-mode(ELBO)-parts(3)-dyn(10)-lvm(30)-hold(1)/final-lines.txt","right":"bvh/pass-bottle-training1-lines.txt","att_check":false},"trial_type":"html-keyboard-response","trial_index":70,"time_elapsed":152711,"internal_node_id":"0.0-8.0-3.15","subject":"htk2uz9wdltc1kz","sona":"9160"},{"rt":93,"stimulus":"<p>Bereit?</p>","key_press":32,"trial_type":"html-keyboard-response","trial_index":71,"time_elapsed":152811,"internal_node_id":"0.0-8.0-0.16","subject":"htk2uz9wdltc1kz","sona":"9160"},{"rt":null,"stimulus":"<div style=\"font-size:60px;\">+</div>","key_press":null,"trial_type":"html-keyboard-response","trial_index":72,"time_elapsed":154819,"internal_node_id":"0.0-8.0-1.16","subject":"htk2uz9wdltc1kz","sona":"9160"},{"trial_type":"turing-test","trial_index":73,"time_elapsed":161053,"internal_node_id":"0.0-8.0-2.16","subject":"htk2uz9wdltc1kz","sona":"9160"},{"rt":326,"stimulus":"<p>Welche Sequenz haben Sie als natürlicher empfunden?</p>","key_press":74,"test_part":"response","test_stimulus":{"position":1,"left":"bvh/vr_prediction_models/model(dmp)-dataset(pass-bottle)-npsi(70)-hold(2)/final-lines.txt","right":"bvh/pass-bottle-training2-lines.txt","att_check":false},"trial_type":"html-keyboard-response","trial_index":74,"time_elapsed":161386,"internal_node_id":"0.0-8.0-3.16","subject":"htk2uz9wdltc1kz","sona":"9160"},{"rt":138,"stimulus":"<p>Bereit?</p>","key_press":32,"trial_type":"html-keyboard-response","trial_index":75,"time_elapsed":161530,"internal_node_id":"0.0-8.0-0.17","subject":"htk2uz9wdltc1kz","sona":"9160"},{"rt":null,"stimulus":"<div style=\"font-size:60px;\">+</div>","key_press":null,"trial_type":"html-keyboard-response","trial_index":76,"time_elapsed":163563,"internal_node_id":"0.0-8.0-1.17","subject":"htk2uz9wdltc1kz","sona":"9160"},{"trial_type":"turing-test","trial_index":77,"time_elapsed":168961,"internal_node_id":"0.0-8.0-2.17","subject":"htk2uz9wdltc1kz","sona":"9160"},{"rt":482,"stimulus":"<p>Welche Sequenz haben Sie als natürlicher empfunden?</p>","key_press":74,"test_part":"response","test_stimulus":{"position":0,"left":"bvh/return-bottle-hold-training0-lines.txt","right":"bvh/vr_prediction_models/model(vcgpdm)-dataset(return-bottle-hold)-mode(ELBO)-parts(1)-dyn(10)-lvm(25)-hold(0)/final-lines.txt","att_check":false},"trial_type":"html-keyboard-response","trial_index":78,"time_elapsed":169449,"internal_node_id":"0.0-8.0-3.17","subject":"htk2uz9wdltc1kz","sona":"9160"},{"rt":122,"stimulus":"<p>Bereit?</p>","key_press":32,"trial_type":"html-keyboard-response","trial_index":79,"time_elapsed":169577,"internal_node_id":"0.0-8.0-0.18","subject":"htk2uz9wdltc1kz","sona":"9160"},{"rt":null,"stimulus":"<div style=\"font-size:60px;\">+</div>","key_press":null,"trial_type":"html-keyboard-response","trial_index":80,"time_elapsed":171611,"internal_node_id":"0.0-8.0-1.18","subject":"htk2uz9wdltc1kz","sona":"9160"},{"trial_type":"turing-test","trial_index":81,"time_elapsed":177440,"internal_node_id":"0.0-8.0-2.18","subject":"htk2uz9wdltc1kz","sona":"9160"},{"rt":217,"stimulus":"<p>Welche Sequenz haben Sie als natürlicher empfunden?</p>","key_press":74,"test_part":"response","test_stimulus":{"position":1,"left":"bvh/vr_prediction_models/model(tmp)-dataset(pass-bottle)-numprim(7)-hold(4)/final-lines.txt","right":"bvh/pass-bottle-training4-lines.txt","att_check":false},"trial_type":"html-keyboard-response","trial_index":82,"time_elapsed":177666,"internal_node_id":"0.0-8.0-3.18","subject":"htk2uz9wdltc1kz","sona":"9160"},{"rt":100,"stimulus":"<p>Bereit?</p>","key_press":32,"trial_type":"html-keyboard-response","trial_index":83,"time_elapsed":177774,"internal_node_id":"0.0-8.0-0.19","subject":"htk2uz9wdltc1kz","sona":"9160"},{"rt":null,"stimulus":"<div style=\"font-size:60px;\">+</div>","key_press":null,"trial_type":"html-keyboard-response","trial_index":84,"time_elapsed":179800,"internal_node_id":"0.0-8.0-1.19","subject":"htk2uz9wdltc1kz","sona":"9160"},{"trial_type":"turing-test","trial_index":85,"time_elapsed":183545,"internal_node_id":"0.0-8.0-2.19","subject":"htk2uz9wdltc1kz","sona":"9160"},{"rt":438,"stimulus":"<p>Welche Sequenz haben Sie als natürlicher empfunden?</p>","key_press":70,"test_part":"response","test_stimulus":{"position":0,"left":"bvh/pass-bottle-hold-training4-lines.txt","right":"bvh/vr_prediction_models/model(vcgpdm)-dataset(pass-bottle-hold)-mode(ELBO)-parts(1)-dyn(30)-lvm(20)-hold(4)/final-lines.txt","att_check":false},"trial_type":"html-keyboard-response","trial_index":86,"time_elapsed":183993,"internal_node_id":"0.0-8.0-3.19","subject":"htk2uz9wdltc1kz","sona":"9160"},{"rt":155,"stimulus":"<p>Bereit?</p>","key_press":32,"trial_type":"html-keyboard-response","trial_index":87,"time_elapsed":184154,"internal_node_id":"0.0-8.0-0.20","subject":"htk2uz9wdltc1kz","sona":"9160"},{"rt":null,"stimulus":"<div style=\"font-size:60px;\">+</div>","key_press":null,"trial_type":"html-keyboard-response","trial_index":88,"time_elapsed":186175,"internal_node_id":"0.0-8.0-1.20","subject":"htk2uz9wdltc1kz","sona":"9160"},{"trial_type":"turing-test","trial_index":89,"time_elapsed":190104,"internal_node_id":"0.0-8.0-2.20","subject":"htk2uz9wdltc1kz","sona":"9160"},{"rt":290,"stimulus":"<p>Welche Sequenz haben Sie als natürlicher empfunden?</p>","key_press":74,"test_part":"response","test_stimulus":{"position":1,"left":"bvh/vr_prediction_models/model(dmp)-dataset(return-bottle-hold)-npsi(40)-hold(4)/final-lines.txt","right":"bvh/return-bottle-hold-training4-lines.txt","att_check":false},"trial_type":"html-keyboard-response","trial_index":90,"time_elapsed":190401,"internal_node_id":"0.0-8.0-3.20","subject":"htk2uz9wdltc1kz","sona":"9160"},{"rt":133,"stimulus":"<p>Bereit?</p>","key_press":32,"trial_type":"html-keyboard-response","trial_index":91,"time_elapsed":190543,"internal_node_id":"0.0-8.0-0.21","subject":"htk2uz9wdltc1kz","sona":"9160"},{"rt":null,"stimulus":"<div style=\"font-size:60px;\">+</div>","key_press":null,"trial_type":"html-keyboard-response","trial_index":92,"time_elapsed":192549,"internal_node_id":"0.0-8.0-1.21","subject":"htk2uz9wdltc1kz","sona":"9160"},{"trial_type":"turing-test","trial_index":93,"time_elapsed":198147,"internal_node_id":"0.0-8.0-2.21","subject":"htk2uz9wdltc1kz","sona":"9160"},{"rt":320,"stimulus":"<p>Welche Sequenz haben Sie als natürlicher empfunden?</p>","key_press":74,"test_part":"response","test_stimulus":{"position":1,"left":"bvh/vr_prediction_models/model(vcgpdm)-dataset(pass-bottle)-mode(ELBO)-parts(3)-dyn(20)-lvm(15)-hold(1)/final-lines.txt","right":"bvh/pass-bottle-training1-lines.txt","att_check":false},"trial_type":"html-keyboard-response","trial_index":94,"time_elapsed":198474,"internal_node_id":"0.0-8.0-3.21","subject":"htk2uz9wdltc1kz","sona":"9160"},{"rt":78,"stimulus":"<p>Bereit?</p>","key_press":32,"trial_type":"html-keyboard-response","trial_index":95,"time_elapsed":198561,"internal_node_id":"0.0-8.0-0.22","subject":"htk2uz9wdltc1kz","sona":"9160"},{"rt":null,"stimulus":"<div style=\"font-size:60px;\">+</div>","key_press":null,"trial_type":"html-keyboard-response","trial_index":96,"time_elapsed":200577,"internal_node_id":"0.0-8.0-1.22","subject":"htk2uz9wdltc1kz","sona":"9160"},{"trial_type":"turing-test","trial_index":97,"time_elapsed":204242,"internal_node_id":"0.0-8.0-2.22","subject":"htk2uz9wdltc1kz","sona":"9160"},{"rt":436,"stimulus":"<p>Welche Sequenz haben Sie als natürlicher empfunden?</p>","key_press":70,"test_part":"response","test_stimulus":{"position":0,"left":"bvh/pass-bottle-hold-training2-lines.txt","right":"bvh/vr_prediction_models/model(vcgpdm)-dataset(pass-bottle-hold)-mode(ELBO)-parts(3)-dyn(25)-lvm(15)-hold(2)/final-lines.txt","att_check":false},"trial_type":"html-keyboard-response","trial_index":98,"time_elapsed":204686,"internal_node_id":"0.0-8.0-3.22","subject":"htk2uz9wdltc1kz","sona":"9160"},{"rt":127,"stimulus":"<p>Bereit?</p>","key_press":32,"trial_type":"html-keyboard-response","trial_index":99,"time_elapsed":204821,"internal_node_id":"0.0-8.0-0.23","subject":"htk2uz9wdltc1kz","sona":"9160"},{"rt":null,"stimulus":"<div style=\"font-size:60px;\">+</div>","key_press":null,"trial_type":"html-keyboard-response","trial_index":100,"time_elapsed":206837,"internal_node_id":"0.0-8.0-1.23","subject":"htk2uz9wdltc1kz","sona":"9160"},{"trial_type":"turing-test","trial_index":101,"time_elapsed":213538,"internal_node_id":"0.0-8.0-2.23","subject":"htk2uz9wdltc1kz","sona":"9160"},{"rt":277,"stimulus":"<p>Welche Sequenz haben Sie als natürlicher empfunden?</p>","key_press":74,"test_part":"response","test_stimulus":{"position":1,"left":"bvh/vr_prediction_models/model(dmp)-dataset(return-bottle)-npsi(40)-hold(2)/final-lines.txt","right":"bvh/return-bottle-training2-lines.txt","att_check":false},"trial_type":"html-keyboard-response","trial_index":102,"time_elapsed":213817,"internal_node_id":"0.0-8.0-3.23","subject":"htk2uz9wdltc1kz","sona":"9160"},{"rt":126,"stimulus":"<p>Bereit?</p>","key_press":32,"trial_type":"html-keyboard-response","trial_index":103,"time_elapsed":213944,"internal_node_id":"0.0-8.0-0.24","subject":"htk2uz9wdltc1kz","sona":"9160"},{"rt":null,"stimulus":"<div style=\"font-size:60px;\">+</div>","key_press":null,"trial_type":"html-keyboard-response","trial_index":104,"time_elapsed":215959,"internal_node_id":"0.0-8.0-1.24","subject":"htk2uz9wdltc1kz","sona":"9160"},{"trial_type":"turing-test","trial_index":105,"time_elapsed":219704,"internal_node_id":"0.0-8.0-2.24","subject":"htk2uz9wdltc1kz","sona":"9160"},{"rt":298,"stimulus":"<p>Welche Sequenz haben Sie als natürlicher empfunden?</p>","key_press":74,"test_part":"response","test_stimulus":{"position":1,"left":"bvh/vr_prediction_models/model(vcgpdm)-dataset(pass-bottle-hold)-mode(ELBO)-parts(1)-dyn(10)-lvm(25)-hold(4)/final-lines.txt","right":"bvh/pass-bottle-hold-training4-lines.txt","att_check":false},"trial_type":"html-keyboard-response","trial_index":106,"time_elapsed":220012,"internal_node_id":"0.0-8.0-3.24","subject":"htk2uz9wdltc1kz","sona":"9160"},{"rt":149,"stimulus":"<p>Bereit?</p>","key_press":32,"trial_type":"html-keyboard-response","trial_index":107,"time_elapsed":220172,"internal_node_id":"0.0-8.0-0.25","subject":"htk2uz9wdltc1kz","sona":"9160"},{"rt":null,"stimulus":"<div style=\"font-size:60px;\">+</div>","key_press":null,"trial_type":"html-keyboard-response","trial_index":108,"time_elapsed":222195,"internal_node_id":"0.0-8.0-1.25","subject":"htk2uz9wdltc1kz","sona":"9160"},{"trial_type":"turing-test","trial_index":109,"time_elapsed":228575,"internal_node_id":"0.0-8.0-2.25","subject":"htk2uz9wdltc1kz","sona":"9160"},{"rt":223,"stimulus":"<p>Welche Sequenz haben Sie als natürlicher empfunden?</p>","key_press":74,"test_part":"response","test_stimulus":{"position":1,"left":"bvh/vr_prediction_models/model(vcgpdm)-dataset(return-bottle)-mode(MAP)-parts(3)-hold(1)/final-lines.txt","right":"bvh/return-bottle-training1-lines.txt","att_check":false},"trial_type":"html-keyboard-response","trial_index":110,"time_elapsed":228809,"internal_node_id":"0.0-8.0-3.25","subject":"htk2uz9wdltc1kz","sona":"9160"},{"rt":352,"stimulus":"<p>Bereit?</p>","key_press":32,"trial_type":"html-keyboard-response","trial_index":111,"time_elapsed":229168,"internal_node_id":"0.0-8.0-0.26","subject":"htk2uz9wdltc1kz","sona":"9160"},{"rt":null,"stimulus":"<div style=\"font-size:60px;\">+</div>","key_press":null,"trial_type":"html-keyboard-response","trial_index":112,"time_elapsed":231195,"internal_node_id":"0.0-8.0-1.26","subject":"htk2uz9wdltc1kz","sona":"9160"},{"trial_type":"turing-test","trial_index":113,"time_elapsed":234726,"internal_node_id":"0.0-8.0-2.26","subject":"htk2uz9wdltc1kz","sona":"9160"},{"rt":1238,"stimulus":"<p>Welche Sequenz haben Sie als natürlicher empfunden?</p>","key_press":74,"test_part":"response","test_stimulus":{"position":0,"left":"bvh/pass-bottle-hold-training0-lines.txt","right":"bvh/vr_prediction_models/model(vcgpdm)-dataset(pass-bottle-hold)-mode(ELBO)-parts(3)-dyn(35)-lvm(20)-hold(0)/final-lines.txt","att_check":false},"trial_type":"html-keyboard-response","trial_index":114,"time_elapsed":235972,"internal_node_id":"0.0-8.0-3.26","subject":"htk2uz9wdltc1kz","sona":"9160"},{"rt":127,"stimulus":"<p>Bereit?</p>","key_press":32,"trial_type":"html-keyboard-response","trial_index":115,"time_elapsed":236108,"internal_node_id":"0.0-8.0-0.27","subject":"htk2uz9wdltc1kz","sona":"9160"},{"rt":null,"stimulus":"<div style=\"font-size:60px;\">+</div>","key_press":null,"trial_type":"html-keyboard-response","trial_index":116,"time_elapsed":238147,"internal_node_id":"0.0-8.0-1.27","subject":"htk2uz9wdltc1kz","sona":"9160"},{"trial_type":"turing-test","trial_index":117,"time_elapsed":241623,"internal_node_id":"0.0-8.0-2.27","subject":"htk2uz9wdltc1kz","sona":"9160"},{"rt":273,"stimulus":"<p>Welche Sequenz haben Sie als natürlicher empfunden?</p>","key_press":74,"test_part":"response","test_stimulus":{"position":1,"left":"bvh/vr_prediction_models/model(tmp)-dataset(return-bottle-hold)-numprim(8)-hold(2)/final-lines.txt","right":"bvh/return-bottle-hold-training2-lines.txt","att_check":false},"trial_type":"html-keyboard-response","trial_index":118,"time_elapsed":241903,"internal_node_id":"0.0-8.0-3.27","subject":"htk2uz9wdltc1kz","sona":"9160"},{"rt":98,"stimulus":"<p>Bereit?</p>","key_press":32,"trial_type":"html-keyboard-response","trial_index":119,"time_elapsed":242012,"internal_node_id":"0.0-8.0-0.28","subject":"htk2uz9wdltc1kz","sona":"9160"},{"rt":null,"stimulus":"<div style=\"font-size:60px;\">+</div>","key_press":null,"trial_type":"html-keyboard-response","trial_index":120,"time_elapsed":244050,"internal_node_id":"0.0-8.0-1.28","subject":"htk2uz9wdltc1kz","sona":"9160"},{"trial_type":"turing-test","trial_index":121,"time_elapsed":248021,"internal_node_id":"0.0-8.0-2.28","subject":"htk2uz9wdltc1kz","sona":"9160"},{"rt":282,"stimulus":"<p>Welche Sequenz haben Sie als natürlicher empfunden?</p>","key_press":70,"test_part":"response","test_stimulus":{"position":0,"left":"bvh/pass-bottle-hold-training3-lines.txt","right":"bvh/vr_prediction_models/model(dmp)-dataset(pass-bottle-hold)-npsi(20)-hold(3)/final-lines.txt","att_check":false},"trial_type":"html-keyboard-response","trial_index":122,"time_elapsed":248311,"internal_node_id":"0.0-8.0-3.28","subject":"htk2uz9wdltc1kz","sona":"9160"},{"rt":166,"stimulus":"<p>Bereit?</p>","key_press":32,"trial_type":"html-keyboard-response","trial_index":123,"time_elapsed":248485,"internal_node_id":"0.0-8.0-0.29","subject":"htk2uz9wdltc1kz","sona":"9160"},{"rt":null,"stimulus":"<div style=\"font-size:60px;\">+</div>","key_press":null,"trial_type":"html-keyboard-response","trial_index":124,"time_elapsed":250502,"internal_node_id":"0.0-8.0-1.29","subject":"htk2uz9wdltc1kz","sona":"9160"},{"trial_type":"turing-test","trial_index":125,"time_elapsed":256465,"internal_node_id":"0.0-8.0-2.29","subject":"htk2uz9wdltc1kz","sona":"9160"},{"rt":239,"stimulus":"<p>Welche Sequenz haben Sie als natürlicher empfunden?</p>","key_press":70,"test_part":"response","test_stimulus":{"position":0,"left":"bvh/pass-bottle-training4-lines.txt","right":"bvh/vr_prediction_models/model(vcgpdm)-dataset(pass-bottle)-mode(ELBO)-parts(1)-dyn(20)-lvm(5)-hold(4)/final-lines.txt","att_check":false},"trial_type":"html-keyboard-response","trial_index":126,"time_elapsed":256712,"internal_node_id":"0.0-8.0-3.29","subject":"htk2uz9wdltc1kz","sona":"9160"},{"rt":129,"stimulus":"<p>Bereit?</p>","key_press":32,"trial_type":"html-keyboard-response","trial_index":127,"time_elapsed":256849,"internal_node_id":"0.0-8.0-0.30","subject":"htk2uz9wdltc1kz","sona":"9160"},{"rt":null,"stimulus":"<div style=\"font-size:60px;\">+</div>","key_press":null,"trial_type":"html-keyboard-response","trial_index":128,"time_elapsed":258864,"internal_node_id":"0.0-8.0-1.30","subject":"htk2uz9wdltc1kz","sona":"9160"},{"trial_type":"turing-test","trial_index":129,"time_elapsed":264253,"internal_node_id":"0.0-8.0-2.30","subject":"htk2uz9wdltc1kz","sona":"9160"},{"rt":103,"stimulus":"<p>Welche Sequenz haben Sie als natürlicher empfunden?</p>","key_press":74,"test_part":"response","test_stimulus":{"position":1,"left":"bvh/vr_prediction_models/model(vcgpdm)-dataset(return-bottle-hold)-mode(ELBO)-parts(1)-dyn(35)-lvm(30)-hold(0)/final-lines.txt","right":"bvh/return-bottle-hold-training0-lines.txt","att_check":false},"trial_type":"html-keyboard-response","trial_index":130,"time_elapsed":264368,"internal_node_id":"0.0-8.0-3.30","subject":"htk2uz9wdltc1kz","sona":"9160"},{"rt":182,"stimulus":"<p>Bereit?</p>","key_press":32,"trial_type":"html-keyboard-response","trial_index":131,"time_elapsed":264559,"internal_node_id":"0.0-8.0-0.31","subject":"htk2uz9wdltc1kz","sona":"9160"},{"rt":null,"stimulus":"<div style=\"font-size:60px;\">+</div>","key_press":null,"trial_type":"html-keyboard-response","trial_index":132,"time_elapsed":266584,"internal_node_id":"0.0-8.0-1.31","subject":"htk2uz9wdltc1kz","sona":"9160"},{"trial_type":"turing-test","trial_index":133,"time_elapsed":272184,"internal_node_id":"0.0-8.0-2.31","subject":"htk2uz9wdltc1kz","sona":"9160"},{"rt":151,"stimulus":"<p>Welche Sequenz haben Sie als natürlicher empfunden?</p>","key_press":70,"test_part":"response","test_stimulus":{"position":0,"left":"bvh/return-bottle-training0-lines.txt","right":"bvh/vr_prediction_models/model(vcgpdm)-dataset(return-bottle)-mode(ELBO)-parts(1)-dyn(20)-lvm(5)-hold(0)/final-lines.txt","att_check":false},"trial_type":"html-keyboard-response","trial_index":134,"time_elapsed":272344,"internal_node_id":"0.0-8.0-3.31","subject":"htk2uz9wdltc1kz","sona":"9160"},{"rt":274,"stimulus":"<p>Bereit?</p>","key_press":32,"trial_type":"html-keyboard-response","trial_index":135,"time_elapsed":272629,"internal_node_id":"0.0-8.0-0.32","subject":"htk2uz9wdltc1kz","sona":"9160"},{"rt":null,"stimulus":"<div style=\"font-size:60px;\">+</div>","key_press":null,"trial_type":"html-keyboard-response","trial_index":136,"time_elapsed":274650,"internal_node_id":"0.0-8.0-1.32","subject":"htk2uz9wdltc1kz","sona":"9160"},{"trial_type":"turing-test","trial_index":137,"time_elapsed":278279,"internal_node_id":"0.0-8.0-2.32","subject":"htk2uz9wdltc1kz","sona":"9160"},{"rt":500,"stimulus":"<p>Welche Sequenz haben Sie als natürlicher empfunden?</p>","key_press":70,"test_part":"response","test_stimulus":{"position":0,"left":"bvh/return-bottle-hold-training2-lines.txt","right":"bvh/vr_prediction_models/model(vcgpdm)-dataset(return-bottle-hold)-mode(ELBO)-parts(1)-dyn(30)-lvm(35)-hold(2)/final-lines.txt","att_check":false},"trial_type":"html-keyboard-response","trial_index":138,"time_elapsed":278787,"internal_node_id":"0.0-8.0-3.32","subject":"htk2uz9wdltc1kz","sona":"9160"},{"rt":112,"stimulus":"<p>Bereit?</p>","key_press":32,"trial_type":"html-keyboard-response","trial_index":139,"time_elapsed":278906,"internal_node_id":"0.0-8.0-0.33","subject":"htk2uz9wdltc1kz","sona":"9160"},{"rt":null,"stimulus":"<div style=\"font-size:60px;\">+</div>","key_press":null,"trial_type":"html-keyboard-response","trial_index":140,"time_elapsed":280921,"internal_node_id":"0.0-8.0-1.33","subject":"htk2uz9wdltc1kz","sona":"9160"},{"trial_type":"turing-test","trial_index":141,"time_elapsed":286240,"internal_node_id":"0.0-8.0-2.33","subject":"htk2uz9wdltc1kz","sona":"9160"},{"rt":292,"stimulus":"<p>Welche Sequenz haben Sie als natürlicher empfunden?</p>","key_press":70,"test_part":"response","test_stimulus":{"position":0,"left":"bvh/return-bottle-hold-training0-lines.txt","right":"bvh/vr_prediction_models/model(vcgpdm)-dataset(return-bottle-hold)-mode(ELBO)-parts(1)-dyn(10)-lvm(30)-hold(0)/final-lines.txt","att_check":false},"trial_type":"html-keyboard-response","trial_index":142,"time_elapsed":286541,"internal_node_id":"0.0-8.0-3.33","subject":"htk2uz9wdltc1kz","sona":"9160"},{"rt":116,"stimulus":"<p>Bereit?</p>","key_press":32,"trial_type":"html-keyboard-response","trial_index":143,"time_elapsed":286664,"internal_node_id":"0.0-8.0-0.34","subject":"htk2uz9wdltc1kz","sona":"9160"},{"rt":null,"stimulus":"<div style=\"font-size:60px;\">+</div>","key_press":null,"trial_type":"html-keyboard-response","trial_index":144,"time_elapsed":288673,"internal_node_id":"0.0-8.0-1.34","subject":"htk2uz9wdltc1kz","sona":"9160"},{"trial_type":"turing-test","trial_index":145,"time_elapsed":294571,"internal_node_id":"0.0-8.0-2.34","subject":"htk2uz9wdltc1kz","sona":"9160"},{"rt":262,"stimulus":"<p>Welche Sequenz haben Sie als natürlicher empfunden?</p>","key_press":70,"test_part":"response","test_stimulus":{"position":0,"left":"bvh/pass-bottle-training1-lines.txt","right":"bvh/vr_prediction_models/model(vcgpdm)-dataset(pass-bottle)-mode(ELBO)-parts(3)-dyn(20)-lvm(35)-hold(1)/final-lines.txt","att_check":false},"trial_type":"html-keyboard-response","trial_index":146,"time_elapsed":294841,"internal_node_id":"0.0-8.0-3.34","subject":"htk2uz9wdltc1kz","sona":"9160"},{"rt":123,"stimulus":"<p>Bereit?</p>","key_press":32,"trial_type":"html-keyboard-response","trial_index":147,"time_elapsed":294973,"internal_node_id":"0.0-8.0-0.35","subject":"htk2uz9wdltc1kz","sona":"9160"},{"rt":null,"stimulus":"<div style=\"font-size:60px;\">+</div>","key_press":null,"trial_type":"html-keyboard-response","trial_index":148,"time_elapsed":297011,"internal_node_id":"0.0-8.0-1.35","subject":"htk2uz9wdltc1kz","sona":"9160"},{"trial_type":"turing-test","trial_index":149,"time_elapsed":303325,"internal_node_id":"0.0-8.0-2.35","subject":"htk2uz9wdltc1kz","sona":"9160"},{"rt":333,"stimulus":"<p>Welche Sequenz haben Sie als natürlicher empfunden?</p>","key_press":74,"test_part":"response","test_stimulus":{"position":0,"left":"bvh/return-bottle-training1-lines.txt","right":"bvh/vr_prediction_models/model(vcgpdm)-dataset(return-bottle)-mode(ELBO)-parts(1)-dyn(30)-lvm(35)-hold(1)/final-lines.txt","att_check":false},"trial_type":"html-keyboard-response","trial_index":150,"time_elapsed":303672,"internal_node_id":"0.0-8.0-3.35","subject":"htk2uz9wdltc1kz","sona":"9160"},{"rt":120,"stimulus":"<p>Bereit?</p>","key_press":32,"trial_type":"html-keyboard-response","trial_index":151,"time_elapsed":303803,"internal_node_id":"0.0-8.0-0.36","subject":"htk2uz9wdltc1kz","sona":"9160"},{"rt":null,"stimulus":"<div style=\"font-size:60px;\">+</div>","key_press":null,"trial_type":"html-keyboard-response","trial_index":152,"time_elapsed":305825,"internal_node_id":"0.0-8.0-1.36","subject":"htk2uz9wdltc1kz","sona":"9160"},{"trial_type":"turing-test","trial_index":153,"time_elapsed":311777,"internal_node_id":"0.0-8.0-2.36","subject":"htk2uz9wdltc1kz","sona":"9160"},{"rt":268,"stimulus":"<p>Welche Sequenz haben Sie als natürlicher empfunden?</p>","key_press":74,"test_part":"response","test_stimulus":{"position":0,"left":"bvh/pass-bottle-training3-lines.txt","right":"bvh/vr_prediction_models/model(tmp)-dataset(pass-bottle)-numprim(6)-hold(3)/final-lines.txt","att_check":false},"trial_type":"html-keyboard-response","trial_index":154,"time_elapsed":312054,"internal_node_id":"0.0-8.0-3.36","subject":"htk2uz9wdltc1kz","sona":"9160"},{"rt":140,"stimulus":"<p>Bereit?</p>","key_press":32,"trial_type":"html-keyboard-response","trial_index":155,"time_elapsed":312201,"internal_node_id":"0.0-8.0-0.37","subject":"htk2uz9wdltc1kz","sona":"9160"},{"rt":null,"stimulus":"<div style=\"font-size:60px;\">+</div>","key_press":null,"trial_type":"html-keyboard-response","trial_index":156,"time_elapsed":314211,"internal_node_id":"0.0-8.0-1.37","subject":"htk2uz9wdltc1kz","sona":"9160"},{"trial_type":"turing-test","trial_index":157,"time_elapsed":317938,"internal_node_id":"0.0-8.0-2.37","subject":"htk2uz9wdltc1kz","sona":"9160"},{"rt":262,"stimulus":"<p>Welche Sequenz haben Sie als natürlicher empfunden?</p>","key_press":74,"test_part":"response","test_stimulus":{"position":1,"left":"bvh/vr_prediction_models/model(vcgpdm)-dataset(return-bottle-hold)-mode(ELBO)-parts(1)-dyn(20)-lvm(20)-hold(1)/final-lines.txt","right":"bvh/return-bottle-hold-training1-lines.txt","att_check":false},"trial_type":"html-keyboard-response","trial_index":158,"time_elapsed":318210,"internal_node_id":"0.0-8.0-3.37","subject":"htk2uz9wdltc1kz","sona":"9160"},{"rt":97,"stimulus":"<p>Bereit?</p>","key_press":32,"trial_type":"html-keyboard-response","trial_index":159,"time_elapsed":318318,"internal_node_id":"0.0-8.0-0.38","subject":"htk2uz9wdltc1kz","sona":"9160"},{"rt":null,"stimulus":"<div style=\"font-size:60px;\">+</div>","key_press":null,"trial_type":"html-keyboard-response","trial_index":160,"time_elapsed":320342,"internal_node_id":"0.0-8.0-1.38","subject":"htk2uz9wdltc1kz","sona":"9160"},{"trial_type":"turing-test","trial_index":161,"time_elapsed":323967,"internal_node_id":"0.0-8.0-2.38","subject":"htk2uz9wdltc1kz","sona":"9160"},{"rt":303,"stimulus":"<p>Welche Sequenz haben Sie als natürlicher empfunden?</p>","key_press":74,"test_part":"response","test_stimulus":{"position":0,"left":"bvh/pass-bottle-hold-training3-lines.txt","right":"bvh/vr_prediction_models/model(tmp)-dataset(pass-bottle-hold)-numprim(13)-hold(3)/final-lines.txt","att_check":false},"trial_type":"html-keyboard-response","trial_index":162,"time_elapsed":324282,"internal_node_id":"0.0-8.0-3.38","subject":"htk2uz9wdltc1kz","sona":"9160"},{"rt":92,"stimulus":"<p>Bereit?</p>","key_press":32,"trial_type":"html-keyboard-response","trial_index":163,"time_elapsed":324381,"internal_node_id":"0.0-8.0-0.39","subject":"htk2uz9wdltc1kz","sona":"9160"},{"rt":null,"stimulus":"<div style=\"font-size:60px;\">+</div>","key_press":null,"trial_type":"html-keyboard-response","trial_index":164,"time_elapsed":326417,"internal_node_id":"0.0-8.0-1.39","subject":"htk2uz9wdltc1kz","sona":"9160"},{"trial_type":"turing-test","trial_index":165,"time_elapsed":333101,"internal_node_id":"0.0-8.0-2.39","subject":"htk2uz9wdltc1kz","sona":"9160"},{"rt":248,"stimulus":"<p>Welche Sequenz haben Sie als natürlicher empfunden?</p>","key_press":70,"test_part":"response","test_stimulus":{"position":0,"left":"bvh/return-bottle-training2-lines.txt","right":"bvh/vr_prediction_models/model(tmp)-dataset(return-bottle)-numprim(14)-hold(2)/final-lines.txt","att_check":false},"trial_type":"html-keyboard-response","trial_index":166,"time_elapsed":333355,"internal_node_id":"0.0-8.0-3.39","subject":"htk2uz9wdltc1kz","sona":"9160"},{"rt":169,"stimulus":"<p>Bereit?</p>","key_press":32,"trial_type":"html-keyboard-response","trial_index":167,"time_elapsed":333527,"internal_node_id":"0.0-8.0-0.40","subject":"htk2uz9wdltc1kz","sona":"9160"},{"rt":null,"stimulus":"<div style=\"font-size:60px;\">+</div>","key_press":null,"trial_type":"html-keyboard-response","trial_index":168,"time_elapsed":335557,"internal_node_id":"0.0-8.0-1.40","subject":"htk2uz9wdltc1kz","sona":"9160"},{"trial_type":"turing-test","trial_index":169,"time_elapsed":339401,"internal_node_id":"0.0-8.0-2.40","subject":"htk2uz9wdltc1kz","sona":"9160"},{"rt":101,"stimulus":"<p>Welche Sequenz haben Sie als natürlicher empfunden?</p>","key_press":74,"test_part":"response","test_stimulus":{"position":1,"left":"bvh/vr_prediction_models/model(vcgpdm)-dataset(pass-bottle-hold)-mode(ELBO)-parts(1)-dyn(25)-lvm(35)-hold(3)/final-lines.txt","right":"bvh/pass-bottle-hold-training3-lines.txt","att_check":false},"trial_type":"html-keyboard-response","trial_index":170,"time_elapsed":339509,"internal_node_id":"0.0-8.0-3.40","subject":"htk2uz9wdltc1kz","sona":"9160"},{"rt":226,"stimulus":"<p>Bereit?</p>","key_press":32,"trial_type":"html-keyboard-response","trial_index":171,"time_elapsed":339745,"internal_node_id":"0.0-8.0-0.41","subject":"htk2uz9wdltc1kz","sona":"9160"},{"rt":null,"stimulus":"<div style=\"font-size:60px;\">+</div>","key_press":null,"trial_type":"html-keyboard-response","trial_index":172,"time_elapsed":341765,"internal_node_id":"0.0-8.0-1.41","subject":"htk2uz9wdltc1kz","sona":"9160"},{"trial_type":"turing-test","trial_index":173,"time_elapsed":345699,"internal_node_id":"0.0-8.0-2.41","subject":"htk2uz9wdltc1kz","sona":"9160"},{"rt":2679,"stimulus":"<p>Welche Sequenz haben Sie als natürlicher empfunden?</p>","key_press":70,"test_part":"response","test_stimulus":{"position":0,"left":"bvh/return-bottle-hold-training4-lines.txt","right":"bvh/vr_prediction_models/model(vcgpdm)-dataset(return-bottle-hold)-mode(ELBO)-parts(3)-dyn(20)-lvm(15)-hold(4)/final-lines.txt","att_check":false},"trial_type":"html-keyboard-response","trial_index":174,"time_elapsed":348398,"internal_node_id":"0.0-8.0-3.41","subject":"htk2uz9wdltc1kz","sona":"9160"},{"rt":178,"stimulus":"<p>Bereit?</p>","key_press":32,"trial_type":"html-keyboard-response","trial_index":175,"time_elapsed":348586,"internal_node_id":"0.0-8.0-0.42","subject":"htk2uz9wdltc1kz","sona":"9160"},{"rt":null,"stimulus":"<div style=\"font-size:60px;\">+</div>","key_press":null,"trial_type":"html-keyboard-response","trial_index":176,"time_elapsed":350609,"internal_node_id":"0.0-8.0-1.42","subject":"htk2uz9wdltc1kz","sona":"9160"},{"trial_type":"turing-test","trial_index":177,"time_elapsed":354127,"internal_node_id":"0.0-8.0-2.42","subject":"htk2uz9wdltc1kz","sona":"9160"},{"rt":295,"stimulus":"<p>Welche Sequenz haben Sie als natürlicher empfunden?</p>","key_press":70,"test_part":"response","test_stimulus":{"position":1,"left":"bvh/vr_prediction_models/model(vcgpdm)-dataset(pass-bottle-hold)-mode(ELBO)-parts(1)-dyn(30)-lvm(35)-hold(1)/final-lines.txt","right":"bvh/pass-bottle-hold-training1-lines.txt","att_check":false},"trial_type":"html-keyboard-response","trial_index":178,"time_elapsed":354426,"internal_node_id":"0.0-8.0-3.42","subject":"htk2uz9wdltc1kz","sona":"9160"},{"rt":140,"stimulus":"<p>Bereit?</p>","key_press":32,"trial_type":"html-keyboard-response","trial_index":179,"time_elapsed":354572,"internal_node_id":"0.0-8.0-0.43","subject":"htk2uz9wdltc1kz","sona":"9160"},{"rt":null,"stimulus":"<div style=\"font-size:60px;\">+</div>","key_press":null,"trial_type":"html-keyboard-response","trial_index":180,"time_elapsed":356587,"internal_node_id":"0.0-8.0-1.43","subject":"htk2uz9wdltc1kz","sona":"9160"},{"trial_type":"turing-test","trial_index":181,"time_elapsed":362466,"internal_node_id":"0.0-8.0-2.43","subject":"htk2uz9wdltc1kz","sona":"9160"},{"rt":339,"stimulus":"<p>Welche Sequenz haben Sie als natürlicher empfunden?</p>","key_press":74,"test_part":"response","test_stimulus":{"position":1,"left":"bvh/vr_prediction_models/model(vcgpdm)-dataset(return-bottle)-mode(ELBO)-parts(3)-dyn(25)-lvm(15)-hold(3)/final-lines.txt","right":"bvh/return-bottle-training3-lines.txt","att_check":false},"trial_type":"html-keyboard-response","trial_index":182,"time_elapsed":362810,"internal_node_id":"0.0-8.0-3.43","subject":"htk2uz9wdltc1kz","sona":"9160"},{"rt":205,"stimulus":"<p>Bereit?</p>","key_press":32,"trial_type":"html-keyboard-response","trial_index":183,"time_elapsed":363018,"internal_node_id":"0.0-8.0-0.44","subject":"htk2uz9wdltc1kz","sona":"9160"},{"rt":null,"stimulus":"<div style=\"font-size:60px;\">+</div>","key_press":null,"trial_type":"html-keyboard-response","trial_index":184,"time_elapsed":365047,"internal_node_id":"0.0-8.0-1.44","subject":"htk2uz9wdltc1kz","sona":"9160"},{"trial_type":"turing-test","trial_index":185,"time_elapsed":368412,"internal_node_id":"0.0-8.0-2.44","subject":"htk2uz9wdltc1kz","sona":"9160"},{"rt":295,"stimulus":"<p>Welche Sequenz haben Sie als natürlicher empfunden?</p>","key_press":74,"test_part":"response","test_stimulus":{"position":0,"left":"bvh/pass-bottle-hold-training2-lines.txt","right":"bvh/vr_prediction_models/model(dmp)-dataset(pass-bottle-hold)-npsi(30)-hold(2)/final-lines.txt","att_check":false},"trial_type":"html-keyboard-response","trial_index":186,"time_elapsed":368710,"internal_node_id":"0.0-8.0-3.44","subject":"htk2uz9wdltc1kz","sona":"9160"},{"rt":976,"stimulus":"<p>Bereit?</p>","key_press":32,"trial_type":"html-keyboard-response","trial_index":187,"time_elapsed":369691,"internal_node_id":"0.0-8.0-0.45","subject":"htk2uz9wdltc1kz","sona":"9160"},{"rt":null,"stimulus":"<div style=\"font-size:60px;\">+</div>","key_press":null,"trial_type":"html-keyboard-response","trial_index":188,"time_elapsed":371734,"internal_node_id":"0.0-8.0-1.45","subject":"htk2uz9wdltc1kz","sona":"9160"},{"trial_type":"turing-test","trial_index":189,"time_elapsed":375310,"internal_node_id":"0.0-8.0-2.45","subject":"htk2uz9wdltc1kz","sona":"9160"},{"rt":273,"stimulus":"<p>Welche Sequenz haben Sie als natürlicher empfunden?</p>","key_press":70,"test_part":"response","test_stimulus":{"position":0,"left":"bvh/pass-bottle-hold-training1-lines.txt","right":"bvh/vr_prediction_models/model(vcgpdm)-dataset(pass-bottle-hold)-mode(ELBO)-parts(1)-dyn(25)-lvm(35)-hold(1)/final-lines.txt","att_check":false},"trial_type":"html-keyboard-response","trial_index":190,"time_elapsed":375593,"internal_node_id":"0.0-8.0-3.45","subject":"htk2uz9wdltc1kz","sona":"9160"},{"rt":204,"stimulus":"<p>Bereit?</p>","key_press":32,"trial_type":"html-keyboard-response","trial_index":191,"time_elapsed":375805,"internal_node_id":"0.0-8.0-0.46","subject":"htk2uz9wdltc1kz","sona":"9160"},{"rt":null,"stimulus":"<div style=\"font-size:60px;\">+</div>","key_press":null,"trial_type":"html-keyboard-response","trial_index":192,"time_elapsed":377840,"internal_node_id":"0.0-8.0-1.46","subject":"htk2uz9wdltc1kz","sona":"9160"},{"trial_type":"turing-test","trial_index":193,"time_elapsed":381242,"internal_node_id":"0.0-8.0-2.46","subject":"htk2uz9wdltc1kz","sona":"9160"},{"rt":401,"stimulus":"<p>Welche Sequenz haben Sie als natürlicher empfunden?</p>","key_press":70,"test_part":"response","test_stimulus":{"position":0,"left":"bvh/pass-bottle-hold-training0-lines.txt","right":"bvh/vr_prediction_models/model(dmp)-dataset(pass-bottle-hold)-npsi(90)-hold(0)/final-lines.txt","att_check":false},"trial_type":"html-keyboard-response","trial_index":194,"time_elapsed":381651,"internal_node_id":"0.0-8.0-3.46","subject":"htk2uz9wdltc1kz","sona":"9160"},{"rt":157,"stimulus":"<p>Bereit?</p>","key_press":32,"trial_type":"html-keyboard-response","trial_index":195,"time_elapsed":381818,"internal_node_id":"0.0-8.0-0.47","subject":"htk2uz9wdltc1kz","sona":"9160"},{"rt":null,"stimulus":"<div style=\"font-size:60px;\">+</div>","key_press":null,"trial_type":"html-keyboard-response","trial_index":196,"time_elapsed":383827,"internal_node_id":"0.0-8.0-1.47","subject":"htk2uz9wdltc1kz","sona":"9160"},{"trial_type":"turing-test","trial_index":197,"time_elapsed":387341,"internal_node_id":"0.0-8.0-2.47","subject":"htk2uz9wdltc1kz","sona":"9160"},{"rt":347,"stimulus":"<p>Welche Sequenz haben Sie als natürlicher empfunden?</p>","key_press":74,"test_part":"response","test_stimulus":{"position":1,"left":"bvh/vr_prediction_models/model(dmp)-dataset(return-bottle-hold)-npsi(100)-hold(1)/final-lines.txt","right":"bvh/return-bottle-hold-training1-lines.txt","att_check":false},"trial_type":"html-keyboard-response","trial_index":198,"time_elapsed":387697,"internal_node_id":"0.0-8.0-3.47","subject":"htk2uz9wdltc1kz","sona":"9160"},{"rt":648,"stimulus":"<p>Bereit?</p>","key_press":32,"trial_type":"html-keyboard-response","trial_index":199,"time_elapsed":388356,"internal_node_id":"0.0-8.0-0.48","subject":"htk2uz9wdltc1kz","sona":"9160"},{"rt":null,"stimulus":"<div style=\"font-size:60px;\">+</div>","key_press":null,"trial_type":"html-keyboard-response","trial_index":200,"time_elapsed":390382,"internal_node_id":"0.0-8.0-1.48","subject":"htk2uz9wdltc1kz","sona":"9160"},{"trial_type":"turing-test","trial_index":201,"time_elapsed":395671,"internal_node_id":"0.0-8.0-2.48","subject":"htk2uz9wdltc1kz","sona":"9160"},{"rt":426,"stimulus":"<p>Welche Sequenz haben Sie als natürlicher empfunden?</p>","key_press":70,"test_part":"response","test_stimulus":{"position":0,"left":"bvh/return-bottle-hold-training0-lines.txt","right":"bvh/vr_prediction_models/model(vcgpdm)-dataset(return-bottle-hold)-mode(ELBO)-parts(3)-dyn(10)-lvm(10)-hold(0)/final-lines.txt","att_check":false},"trial_type":"html-keyboard-response","trial_index":202,"time_elapsed":396106,"internal_node_id":"0.0-8.0-3.48","subject":"htk2uz9wdltc1kz","sona":"9160"},{"rt":227,"stimulus":"<p>Bereit?</p>","key_press":32,"trial_type":"html-keyboard-response","trial_index":203,"time_elapsed":396342,"internal_node_id":"0.0-8.0-0.49","subject":"htk2uz9wdltc1kz","sona":"9160"},{"rt":null,"stimulus":"<div style=\"font-size:60px;\">+</div>","key_press":null,"trial_type":"html-keyboard-response","trial_index":204,"time_elapsed":398371,"internal_node_id":"0.0-8.0-1.49","subject":"htk2uz9wdltc1kz","sona":"9160"},{"trial_type":"turing-test","trial_index":205,"time_elapsed":405350,"internal_node_id":"0.0-8.0-2.49","subject":"htk2uz9wdltc1kz","sona":"9160"},{"rt":682,"stimulus":"<p>Welche Sequenz haben Sie als natürlicher empfunden?</p>","key_press":74,"test_part":"response","test_stimulus":{"position":1,"left":"bvh/vr_prediction_models/model(tmp)-dataset(pass-bottle)-numprim(10)-hold(0)/final-lines.txt","right":"bvh/pass-bottle-training0-lines.txt","att_check":false},"trial_type":"html-keyboard-response","trial_index":206,"time_elapsed":406045,"internal_node_id":"0.0-8.0-3.49","subject":"htk2uz9wdltc1kz","sona":"9160"},{"rt":149,"stimulus":"<p>Bereit?</p>","key_press":32,"trial_type":"html-keyboard-response","trial_index":207,"time_elapsed":406203,"internal_node_id":"0.0-8.0-0.50","subject":"htk2uz9wdltc1kz","sona":"9160"},{"rt":null,"stimulus":"<div style=\"font-size:60px;\">+</div>","key_press":null,"trial_type":"html-keyboard-response","trial_index":208,"time_elapsed":408241,"internal_node_id":"0.0-8.0-1.50","subject":"htk2uz9wdltc1kz","sona":"9160"},{"trial_type":"turing-test","trial_index":209,"time_elapsed":412036,"internal_node_id":"0.0-8.0-2.50","subject":"htk2uz9wdltc1kz","sona":"9160"},{"rt":317,"stimulus":"<p>Welche Sequenz haben Sie als natürlicher empfunden?</p>","key_press":70,"test_part":"response","test_stimulus":{"position":0,"left":"bvh/return-bottle-hold-training4-lines.txt","right":"bvh/vr_prediction_models/model(dmp)-dataset(return-bottle-hold)-npsi(50)-hold(4)/final-lines.txt","att_check":true},"trial_type":"html-keyboard-response","trial_index":210,"time_elapsed":412361,"internal_node_id":"0.0-8.0-3.50","subject":"htk2uz9wdltc1kz","sona":"9160"},{"rt":257,"stimulus":"<p>Bereit?</p>","key_press":32,"trial_type":"html-keyboard-response","trial_index":211,"time_elapsed":412628,"internal_node_id":"0.0-8.0-0.51","subject":"htk2uz9wdltc1kz","sona":"9160"},{"rt":null,"stimulus":"<div style=\"font-size:60px;\">+</div>","key_press":null,"trial_type":"html-keyboard-response","trial_index":212,"time_elapsed":414656,"internal_node_id":"0.0-8.0-1.51","subject":"htk2uz9wdltc1kz","sona":"9160"},{"trial_type":"turing-test","trial_index":213,"time_elapsed":418275,"internal_node_id":"0.0-8.0-2.51","subject":"htk2uz9wdltc1kz","sona":"9160"},{"rt":311,"stimulus":"<p>Welche Sequenz haben Sie als natürlicher empfunden?</p>","key_press":70,"test_part":"response","test_stimulus":{"position":1,"left":"bvh/vr_prediction_models/model(vcgpdm)-dataset(return-bottle-hold)-mode(ELBO)-parts(3)-dyn(20)-lvm(15)-hold(1)/final-lines.txt","right":"bvh/return-bottle-hold-training1-lines.txt","att_check":false},"trial_type":"html-keyboard-response","trial_index":214,"time_elapsed":418594,"internal_node_id":"0.0-8.0-3.51","subject":"htk2uz9wdltc1kz","sona":"9160"},{"rt":180,"stimulus":"<p>Bereit?</p>","key_press":32,"trial_type":"html-keyboard-response","trial_index":215,"time_elapsed":418784,"internal_node_id":"0.0-8.0-0.52","subject":"htk2uz9wdltc1kz","sona":"9160"},{"rt":null,"stimulus":"<div style=\"font-size:60px;\">+</div>","key_press":null,"trial_type":"html-keyboard-response","trial_index":216,"time_elapsed":420810,"internal_node_id":"0.0-8.0-1.52","subject":"htk2uz9wdltc1kz","sona":"9160"},{"trial_type":"turing-test","trial_index":217,"time_elapsed":427326,"internal_node_id":"0.0-8.0-2.52","subject":"htk2uz9wdltc1kz","sona":"9160"},{"rt":238,"stimulus":"<p>Welche Sequenz haben Sie als natürlicher empfunden?</p>","key_press":70,"test_part":"response","test_stimulus":{"position":0,"left":"bvh/pass-bottle-training2-lines.txt","right":"bvh/vr_prediction_models/model(vcgpdm)-dataset(pass-bottle)-mode(ELBO)-parts(3)-dyn(10)-lvm(10)-hold(2)/final-lines.txt","att_check":false},"trial_type":"html-keyboard-response","trial_index":218,"time_elapsed":427573,"internal_node_id":"0.0-8.0-3.52","subject":"htk2uz9wdltc1kz","sona":"9160"},{"rt":144,"stimulus":"<p>Bereit?</p>","key_press":32,"trial_type":"html-keyboard-response","trial_index":219,"time_elapsed":427728,"internal_node_id":"0.0-8.0-0.53","subject":"htk2uz9wdltc1kz","sona":"9160"},{"rt":null,"stimulus":"<div style=\"font-size:60px;\">+</div>","key_press":null,"trial_type":"html-keyboard-response","trial_index":220,"time_elapsed":429766,"internal_node_id":"0.0-8.0-1.53","subject":"htk2uz9wdltc1kz","sona":"9160"},{"trial_type":"turing-test","trial_index":221,"time_elapsed":433251,"internal_node_id":"0.0-8.0-2.53","subject":"htk2uz9wdltc1kz","sona":"9160"},{"rt":1202,"stimulus":"<p>Welche Sequenz haben Sie als natürlicher empfunden?</p>","key_press":74,"test_part":"response","test_stimulus":{"position":1,"left":"bvh/vr_prediction_models/model(vcgpdm)-dataset(return-bottle-hold)-mode(ELBO)-parts(3)-dyn(15)-lvm(30)-hold(1)/final-lines.txt","right":"bvh/return-bottle-hold-training1-lines.txt","att_check":false},"trial_type":"html-keyboard-response","trial_index":222,"time_elapsed":434465,"internal_node_id":"0.0-8.0-3.53","subject":"htk2uz9wdltc1kz","sona":"9160"},{"rt":167,"stimulus":"<p>Bereit?</p>","key_press":32,"trial_type":"html-keyboard-response","trial_index":223,"time_elapsed":434643,"internal_node_id":"0.0-8.0-0.54","subject":"htk2uz9wdltc1kz","sona":"9160"},{"rt":null,"stimulus":"<div style=\"font-size:60px;\">+</div>","key_press":null,"trial_type":"html-keyboard-response","trial_index":224,"time_elapsed":436661,"internal_node_id":"0.0-8.0-1.54","subject":"htk2uz9wdltc1kz","sona":"9160"},{"trial_type":"turing-test","trial_index":225,"time_elapsed":440101,"internal_node_id":"0.0-8.0-2.54","subject":"htk2uz9wdltc1kz","sona":"9160"},{"rt":266,"stimulus":"<p>Welche Sequenz haben Sie als natürlicher empfunden?</p>","key_press":70,"test_part":"response","test_stimulus":{"position":1,"left":"bvh/vr_prediction_models/model(vcgpdm)-dataset(return-bottle-hold)-mode(MAP)-parts(3)-hold(1)/final-lines.txt","right":"bvh/return-bottle-hold-training1-lines.txt","att_check":false},"trial_type":"html-keyboard-response","trial_index":226,"time_elapsed":440378,"internal_node_id":"0.0-8.0-3.54","subject":"htk2uz9wdltc1kz","sona":"9160"},{"rt":92,"stimulus":"<p>Bereit?</p>","key_press":32,"trial_type":"html-keyboard-response","trial_index":227,"time_elapsed":440477,"internal_node_id":"0.0-8.0-0.55","subject":"htk2uz9wdltc1kz","sona":"9160"},{"rt":null,"stimulus":"<div style=\"font-size:60px;\">+</div>","key_press":null,"trial_type":"html-keyboard-response","trial_index":228,"time_elapsed":442514,"internal_node_id":"0.0-8.0-1.55","subject":"htk2uz9wdltc1kz","sona":"9160"},{"trial_type":"turing-test","trial_index":229,"time_elapsed":446029,"internal_node_id":"0.0-8.0-2.55","subject":"htk2uz9wdltc1kz","sona":"9160"},{"rt":438,"stimulus":"<p>Welche Sequenz haben Sie als natürlicher empfunden?</p>","key_press":70,"test_part":"response","test_stimulus":{"position":1,"left":"bvh/vr_prediction_models/model(vcgpdm)-dataset(pass-bottle-hold)-mode(ELBO)-parts(3)-dyn(15)-lvm(30)-hold(2)/final-lines.txt","right":"bvh/pass-bottle-hold-training2-lines.txt","att_check":false},"trial_type":"html-keyboard-response","trial_index":230,"time_elapsed":446474,"internal_node_id":"0.0-8.0-3.55","subject":"htk2uz9wdltc1kz","sona":"9160"},{"rt":191,"stimulus":"<p>Bereit?</p>","key_press":32,"trial_type":"html-keyboard-response","trial_index":231,"time_elapsed":446675,"internal_node_id":"0.0-8.0-0.56","subject":"htk2uz9wdltc1kz","sona":"9160"},{"rt":null,"stimulus":"<div style=\"font-size:60px;\">+</div>","key_press":null,"trial_type":"html-keyboard-response","trial_index":232,"time_elapsed":448709,"internal_node_id":"0.0-8.0-1.56","subject":"htk2uz9wdltc1kz","sona":"9160"},{"trial_type":"turing-test","trial_index":233,"time_elapsed":452417,"internal_node_id":"0.0-8.0-2.56","subject":"htk2uz9wdltc1kz","sona":"9160"},{"rt":261,"stimulus":"<p>Welche Sequenz haben Sie als natürlicher empfunden?</p>","key_press":74,"test_part":"response","test_stimulus":{"position":1,"left":"bvh/vr_prediction_models/model(dmp)-dataset(return-bottle-hold)-npsi(40)-hold(4)/final-lines.txt","right":"bvh/return-bottle-hold-training4-lines.txt","att_check":true},"trial_type":"html-keyboard-response","trial_index":234,"time_elapsed":452687,"internal_node_id":"0.0-8.0-3.56","subject":"htk2uz9wdltc1kz","sona":"9160"},{"rt":157,"stimulus":"<p>Bereit?</p>","key_press":32,"trial_type":"html-keyboard-response","trial_index":235,"time_elapsed":452853,"internal_node_id":"0.0-8.0-0.57","subject":"htk2uz9wdltc1kz","sona":"9160"},{"rt":null,"stimulus":"<div style=\"font-size:60px;\">+</div>","key_press":null,"trial_type":"html-keyboard-response","trial_index":236,"time_elapsed":454881,"internal_node_id":"0.0-8.0-1.57","subject":"htk2uz9wdltc1kz","sona":"9160"},{"trial_type":"turing-test","trial_index":237,"time_elapsed":461673,"internal_node_id":"0.0-8.0-2.57","subject":"htk2uz9wdltc1kz","sona":"9160"},{"rt":313,"stimulus":"<p>Welche Sequenz haben Sie als natürlicher empfunden?</p>","key_press":70,"test_part":"response","test_stimulus":{"position":0,"left":"bvh/return-bottle-training2-lines.txt","right":"bvh/vr_prediction_models/model(dmp)-dataset(return-bottle)-npsi(60)-hold(2)/final-lines.txt","att_check":false},"trial_type":"html-keyboard-response","trial_index":238,"time_elapsed":461997,"internal_node_id":"0.0-8.0-3.57","subject":"htk2uz9wdltc1kz","sona":"9160"},{"rt":278,"stimulus":"<p>Bereit?</p>","key_press":32,"trial_type":"html-keyboard-response","trial_index":239,"time_elapsed":462283,"internal_node_id":"0.0-8.0-0.58","subject":"htk2uz9wdltc1kz","sona":"9160"},{"rt":null,"stimulus":"<div style=\"font-size:60px;\">+</div>","key_press":null,"trial_type":"html-keyboard-response","trial_index":240,"time_elapsed":464320,"internal_node_id":"0.0-8.0-1.58","subject":"htk2uz9wdltc1kz","sona":"9160"},{"trial_type":"turing-test","trial_index":241,"time_elapsed":470545,"internal_node_id":"0.0-8.0-2.58","subject":"htk2uz9wdltc1kz","sona":"9160"},{"rt":144,"stimulus":"<p>Welche Sequenz haben Sie als natürlicher empfunden?</p>","key_press":74,"test_part":"response","test_stimulus":{"position":1,"left":"bvh/vr_prediction_models/model(vcgpdm)-dataset(return-bottle)-mode(ELBO)-parts(3)-dyn(10)-lvm(10)-hold(1)/final-lines.txt","right":"bvh/return-bottle-training1-lines.txt","att_check":false},"trial_type":"html-keyboard-response","trial_index":242,"time_elapsed":470698,"internal_node_id":"0.0-8.0-3.58","subject":"htk2uz9wdltc1kz","sona":"9160"},{"rt":635,"stimulus":"<p>Bereit?</p>","key_press":32,"trial_type":"html-keyboard-response","trial_index":243,"time_elapsed":471345,"internal_node_id":"0.0-8.0-0.59","subject":"htk2uz9wdltc1kz","sona":"9160"},{"rt":null,"stimulus":"<div style=\"font-size:60px;\">+</div>","key_press":null,"trial_type":"html-keyboard-response","trial_index":244,"time_elapsed":473365,"internal_node_id":"0.0-8.0-1.59","subject":"htk2uz9wdltc1kz","sona":"9160"},{"trial_type":"turing-test","trial_index":245,"time_elapsed":479286,"internal_node_id":"0.0-8.0-2.59","subject":"htk2uz9wdltc1kz","sona":"9160"},{"rt":3143,"stimulus":"<p>Welche Sequenz haben Sie als natürlicher empfunden?</p>","key_press":74,"test_part":"response","test_stimulus":{"position":0,"left":"bvh/return-bottle-training3-lines.txt","right":"bvh/vr_prediction_models/model(vcgpdm)-dataset(return-bottle)-mode(ELBO)-parts(1)-dyn(10)-lvm(25)-hold(3)/final-lines.txt","att_check":false},"trial_type":"html-keyboard-response","trial_index":246,"time_elapsed":482442,"internal_node_id":"0.0-8.0-3.59","subject":"htk2uz9wdltc1kz","sona":"9160"},{"rt":970,"stimulus":"<p>Bereit?</p>","key_press":32,"trial_type":"html-keyboard-response","trial_index":247,"time_elapsed":483421,"internal_node_id":"0.0-8.0-0.60","subject":"htk2uz9wdltc1kz","sona":"9160"},{"rt":null,"stimulus":"<div style=\"font-size:60px;\">+</div>","key_press":null,"trial_type":"html-keyboard-response","trial_index":248,"time_elapsed":485437,"internal_node_id":"0.0-8.0-1.60","subject":"htk2uz9wdltc1kz","sona":"9160"},{"trial_type":"turing-test","trial_index":249,"time_elapsed":488938,"internal_node_id":"0.0-8.0-2.60","subject":"htk2uz9wdltc1kz","sona":"9160"},{"rt":498,"stimulus":"<p>Welche Sequenz haben Sie als natürlicher empfunden?</p>","key_press":70,"test_part":"response","test_stimulus":{"position":0,"left":"bvh/pass-bottle-hold-training3-lines.txt","right":"bvh/vr_prediction_models/model(vcgpdm)-dataset(pass-bottle-hold)-mode(ELBO)-parts(1)-dyn(25)-lvm(35)-hold(3)/final-lines.txt","att_check":false},"trial_type":"html-keyboard-response","trial_index":250,"time_elapsed":489444,"internal_node_id":"0.0-8.0-3.60","subject":"htk2uz9wdltc1kz","sona":"9160"},{"rt":190,"stimulus":"<p>Bereit?</p>","key_press":32,"trial_type":"html-keyboard-response","trial_index":251,"time_elapsed":489645,"internal_node_id":"0.0-8.0-0.61","subject":"htk2uz9wdltc1kz","sona":"9160"},{"rt":null,"stimulus":"<div style=\"font-size:60px;\">+</div>","key_press":null,"trial_type":"html-keyboard-response","trial_index":252,"time_elapsed":491679,"internal_node_id":"0.0-8.0-1.61","subject":"htk2uz9wdltc1kz","sona":"9160"},{"trial_type":"turing-test","trial_index":253,"time_elapsed":497813,"internal_node_id":"0.0-8.0-2.61","subject":"htk2uz9wdltc1kz","sona":"9160"},{"rt":625,"stimulus":"<p>Welche Sequenz haben Sie als natürlicher empfunden?</p>","key_press":74,"test_part":"response","test_stimulus":{"position":1,"left":"bvh/vr_prediction_models/model(tmp)-dataset(return-bottle)-numprim(12)-hold(1)/final-lines.txt","right":"bvh/return-bottle-training1-lines.txt","att_check":false},"trial_type":"html-keyboard-response","trial_index":254,"time_elapsed":498446,"internal_node_id":"0.0-8.0-3.61","subject":"htk2uz9wdltc1kz","sona":"9160"},{"rt":149,"stimulus":"<p>Bereit?</p>","key_press":32,"trial_type":"html-keyboard-response","trial_index":255,"time_elapsed":498606,"internal_node_id":"0.0-8.0-0.62","subject":"htk2uz9wdltc1kz","sona":"9160"},{"rt":null,"stimulus":"<div style=\"font-size:60px;\">+</div>","key_press":null,"trial_type":"html-keyboard-response","trial_index":256,"time_elapsed":500623,"internal_node_id":"0.0-8.0-1.62","subject":"htk2uz9wdltc1kz","sona":"9160"},{"trial_type":"turing-test","trial_index":257,"time_elapsed":507545,"internal_node_id":"0.0-8.0-2.62","subject":"htk2uz9wdltc1kz","sona":"9160"},{"rt":1916,"stimulus":"<p>Welche Sequenz haben Sie als natürlicher empfunden?</p>","key_press":70,"test_part":"response","test_stimulus":{"position":0,"left":"bvh/pass-bottle-training0-lines.txt","right":"bvh/vr_prediction_models/model(tmp)-dataset(pass-bottle)-numprim(12)-hold(0)/final-lines.txt","att_check":false},"trial_type":"html-keyboard-response","trial_index":258,"time_elapsed":509471,"internal_node_id":"0.0-8.0-3.62","subject":"htk2uz9wdltc1kz","sona":"9160"},{"rt":173,"stimulus":"<p>Bereit?</p>","key_press":32,"trial_type":"html-keyboard-response","trial_index":259,"time_elapsed":509654,"internal_node_id":"0.0-8.0-0.63","subject":"htk2uz9wdltc1kz","sona":"9160"},{"rt":null,"stimulus":"<div style=\"font-size:60px;\">+</div>","key_press":null,"trial_type":"html-keyboard-response","trial_index":260,"time_elapsed":511674,"internal_node_id":"0.0-8.0-1.63","subject":"htk2uz9wdltc1kz","sona":"9160"},{"trial_type":"turing-test","trial_index":261,"time_elapsed":515128,"internal_node_id":"0.0-8.0-2.63","subject":"htk2uz9wdltc1kz","sona":"9160"},{"rt":311,"stimulus":"<p>Welche Sequenz haben Sie als natürlicher empfunden?</p>","key_press":70,"test_part":"response","test_stimulus":{"position":0,"left":"bvh/return-bottle-hold-training1-lines.txt","right":"bvh/vr_prediction_models/model(dmp)-dataset(return-bottle-hold)-npsi(10)-hold(1)/final-lines.txt","att_check":false},"trial_type":"html-keyboard-response","trial_index":262,"time_elapsed":515455,"internal_node_id":"0.0-8.0-3.63","subject":"htk2uz9wdltc1kz","sona":"9160"},{"rt":158,"stimulus":"<p>Bereit?</p>","key_press":32,"trial_type":"html-keyboard-response","trial_index":263,"time_elapsed":515628,"internal_node_id":"0.0-8.0-0.64","subject":"htk2uz9wdltc1kz","sona":"9160"},{"rt":null,"stimulus":"<div style=\"font-size:60px;\">+</div>","key_press":null,"trial_type":"html-keyboard-response","trial_index":264,"time_elapsed":517662,"internal_node_id":"0.0-8.0-1.64","subject":"htk2uz9wdltc1kz","sona":"9160"},{"trial_type":"turing-test","trial_index":265,"time_elapsed":523894,"internal_node_id":"0.0-8.0-2.64","subject":"htk2uz9wdltc1kz","sona":"9160"},{"rt":245,"stimulus":"<p>Welche Sequenz haben Sie als natürlicher empfunden?</p>","key_press":70,"test_part":"response","test_stimulus":{"position":1,"left":"bvh/vr_prediction_models/model(vcgpdm)-dataset(return-bottle)-mode(ELBO)-parts(1)-dyn(35)-lvm(10)-hold(1)/final-lines.txt","right":"bvh/return-bottle-training1-lines.txt","att_check":false},"trial_type":"html-keyboard-response","trial_index":266,"time_elapsed":524149,"internal_node_id":"0.0-8.0-3.64","subject":"htk2uz9wdltc1kz","sona":"9160"},{"rt":182,"stimulus":"<p>Bereit?</p>","key_press":32,"trial_type":"html-keyboard-response","trial_index":267,"time_elapsed":524343,"internal_node_id":"0.0-8.0-0.65","subject":"htk2uz9wdltc1kz","sona":"9160"},{"rt":null,"stimulus":"<div style=\"font-size:60px;\">+</div>","key_press":null,"trial_type":"html-keyboard-response","trial_index":268,"time_elapsed":526364,"internal_node_id":"0.0-8.0-1.65","subject":"htk2uz9wdltc1kz","sona":"9160"},{"trial_type":"turing-test","trial_index":269,"time_elapsed":532297,"internal_node_id":"0.0-8.0-2.65","subject":"htk2uz9wdltc1kz","sona":"9160"},{"rt":260,"stimulus":"<p>Welche Sequenz haben Sie als natürlicher empfunden?</p>","key_press":70,"test_part":"response","test_stimulus":{"position":0,"left":"bvh/pass-bottle-training4-lines.txt","right":"bvh/vr_prediction_models/model(vcgpdm)-dataset(pass-bottle)-mode(MAP)-parts(1)-hold(4)/final-lines.txt","att_check":false},"trial_type":"html-keyboard-response","trial_index":270,"time_elapsed":532571,"internal_node_id":"0.0-8.0-3.65","subject":"htk2uz9wdltc1kz","sona":"9160"},{"rt":233,"stimulus":"<p>Bereit?</p>","key_press":32,"trial_type":"html-keyboard-response","trial_index":271,"time_elapsed":532815,"internal_node_id":"0.0-8.0-0.66","subject":"htk2uz9wdltc1kz","sona":"9160"},{"rt":null,"stimulus":"<div style=\"font-size:60px;\">+</div>","key_press":null,"trial_type":"html-keyboard-response","trial_index":272,"time_elapsed":534836,"internal_node_id":"0.0-8.0-1.66","subject":"htk2uz9wdltc1kz","sona":"9160"},{"trial_type":"turing-test","trial_index":273,"time_elapsed":538446,"internal_node_id":"0.0-8.0-2.66","subject":"htk2uz9wdltc1kz","sona":"9160"},{"rt":387,"stimulus":"<p>Welche Sequenz haben Sie als natürlicher empfunden?</p>","key_press":70,"test_part":"response","test_stimulus":{"position":0,"left":"bvh/pass-bottle-hold-training2-lines.txt","right":"bvh/vr_prediction_models/model(vcgpdm)-dataset(pass-bottle-hold)-mode(ELBO)-parts(3)-dyn(10)-lvm(25)-hold(2)/final-lines.txt","att_check":false},"trial_type":"html-keyboard-response","trial_index":274,"time_elapsed":538844,"internal_node_id":"0.0-8.0-3.66","subject":"htk2uz9wdltc1kz","sona":"9160"},{"rt":188,"stimulus":"<p>Bereit?</p>","key_press":32,"trial_type":"html-keyboard-response","trial_index":275,"time_elapsed":539041,"internal_node_id":"0.0-8.0-0.67","subject":"htk2uz9wdltc1kz","sona":"9160"},{"rt":null,"stimulus":"<div style=\"font-size:60px;\">+</div>","key_press":null,"trial_type":"html-keyboard-response","trial_index":276,"time_elapsed":541055,"internal_node_id":"0.0-8.0-1.67","subject":"htk2uz9wdltc1kz","sona":"9160"},{"trial_type":"turing-test","trial_index":277,"time_elapsed":544386,"internal_node_id":"0.0-8.0-2.67","subject":"htk2uz9wdltc1kz","sona":"9160"},{"rt":304,"stimulus":"<p>Welche Sequenz haben Sie als natürlicher empfunden?</p>","key_press":70,"test_part":"response","test_stimulus":{"position":0,"left":"bvh/pass-bottle-hold-training1-lines.txt","right":"bvh/vr_prediction_models/model(dmp)-dataset(pass-bottle-hold)-npsi(20)-hold(1)/final-lines.txt","att_check":false},"trial_type":"html-keyboard-response","trial_index":278,"time_elapsed":544700,"internal_node_id":"0.0-8.0-3.67","subject":"htk2uz9wdltc1kz","sona":"9160"},{"rt":146,"stimulus":"<p>Bereit?</p>","key_press":32,"trial_type":"html-keyboard-response","trial_index":279,"time_elapsed":544855,"internal_node_id":"0.0-8.0-0.68","subject":"htk2uz9wdltc1kz","sona":"9160"},{"rt":null,"stimulus":"<div style=\"font-size:60px;\">+</div>","key_press":null,"trial_type":"html-keyboard-response","trial_index":280,"time_elapsed":546897,"internal_node_id":"0.0-8.0-1.68","subject":"htk2uz9wdltc1kz","sona":"9160"},{"trial_type":"turing-test","trial_index":281,"time_elapsed":553135,"internal_node_id":"0.0-8.0-2.68","subject":"htk2uz9wdltc1kz","sona":"9160"},{"rt":235,"stimulus":"<p>Welche Sequenz haben Sie als natürlicher empfunden?</p>","key_press":74,"test_part":"response","test_stimulus":{"position":1,"left":"bvh/vr_prediction_models/model(dmp)-dataset(return-bottle)-npsi(50)-hold(1)/final-lines.txt","right":"bvh/return-bottle-training1-lines.txt","att_check":false},"trial_type":"html-keyboard-response","trial_index":282,"time_elapsed":553381,"internal_node_id":"0.0-8.0-3.68","subject":"htk2uz9wdltc1kz","sona":"9160"},{"rt":144,"stimulus":"<p>Bereit?</p>","key_press":32,"trial_type":"html-keyboard-response","trial_index":283,"time_elapsed":553535,"internal_node_id":"0.0-8.0-0.69","subject":"htk2uz9wdltc1kz","sona":"9160"},{"rt":null,"stimulus":"<div style=\"font-size:60px;\">+</div>","key_press":null,"trial_type":"html-keyboard-response","trial_index":284,"time_elapsed":555555,"internal_node_id":"0.0-8.0-1.69","subject":"htk2uz9wdltc1kz","sona":"9160"},{"trial_type":"turing-test","trial_index":285,"time_elapsed":559167,"internal_node_id":"0.0-8.0-2.69","subject":"htk2uz9wdltc1kz","sona":"9160"},{"rt":245,"stimulus":"<p>Welche Sequenz haben Sie als natürlicher empfunden?</p>","key_press":74,"test_part":"response","test_stimulus":{"position":1,"left":"bvh/vr_prediction_models/model(vcgpdm)-dataset(return-bottle-hold)-mode(ELBO)-parts(3)-dyn(10)-lvm(25)-hold(2)/final-lines.txt","right":"bvh/return-bottle-hold-training2-lines.txt","att_check":false},"trial_type":"html-keyboard-response","trial_index":286,"time_elapsed":559421,"internal_node_id":"0.0-8.0-3.69","subject":"htk2uz9wdltc1kz","sona":"9160"},{"rt":173,"stimulus":"<p>Bereit?</p>","key_press":32,"trial_type":"html-keyboard-response","trial_index":287,"time_elapsed":559605,"internal_node_id":"0.0-8.0-0.70","subject":"htk2uz9wdltc1kz","sona":"9160"},{"rt":null,"stimulus":"<div style=\"font-size:60px;\">+</div>","key_press":null,"trial_type":"html-keyboard-response","trial_index":288,"time_elapsed":561627,"internal_node_id":"0.0-8.0-1.70","subject":"htk2uz9wdltc1kz","sona":"9160"},{"trial_type":"turing-test","trial_index":289,"time_elapsed":565252,"internal_node_id":"0.0-8.0-2.70","subject":"htk2uz9wdltc1kz","sona":"9160"},{"rt":230,"stimulus":"<p>Welche Sequenz haben Sie als natürlicher empfunden?</p>","key_press":74,"test_part":"response","test_stimulus":{"position":1,"left":"bvh/vr_prediction_models/model(tmp)-dataset(pass-bottle-hold)-numprim(4)-hold(3)/final-lines.txt","right":"bvh/pass-bottle-hold-training3-lines.txt","att_check":false},"trial_type":"html-keyboard-response","trial_index":290,"time_elapsed":565491,"internal_node_id":"0.0-8.0-3.70","subject":"htk2uz9wdltc1kz","sona":"9160"},{"rt":76,"stimulus":"<p>Bereit?</p>","key_press":32,"trial_type":"html-keyboard-response","trial_index":291,"time_elapsed":565579,"internal_node_id":"0.0-8.0-0.71","subject":"htk2uz9wdltc1kz","sona":"9160"},{"rt":null,"stimulus":"<div style=\"font-size:60px;\">+</div>","key_press":null,"trial_type":"html-keyboard-response","trial_index":292,"time_elapsed":567613,"internal_node_id":"0.0-8.0-1.71","subject":"htk2uz9wdltc1kz","sona":"9160"},{"trial_type":"turing-test","trial_index":293,"time_elapsed":571356,"internal_node_id":"0.0-8.0-2.71","subject":"htk2uz9wdltc1kz","sona":"9160"},{"rt":236,"stimulus":"<p>Welche Sequenz haben Sie als natürlicher empfunden?</p>","key_press":70,"test_part":"response","test_stimulus":{"position":1,"left":"bvh/vr_prediction_models/model(vcgpdm)-dataset(pass-bottle-hold)-mode(ELBO)-parts(1)-dyn(20)-lvm(20)-hold(4)/final-lines.txt","right":"bvh/pass-bottle-hold-training4-lines.txt","att_check":false},"trial_type":"html-keyboard-response","trial_index":294,"time_elapsed":571609,"internal_node_id":"0.0-8.0-3.71","subject":"htk2uz9wdltc1kz","sona":"9160"},{"rt":180,"stimulus":"<p>Bereit?</p>","key_press":32,"trial_type":"html-keyboard-response","trial_index":295,"time_elapsed":571802,"internal_node_id":"0.0-8.0-0.72","subject":"htk2uz9wdltc1kz","sona":"9160"},{"rt":null,"stimulus":"<div style=\"font-size:60px;\">+</div>","key_press":null,"trial_type":"html-keyboard-response","trial_index":296,"time_elapsed":573809,"internal_node_id":"0.0-8.0-1.72","subject":"htk2uz9wdltc1kz","sona":"9160"},{"trial_type":"turing-test","trial_index":297,"time_elapsed":577408,"internal_node_id":"0.0-8.0-2.72","subject":"htk2uz9wdltc1kz","sona":"9160"},{"rt":367,"stimulus":"<p>Welche Sequenz haben Sie als natürlicher empfunden?</p>","key_press":74,"test_part":"response","test_stimulus":{"position":1,"left":"bvh/vr_prediction_models/model(tmp)-dataset(pass-bottle-hold)-numprim(5)-hold(4)/final-lines.txt","right":"bvh/pass-bottle-hold-training4-lines.txt","att_check":false},"trial_type":"html-keyboard-response","trial_index":298,"time_elapsed":577788,"internal_node_id":"0.0-8.0-3.72","subject":"htk2uz9wdltc1kz","sona":"9160"},{"rt":163,"stimulus":"<p>Bereit?</p>","key_press":32,"trial_type":"html-keyboard-response","trial_index":299,"time_elapsed":577959,"internal_node_id":"0.0-8.0-0.73","subject":"htk2uz9wdltc1kz","sona":"9160"},{"rt":null,"stimulus":"<div style=\"font-size:60px;\">+</div>","key_press":null,"trial_type":"html-keyboard-response","trial_index":300,"time_elapsed":579985,"internal_node_id":"0.0-8.0-1.73","subject":"htk2uz9wdltc1kz","sona":"9160"},{"trial_type":"turing-test","trial_index":301,"time_elapsed":586662,"internal_node_id":"0.0-8.0-2.73","subject":"htk2uz9wdltc1kz","sona":"9160"},{"rt":431,"stimulus":"<p>Welche Sequenz haben Sie als natürlicher empfunden?</p>","key_press":70,"test_part":"response","test_stimulus":{"position":1,"left":"bvh/vr_prediction_models/model(tmp)-dataset(return-bottle)-numprim(11)-hold(2)/final-lines.txt","right":"bvh/return-bottle-training2-lines.txt","att_check":false},"trial_type":"html-keyboard-response","trial_index":302,"time_elapsed":587107,"internal_node_id":"0.0-8.0-3.73","subject":"htk2uz9wdltc1kz","sona":"9160"},{"rt":311,"stimulus":"<p>Bereit?</p>","key_press":32,"trial_type":"html-keyboard-response","trial_index":303,"time_elapsed":587431,"internal_node_id":"0.0-8.0-0.74","subject":"htk2uz9wdltc1kz","sona":"9160"},{"rt":null,"stimulus":"<div style=\"font-size:60px;\">+</div>","key_press":null,"trial_type":"html-keyboard-response","trial_index":304,"time_elapsed":589458,"internal_node_id":"0.0-8.0-1.74","subject":"htk2uz9wdltc1kz","sona":"9160"},{"trial_type":"turing-test","trial_index":305,"time_elapsed":593117,"internal_node_id":"0.0-8.0-2.74","subject":"htk2uz9wdltc1kz","sona":"9160"},{"rt":145,"stimulus":"<p>Welche Sequenz haben Sie als natürlicher empfunden?</p>","key_press":70,"test_part":"response","test_stimulus":{"position":0,"left":"bvh/return-bottle-hold-training2-lines.txt","right":"bvh/vr_prediction_models/model(vcgpdm)-dataset(return-bottle-hold)-mode(ELBO)-parts(1)-dyn(20)-lvm(5)-hold(2)/final-lines.txt","att_check":false},"trial_type":"html-keyboard-response","trial_index":306,"time_elapsed":593274,"internal_node_id":"0.0-8.0-3.74","subject":"htk2uz9wdltc1kz","sona":"9160"},{"rt":231,"stimulus":"<p>Bereit?</p>","key_press":32,"trial_type":"html-keyboard-response","trial_index":307,"time_elapsed":593515,"internal_node_id":"0.0-8.0-0.75","subject":"htk2uz9wdltc1kz","sona":"9160"},{"rt":null,"stimulus":"<div style=\"font-size:60px;\">+</div>","key_press":null,"trial_type":"html-keyboard-response","trial_index":308,"time_elapsed":595550,"internal_node_id":"0.0-8.0-1.75","subject":"htk2uz9wdltc1kz","sona":"9160"},{"trial_type":"turing-test","trial_index":309,"time_elapsed":599089,"internal_node_id":"0.0-8.0-2.75","subject":"htk2uz9wdltc1kz","sona":"9160"},{"rt":286,"stimulus":"<p>Welche Sequenz haben Sie als natürlicher empfunden?</p>","key_press":70,"test_part":"response","test_stimulus":{"position":1,"left":"bvh/vr_prediction_models/model(vcgpdm)-dataset(pass-bottle-hold)-mode(ELBO)-parts(3)-dyn(20)-lvm(20)-hold(0)/final-lines.txt","right":"bvh/pass-bottle-hold-training0-lines.txt","att_check":false},"trial_type":"html-keyboard-response","trial_index":310,"time_elapsed":599387,"internal_node_id":"0.0-8.0-3.75","subject":"htk2uz9wdltc1kz","sona":"9160"},{"rt":188,"stimulus":"<p>Bereit?</p>","key_press":32,"trial_type":"html-keyboard-response","trial_index":311,"time_elapsed":599585,"internal_node_id":"0.0-8.0-0.76","subject":"htk2uz9wdltc1kz","sona":"9160"},{"rt":null,"stimulus":"<div style=\"font-size:60px;\">+</div>","key_press":null,"trial_type":"html-keyboard-response","trial_index":312,"time_elapsed":601619,"internal_node_id":"0.0-8.0-1.76","subject":"htk2uz9wdltc1kz","sona":"9160"},{"trial_type":"turing-test","trial_index":313,"time_elapsed":605212,"internal_node_id":"0.0-8.0-2.76","subject":"htk2uz9wdltc1kz","sona":"9160"},{"rt":365,"stimulus":"<p>Welche Sequenz haben Sie als natürlicher empfunden?</p>","key_press":70,"test_part":"response","test_stimulus":{"position":0,"left":"bvh/return-bottle-hold-training2-lines.txt","right":"bvh/vr_prediction_models/model(dmp)-dataset(return-bottle-hold)-npsi(30)-hold(2)/final-lines.txt","att_check":false},"trial_type":"html-keyboard-response","trial_index":314,"time_elapsed":605589,"internal_node_id":"0.0-8.0-3.76","subject":"htk2uz9wdltc1kz","sona":"9160"},{"rt":456,"stimulus":"<p>Bereit?</p>","key_press":32,"trial_type":"html-keyboard-response","trial_index":315,"time_elapsed":606055,"internal_node_id":"0.0-8.0-0.77","subject":"htk2uz9wdltc1kz","sona":"9160"},{"rt":null,"stimulus":"<div style=\"font-size:60px;\">+</div>","key_press":null,"trial_type":"html-keyboard-response","trial_index":316,"time_elapsed":608073,"internal_node_id":"0.0-8.0-1.77","subject":"htk2uz9wdltc1kz","sona":"9160"},{"trial_type":"turing-test","trial_index":317,"time_elapsed":614319,"internal_node_id":"0.0-8.0-2.77","subject":"htk2uz9wdltc1kz","sona":"9160"},{"rt":318,"stimulus":"<p>Welche Sequenz haben Sie als natürlicher empfunden?</p>","key_press":70,"test_part":"response","test_stimulus":{"position":0,"left":"bvh/return-bottle-training1-lines.txt","right":"bvh/vr_prediction_models/model(tmp)-dataset(return-bottle)-numprim(5)-hold(1)/final-lines.txt","att_check":false},"trial_type":"html-keyboard-response","trial_index":318,"time_elapsed":614648,"internal_node_id":"0.0-8.0-3.77","subject":"htk2uz9wdltc1kz","sona":"9160"},{"rt":175,"stimulus":"<p>Bereit?</p>","key_press":32,"trial_type":"html-keyboard-response","trial_index":319,"time_elapsed":614836,"internal_node_id":"0.0-8.0-0.78","subject":"htk2uz9wdltc1kz","sona":"9160"},{"rt":null,"stimulus":"<div style=\"font-size:60px;\">+</div>","key_press":null,"trial_type":"html-keyboard-response","trial_index":320,"time_elapsed":616858,"internal_node_id":"0.0-8.0-1.78","subject":"htk2uz9wdltc1kz","sona":"9160"},{"trial_type":"turing-test","trial_index":321,"time_elapsed":620649,"internal_node_id":"0.0-8.0-2.78","subject":"htk2uz9wdltc1kz","sona":"9160"},{"rt":3148,"stimulus":"<p>Welche Sequenz haben Sie als natürlicher empfunden?</p>","key_press":74,"test_part":"response","test_stimulus":{"position":1,"left":"bvh/vr_prediction_models/model(vcgpdm)-dataset(pass-bottle-hold)-mode(ELBO)-parts(3)-dyn(10)-lvm(25)-hold(4)/final-lines.txt","right":"bvh/pass-bottle-hold-training4-lines.txt","att_check":false},"trial_type":"html-keyboard-response","trial_index":322,"time_elapsed":623812,"internal_node_id":"0.0-8.0-3.78","subject":"htk2uz9wdltc1kz","sona":"9160"},{"rt":139,"stimulus":"<p>Bereit?</p>","key_press":32,"trial_type":"html-keyboard-response","trial_index":323,"time_elapsed":623962,"internal_node_id":"0.0-8.0-0.79","subject":"htk2uz9wdltc1kz","sona":"9160"},{"rt":null,"stimulus":"<div style=\"font-size:60px;\">+</div>","key_press":null,"trial_type":"html-keyboard-response","trial_index":324,"time_elapsed":625969,"internal_node_id":"0.0-8.0-1.79","subject":"htk2uz9wdltc1kz","sona":"9160"},{"trial_type":"turing-test","trial_index":325,"time_elapsed":629685,"internal_node_id":"0.0-8.0-2.79","subject":"htk2uz9wdltc1kz","sona":"9160"},{"rt":905,"stimulus":"<p>Welche Sequenz haben Sie als natürlicher empfunden?</p>","key_press":70,"test_part":"response","test_stimulus":{"position":0,"left":"bvh/pass-bottle-hold-training4-lines.txt","right":"bvh/vr_prediction_models/model(dmp)-dataset(pass-bottle-hold)-npsi(10)-hold(4)/final-lines.txt","att_check":false},"trial_type":"html-keyboard-response","trial_index":326,"time_elapsed":630602,"internal_node_id":"0.0-8.0-3.79","subject":"htk2uz9wdltc1kz","sona":"9160"},{"rt":6566,"responses":"{\"age\":\" 21\",\"gender\":\"weiblich\"}","trial_type":"survey-text","trial_index":327,"time_elapsed":637224,"internal_node_id":"0.0-10.0-0.0","subject":"htk2uz9wdltc1kz","sona":"9160"},{"rt":124726,"responses":"{\"area\":\"Zusammenspiel von Wirbelsäule, Armen und Beinen\",\"Q1\":\"wenn das Zusammenspiel von Wirbelsäule, Armen und Beinen unnatürlich aussah\",\"Q2\":\"zu schnelle oder zu langsame Bewegungen; wenn das Strichmänchen gedreht wurde\"}","trial_type":"survey-text","trial_index":328,"time_elapsed":761959,"internal_node_id":"0.0-10.0-1.0","subject":"htk2uz9wdltc1kz","sona":"9160"}]