[{"rt":5274,"stimulus":"<p>Welcome!<br> Please choose your language to start the experiment in the chosen language.</p><p>Willkommen!<br> Bitte wählen Sie eine Sprache, um das Experiment in der ausgewählten Sprache zu starten</p>","button_pressed":"1","trial_type":"html-button-response","trial_index":0,"time_elapsed":5284,"internal_node_id":"0.0-0.0","subject":"f1l42jrotoj6sb5","sona":"9355"},{"view_history":"[{\"page_index\":0,\"viewing_time\":10225},{\"page_index\":1,\"viewing_time\":4432},{\"page_index\":2,\"viewing_time\":22691},{\"page_index\":3,\"viewing_time\":11047},{\"page_index\":4,\"viewing_time\":3983}]","rt":52379.00000000001,"trial_type":"instructions","trial_index":1,"time_elapsed":57666,"internal_node_id":"0.0-1.0-0.0","subject":"f1l42jrotoj6sb5","sona":"9355"},{"rt":1978.9999999999927,"stimulus":"<p>Bereit?</p>","key_press":32,"trial_type":"html-keyboard-response","trial_index":2,"time_elapsed":59646,"internal_node_id":"0.0-3.0","subject":"f1l42jrotoj6sb5","sona":"9355"},{"rt":null,"stimulus":"<div style=\"font-size:60px;\">+</div>","key_press":null,"trial_type":"html-keyboard-response","trial_index":3,"time_elapsed":61648,"internal_node_id":"0.0-4.0","subject":"f1l42jrotoj6sb5","sona":"9355"},{"trial_type":"training","trial_index":4,"time_elapsed":64963,"internal_node_id":"0.0-5.0","subject":"f1l42jrotoj6sb5","sona":"9355"},{"rt":4852,"stimulus":"<p>Welche Sequenz haben Sie als natürlicher empfunden?</p>","key_press":70,"trial_type":"html-keyboard-response","trial_index":5,"time_elapsed":69816,"internal_node_id":"0.0-6.0","subject":"f1l42jrotoj6sb5","sona":"9355"},{"rt":3600,"stimulus":"<p>Das Experiment startet nun.</p><p><small>Bitte drücken Sie den Knopf, wenn Sie bereit sind.</small></p>","button_pressed":"0","trial_type":"html-button-response","trial_index":6,"time_elapsed":73416,"internal_node_id":"0.0-7.0","subject":"f1l42jrotoj6sb5","sona":"9355"},{"rt":1933,"stimulus":"<p>Bereit?</p>","key_press":32,"trial_type":"html-keyboard-response","trial_index":7,"time_elapsed":75351,"internal_node_id":"0.0-8.0-0.0","subject":"f1l42jrotoj6sb5","sona":"9355"},{"rt":null,"stimulus":"<div style=\"font-size:60px;\">+</div>","key_press":null,"trial_type":"html-keyboard-response","trial_index":8,"time_elapsed":77354,"internal_node_id":"0.0-8.0-1.0","subject":"f1l42jrotoj6sb5","sona":"9355"},{"trial_type":"turing-test","trial_index":9,"time_elapsed":80903,"internal_node_id":"0.0-8.0-2.0","subject":"f1l42jrotoj6sb5","sona":"9355"},{"rt":1264.0000000000146,"stimulus":"<p>Welche Sequenz haben Sie als natürlicher empfunden?</p>","key_press":74,"test_part":"response","test_stimulus":{"position":0,"left":"bvh/pass-bottle-hold-training4-lines.txt","right":"bvh/vr_prediction_models/model(dmp)-dataset(pass-bottle-hold)-npsi(10)-hold(4)/final-lines.txt","att_check":false},"trial_type":"html-keyboard-response","trial_index":10,"time_elapsed":82168,"internal_node_id":"0.0-8.0-3.0","subject":"f1l42jrotoj6sb5","sona":"9355"},{"rt":1112.0000000000146,"stimulus":"<p>Bereit?</p>","key_press":32,"trial_type":"html-keyboard-response","trial_index":11,"time_elapsed":83282,"internal_node_id":"0.0-8.0-0.1","subject":"f1l42jrotoj6sb5","sona":"9355"},{"rt":null,"stimulus":"<div style=\"font-size:60px;\">+</div>","key_press":null,"trial_type":"html-keyboard-response","trial_index":12,"time_elapsed":85284,"internal_node_id":"0.0-8.0-1.1","subject":"f1l42jrotoj6sb5","sona":"9355"},{"trial_type":"turing-test","trial_index":13,"time_elapsed":91015,"internal_node_id":"0.0-8.0-2.1","subject":"f1l42jrotoj6sb5","sona":"9355"},{"rt":759,"stimulus":"<p>Welche Sequenz haben Sie als natürlicher empfunden?</p>","key_press":70,"test_part":"response","test_stimulus":{"position":0,"left":"bvh/pass-bottle-training4-lines.txt","right":"bvh/vr_prediction_models/model(dmp)-dataset(pass-bottle)-npsi(70)-hold(4)/final-lines.txt","att_check":false},"trial_type":"html-keyboard-response","trial_index":14,"time_elapsed":91776,"internal_node_id":"0.0-8.0-3.1","subject":"f1l42jrotoj6sb5","sona":"9355"},{"rt":741,"stimulus":"<p>Bereit?</p>","key_press":32,"trial_type":"html-keyboard-response","trial_index":15,"time_elapsed":92518,"internal_node_id":"0.0-8.0-0.2","subject":"f1l42jrotoj6sb5","sona":"9355"},{"rt":null,"stimulus":"<div style=\"font-size:60px;\">+</div>","key_press":null,"trial_type":"html-keyboard-response","trial_index":16,"time_elapsed":94521,"internal_node_id":"0.0-8.0-1.2","subject":"f1l42jrotoj6sb5","sona":"9355"},{"trial_type":"turing-test","trial_index":17,"time_elapsed":98523,"internal_node_id":"0.0-8.0-2.2","subject":"f1l42jrotoj6sb5","sona":"9355"},{"rt":1363,"stimulus":"<p>Welche Sequenz haben Sie als natürlicher empfunden?</p>","key_press":70,"test_part":"response","test_stimulus":{"position":0,"left":"bvh/return-bottle-hold-training4-lines.txt","right":"bvh/vr_prediction_models/model(vcgpdm)-dataset(return-bottle-hold)-mode(ELBO)-parts(1)-dyn(20)-lvm(5)-hold(4)/final-lines.txt","att_check":false},"trial_type":"html-keyboard-response","trial_index":18,"time_elapsed":99887,"internal_node_id":"0.0-8.0-3.2","subject":"f1l42jrotoj6sb5","sona":"9355"},{"rt":640,"stimulus":"<p>Bereit?</p>","key_press":32,"trial_type":"html-keyboard-response","trial_index":19,"time_elapsed":100528,"internal_node_id":"0.0-8.0-0.3","subject":"f1l42jrotoj6sb5","sona":"9355"},{"rt":null,"stimulus":"<div style=\"font-size:60px;\">+</div>","key_press":null,"trial_type":"html-keyboard-response","trial_index":20,"time_elapsed":102530,"internal_node_id":"0.0-8.0-1.3","subject":"f1l42jrotoj6sb5","sona":"9355"},{"trial_type":"turing-test","trial_index":21,"time_elapsed":109180,"internal_node_id":"0.0-8.0-2.3","subject":"f1l42jrotoj6sb5","sona":"9355"},{"rt":875.9999999999854,"stimulus":"<p>Welche Sequenz haben Sie als natürlicher empfunden?</p>","key_press":70,"test_part":"response","test_stimulus":{"position":1,"left":"bvh/vr_prediction_models/model(vcgpdm)-dataset(return-bottle)-mode(ELBO)-parts(1)-dyn(30)-lvm(20)-hold(2)/final-lines.txt","right":"bvh/return-bottle-training2-lines.txt","att_check":false},"trial_type":"html-keyboard-response","trial_index":22,"time_elapsed":110058,"internal_node_id":"0.0-8.0-3.3","subject":"f1l42jrotoj6sb5","sona":"9355"},{"rt":663,"stimulus":"<p>Bereit?</p>","key_press":32,"trial_type":"html-keyboard-response","trial_index":23,"time_elapsed":110721,"internal_node_id":"0.0-8.0-0.4","subject":"f1l42jrotoj6sb5","sona":"9355"},{"rt":null,"stimulus":"<div style=\"font-size:60px;\">+</div>","key_press":null,"trial_type":"html-keyboard-response","trial_index":24,"time_elapsed":112726,"internal_node_id":"0.0-8.0-1.4","subject":"f1l42jrotoj6sb5","sona":"9355"},{"trial_type":"turing-test","trial_index":25,"time_elapsed":116118,"internal_node_id":"0.0-8.0-2.4","subject":"f1l42jrotoj6sb5","sona":"9355"},{"rt":1251,"stimulus":"<p>Welche Sequenz haben Sie als natürlicher empfunden?</p>","key_press":74,"test_part":"response","test_stimulus":{"position":1,"left":"bvh/vr_prediction_models/model(vcgpdm)-dataset(pass-bottle-hold)-mode(ELBO)-parts(3)-dyn(20)-lvm(15)-hold(0)/final-lines.txt","right":"bvh/pass-bottle-hold-training0-lines.txt","att_check":false},"trial_type":"html-keyboard-response","trial_index":26,"time_elapsed":117370,"internal_node_id":"0.0-8.0-3.4","subject":"f1l42jrotoj6sb5","sona":"9355"},{"rt":752,"stimulus":"<p>Bereit?</p>","key_press":32,"trial_type":"html-keyboard-response","trial_index":27,"time_elapsed":118124,"internal_node_id":"0.0-8.0-0.5","subject":"f1l42jrotoj6sb5","sona":"9355"},{"rt":null,"stimulus":"<div style=\"font-size:60px;\">+</div>","key_press":null,"trial_type":"html-keyboard-response","trial_index":28,"time_elapsed":120126,"internal_node_id":"0.0-8.0-1.5","subject":"f1l42jrotoj6sb5","sona":"9355"},{"trial_type":"turing-test","trial_index":29,"time_elapsed":123803,"internal_node_id":"0.0-8.0-2.5","subject":"f1l42jrotoj6sb5","sona":"9355"},{"rt":2543.9999999999854,"stimulus":"<p>Welche Sequenz haben Sie als natürlicher empfunden?</p>","key_press":74,"test_part":"response","test_stimulus":{"position":0,"left":"bvh/return-bottle-hold-training4-lines.txt","right":"bvh/vr_prediction_models/model(dmp)-dataset(return-bottle-hold)-npsi(20)-hold(4)/final-lines.txt","att_check":false},"trial_type":"html-keyboard-response","trial_index":30,"time_elapsed":126348,"internal_node_id":"0.0-8.0-3.5","subject":"f1l42jrotoj6sb5","sona":"9355"},{"rt":809,"stimulus":"<p>Bereit?</p>","key_press":32,"trial_type":"html-keyboard-response","trial_index":31,"time_elapsed":127158,"internal_node_id":"0.0-8.0-0.6","subject":"f1l42jrotoj6sb5","sona":"9355"},{"rt":null,"stimulus":"<div style=\"font-size:60px;\">+</div>","key_press":null,"trial_type":"html-keyboard-response","trial_index":32,"time_elapsed":129160,"internal_node_id":"0.0-8.0-1.6","subject":"f1l42jrotoj6sb5","sona":"9355"},{"trial_type":"turing-test","trial_index":33,"time_elapsed":132564,"internal_node_id":"0.0-8.0-2.6","subject":"f1l42jrotoj6sb5","sona":"9355"},{"rt":409,"stimulus":"<p>Welche Sequenz haben Sie als natürlicher empfunden?</p>","key_press":74,"test_part":"response","test_stimulus":{"position":1,"left":"bvh/vr_prediction_models/model(vcgpdm)-dataset(pass-bottle-hold)-mode(MAP)-parts(3)-hold(2)/final-lines.txt","right":"bvh/pass-bottle-hold-training2-lines.txt","att_check":false},"trial_type":"html-keyboard-response","trial_index":34,"time_elapsed":132974,"internal_node_id":"0.0-8.0-3.6","subject":"f1l42jrotoj6sb5","sona":"9355"},{"rt":460,"stimulus":"<p>Bereit?</p>","key_press":32,"trial_type":"html-keyboard-response","trial_index":35,"time_elapsed":133435,"internal_node_id":"0.0-8.0-0.7","subject":"f1l42jrotoj6sb5","sona":"9355"},{"rt":null,"stimulus":"<div style=\"font-size:60px;\">+</div>","key_press":null,"trial_type":"html-keyboard-response","trial_index":36,"time_elapsed":135439,"internal_node_id":"0.0-8.0-1.7","subject":"f1l42jrotoj6sb5","sona":"9355"},{"trial_type":"turing-test","trial_index":37,"time_elapsed":139105,"internal_node_id":"0.0-8.0-2.7","subject":"f1l42jrotoj6sb5","sona":"9355"},{"rt":1192,"stimulus":"<p>Welche Sequenz haben Sie als natürlicher empfunden?</p>","key_press":70,"test_part":"response","test_stimulus":{"position":0,"left":"bvh/return-bottle-hold-training4-lines.txt","right":"bvh/vr_prediction_models/model(dmp)-dataset(return-bottle-hold)-npsi(40)-hold(4)/final-lines.txt","att_check":false},"trial_type":"html-keyboard-response","trial_index":38,"time_elapsed":140298,"internal_node_id":"0.0-8.0-3.7","subject":"f1l42jrotoj6sb5","sona":"9355"},{"rt":1416,"stimulus":"<p>Bereit?</p>","key_press":32,"trial_type":"html-keyboard-response","trial_index":39,"time_elapsed":141716,"internal_node_id":"0.0-8.0-0.8","subject":"f1l42jrotoj6sb5","sona":"9355"},{"rt":null,"stimulus":"<div style=\"font-size:60px;\">+</div>","key_press":null,"trial_type":"html-keyboard-response","trial_index":40,"time_elapsed":143718,"internal_node_id":"0.0-8.0-1.8","subject":"f1l42jrotoj6sb5","sona":"9355"},{"trial_type":"turing-test","trial_index":41,"time_elapsed":147035,"internal_node_id":"0.0-8.0-2.8","subject":"f1l42jrotoj6sb5","sona":"9355"},{"rt":631,"stimulus":"<p>Welche Sequenz haben Sie als natürlicher empfunden?</p>","key_press":70,"test_part":"response","test_stimulus":{"position":0,"left":"bvh/return-bottle-hold-training1-lines.txt","right":"bvh/vr_prediction_models/model(dmp)-dataset(return-bottle-hold)-npsi(30)-hold(1)/final-lines.txt","att_check":false},"trial_type":"html-keyboard-response","trial_index":42,"time_elapsed":147667,"internal_node_id":"0.0-8.0-3.8","subject":"f1l42jrotoj6sb5","sona":"9355"},{"rt":572.0000000000291,"stimulus":"<p>Bereit?</p>","key_press":32,"trial_type":"html-keyboard-response","trial_index":43,"time_elapsed":148241,"internal_node_id":"0.0-8.0-0.9","subject":"f1l42jrotoj6sb5","sona":"9355"},{"rt":null,"stimulus":"<div style=\"font-size:60px;\">+</div>","key_press":null,"trial_type":"html-keyboard-response","trial_index":44,"time_elapsed":150243,"internal_node_id":"0.0-8.0-1.9","subject":"f1l42jrotoj6sb5","sona":"9355"},{"trial_type":"turing-test","trial_index":45,"time_elapsed":157073,"internal_node_id":"0.0-8.0-2.9","subject":"f1l42jrotoj6sb5","sona":"9355"},{"rt":504,"stimulus":"<p>Welche Sequenz haben Sie als natürlicher empfunden?</p>","key_press":74,"test_part":"response","test_stimulus":{"position":1,"left":"bvh/vr_prediction_models/model(vcgpdm)-dataset(pass-bottle)-mode(ELBO)-parts(1)-dyn(25)-lvm(35)-hold(0)/final-lines.txt","right":"bvh/pass-bottle-training0-lines.txt","att_check":false},"trial_type":"html-keyboard-response","trial_index":46,"time_elapsed":157579,"internal_node_id":"0.0-8.0-3.9","subject":"f1l42jrotoj6sb5","sona":"9355"},{"rt":426,"stimulus":"<p>Bereit?</p>","key_press":32,"trial_type":"html-keyboard-response","trial_index":47,"time_elapsed":158006,"internal_node_id":"0.0-8.0-0.10","subject":"f1l42jrotoj6sb5","sona":"9355"},{"rt":null,"stimulus":"<div style=\"font-size:60px;\">+</div>","key_press":null,"trial_type":"html-keyboard-response","trial_index":48,"time_elapsed":160007,"internal_node_id":"0.0-8.0-1.10","subject":"f1l42jrotoj6sb5","sona":"9355"},{"trial_type":"turing-test","trial_index":49,"time_elapsed":165539,"internal_node_id":"0.0-8.0-2.10","subject":"f1l42jrotoj6sb5","sona":"9355"},{"rt":454,"stimulus":"<p>Welche Sequenz haben Sie als natürlicher empfunden?</p>","key_press":74,"test_part":"response","test_stimulus":{"position":1,"left":"bvh/vr_prediction_models/model(vcgpdm)-dataset(return-bottle)-mode(ELBO)-parts(3)-dyn(25)-lvm(15)-hold(0)/final-lines.txt","right":"bvh/return-bottle-training0-lines.txt","att_check":false},"trial_type":"html-keyboard-response","trial_index":50,"time_elapsed":165994,"internal_node_id":"0.0-8.0-3.10","subject":"f1l42jrotoj6sb5","sona":"9355"},{"rt":392,"stimulus":"<p>Bereit?</p>","key_press":32,"trial_type":"html-keyboard-response","trial_index":51,"time_elapsed":166387,"internal_node_id":"0.0-8.0-0.11","subject":"f1l42jrotoj6sb5","sona":"9355"},{"rt":null,"stimulus":"<div style=\"font-size:60px;\">+</div>","key_press":null,"trial_type":"html-keyboard-response","trial_index":52,"time_elapsed":168389,"internal_node_id":"0.0-8.0-1.11","subject":"f1l42jrotoj6sb5","sona":"9355"},{"trial_type":"turing-test","trial_index":53,"time_elapsed":172015,"internal_node_id":"0.0-8.0-2.11","subject":"f1l42jrotoj6sb5","sona":"9355"}]