[{"rt":6741,"stimulus":"<p>Welcome!<br> Please choose your language to start the experiment in the chosen language.</p><p>Willkommen!<br> Bitte wählen Sie eine Sprache, um das Experiment in der ausgewählten Sprache zu starten</p>","button_pressed":"1","trial_type":"html-button-response","trial_index":0,"time_elapsed":6751,"internal_node_id":"0.0-0.0","subject":"dfuw1chf1bkenv1","sona":"9643"},{"view_history":"[{\"page_index\":0,\"viewing_time\":5159},{\"page_index\":1,\"viewing_time\":3573},{\"page_index\":2,\"viewing_time\":8695},{\"page_index\":3,\"viewing_time\":5704},{\"page_index\":4,\"viewing_time\":3048}]","rt":26180,"trial_type":"instructions","trial_index":1,"time_elapsed":32934,"internal_node_id":"0.0-1.0-0.0","subject":"dfuw1chf1bkenv1","sona":"9643"},{"rt":3272,"stimulus":"<p>Bereit?</p>","key_press":32,"trial_type":"html-keyboard-response","trial_index":2,"time_elapsed":36209,"internal_node_id":"0.0-3.0","subject":"dfuw1chf1bkenv1","sona":"9643"},{"rt":null,"stimulus":"<div style=\"font-size:60px;\">+</div>","key_press":null,"trial_type":"html-keyboard-response","trial_index":3,"time_elapsed":38227,"internal_node_id":"0.0-4.0","subject":"dfuw1chf1bkenv1","sona":"9643"},{"trial_type":"training","trial_index":4,"time_elapsed":41755,"internal_node_id":"0.0-5.0","subject":"dfuw1chf1bkenv1","sona":"9643"},{"rt":2895,"stimulus":"<p>Welche Sequenz haben Sie als natürlicher empfunden?</p>","key_press":70,"trial_type":"html-keyboard-response","trial_index":5,"time_elapsed":44654,"internal_node_id":"0.0-6.0","subject":"dfuw1chf1bkenv1","sona":"9643"},{"rt":7637,"stimulus":"<p>Das Experiment startet nun.</p><p><small>Bitte drücken Sie den Knopf, wenn Sie bereit sind.</small></p>","button_pressed":"0","trial_type":"html-button-response","trial_index":6,"time_elapsed":52293,"internal_node_id":"0.0-7.0","subject":"dfuw1chf1bkenv1","sona":"9643"},{"rt":3390,"stimulus":"<p>Bereit?</p>","key_press":32,"trial_type":"html-keyboard-response","trial_index":7,"time_elapsed":55686,"internal_node_id":"0.0-8.0-0.0","subject":"dfuw1chf1bkenv1","sona":"9643"},{"rt":null,"stimulus":"<div style=\"font-size:60px;\">+</div>","key_press":null,"trial_type":"html-keyboard-response","trial_index":8,"time_elapsed":57707,"internal_node_id":"0.0-8.0-1.0","subject":"dfuw1chf1bkenv1","sona":"9643"},{"trial_type":"turing-test","trial_index":9,"time_elapsed":61464,"internal_node_id":"0.0-8.0-2.0","subject":"dfuw1chf1bkenv1","sona":"9643"},{"rt":1025,"stimulus":"<p>Welche Sequenz haben Sie als natürlicher empfunden?</p>","key_press":74,"test_part":"response","test_stimulus":{"position":0,"left":"bvh/return-bottle-hold-training3-lines.txt","right":"bvh/vr_prediction_models/model(dmp)-dataset(return-bottle-hold)-npsi(80)-hold(3)/final-lines.txt","att_check":false},"trial_type":"html-keyboard-response","trial_index":10,"time_elapsed":62493,"internal_node_id":"0.0-8.0-3.0","subject":"dfuw1chf1bkenv1","sona":"9643"},{"rt":1464,"stimulus":"<p>Bereit?</p>","key_press":32,"trial_type":"html-keyboard-response","trial_index":11,"time_elapsed":63961,"internal_node_id":"0.0-8.0-0.1","subject":"dfuw1chf1bkenv1","sona":"9643"},{"rt":null,"stimulus":"<div style=\"font-size:60px;\">+</div>","key_press":null,"trial_type":"html-keyboard-response","trial_index":12,"time_elapsed":65977,"internal_node_id":"0.0-8.0-1.1","subject":"dfuw1chf1bkenv1","sona":"9643"},{"trial_type":"turing-test","trial_index":13,"time_elapsed":72212,"internal_node_id":"0.0-8.0-2.1","subject":"dfuw1chf1bkenv1","sona":"9643"},{"rt":698,"stimulus":"<p>Welche Sequenz haben Sie als natürlicher empfunden?</p>","key_press":74,"test_part":"response","test_stimulus":{"position":1,"left":"bvh/vr_prediction_models/model(vcgpdm)-dataset(pass-bottle)-mode(ELBO)-parts(1)-dyn(10)-lvm(30)-hold(2)/final-lines.txt","right":"bvh/pass-bottle-training2-lines.txt","att_check":false},"trial_type":"html-keyboard-response","trial_index":14,"time_elapsed":72913,"internal_node_id":"0.0-8.0-3.1","subject":"dfuw1chf1bkenv1","sona":"9643"},{"rt":797,"stimulus":"<p>Bereit?</p>","key_press":32,"trial_type":"html-keyboard-response","trial_index":15,"time_elapsed":73715,"internal_node_id":"0.0-8.0-0.2","subject":"dfuw1chf1bkenv1","sona":"9643"},{"rt":null,"stimulus":"<div style=\"font-size:60px;\">+</div>","key_press":null,"trial_type":"html-keyboard-response","trial_index":16,"time_elapsed":75728,"internal_node_id":"0.0-8.0-1.2","subject":"dfuw1chf1bkenv1","sona":"9643"},{"trial_type":"turing-test","trial_index":17,"time_elapsed":79170,"internal_node_id":"0.0-8.0-2.2","subject":"dfuw1chf1bkenv1","sona":"9643"},{"rt":586,"stimulus":"<p>Welche Sequenz haben Sie als natürlicher empfunden?</p>","key_press":74,"test_part":"response","test_stimulus":{"position":1,"left":"bvh/vr_prediction_models/model(vcgpdm)-dataset(pass-bottle-hold)-mode(ELBO)-parts(1)-dyn(10)-lvm(25)-hold(1)/final-lines.txt","right":"bvh/pass-bottle-hold-training1-lines.txt","att_check":false},"trial_type":"html-keyboard-response","trial_index":18,"time_elapsed":79763,"internal_node_id":"0.0-8.0-3.2","subject":"dfuw1chf1bkenv1","sona":"9643"},{"rt":416,"stimulus":"<p>Bereit?</p>","key_press":32,"trial_type":"html-keyboard-response","trial_index":19,"time_elapsed":80181,"internal_node_id":"0.0-8.0-0.3","subject":"dfuw1chf1bkenv1","sona":"9643"},{"rt":null,"stimulus":"<div style=\"font-size:60px;\">+</div>","key_press":null,"trial_type":"html-keyboard-response","trial_index":20,"time_elapsed":82200,"internal_node_id":"0.0-8.0-1.3","subject":"dfuw1chf1bkenv1","sona":"9643"},{"trial_type":"turing-test","trial_index":21,"time_elapsed":88059,"internal_node_id":"0.0-8.0-2.3","subject":"dfuw1chf1bkenv1","sona":"9643"},{"rt":5024,"stimulus":"<p>Welche Sequenz haben Sie als natürlicher empfunden?</p>","key_press":74,"test_part":"response","test_stimulus":{"position":0,"left":"bvh/pass-bottle-training4-lines.txt","right":"bvh/vr_prediction_models/model(dmp)-dataset(pass-bottle)-npsi(30)-hold(4)/final-lines.txt","att_check":false},"trial_type":"html-keyboard-response","trial_index":22,"time_elapsed":93086,"internal_node_id":"0.0-8.0-3.3","subject":"dfuw1chf1bkenv1","sona":"9643"},{"rt":518,"stimulus":"<p>Bereit?</p>","key_press":32,"trial_type":"html-keyboard-response","trial_index":23,"time_elapsed":93608,"internal_node_id":"0.0-8.0-0.4","subject":"dfuw1chf1bkenv1","sona":"9643"},{"rt":null,"stimulus":"<div style=\"font-size:60px;\">+</div>","key_press":null,"trial_type":"html-keyboard-response","trial_index":24,"time_elapsed":95626,"internal_node_id":"0.0-8.0-1.4","subject":"dfuw1chf1bkenv1","sona":"9643"},{"trial_type":"turing-test","trial_index":25,"time_elapsed":101538,"internal_node_id":"0.0-8.0-2.4","subject":"dfuw1chf1bkenv1","sona":"9643"},{"rt":488,"stimulus":"<p>Welche Sequenz haben Sie als natürlicher empfunden?</p>","key_press":74,"test_part":"response","test_stimulus":{"position":1,"left":"bvh/vr_prediction_models/model(vcgpdm)-dataset(return-bottle)-mode(ELBO)-parts(3)-dyn(25)-lvm(25)-hold(3)/final-lines.txt","right":"bvh/return-bottle-training3-lines.txt","att_check":false},"trial_type":"html-keyboard-response","trial_index":26,"time_elapsed":102028,"internal_node_id":"0.0-8.0-3.4","subject":"dfuw1chf1bkenv1","sona":"9643"},{"rt":363,"stimulus":"<p>Bereit?</p>","key_press":32,"trial_type":"html-keyboard-response","trial_index":27,"time_elapsed":102394,"internal_node_id":"0.0-8.0-0.5","subject":"dfuw1chf1bkenv1","sona":"9643"},{"rt":null,"stimulus":"<div style=\"font-size:60px;\">+</div>","key_press":null,"trial_type":"html-keyboard-response","trial_index":28,"time_elapsed":104414,"internal_node_id":"0.0-8.0-1.5","subject":"dfuw1chf1bkenv1","sona":"9643"},{"trial_type":"turing-test","trial_index":29,"time_elapsed":108159,"internal_node_id":"0.0-8.0-2.5","subject":"dfuw1chf1bkenv1","sona":"9643"},{"rt":559,"stimulus":"<p>Welche Sequenz haben Sie als natürlicher empfunden?</p>","key_press":74,"test_part":"response","test_stimulus":{"position":0,"left":"bvh/return-bottle-hold-training4-lines.txt","right":"bvh/vr_prediction_models/model(dmp)-dataset(return-bottle-hold)-npsi(20)-hold(4)/final-lines.txt","att_check":false},"trial_type":"html-keyboard-response","trial_index":30,"time_elapsed":108722,"internal_node_id":"0.0-8.0-3.5","subject":"dfuw1chf1bkenv1","sona":"9643"},{"rt":316,"stimulus":"<p>Bereit?</p>","key_press":32,"trial_type":"html-keyboard-response","trial_index":31,"time_elapsed":109041,"internal_node_id":"0.0-8.0-0.6","subject":"dfuw1chf1bkenv1","sona":"9643"},{"rt":null,"stimulus":"<div style=\"font-size:60px;\">+</div>","key_press":null,"trial_type":"html-keyboard-response","trial_index":32,"time_elapsed":111054,"internal_node_id":"0.0-8.0-1.6","subject":"dfuw1chf1bkenv1","sona":"9643"},{"trial_type":"turing-test","trial_index":33,"time_elapsed":114360,"internal_node_id":"0.0-8.0-2.6","subject":"dfuw1chf1bkenv1","sona":"9643"},{"rt":866,"stimulus":"<p>Welche Sequenz haben Sie als natürlicher empfunden?</p>","key_press":70,"test_part":"response","test_stimulus":{"position":1,"left":"bvh/vr_prediction_models/model(dmp)-dataset(pass-bottle-hold)-npsi(70)-hold(1)/final-lines.txt","right":"bvh/pass-bottle-hold-training1-lines.txt","att_check":false},"trial_type":"html-keyboard-response","trial_index":34,"time_elapsed":115229,"internal_node_id":"0.0-8.0-3.6","subject":"dfuw1chf1bkenv1","sona":"9643"},{"rt":434,"stimulus":"<p>Bereit?</p>","key_press":32,"trial_type":"html-keyboard-response","trial_index":35,"time_elapsed":115666,"internal_node_id":"0.0-8.0-0.7","subject":"dfuw1chf1bkenv1","sona":"9643"},{"rt":null,"stimulus":"<div style=\"font-size:60px;\">+</div>","key_press":null,"trial_type":"html-keyboard-response","trial_index":36,"time_elapsed":117689,"internal_node_id":"0.0-8.0-1.7","subject":"dfuw1chf1bkenv1","sona":"9643"},{"trial_type":"turing-test","trial_index":37,"time_elapsed":124961,"internal_node_id":"0.0-8.0-2.7","subject":"dfuw1chf1bkenv1","sona":"9643"},{"rt":346,"stimulus":"<p>Welche Sequenz haben Sie als natürlicher empfunden?</p>","key_press":70,"test_part":"response","test_stimulus":{"position":0,"left":"bvh/pass-bottle-training0-lines.txt","right":"bvh/vr_prediction_models/model(vcgpdm)-dataset(pass-bottle)-mode(ELBO)-parts(3)-dyn(10)-lvm(25)-hold(0)/final-lines.txt","att_check":false},"trial_type":"html-keyboard-response","trial_index":38,"time_elapsed":125310,"internal_node_id":"0.0-8.0-3.7","subject":"dfuw1chf1bkenv1","sona":"9643"},{"rt":392,"stimulus":"<p>Bereit?</p>","key_press":32,"trial_type":"html-keyboard-response","trial_index":39,"time_elapsed":125702,"internal_node_id":"0.0-8.0-0.8","subject":"dfuw1chf1bkenv1","sona":"9643"},{"rt":null,"stimulus":"<div style=\"font-size:60px;\">+</div>","key_press":null,"trial_type":"html-keyboard-response","trial_index":40,"time_elapsed":127727,"internal_node_id":"0.0-8.0-1.8","subject":"dfuw1chf1bkenv1","sona":"9643"},{"trial_type":"turing-test","trial_index":41,"time_elapsed":134522,"internal_node_id":"0.0-8.0-2.8","subject":"dfuw1chf1bkenv1","sona":"9643"},{"rt":294,"stimulus":"<p>Welche Sequenz haben Sie als natürlicher empfunden?</p>","key_press":74,"test_part":"response","test_stimulus":{"position":0,"left":"bvh/pass-bottle-training0-lines.txt","right":"bvh/vr_prediction_models/model(tmp)-dataset(pass-bottle)-numprim(6)-hold(0)/final-lines.txt","att_check":false},"trial_type":"html-keyboard-response","trial_index":42,"time_elapsed":134821,"internal_node_id":"0.0-8.0-3.8","subject":"dfuw1chf1bkenv1","sona":"9643"},{"rt":255,"stimulus":"<p>Bereit?</p>","key_press":32,"trial_type":"html-keyboard-response","trial_index":43,"time_elapsed":135082,"internal_node_id":"0.0-8.0-0.9","subject":"dfuw1chf1bkenv1","sona":"9643"},{"rt":null,"stimulus":"<div style=\"font-size:60px;\">+</div>","key_press":null,"trial_type":"html-keyboard-response","trial_index":44,"time_elapsed":137109,"internal_node_id":"0.0-8.0-1.9","subject":"dfuw1chf1bkenv1","sona":"9643"},{"trial_type":"turing-test","trial_index":45,"time_elapsed":143089,"internal_node_id":"0.0-8.0-2.9","subject":"dfuw1chf1bkenv1","sona":"9643"},{"rt":775,"stimulus":"<p>Welche Sequenz haben Sie als natürlicher empfunden?</p>","key_press":70,"test_part":"response","test_stimulus":{"position":1,"left":"bvh/vr_prediction_models/model(vcgpdm)-dataset(return-bottle)-mode(ELBO)-parts(1)-dyn(25)-lvm(35)-hold(4)/final-lines.txt","right":"bvh/return-bottle-training4-lines.txt","att_check":false},"trial_type":"html-keyboard-response","trial_index":46,"time_elapsed":143868,"internal_node_id":"0.0-8.0-3.9","subject":"dfuw1chf1bkenv1","sona":"9643"},{"rt":324,"stimulus":"<p>Bereit?</p>","key_press":32,"trial_type":"html-keyboard-response","trial_index":47,"time_elapsed":144202,"internal_node_id":"0.0-8.0-0.10","subject":"dfuw1chf1bkenv1","sona":"9643"},{"rt":null,"stimulus":"<div style=\"font-size:60px;\">+</div>","key_press":null,"trial_type":"html-keyboard-response","trial_index":48,"time_elapsed":146222,"internal_node_id":"0.0-8.0-1.10","subject":"dfuw1chf1bkenv1","sona":"9643"},{"trial_type":"turing-test","trial_index":49,"time_elapsed":150012,"internal_node_id":"0.0-8.0-2.10","subject":"dfuw1chf1bkenv1","sona":"9643"},{"rt":1999,"stimulus":"<p>Welche Sequenz haben Sie als natürlicher empfunden?</p>","key_press":70,"test_part":"response","test_stimulus":{"position":1,"left":"bvh/vr_prediction_models/model(tmp)-dataset(pass-bottle-hold)-numprim(11)-hold(4)/final-lines.txt","right":"bvh/pass-bottle-hold-training4-lines.txt","att_check":false},"trial_type":"html-keyboard-response","trial_index":50,"time_elapsed":152018,"internal_node_id":"0.0-8.0-3.10","subject":"dfuw1chf1bkenv1","sona":"9643"},{"rt":297,"stimulus":"<p>Bereit?</p>","key_press":32,"trial_type":"html-keyboard-response","trial_index":51,"time_elapsed":152318,"internal_node_id":"0.0-8.0-0.11","subject":"dfuw1chf1bkenv1","sona":"9643"},{"rt":null,"stimulus":"<div style=\"font-size:60px;\">+</div>","key_press":null,"trial_type":"html-keyboard-response","trial_index":52,"time_elapsed":154327,"internal_node_id":"0.0-8.0-1.11","subject":"dfuw1chf1bkenv1","sona":"9643"},{"trial_type":"turing-test","trial_index":53,"time_elapsed":160236,"internal_node_id":"0.0-8.0-2.11","subject":"dfuw1chf1bkenv1","sona":"9643"}]