[{"rt":1398.0699999956414,"stimulus":"<p>Welcome!<br> Please choose your language to start the experiment in the chosen language.</p><p>Willkommen!<br> Bitte wählen Sie eine Sprache, um das Experiment in der ausgewählten Sprache zu starten</p>","button_pressed":"1","trial_type":"html-button-response","trial_index":0,"time_elapsed":1417,"internal_node_id":"0.0-0.0","subject":"hkxxetun8x4c247","sona":"9712"},{"view_history":"[{\"page_index\":0,\"viewing_time\":966.0199999343604},{\"page_index\":1,\"viewing_time\":1143.7700000824407},{\"page_index\":2,\"viewing_time\":3376.0049999691546},{\"page_index\":3,\"viewing_time\":1080.0449999514967},{\"page_index\":4,\"viewing_time\":1583.9500000001863}]","rt":8150.634999969043,"trial_type":"instructions","trial_index":1,"time_elapsed":9568,"internal_node_id":"0.0-1.0-0.0","subject":"hkxxetun8x4c247","sona":"9712"},{"rt":884.3900000210851,"stimulus":"<p>Bereit?</p>","key_press":32,"trial_type":"html-keyboard-response","trial_index":2,"time_elapsed":10454,"internal_node_id":"0.0-3.0","subject":"hkxxetun8x4c247","sona":"9712"},{"rt":null,"stimulus":"<div style=\"font-size:60px;\">+</div>","key_press":null,"trial_type":"html-keyboard-response","trial_index":3,"time_elapsed":12488,"internal_node_id":"0.0-4.0","subject":"hkxxetun8x4c247","sona":"9712"},{"trial_type":"training","trial_index":4,"time_elapsed":15858,"internal_node_id":"0.0-5.0","subject":"hkxxetun8x4c247","sona":"9712"},{"rt":643.940000096336,"stimulus":"<p>Welche Sequenz haben Sie als natürlicher empfunden?</p>","key_press":70,"trial_type":"html-keyboard-response","trial_index":5,"time_elapsed":16504,"internal_node_id":"0.0-6.0","subject":"hkxxetun8x4c247","sona":"9712"},{"rt":2854.230000055395,"stimulus":"<p>Das Experiment startet nun.</p><p><small>Bitte drücken Sie den Knopf, wenn Sie bereit sind.</small></p>","button_pressed":"0","trial_type":"html-button-response","trial_index":6,"time_elapsed":19360,"internal_node_id":"0.0-7.0","subject":"hkxxetun8x4c247","sona":"9712"},{"rt":3479.204999981448,"stimulus":"<p>Bereit?</p>","key_press":32,"trial_type":"html-keyboard-response","trial_index":7,"time_elapsed":22840,"internal_node_id":"0.0-8.0-0.0","subject":"hkxxetun8x4c247","sona":"9712"},{"rt":null,"stimulus":"<div style=\"font-size:60px;\">+</div>","key_press":null,"trial_type":"html-keyboard-response","trial_index":8,"time_elapsed":24869,"internal_node_id":"0.0-8.0-1.0","subject":"hkxxetun8x4c247","sona":"9712"},{"trial_type":"turing-test","trial_index":9,"time_elapsed":30291,"internal_node_id":"0.0-8.0-2.0","subject":"hkxxetun8x4c247","sona":"9712"},{"rt":279.6099999686703,"stimulus":"<p>Welche Sequenz haben Sie als natürlicher empfunden?</p>","key_press":74,"test_part":"response","test_stimulus":{"position":1,"left":"bvh/vr_prediction_models/model(dmp)-dataset(pass-bottle)-npsi(30)-hold(1)/final-lines.txt","right":"bvh/pass-bottle-training1-lines.txt","att_check":false},"trial_type":"html-keyboard-response","trial_index":10,"time_elapsed":30577,"internal_node_id":"0.0-8.0-3.0","subject":"hkxxetun8x4c247","sona":"9712"},{"rt":424.4200000539422,"stimulus":"<p>Bereit?</p>","key_press":32,"trial_type":"html-keyboard-response","trial_index":11,"time_elapsed":31004,"internal_node_id":"0.0-8.0-0.1","subject":"hkxxetun8x4c247","sona":"9712"},{"rt":null,"stimulus":"<div style=\"font-size:60px;\">+</div>","key_press":null,"trial_type":"html-keyboard-response","trial_index":12,"time_elapsed":33006,"internal_node_id":"0.0-8.0-1.1","subject":"hkxxetun8x4c247","sona":"9712"},{"trial_type":"turing-test","trial_index":13,"time_elapsed":38812,"internal_node_id":"0.0-8.0-2.1","subject":"hkxxetun8x4c247","sona":"9712"},{"rt":608.5650000022724,"stimulus":"<p>Welche Sequenz haben Sie als natürlicher empfunden?</p>","key_press":70,"test_part":"response","test_stimulus":{"position":0,"left":"bvh/pass-bottle-training3-lines.txt","right":"bvh/vr_prediction_models/model(dmp)-dataset(pass-bottle)-npsi(50)-hold(3)/final-lines.txt","att_check":false},"trial_type":"html-keyboard-response","trial_index":14,"time_elapsed":39427,"internal_node_id":"0.0-8.0-3.1","subject":"hkxxetun8x4c247","sona":"9712"},{"rt":436.1949999583885,"stimulus":"<p>Bereit?</p>","key_press":32,"trial_type":"html-keyboard-response","trial_index":15,"time_elapsed":39867,"internal_node_id":"0.0-8.0-0.2","subject":"hkxxetun8x4c247","sona":"9712"},{"rt":null,"stimulus":"<div style=\"font-size:60px;\">+</div>","key_press":null,"trial_type":"html-keyboard-response","trial_index":16,"time_elapsed":41869,"internal_node_id":"0.0-8.0-1.2","subject":"hkxxetun8x4c247","sona":"9712"},{"trial_type":"turing-test","trial_index":17,"time_elapsed":45287,"internal_node_id":"0.0-8.0-2.2","subject":"hkxxetun8x4c247","sona":"9712"},{"rt":479.3500000378117,"stimulus":"<p>Welche Sequenz haben Sie als natürlicher empfunden?</p>","key_press":70,"test_part":"response","test_stimulus":{"position":0,"left":"bvh/pass-bottle-hold-training0-lines.txt","right":"bvh/vr_prediction_models/model(vcgpdm)-dataset(pass-bottle-hold)-mode(ELBO)-parts(3)-dyn(10)-lvm(30)-hold(0)/final-lines.txt","att_check":false},"trial_type":"html-keyboard-response","trial_index":18,"time_elapsed":45771,"internal_node_id":"0.0-8.0-3.2","subject":"hkxxetun8x4c247","sona":"9712"},{"rt":107.17999993357807,"stimulus":"<p>Bereit?</p>","key_press":32,"trial_type":"html-keyboard-response","trial_index":19,"time_elapsed":45882,"internal_node_id":"0.0-8.0-0.3","subject":"hkxxetun8x4c247","sona":"9712"},{"rt":null,"stimulus":"<div style=\"font-size:60px;\">+</div>","key_press":null,"trial_type":"html-keyboard-response","trial_index":20,"time_elapsed":47884,"internal_node_id":"0.0-8.0-1.3","subject":"hkxxetun8x4c247","sona":"9712"},{"trial_type":"turing-test","trial_index":21,"time_elapsed":51162,"internal_node_id":"0.0-8.0-2.3","subject":"hkxxetun8x4c247","sona":"9712"},{"rt":2346.074999892153,"stimulus":"<p>Welche Sequenz haben Sie als natürlicher empfunden?</p>","key_press":70,"test_part":"response","test_stimulus":{"position":1,"left":"bvh/vr_prediction_models/model(tmp)-dataset(pass-bottle-hold)-numprim(3)-hold(0)/final-lines.txt","right":"bvh/pass-bottle-hold-training0-lines.txt","att_check":false},"trial_type":"html-keyboard-response","trial_index":22,"time_elapsed":53513,"internal_node_id":"0.0-8.0-3.3","subject":"hkxxetun8x4c247","sona":"9712"},{"rt":49002.30499997269,"stimulus":"<p>Bereit?</p>","key_press":32,"trial_type":"html-keyboard-response","trial_index":23,"time_elapsed":102520,"internal_node_id":"0.0-8.0-0.4","subject":"hkxxetun8x4c247","sona":"9712"},{"rt":null,"stimulus":"<div style=\"font-size:60px;\">+</div>","key_press":null,"trial_type":"html-keyboard-response","trial_index":24,"time_elapsed":104523,"internal_node_id":"0.0-8.0-1.4","subject":"hkxxetun8x4c247","sona":"9712"},{"trial_type":"turing-test","trial_index":25,"time_elapsed":110028,"internal_node_id":"0.0-8.0-2.4","subject":"hkxxetun8x4c247","sona":"9712"},{"rt":303.2200000016019,"stimulus":"<p>Welche Sequenz haben Sie als natürlicher empfunden?</p>","key_press":74,"test_part":"response","test_stimulus":{"position":1,"left":"bvh/vr_prediction_models/model(vcgpdm)-dataset(pass-bottle)-mode(ELBO)-parts(3)-dyn(10)-lvm(10)-hold(1)/final-lines.txt","right":"bvh/pass-bottle-training1-lines.txt","att_check":false},"trial_type":"html-keyboard-response","trial_index":26,"time_elapsed":110338,"internal_node_id":"0.0-8.0-3.4","subject":"hkxxetun8x4c247","sona":"9712"},{"rt":16861.984999966808,"stimulus":"<p>Bereit?</p>","key_press":32,"trial_type":"html-keyboard-response","trial_index":27,"time_elapsed":127204,"internal_node_id":"0.0-8.0-0.5","subject":"hkxxetun8x4c247","sona":"9712"},{"rt":null,"stimulus":"<div style=\"font-size:60px;\">+</div>","key_press":null,"trial_type":"html-keyboard-response","trial_index":28,"time_elapsed":129209,"internal_node_id":"0.0-8.0-1.5","subject":"hkxxetun8x4c247","sona":"9712"},{"trial_type":"turing-test","trial_index":29,"time_elapsed":135073,"internal_node_id":"0.0-8.0-2.5","subject":"hkxxetun8x4c247","sona":"9712"},{"rt":347.2249999176711,"stimulus":"<p>Welche Sequenz haben Sie als natürlicher empfunden?</p>","key_press":70,"test_part":"response","test_stimulus":{"position":0,"left":"bvh/return-bottle-training4-lines.txt","right":"bvh/vr_prediction_models/model(vcgpdm)-dataset(return-bottle)-mode(ELBO)-parts(1)-dyn(25)-lvm(35)-hold(4)/final-lines.txt","att_check":false},"trial_type":"html-keyboard-response","trial_index":30,"time_elapsed":135426,"internal_node_id":"0.0-8.0-3.5","subject":"hkxxetun8x4c247","sona":"9712"},{"rt":502.86000000778586,"stimulus":"<p>Bereit?</p>","key_press":32,"trial_type":"html-keyboard-response","trial_index":31,"time_elapsed":135933,"internal_node_id":"0.0-8.0-0.6","subject":"hkxxetun8x4c247","sona":"9712"},{"rt":null,"stimulus":"<div style=\"font-size:60px;\">+</div>","key_press":null,"trial_type":"html-keyboard-response","trial_index":32,"time_elapsed":137935,"internal_node_id":"0.0-8.0-1.6","subject":"hkxxetun8x4c247","sona":"9712"},{"trial_type":"turing-test","trial_index":33,"time_elapsed":143342,"internal_node_id":"0.0-8.0-2.6","subject":"hkxxetun8x4c247","sona":"9712"},{"rt":323.15499999094754,"stimulus":"<p>Welche Sequenz haben Sie als natürlicher empfunden?</p>","key_press":74,"test_part":"response","test_stimulus":{"position":1,"left":"bvh/vr_prediction_models/model(tmp)-dataset(pass-bottle)-numprim(3)-hold(1)/final-lines.txt","right":"bvh/pass-bottle-training1-lines.txt","att_check":false},"trial_type":"html-keyboard-response","trial_index":34,"time_elapsed":143671,"internal_node_id":"0.0-8.0-3.6","subject":"hkxxetun8x4c247","sona":"9712"},{"rt":332.76000001933426,"stimulus":"<p>Bereit?</p>","key_press":32,"trial_type":"html-keyboard-response","trial_index":35,"time_elapsed":144007,"internal_node_id":"0.0-8.0-0.7","subject":"hkxxetun8x4c247","sona":"9712"},{"rt":null,"stimulus":"<div style=\"font-size:60px;\">+</div>","key_press":null,"trial_type":"html-keyboard-response","trial_index":36,"time_elapsed":146010,"internal_node_id":"0.0-8.0-1.7","subject":"hkxxetun8x4c247","sona":"9712"},{"trial_type":"turing-test","trial_index":37,"time_elapsed":152699,"internal_node_id":"0.0-8.0-2.7","subject":"hkxxetun8x4c247","sona":"9712"},{"rt":309.8649999592453,"stimulus":"<p>Welche Sequenz haben Sie als natürlicher empfunden?</p>","key_press":70,"test_part":"response","test_stimulus":{"position":0,"left":"bvh/return-bottle-training2-lines.txt","right":"bvh/vr_prediction_models/model(vcgpdm)-dataset(return-bottle)-mode(ELBO)-parts(1)-dyn(20)-lvm(30)-hold(2)/final-lines.txt","att_check":false},"trial_type":"html-keyboard-response","trial_index":38,"time_elapsed":153016,"internal_node_id":"0.0-8.0-3.7","subject":"hkxxetun8x4c247","sona":"9712"},{"rt":1094.9350000591949,"stimulus":"<p>Bereit?</p>","key_press":32,"trial_type":"html-keyboard-response","trial_index":39,"time_elapsed":154115,"internal_node_id":"0.0-8.0-0.8","subject":"hkxxetun8x4c247","sona":"9712"},{"rt":null,"stimulus":"<div style=\"font-size:60px;\">+</div>","key_press":null,"trial_type":"html-keyboard-response","trial_index":40,"time_elapsed":156117,"internal_node_id":"0.0-8.0-1.8","subject":"hkxxetun8x4c247","sona":"9712"},{"trial_type":"turing-test","trial_index":41,"time_elapsed":161924,"internal_node_id":"0.0-8.0-2.8","subject":"hkxxetun8x4c247","sona":"9712"},{"rt":374.98999992385507,"stimulus":"<p>Welche Sequenz haben Sie als natürlicher empfunden?</p>","key_press":70,"test_part":"response","test_stimulus":{"position":0,"left":"bvh/pass-bottle-training4-lines.txt","right":"bvh/vr_prediction_models/model(vcgpdm)-dataset(pass-bottle)-mode(ELBO)-parts(1)-dyn(20)-lvm(20)-hold(4)/final-lines.txt","att_check":false},"trial_type":"html-keyboard-response","trial_index":42,"time_elapsed":162305,"internal_node_id":"0.0-8.0-3.8","subject":"hkxxetun8x4c247","sona":"9712"},{"rt":5683.979999972507,"stimulus":"<p>Bereit?</p>","key_press":32,"trial_type":"html-keyboard-response","trial_index":43,"time_elapsed":167993,"internal_node_id":"0.0-8.0-0.9","subject":"hkxxetun8x4c247","sona":"9712"},{"rt":null,"stimulus":"<div style=\"font-size:60px;\">+</div>","key_press":null,"trial_type":"html-keyboard-response","trial_index":44,"time_elapsed":169998,"internal_node_id":"0.0-8.0-1.9","subject":"hkxxetun8x4c247","sona":"9712"},{"trial_type":"turing-test","trial_index":45,"time_elapsed":173740,"internal_node_id":"0.0-8.0-2.9","subject":"hkxxetun8x4c247","sona":"9712"},{"rt":330.79999999608845,"stimulus":"<p>Welche Sequenz haben Sie als natürlicher empfunden?</p>","key_press":70,"test_part":"response","test_stimulus":{"position":0,"left":"bvh/return-bottle-hold-training3-lines.txt","right":"bvh/vr_prediction_models/model(vcgpdm)-dataset(return-bottle-hold)-mode(ELBO)-parts(3)-dyn(10)-lvm(30)-hold(3)/final-lines.txt","att_check":false},"trial_type":"html-keyboard-response","trial_index":46,"time_elapsed":174077,"internal_node_id":"0.0-8.0-3.9","subject":"hkxxetun8x4c247","sona":"9712"},{"rt":11266.6400000453,"stimulus":"<p>Bereit?</p>","key_press":32,"trial_type":"html-keyboard-response","trial_index":47,"time_elapsed":185348,"internal_node_id":"0.0-8.0-0.10","subject":"hkxxetun8x4c247","sona":"9712"},{"rt":null,"stimulus":"<div style=\"font-size:60px;\">+</div>","key_press":null,"trial_type":"html-keyboard-response","trial_index":48,"time_elapsed":187351,"internal_node_id":"0.0-8.0-1.10","subject":"hkxxetun8x4c247","sona":"9712"},{"trial_type":"turing-test","trial_index":49,"time_elapsed":190649,"internal_node_id":"0.0-8.0-2.10","subject":"hkxxetun8x4c247","sona":"9712"},{"rt":1315.5799999367446,"stimulus":"<p>Welche Sequenz haben Sie als natürlicher empfunden?</p>","key_press":70,"test_part":"response","test_stimulus":{"position":1,"left":"bvh/vr_prediction_models/model(dmp)-dataset(pass-bottle-hold)-npsi(10)-hold(2)/final-lines.txt","right":"bvh/pass-bottle-hold-training2-lines.txt","att_check":false},"trial_type":"html-keyboard-response","trial_index":50,"time_elapsed":191971,"internal_node_id":"0.0-8.0-3.10","subject":"hkxxetun8x4c247","sona":"9712"},{"rt":306.6300000064075,"stimulus":"<p>Bereit?</p>","key_press":32,"trial_type":"html-keyboard-response","trial_index":51,"time_elapsed":192281,"internal_node_id":"0.0-8.0-0.11","subject":"hkxxetun8x4c247","sona":"9712"},{"rt":null,"stimulus":"<div style=\"font-size:60px;\">+</div>","key_press":null,"trial_type":"html-keyboard-response","trial_index":52,"time_elapsed":194284,"internal_node_id":"0.0-8.0-1.11","subject":"hkxxetun8x4c247","sona":"9712"}]