[{"rt":3798.6950000013167,"stimulus":"<p>Welcome!<br> Please choose your language to start the experiment in the chosen language.</p><p>Willkommen!<br> Bitte wählen Sie eine Sprache, um das Experiment in der ausgewählten Sprache zu starten</p>","button_pressed":"1","trial_type":"html-button-response","trial_index":0,"time_elapsed":3831,"internal_node_id":"0.0-0.0","subject":"ddpzqmobtltq5kd","sona":"9313"},{"view_history":"[{\"page_index\":0,\"viewing_time\":9750.939999998081},{\"page_index\":1,\"viewing_time\":9449.365000000398},{\"page_index\":2,\"viewing_time\":22554.37499999971},{\"page_index\":3,\"viewing_time\":5558.845000003203},{\"page_index\":4,\"viewing_time\":2571.0549999967043}]","rt":49886.80999999997,"trial_type":"instructions","trial_index":1,"time_elapsed":53721,"internal_node_id":"0.0-1.0-0.0","subject":"ddpzqmobtltq5kd","sona":"9313"},{"rt":1669.3450000020675,"stimulus":"<p>Bereit?</p>","key_press":32,"trial_type":"html-keyboard-response","trial_index":2,"time_elapsed":55394,"internal_node_id":"0.0-3.0","subject":"ddpzqmobtltq5kd","sona":"9313"},{"rt":null,"stimulus":"<div style=\"font-size:60px;\">+</div>","key_press":null,"trial_type":"html-keyboard-response","trial_index":3,"time_elapsed":57399,"internal_node_id":"0.0-4.0","subject":"ddpzqmobtltq5kd","sona":"9313"},{"trial_type":"training","trial_index":4,"time_elapsed":60758,"internal_node_id":"0.0-5.0","subject":"ddpzqmobtltq5kd","sona":"9313"},{"rt":4014.310000002297,"stimulus":"<p>Welche Sequenz haben Sie als natürlicher empfunden?</p>","key_press":70,"trial_type":"html-keyboard-response","trial_index":5,"time_elapsed":64776,"internal_node_id":"0.0-6.0","subject":"ddpzqmobtltq5kd","sona":"9313"},{"rt":2828.9799999984098,"stimulus":"<p>Das Experiment startet nun.</p><p><small>Bitte drücken Sie den Knopf, wenn Sie bereit sind.</small></p>","button_pressed":"0","trial_type":"html-button-response","trial_index":6,"time_elapsed":67608,"internal_node_id":"0.0-7.0","subject":"ddpzqmobtltq5kd","sona":"9313"},{"rt":1998.3400000019174,"stimulus":"<p>Bereit?</p>","key_press":32,"trial_type":"html-keyboard-response","trial_index":7,"time_elapsed":69608,"internal_node_id":"0.0-8.0-0.0","subject":"ddpzqmobtltq5kd","sona":"9313"},{"rt":null,"stimulus":"<div style=\"font-size:60px;\">+</div>","key_press":null,"trial_type":"html-keyboard-response","trial_index":8,"time_elapsed":71613,"internal_node_id":"0.0-8.0-1.0","subject":"ddpzqmobtltq5kd","sona":"9313"},{"trial_type":"turing-test","trial_index":9,"time_elapsed":75057,"internal_node_id":"0.0-8.0-2.0","subject":"ddpzqmobtltq5kd","sona":"9313"},{"rt":3150.2699999982724,"stimulus":"<p>Welche Sequenz haben Sie als natürlicher empfunden?</p>","key_press":70,"test_part":"response","test_stimulus":{"position":0,"left":"bvh/return-bottle-hold-training2-lines.txt","right":"bvh/vr_prediction_models/model(dmp)-dataset(return-bottle-hold)-npsi(50)-hold(2)/final-lines.txt","att_check":false},"trial_type":"html-keyboard-response","trial_index":10,"time_elapsed":78214,"internal_node_id":"0.0-8.0-3.0","subject":"ddpzqmobtltq5kd","sona":"9313"},{"rt":1298.8799999984622,"stimulus":"<p>Bereit?</p>","key_press":32,"trial_type":"html-keyboard-response","trial_index":11,"time_elapsed":79518,"internal_node_id":"0.0-8.0-0.1","subject":"ddpzqmobtltq5kd","sona":"9313"},{"rt":null,"stimulus":"<div style=\"font-size:60px;\">+</div>","key_press":null,"trial_type":"html-keyboard-response","trial_index":12,"time_elapsed":81522,"internal_node_id":"0.0-8.0-1.1","subject":"ddpzqmobtltq5kd","sona":"9313"},{"trial_type":"turing-test","trial_index":13,"time_elapsed":86984,"internal_node_id":"0.0-8.0-2.1","subject":"ddpzqmobtltq5kd","sona":"9313"},{"rt":1663.5050000004412,"stimulus":"<p>Welche Sequenz haben Sie als natürlicher empfunden?</p>","key_press":70,"test_part":"response","test_stimulus":{"position":0,"left":"bvh/return-bottle-training0-lines.txt","right":"bvh/vr_prediction_models/model(vcgpdm)-dataset(return-bottle)-mode(ELBO)-parts(1)-dyn(20)-lvm(20)-hold(0)/final-lines.txt","att_check":false},"trial_type":"html-keyboard-response","trial_index":14,"time_elapsed":88661,"internal_node_id":"0.0-8.0-3.1","subject":"ddpzqmobtltq5kd","sona":"9313"},{"rt":931.4150000027439,"stimulus":"<p>Bereit?</p>","key_press":32,"trial_type":"html-keyboard-response","trial_index":15,"time_elapsed":89595,"internal_node_id":"0.0-8.0-0.2","subject":"ddpzqmobtltq5kd","sona":"9313"},{"rt":null,"stimulus":"<div style=\"font-size:60px;\">+</div>","key_press":null,"trial_type":"html-keyboard-response","trial_index":16,"time_elapsed":91598,"internal_node_id":"0.0-8.0-1.2","subject":"ddpzqmobtltq5kd","sona":"9313"},{"trial_type":"turing-test","trial_index":17,"time_elapsed":97397,"internal_node_id":"0.0-8.0-2.2","subject":"ddpzqmobtltq5kd","sona":"9313"},{"rt":364.2550000004121,"stimulus":"<p>Welche Sequenz haben Sie als natürlicher empfunden?</p>","key_press":74,"test_part":"response","test_stimulus":{"position":1,"left":"bvh/vr_prediction_models/model(tmp)-dataset(pass-bottle)-numprim(4)-hold(3)/final-lines.txt","right":"bvh/pass-bottle-training3-lines.txt","att_check":false},"trial_type":"html-keyboard-response","trial_index":18,"time_elapsed":97769,"internal_node_id":"0.0-8.0-3.2","subject":"ddpzqmobtltq5kd","sona":"9313"},{"rt":990.1549999995041,"stimulus":"<p>Bereit?</p>","key_press":32,"trial_type":"html-keyboard-response","trial_index":19,"time_elapsed":98764,"internal_node_id":"0.0-8.0-0.3","subject":"ddpzqmobtltq5kd","sona":"9313"},{"rt":null,"stimulus":"<div style=\"font-size:60px;\">+</div>","key_press":null,"trial_type":"html-keyboard-response","trial_index":20,"time_elapsed":100768,"internal_node_id":"0.0-8.0-1.3","subject":"ddpzqmobtltq5kd","sona":"9313"},{"trial_type":"turing-test","trial_index":21,"time_elapsed":104520,"internal_node_id":"0.0-8.0-2.3","subject":"ddpzqmobtltq5kd","sona":"9313"},{"rt":606.9849999985308,"stimulus":"<p>Welche Sequenz haben Sie als natürlicher empfunden?</p>","key_press":74,"test_part":"response","test_stimulus":{"position":1,"left":"bvh/vr_prediction_models/model(dmp)-dataset(return-bottle-hold)-npsi(60)-hold(3)/final-lines.txt","right":"bvh/return-bottle-hold-training3-lines.txt","att_check":false},"trial_type":"html-keyboard-response","trial_index":22,"time_elapsed":105136,"internal_node_id":"0.0-8.0-3.3","subject":"ddpzqmobtltq5kd","sona":"9313"},{"rt":557.5600000011036,"stimulus":"<p>Bereit?</p>","key_press":32,"trial_type":"html-keyboard-response","trial_index":23,"time_elapsed":105698,"internal_node_id":"0.0-8.0-0.4","subject":"ddpzqmobtltq5kd","sona":"9313"},{"rt":null,"stimulus":"<div style=\"font-size:60px;\">+</div>","key_press":null,"trial_type":"html-keyboard-response","trial_index":24,"time_elapsed":107702,"internal_node_id":"0.0-8.0-1.4","subject":"ddpzqmobtltq5kd","sona":"9313"},{"trial_type":"turing-test","trial_index":25,"time_elapsed":111079,"internal_node_id":"0.0-8.0-2.4","subject":"ddpzqmobtltq5kd","sona":"9313"},{"rt":344.1050000001269,"stimulus":"<p>Welche Sequenz haben Sie als natürlicher empfunden?</p>","key_press":74,"test_part":"response","test_stimulus":{"position":0,"left":"bvh/return-bottle-hold-training2-lines.txt","right":"bvh/vr_prediction_models/model(tmp)-dataset(return-bottle-hold)-numprim(6)-hold(2)/final-lines.txt","att_check":false},"trial_type":"html-keyboard-response","trial_index":26,"time_elapsed":111434,"internal_node_id":"0.0-8.0-3.4","subject":"ddpzqmobtltq5kd","sona":"9313"},{"rt":617.8949999994074,"stimulus":"<p>Bereit?</p>","key_press":32,"trial_type":"html-keyboard-response","trial_index":27,"time_elapsed":112057,"internal_node_id":"0.0-8.0-0.5","subject":"ddpzqmobtltq5kd","sona":"9313"},{"rt":null,"stimulus":"<div style=\"font-size:60px;\">+</div>","key_press":null,"trial_type":"html-keyboard-response","trial_index":28,"time_elapsed":114060,"internal_node_id":"0.0-8.0-1.5","subject":"ddpzqmobtltq5kd","sona":"9313"},{"trial_type":"turing-test","trial_index":29,"time_elapsed":119897,"internal_node_id":"0.0-8.0-2.5","subject":"ddpzqmobtltq5kd","sona":"9313"},{"rt":575.1200000013341,"stimulus":"<p>Welche Sequenz haben Sie als natürlicher empfunden?</p>","key_press":74,"test_part":"response","test_stimulus":{"position":1,"left":"bvh/vr_prediction_models/model(vcgpdm)-dataset(pass-bottle)-mode(ELBO)-parts(1)-dyn(20)-lvm(30)-hold(3)/final-lines.txt","right":"bvh/pass-bottle-training3-lines.txt","att_check":false},"trial_type":"html-keyboard-response","trial_index":30,"time_elapsed":120480,"internal_node_id":"0.0-8.0-3.5","subject":"ddpzqmobtltq5kd","sona":"9313"},{"rt":880.5500000016764,"stimulus":"<p>Bereit?</p>","key_press":32,"trial_type":"html-keyboard-response","trial_index":31,"time_elapsed":121363,"internal_node_id":"0.0-8.0-0.6","subject":"ddpzqmobtltq5kd","sona":"9313"},{"rt":null,"stimulus":"<div style=\"font-size:60px;\">+</div>","key_press":null,"trial_type":"html-keyboard-response","trial_index":32,"time_elapsed":123367,"internal_node_id":"0.0-8.0-1.6","subject":"ddpzqmobtltq5kd","sona":"9313"},{"trial_type":"turing-test","trial_index":33,"time_elapsed":130183,"internal_node_id":"0.0-8.0-2.6","subject":"ddpzqmobtltq5kd","sona":"9313"},{"rt":359.44500000186963,"stimulus":"<p>Welche Sequenz haben Sie als natürlicher empfunden?</p>","key_press":70,"test_part":"response","test_stimulus":{"position":0,"left":"bvh/pass-bottle-training0-lines.txt","right":"bvh/vr_prediction_models/model(vcgpdm)-dataset(pass-bottle)-mode(ELBO)-parts(3)-dyn(25)-lvm(25)-hold(0)/final-lines.txt","att_check":false},"trial_type":"html-keyboard-response","trial_index":34,"time_elapsed":130552,"internal_node_id":"0.0-8.0-3.6","subject":"ddpzqmobtltq5kd","sona":"9313"},{"rt":515.6449999994948,"stimulus":"<p>Bereit?</p>","key_press":32,"trial_type":"html-keyboard-response","trial_index":35,"time_elapsed":131074,"internal_node_id":"0.0-8.0-0.7","subject":"ddpzqmobtltq5kd","sona":"9313"},{"rt":null,"stimulus":"<div style=\"font-size:60px;\">+</div>","key_press":null,"trial_type":"html-keyboard-response","trial_index":36,"time_elapsed":133078,"internal_node_id":"0.0-8.0-1.7","subject":"ddpzqmobtltq5kd","sona":"9313"},{"trial_type":"turing-test","trial_index":37,"time_elapsed":136751,"internal_node_id":"0.0-8.0-2.7","subject":"ddpzqmobtltq5kd","sona":"9313"},{"rt":582.7000000026601,"stimulus":"<p>Welche Sequenz haben Sie als natürlicher empfunden?</p>","key_press":74,"test_part":"response","test_stimulus":{"position":0,"left":"bvh/pass-bottle-hold-training4-lines.txt","right":"bvh/vr_prediction_models/model(vcgpdm)-dataset(pass-bottle-hold)-mode(ELBO)-parts(1)-dyn(10)-lvm(5)-hold(4)/final-lines.txt","att_check":false},"trial_type":"html-keyboard-response","trial_index":38,"time_elapsed":137345,"internal_node_id":"0.0-8.0-3.7","subject":"ddpzqmobtltq5kd","sona":"9313"},{"rt":478.0299999983981,"stimulus":"<p>Bereit?</p>","key_press":32,"trial_type":"html-keyboard-response","trial_index":39,"time_elapsed":137827,"internal_node_id":"0.0-8.0-0.8","subject":"ddpzqmobtltq5kd","sona":"9313"},{"rt":null,"stimulus":"<div style=\"font-size:60px;\">+</div>","key_press":null,"trial_type":"html-keyboard-response","trial_index":40,"time_elapsed":139831,"internal_node_id":"0.0-8.0-1.8","subject":"ddpzqmobtltq5kd","sona":"9313"},{"trial_type":"turing-test","trial_index":41,"time_elapsed":145958,"internal_node_id":"0.0-8.0-2.8","subject":"ddpzqmobtltq5kd","sona":"9313"},{"rt":388.40500000151224,"stimulus":"<p>Welche Sequenz haben Sie als natürlicher empfunden?</p>","key_press":74,"test_part":"response","test_stimulus":{"position":1,"left":"bvh/vr_prediction_models/model(vcgpdm)-dataset(return-bottle)-mode(ELBO)-parts(1)-dyn(10)-lvm(5)-hold(1)/final-lines.txt","right":"bvh/return-bottle-training1-lines.txt","att_check":false},"trial_type":"html-keyboard-response","trial_index":42,"time_elapsed":146356,"internal_node_id":"0.0-8.0-3.8","subject":"ddpzqmobtltq5kd","sona":"9313"},{"rt":618.8800000018091,"stimulus":"<p>Bereit?</p>","key_press":32,"trial_type":"html-keyboard-response","trial_index":43,"time_elapsed":146980,"internal_node_id":"0.0-8.0-0.9","subject":"ddpzqmobtltq5kd","sona":"9313"},{"rt":null,"stimulus":"<div style=\"font-size:60px;\">+</div>","key_press":null,"trial_type":"html-keyboard-response","trial_index":44,"time_elapsed":148981,"internal_node_id":"0.0-8.0-1.9","subject":"ddpzqmobtltq5kd","sona":"9313"},{"trial_type":"turing-test","trial_index":45,"time_elapsed":152659,"internal_node_id":"0.0-8.0-2.9","subject":"ddpzqmobtltq5kd","sona":"9313"},{"rt":684.3100000005506,"stimulus":"<p>Welche Sequenz haben Sie als natürlicher empfunden?</p>","key_press":70,"test_part":"response","test_stimulus":{"position":0,"left":"bvh/return-bottle-hold-training3-lines.txt","right":"bvh/vr_prediction_models/model(vcgpdm)-dataset(return-bottle-hold)-mode(ELBO)-parts(1)-dyn(30)-lvm(35)-hold(3)/final-lines.txt","att_check":false},"trial_type":"html-keyboard-response","trial_index":46,"time_elapsed":153353,"internal_node_id":"0.0-8.0-3.9","subject":"ddpzqmobtltq5kd","sona":"9313"},{"rt":537.8899999996065,"stimulus":"<p>Bereit?</p>","key_press":32,"trial_type":"html-keyboard-response","trial_index":47,"time_elapsed":153895,"internal_node_id":"0.0-8.0-0.10","subject":"ddpzqmobtltq5kd","sona":"9313"},{"rt":null,"stimulus":"<div style=\"font-size:60px;\">+</div>","key_press":null,"trial_type":"html-keyboard-response","trial_index":48,"time_elapsed":155899,"internal_node_id":"0.0-8.0-1.10","subject":"ddpzqmobtltq5kd","sona":"9313"},{"trial_type":"turing-test","trial_index":49,"time_elapsed":162636,"internal_node_id":"0.0-8.0-2.10","subject":"ddpzqmobtltq5kd","sona":"9313"},{"rt":749.1950000003271,"stimulus":"<p>Welche Sequenz haben Sie als natürlicher empfunden?</p>","key_press":74,"test_part":"response","test_stimulus":{"position":1,"left":"bvh/vr_prediction_models/model(vcgpdm)-dataset(pass-bottle)-mode(MAP)-parts(1)-hold(0)/final-lines.txt","right":"bvh/pass-bottle-training0-lines.txt","att_check":false},"trial_type":"html-keyboard-response","trial_index":50,"time_elapsed":163394,"internal_node_id":"0.0-8.0-3.10","subject":"ddpzqmobtltq5kd","sona":"9313"},{"rt":654.1499999984808,"stimulus":"<p>Bereit?</p>","key_press":32,"trial_type":"html-keyboard-response","trial_index":51,"time_elapsed":164059,"internal_node_id":"0.0-8.0-0.11","subject":"ddpzqmobtltq5kd","sona":"9313"},{"rt":null,"stimulus":"<div style=\"font-size:60px;\">+</div>","key_press":null,"trial_type":"html-keyboard-response","trial_index":52,"time_elapsed":166062,"internal_node_id":"0.0-8.0-1.11","subject":"ddpzqmobtltq5kd","sona":"9313"}]