[{"rt":23480.745000008028,"stimulus":"<p>Welcome!<br> Please choose your language to start the experiment in the chosen language.</p><p>Willkommen!<br> Bitte wählen Sie eine Sprache, um das Experiment in der ausgewählten Sprache zu starten</p>","button_pressed":"1","trial_type":"html-button-response","trial_index":0,"time_elapsed":23493,"internal_node_id":"0.0-0.0","subject":"lz3e8z0b1lymu5u","sona":"9688"},{"view_history":"[{\"page_index\":0,\"viewing_time\":1004.2750000138767},{\"page_index\":1,\"viewing_time\":1123.8699999812525},{\"page_index\":2,\"viewing_time\":1167.8649999957997},{\"page_index\":3,\"viewing_time\":857.994999998482},{\"page_index\":4,\"viewing_time\":3498.2400000153575}]","rt":7652.83500001533,"trial_type":"instructions","trial_index":1,"time_elapsed":31146,"internal_node_id":"0.0-1.0-0.0","subject":"lz3e8z0b1lymu5u","sona":"9688"},{"rt":3013.325000007171,"stimulus":"<p>Bereit?</p>","key_press":32,"trial_type":"html-keyboard-response","trial_index":2,"time_elapsed":34161,"internal_node_id":"0.0-3.0","subject":"lz3e8z0b1lymu5u","sona":"9688"},{"rt":null,"stimulus":"<div style=\"font-size:60px;\">+</div>","key_press":null,"trial_type":"html-keyboard-response","trial_index":3,"time_elapsed":36163,"internal_node_id":"0.0-4.0","subject":"lz3e8z0b1lymu5u","sona":"9688"},{"trial_type":"training","trial_index":4,"time_elapsed":39369,"internal_node_id":"0.0-5.0","subject":"lz3e8z0b1lymu5u","sona":"9688"},{"rt":544.4199999910779,"stimulus":"<p>Welche Sequenz haben Sie als natürlicher empfunden?</p>","key_press":70,"trial_type":"html-keyboard-response","trial_index":5,"time_elapsed":39914,"internal_node_id":"0.0-6.0","subject":"lz3e8z0b1lymu5u","sona":"9688"},{"rt":2538.994999980787,"stimulus":"<p>Das Experiment startet nun.</p><p><small>Bitte drücken Sie den Knopf, wenn Sie bereit sind.</small></p>","button_pressed":"0","trial_type":"html-button-response","trial_index":6,"time_elapsed":42454,"internal_node_id":"0.0-7.0","subject":"lz3e8z0b1lymu5u","sona":"9688"},{"rt":792.3100000189152,"stimulus":"<p>Bereit?</p>","key_press":32,"trial_type":"html-keyboard-response","trial_index":7,"time_elapsed":43247,"internal_node_id":"0.0-8.0-0.0","subject":"lz3e8z0b1lymu5u","sona":"9688"},{"rt":null,"stimulus":"<div style=\"font-size:60px;\">+</div>","key_press":null,"trial_type":"html-keyboard-response","trial_index":8,"time_elapsed":45250,"internal_node_id":"0.0-8.0-1.0","subject":"lz3e8z0b1lymu5u","sona":"9688"},{"trial_type":"turing-test","trial_index":9,"time_elapsed":51308,"internal_node_id":"0.0-8.0-2.0","subject":"lz3e8z0b1lymu5u","sona":"9688"},{"rt":602.3649999988265,"stimulus":"<p>Welche Sequenz haben Sie als natürlicher empfunden?</p>","key_press":74,"test_part":"response","test_stimulus":{"position":1,"left":"bvh/vr_prediction_models/model(vcgpdm)-dataset(return-bottle)-mode(ELBO)-parts(3)-dyn(35)-lvm(20)-hold(1)/final-lines.txt","right":"bvh/return-bottle-training1-lines.txt","att_check":false},"trial_type":"html-keyboard-response","trial_index":10,"time_elapsed":51913,"internal_node_id":"0.0-8.0-3.0","subject":"lz3e8z0b1lymu5u","sona":"9688"},{"rt":183.61500001628883,"stimulus":"<p>Bereit?</p>","key_press":32,"trial_type":"html-keyboard-response","trial_index":11,"time_elapsed":52098,"internal_node_id":"0.0-8.0-0.1","subject":"lz3e8z0b1lymu5u","sona":"9688"},{"rt":null,"stimulus":"<div style=\"font-size:60px;\">+</div>","key_press":null,"trial_type":"html-keyboard-response","trial_index":12,"time_elapsed":54099,"internal_node_id":"0.0-8.0-1.1","subject":"lz3e8z0b1lymu5u","sona":"9688"},{"trial_type":"turing-test","trial_index":13,"time_elapsed":60116,"internal_node_id":"0.0-8.0-2.1","subject":"lz3e8z0b1lymu5u","sona":"9688"},{"rt":446.3850000174716,"stimulus":"<p>Welche Sequenz haben Sie als natürlicher empfunden?</p>","key_press":74,"test_part":"response","test_stimulus":{"position":1,"left":"bvh/vr_prediction_models/model(tmp)-dataset(pass-bottle)-numprim(3)-hold(2)/final-lines.txt","right":"bvh/pass-bottle-training2-lines.txt","att_check":false},"trial_type":"html-keyboard-response","trial_index":14,"time_elapsed":60563,"internal_node_id":"0.0-8.0-3.1","subject":"lz3e8z0b1lymu5u","sona":"9688"},{"rt":184.5000000030268,"stimulus":"<p>Bereit?</p>","key_press":32,"trial_type":"html-keyboard-response","trial_index":15,"time_elapsed":60749,"internal_node_id":"0.0-8.0-0.2","subject":"lz3e8z0b1lymu5u","sona":"9688"},{"rt":null,"stimulus":"<div style=\"font-size:60px;\">+</div>","key_press":null,"trial_type":"html-keyboard-response","trial_index":16,"time_elapsed":62750,"internal_node_id":"0.0-8.0-1.2","subject":"lz3e8z0b1lymu5u","sona":"9688"},{"trial_type":"turing-test","trial_index":17,"time_elapsed":69228,"internal_node_id":"0.0-8.0-2.2","subject":"lz3e8z0b1lymu5u","sona":"9688"},{"rt":310.1449999958277,"stimulus":"<p>Welche Sequenz haben Sie als natürlicher empfunden?</p>","key_press":70,"test_part":"response","test_stimulus":{"position":0,"left":"bvh/return-bottle-training2-lines.txt","right":"bvh/vr_prediction_models/model(tmp)-dataset(return-bottle)-numprim(3)-hold(2)/final-lines.txt","att_check":false},"trial_type":"html-keyboard-response","trial_index":18,"time_elapsed":69539,"internal_node_id":"0.0-8.0-3.2","subject":"lz3e8z0b1lymu5u","sona":"9688"},{"rt":199.1699999780394,"stimulus":"<p>Bereit?</p>","key_press":32,"trial_type":"html-keyboard-response","trial_index":19,"time_elapsed":69740,"internal_node_id":"0.0-8.0-0.3","subject":"lz3e8z0b1lymu5u","sona":"9688"},{"rt":null,"stimulus":"<div style=\"font-size:60px;\">+</div>","key_press":null,"trial_type":"html-keyboard-response","trial_index":20,"time_elapsed":71743,"internal_node_id":"0.0-8.0-1.3","subject":"lz3e8z0b1lymu5u","sona":"9688"},{"trial_type":"turing-test","trial_index":21,"time_elapsed":77726,"internal_node_id":"0.0-8.0-2.3","subject":"lz3e8z0b1lymu5u","sona":"9688"},{"rt":422.82999999588355,"stimulus":"<p>Welche Sequenz haben Sie als natürlicher empfunden?</p>","key_press":70,"test_part":"response","test_stimulus":{"position":0,"left":"bvh/return-bottle-training1-lines.txt","right":"bvh/vr_prediction_models/model(dmp)-dataset(return-bottle)-npsi(60)-hold(1)/final-lines.txt","att_check":false},"trial_type":"html-keyboard-response","trial_index":22,"time_elapsed":78150,"internal_node_id":"0.0-8.0-3.3","subject":"lz3e8z0b1lymu5u","sona":"9688"},{"rt":198.15999999991618,"stimulus":"<p>Bereit?</p>","key_press":32,"trial_type":"html-keyboard-response","trial_index":23,"time_elapsed":78350,"internal_node_id":"0.0-8.0-0.4","subject":"lz3e8z0b1lymu5u","sona":"9688"},{"rt":null,"stimulus":"<div style=\"font-size:60px;\">+</div>","key_press":null,"trial_type":"html-keyboard-response","trial_index":24,"time_elapsed":80353,"internal_node_id":"0.0-8.0-1.4","subject":"lz3e8z0b1lymu5u","sona":"9688"},{"trial_type":"turing-test","trial_index":25,"time_elapsed":83616,"internal_node_id":"0.0-8.0-2.4","subject":"lz3e8z0b1lymu5u","sona":"9688"},{"rt":1028.424999996787,"stimulus":"<p>Welche Sequenz haben Sie als natürlicher empfunden?</p>","key_press":70,"test_part":"response","test_stimulus":{"position":0,"left":"bvh/pass-bottle-hold-training0-lines.txt","right":"bvh/vr_prediction_models/model(tmp)-dataset(pass-bottle-hold)-numprim(7)-hold(0)/final-lines.txt","att_check":false},"trial_type":"html-keyboard-response","trial_index":26,"time_elapsed":84646,"internal_node_id":"0.0-8.0-3.4","subject":"lz3e8z0b1lymu5u","sona":"9688"},{"rt":194.21499999589287,"stimulus":"<p>Bereit?</p>","key_press":32,"trial_type":"html-keyboard-response","trial_index":27,"time_elapsed":84841,"internal_node_id":"0.0-8.0-0.5","subject":"lz3e8z0b1lymu5u","sona":"9688"},{"rt":null,"stimulus":"<div style=\"font-size:60px;\">+</div>","key_press":null,"trial_type":"html-keyboard-response","trial_index":28,"time_elapsed":86843,"internal_node_id":"0.0-8.0-1.5","subject":"lz3e8z0b1lymu5u","sona":"9688"},{"trial_type":"turing-test","trial_index":29,"time_elapsed":92544,"internal_node_id":"0.0-8.0-2.5","subject":"lz3e8z0b1lymu5u","sona":"9688"},{"rt":745.6700000038836,"stimulus":"<p>Welche Sequenz haben Sie als natürlicher empfunden?</p>","key_press":74,"test_part":"response","test_stimulus":{"position":0,"left":"bvh/pass-bottle-training4-lines.txt","right":"bvh/vr_prediction_models/model(vcgpdm)-dataset(pass-bottle)-mode(ELBO)-parts(1)-dyn(30)-lvm(20)-hold(4)/final-lines.txt","att_check":false},"trial_type":"html-keyboard-response","trial_index":30,"time_elapsed":93291,"internal_node_id":"0.0-8.0-3.5","subject":"lz3e8z0b1lymu5u","sona":"9688"},{"rt":143.47000000998378,"stimulus":"<p>Bereit?</p>","key_press":32,"trial_type":"html-keyboard-response","trial_index":31,"time_elapsed":93436,"internal_node_id":"0.0-8.0-0.6","subject":"lz3e8z0b1lymu5u","sona":"9688"},{"rt":null,"stimulus":"<div style=\"font-size:60px;\">+</div>","key_press":null,"trial_type":"html-keyboard-response","trial_index":32,"time_elapsed":95438,"internal_node_id":"0.0-8.0-1.6","subject":"lz3e8z0b1lymu5u","sona":"9688"},{"trial_type":"turing-test","trial_index":33,"time_elapsed":101202,"internal_node_id":"0.0-8.0-2.6","subject":"lz3e8z0b1lymu5u","sona":"9688"},{"rt":358.1650000123773,"stimulus":"<p>Welche Sequenz haben Sie als natürlicher empfunden?</p>","key_press":70,"test_part":"response","test_stimulus":{"position":0,"left":"bvh/return-bottle-training4-lines.txt","right":"bvh/vr_prediction_models/model(vcgpdm)-dataset(return-bottle)-mode(ELBO)-parts(3)-dyn(35)-lvm(20)-hold(4)/final-lines.txt","att_check":false},"trial_type":"html-keyboard-response","trial_index":34,"time_elapsed":101561,"internal_node_id":"0.0-8.0-3.6","subject":"lz3e8z0b1lymu5u","sona":"9688"},{"rt":133.17999997525476,"stimulus":"<p>Bereit?</p>","key_press":32,"trial_type":"html-keyboard-response","trial_index":35,"time_elapsed":101696,"internal_node_id":"0.0-8.0-0.7","subject":"lz3e8z0b1lymu5u","sona":"9688"},{"rt":null,"stimulus":"<div style=\"font-size:60px;\">+</div>","key_press":null,"trial_type":"html-keyboard-response","trial_index":36,"time_elapsed":103699,"internal_node_id":"0.0-8.0-1.7","subject":"lz3e8z0b1lymu5u","sona":"9688"},{"trial_type":"turing-test","trial_index":37,"time_elapsed":107266,"internal_node_id":"0.0-8.0-2.7","subject":"lz3e8z0b1lymu5u","sona":"9688"},{"rt":402.8499999840278,"stimulus":"<p>Welche Sequenz haben Sie als natürlicher empfunden?</p>","key_press":70,"test_part":"response","test_stimulus":{"position":1,"left":"bvh/vr_prediction_models/model(dmp)-dataset(return-bottle-hold)-npsi(40)-hold(3)/final-lines.txt","right":"bvh/return-bottle-hold-training3-lines.txt","att_check":true},"trial_type":"html-keyboard-response","trial_index":38,"time_elapsed":107670,"internal_node_id":"0.0-8.0-3.7","subject":"lz3e8z0b1lymu5u","sona":"9688"},{"rt":154.37500001280569,"stimulus":"<p>Bereit?</p>","key_press":32,"trial_type":"html-keyboard-response","trial_index":39,"time_elapsed":107826,"internal_node_id":"0.0-8.0-0.8","subject":"lz3e8z0b1lymu5u","sona":"9688"},{"rt":null,"stimulus":"<div style=\"font-size:60px;\">+</div>","key_press":null,"trial_type":"html-keyboard-response","trial_index":40,"time_elapsed":109829,"internal_node_id":"0.0-8.0-1.8","subject":"lz3e8z0b1lymu5u","sona":"9688"},{"trial_type":"turing-test","trial_index":41,"time_elapsed":113074,"internal_node_id":"0.0-8.0-2.8","subject":"lz3e8z0b1lymu5u","sona":"9688"},{"rt":604.124999983469,"stimulus":"<p>Welche Sequenz haben Sie als natürlicher empfunden?</p>","key_press":70,"test_part":"response","test_stimulus":{"position":0,"left":"bvh/pass-bottle-hold-training2-lines.txt","right":"bvh/vr_prediction_models/model(tmp)-dataset(pass-bottle-hold)-numprim(7)-hold(2)/final-lines.txt","att_check":false},"trial_type":"html-keyboard-response","trial_index":42,"time_elapsed":113679,"internal_node_id":"0.0-8.0-3.8","subject":"lz3e8z0b1lymu5u","sona":"9688"},{"rt":143.9949999912642,"stimulus":"<p>Bereit?</p>","key_press":32,"trial_type":"html-keyboard-response","trial_index":43,"time_elapsed":113825,"internal_node_id":"0.0-8.0-0.9","subject":"lz3e8z0b1lymu5u","sona":"9688"},{"rt":null,"stimulus":"<div style=\"font-size:60px;\">+</div>","key_press":null,"trial_type":"html-keyboard-response","trial_index":44,"time_elapsed":115827,"internal_node_id":"0.0-8.0-1.9","subject":"lz3e8z0b1lymu5u","sona":"9688"},{"trial_type":"turing-test","trial_index":45,"time_elapsed":121580,"internal_node_id":"0.0-8.0-2.9","subject":"lz3e8z0b1lymu5u","sona":"9688"},{"rt":663.845000002766,"stimulus":"<p>Welche Sequenz haben Sie als natürlicher empfunden?</p>","key_press":70,"test_part":"response","test_stimulus":{"position":0,"left":"bvh/pass-bottle-training3-lines.txt","right":"bvh/vr_prediction_models/model(vcgpdm)-dataset(pass-bottle)-mode(ELBO)-parts(1)-dyn(25)-lvm(35)-hold(3)/final-lines.txt","att_check":false},"trial_type":"html-keyboard-response","trial_index":46,"time_elapsed":122246,"internal_node_id":"0.0-8.0-3.9","subject":"lz3e8z0b1lymu5u","sona":"9688"},{"rt":304.3300000135787,"stimulus":"<p>Bereit?</p>","key_press":32,"trial_type":"html-keyboard-response","trial_index":47,"time_elapsed":122551,"internal_node_id":"0.0-8.0-0.10","subject":"lz3e8z0b1lymu5u","sona":"9688"},{"rt":null,"stimulus":"<div style=\"font-size:60px;\">+</div>","key_press":null,"trial_type":"html-keyboard-response","trial_index":48,"time_elapsed":124553,"internal_node_id":"0.0-8.0-1.10","subject":"lz3e8z0b1lymu5u","sona":"9688"},{"trial_type":"turing-test","trial_index":49,"time_elapsed":129906,"internal_node_id":"0.0-8.0-2.10","subject":"lz3e8z0b1lymu5u","sona":"9688"},{"rt":697.9799999971874,"stimulus":"<p>Welche Sequenz haben Sie als natürlicher empfunden?</p>","key_press":70,"test_part":"response","test_stimulus":{"position":1,"left":"bvh/vr_prediction_models/model(tmp)-dataset(pass-bottle)-numprim(3)-hold(1)/final-lines.txt","right":"bvh/pass-bottle-training1-lines.txt","att_check":false},"trial_type":"html-keyboard-response","trial_index":50,"time_elapsed":130605,"internal_node_id":"0.0-8.0-3.10","subject":"lz3e8z0b1lymu5u","sona":"9688"},{"rt":263.6050000146497,"stimulus":"<p>Bereit?</p>","key_press":32,"trial_type":"html-keyboard-response","trial_index":51,"time_elapsed":130870,"internal_node_id":"0.0-8.0-0.11","subject":"lz3e8z0b1lymu5u","sona":"9688"},{"rt":null,"stimulus":"<div style=\"font-size:60px;\">+</div>","key_press":null,"trial_type":"html-keyboard-response","trial_index":52,"time_elapsed":132872,"internal_node_id":"0.0-8.0-1.11","subject":"lz3e8z0b1lymu5u","sona":"9688"}]