[{"rt":3631,"stimulus":"Ready?","button_pressed":"0","trial_type":"html-button-response","trial_index":0,"time_elapsed":3672,"internal_node_id":"0.0-0.0-0.0","subject":"2poyskxx5wn6jdr"},{"rt":null,"stimulus":"<div>First sequence</div><div style=\"font-size:60px;\">+</div>","key_press":null,"trial_type":"html-keyboard-response","trial_index":1,"time_elapsed":5694,"internal_node_id":"0.0-0.0-1.0","subject":"2poyskxx5wn6jdr"},{"trial_type":"turing-test","trial_index":2,"time_elapsed":11714,"internal_node_id":"0.0-0.0-2.0","subject":"2poyskxx5wn6jdr"},{"rt":3516,"stimulus":"Which sequence did you perceive as more natural?","button_pressed":"0","test_part":"response","trial_type":"html-button-response","trial_index":3,"time_elapsed":15245,"internal_node_id":"0.0-0.0-3.0","subject":"2poyskxx5wn6jdr"},{"rt":2470.999999999998,"stimulus":"Ready?","button_pressed":"0","trial_type":"html-button-response","trial_index":4,"time_elapsed":17730,"internal_node_id":"0.0-0.0-0.1","subject":"2poyskxx5wn6jdr"},{"rt":null,"stimulus":"<div>First sequence</div><div style=\"font-size:60px;\">+</div>","key_press":null,"trial_type":"html-keyboard-response","trial_index":5,"time_elapsed":19734,"internal_node_id":"0.0-0.0-1.1","subject":"2poyskxx5wn6jdr"},{"trial_type":"turing-test","trial_index":6,"time_elapsed":25351,"internal_node_id":"0.0-0.0-2.1","subject":"2poyskxx5wn6jdr"},{"rt":6669,"stimulus":"Which sequence did you perceive as more natural?","button_pressed":"1","test_part":"response","trial_type":"html-button-response","trial_index":7,"time_elapsed":32031,"internal_node_id":"0.0-0.0-3.1","subject":"2poyskxx5wn6jdr"},{"rt":2301.9999999999964,"stimulus":"Ready?","button_pressed":"0","trial_type":"html-button-response","trial_index":8,"time_elapsed":34348,"internal_node_id":"0.0-0.0-0.2","subject":"2poyskxx5wn6jdr"},{"rt":null,"stimulus":"<div>First sequence</div><div style=\"font-size:60px;\">+</div>","key_press":null,"trial_type":"html-keyboard-response","trial_index":9,"time_elapsed":36352,"internal_node_id":"0.0-0.0-1.2","subject":"2poyskxx5wn6jdr"},{"trial_type":"turing-test","trial_index":10,"time_elapsed":41969,"internal_node_id":"0.0-0.0-2.2","subject":"2poyskxx5wn6jdr"},{"rt":4051,"stimulus":"Which sequence did you perceive as more natural?","button_pressed":"0","test_part":"response","trial_type":"html-button-response","trial_index":11,"time_elapsed":46031,"internal_node_id":"0.0-0.0-3.2","subject":"2poyskxx5wn6jdr"},{"rt":1437,"stimulus":"Ready?","button_pressed":"0","trial_type":"html-button-response","trial_index":12,"time_elapsed":47480,"internal_node_id":"0.0-0.0-0.3","subject":"2poyskxx5wn6jdr"},{"rt":null,"stimulus":"<div>First sequence</div><div style=\"font-size:60px;\">+</div>","key_press":null,"trial_type":"html-keyboard-response","trial_index":13,"time_elapsed":49484,"internal_node_id":"0.0-0.0-1.3","subject":"2poyskxx5wn6jdr"},{"trial_type":"turing-test","trial_index":14,"time_elapsed":52835,"internal_node_id":"0.0-0.0-2.3","subject":"2poyskxx5wn6jdr"},{"rt":19181,"stimulus":"Which sequence did you perceive as more natural?","button_pressed":"1","test_part":"response","trial_type":"html-button-response","trial_index":15,"time_elapsed":72032,"internal_node_id":"0.0-0.0-3.3","subject":"2poyskxx5wn6jdr"},{"rt":4036,"stimulus":"Ready?","button_pressed":"0","trial_type":"html-button-response","trial_index":16,"time_elapsed":76084,"internal_node_id":"0.0-0.0-0.4","subject":"2poyskxx5wn6jdr"},{"rt":null,"stimulus":"<div>First sequence</div><div style=\"font-size:60px;\">+</div>","key_press":null,"trial_type":"html-keyboard-response","trial_index":17,"time_elapsed":78088,"internal_node_id":"0.0-0.0-1.4","subject":"2poyskxx5wn6jdr"},{"trial_type":"turing-test","trial_index":18,"time_elapsed":83960,"internal_node_id":"0.0-0.0-2.4","subject":"2poyskxx5wn6jdr"},{"rt":2143.9999999999854,"stimulus":"Which sequence did you perceive as more natural?","button_pressed":"1","test_part":"response","trial_type":"html-button-response","trial_index":19,"time_elapsed":86115,"internal_node_id":"0.0-0.0-3.4","subject":"2poyskxx5wn6jdr"},{"rt":1383,"stimulus":"Ready?","button_pressed":"0","trial_type":"html-button-response","trial_index":20,"time_elapsed":87511,"internal_node_id":"0.0-0.0-0.5","subject":"2poyskxx5wn6jdr"},{"rt":null,"stimulus":"<div>First sequence</div><div style=\"font-size:60px;\">+</div>","key_press":null,"trial_type":"html-keyboard-response","trial_index":21,"time_elapsed":89516,"internal_node_id":"0.0-0.0-1.5","subject":"2poyskxx5wn6jdr"},{"trial_type":"turing-test","trial_index":22,"time_elapsed":95140,"internal_node_id":"0.0-0.0-2.5","subject":"2poyskxx5wn6jdr"},{"rt":2265,"stimulus":"Which sequence did you perceive as more natural?","button_pressed":"1","test_part":"response","trial_type":"html-button-response","trial_index":23,"time_elapsed":97417,"internal_node_id":"0.0-0.0-3.5","subject":"2poyskxx5wn6jdr"},{"rt":986,"stimulus":"Ready?","button_pressed":"0","trial_type":"html-button-response","trial_index":24,"time_elapsed":98415,"internal_node_id":"0.0-0.0-0.6","subject":"2poyskxx5wn6jdr"},{"rt":null,"stimulus":"<div>First sequence</div><div style=\"font-size:60px;\">+</div>","key_press":null,"trial_type":"html-keyboard-response","trial_index":25,"time_elapsed":100420,"internal_node_id":"0.0-0.0-1.6","subject":"2poyskxx5wn6jdr"},{"trial_type":"turing-test","trial_index":26,"time_elapsed":106061,"internal_node_id":"0.0-0.0-2.6","subject":"2poyskxx5wn6jdr"},{"rt":3268,"stimulus":"Which sequence did you perceive as more natural?","button_pressed":"0","test_part":"response","trial_type":"html-button-response","trial_index":27,"time_elapsed":109340,"internal_node_id":"0.0-0.0-3.6","subject":"2poyskxx5wn6jdr"},{"rt":1535,"stimulus":"Ready?","button_pressed":"0","trial_type":"html-button-response","trial_index":28,"time_elapsed":110886,"internal_node_id":"0.0-0.0-0.7","subject":"2poyskxx5wn6jdr"},{"rt":null,"stimulus":"<div>First sequence</div><div style=\"font-size:60px;\">+</div>","key_press":null,"trial_type":"html-keyboard-response","trial_index":29,"time_elapsed":112891,"internal_node_id":"0.0-0.0-1.7","subject":"2poyskxx5wn6jdr"},{"trial_type":"turing-test","trial_index":30,"time_elapsed":116001,"internal_node_id":"0.0-0.0-2.7","subject":"2poyskxx5wn6jdr"},{"rt":2519,"stimulus":"Which sequence did you perceive as more natural?","button_pressed":"0","test_part":"response","trial_type":"html-button-response","trial_index":31,"time_elapsed":118534,"internal_node_id":"0.0-0.0-3.7","subject":"2poyskxx5wn6jdr"},{"rt":1469,"stimulus":"Ready?","button_pressed":"0","trial_type":"html-button-response","trial_index":32,"time_elapsed":120015,"internal_node_id":"0.0-0.0-0.8","subject":"2poyskxx5wn6jdr"},{"rt":null,"stimulus":"<div>First sequence</div><div style=\"font-size:60px;\">+</div>","key_press":null,"trial_type":"html-keyboard-response","trial_index":33,"time_elapsed":122022,"internal_node_id":"0.0-0.0-1.8","subject":"2poyskxx5wn6jdr"},{"trial_type":"turing-test","trial_index":34,"time_elapsed":127632,"internal_node_id":"0.0-0.0-2.8","subject":"2poyskxx5wn6jdr"},{"rt":19263,"stimulus":"Which sequence did you perceive as more natural?","button_pressed":"0","test_part":"response","trial_type":"html-button-response","trial_index":35,"time_elapsed":146904,"internal_node_id":"0.0-0.0-3.8","subject":"2poyskxx5wn6jdr"},{"rt":1197,"stimulus":"Ready?","button_pressed":"0","trial_type":"html-button-response","trial_index":36,"time_elapsed":148109,"internal_node_id":"0.0-0.0-0.9","subject":"2poyskxx5wn6jdr"},{"rt":null,"stimulus":"<div>First sequence</div><div style=\"font-size:60px;\">+</div>","key_press":null,"trial_type":"html-keyboard-response","trial_index":37,"time_elapsed":150112,"internal_node_id":"0.0-0.0-1.9","subject":"2poyskxx5wn6jdr"},{"trial_type":"turing-test","trial_index":38,"time_elapsed":153178,"internal_node_id":"0.0-0.0-2.9","subject":"2poyskxx5wn6jdr"},{"rt":6001,"stimulus":"Which sequence did you perceive as more natural?","button_pressed":"1","test_part":"response","trial_type":"html-button-response","trial_index":39,"time_elapsed":159193,"internal_node_id":"0.0-0.0-3.9","subject":"2poyskxx5wn6jdr"}]