[{"rt":1981,"stimulus":"<p>Welcome!<br> Please choose your language to start the experiment in the chosen language.</p><p>Willkommen!<br> Bitte wählen Sie eine Sprache, um das Experiment in der ausgewählten Sprache zu starten</p>","button_pressed":"1","trial_type":"html-button-response","trial_index":0,"time_elapsed":1985,"internal_node_id":"0.0-0.0","subject":"9931zf9f2oh0zww","sona":"9544"},{"view_history":"[{\"page_index\":0,\"viewing_time\":7091},{\"page_index\":1,\"viewing_time\":4223},{\"page_index\":2,\"viewing_time\":9665},{\"page_index\":3,\"viewing_time\":12042},{\"page_index\":4,\"viewing_time\":2710}]","rt":35732,"trial_type":"instructions","trial_index":1,"time_elapsed":37719,"internal_node_id":"0.0-1.0-0.0","subject":"9931zf9f2oh0zww","sona":"9544"},{"rt":1681,"stimulus":"<p>Bereit?</p>","key_press":32,"trial_type":"html-keyboard-response","trial_index":2,"time_elapsed":39402,"internal_node_id":"0.0-3.0","subject":"9931zf9f2oh0zww","sona":"9544"},{"rt":null,"stimulus":"<div style=\"font-size:60px;\">+</div>","key_press":null,"trial_type":"html-keyboard-response","trial_index":3,"time_elapsed":41417,"internal_node_id":"0.0-4.0","subject":"9931zf9f2oh0zww","sona":"9544"},{"trial_type":"training","trial_index":4,"time_elapsed":44746,"internal_node_id":"0.0-5.0","subject":"9931zf9f2oh0zww","sona":"9544"},{"rt":2331,"stimulus":"<p>Welche Sequenz haben Sie als natürlicher empfunden?</p>","key_press":74,"trial_type":"html-keyboard-response","trial_index":5,"time_elapsed":47080,"internal_node_id":"0.0-6.0","subject":"9931zf9f2oh0zww","sona":"9544"},{"rt":3168,"stimulus":"<p>Das Experiment startet nun.</p><p><small>Bitte drücken Sie den Knopf, wenn Sie bereit sind.</small></p>","button_pressed":"0","trial_type":"html-button-response","trial_index":6,"time_elapsed":50249,"internal_node_id":"0.0-7.0","subject":"9931zf9f2oh0zww","sona":"9544"},{"rt":1781,"stimulus":"<p>Bereit?</p>","key_press":32,"trial_type":"html-keyboard-response","trial_index":7,"time_elapsed":52032,"internal_node_id":"0.0-8.0-0.0","subject":"9931zf9f2oh0zww","sona":"9544"},{"rt":null,"stimulus":"<div style=\"font-size:60px;\">+</div>","key_press":null,"trial_type":"html-keyboard-response","trial_index":8,"time_elapsed":54048,"internal_node_id":"0.0-8.0-1.0","subject":"9931zf9f2oh0zww","sona":"9544"},{"trial_type":"turing-test","trial_index":9,"time_elapsed":57579,"internal_node_id":"0.0-8.0-2.0","subject":"9931zf9f2oh0zww","sona":"9544"},{"rt":850,"stimulus":"<p>Welche Sequenz haben Sie als natürlicher empfunden?</p>","key_press":70,"test_part":"response","test_stimulus":{"position":1,"left":"bvh/vr_prediction_models/model(dmp)-dataset(pass-bottle-hold)-npsi(60)-hold(4)/final-lines.txt","right":"bvh/pass-bottle-hold-training4-lines.txt","att_check":false},"trial_type":"html-keyboard-response","trial_index":10,"time_elapsed":58432,"internal_node_id":"0.0-8.0-3.0","subject":"9931zf9f2oh0zww","sona":"9544"},{"rt":1445,"stimulus":"<p>Bereit?</p>","key_press":32,"trial_type":"html-keyboard-response","trial_index":11,"time_elapsed":59879,"internal_node_id":"0.0-8.0-0.1","subject":"9931zf9f2oh0zww","sona":"9544"},{"rt":null,"stimulus":"<div style=\"font-size:60px;\">+</div>","key_press":null,"trial_type":"html-keyboard-response","trial_index":12,"time_elapsed":61900,"internal_node_id":"0.0-8.0-1.1","subject":"9931zf9f2oh0zww","sona":"9544"},{"trial_type":"turing-test","trial_index":13,"time_elapsed":65069,"internal_node_id":"0.0-8.0-2.1","subject":"9931zf9f2oh0zww","sona":"9544"},{"rt":1843,"stimulus":"<p>Welche Sequenz haben Sie als natürlicher empfunden?</p>","key_press":70,"test_part":"response","test_stimulus":{"position":1,"left":"bvh/vr_prediction_models/model(dmp)-dataset(pass-bottle-hold)-npsi(100)-hold(1)/final-lines.txt","right":"bvh/pass-bottle-hold-training1-lines.txt","att_check":false},"trial_type":"html-keyboard-response","trial_index":14,"time_elapsed":66913,"internal_node_id":"0.0-8.0-3.1","subject":"9931zf9f2oh0zww","sona":"9544"},{"rt":810,"stimulus":"<p>Bereit?</p>","key_press":32,"trial_type":"html-keyboard-response","trial_index":15,"time_elapsed":67725,"internal_node_id":"0.0-8.0-0.2","subject":"9931zf9f2oh0zww","sona":"9544"},{"rt":null,"stimulus":"<div style=\"font-size:60px;\">+</div>","key_press":null,"trial_type":"html-keyboard-response","trial_index":16,"time_elapsed":69742,"internal_node_id":"0.0-8.0-1.2","subject":"9931zf9f2oh0zww","sona":"9544"},{"trial_type":"turing-test","trial_index":17,"time_elapsed":76442,"internal_node_id":"0.0-8.0-2.2","subject":"9931zf9f2oh0zww","sona":"9544"},{"rt":891,"stimulus":"<p>Welche Sequenz haben Sie als natürlicher empfunden?</p>","key_press":74,"test_part":"response","test_stimulus":{"position":1,"left":"bvh/vr_prediction_models/model(dmp)-dataset(pass-bottle)-npsi(80)-hold(0)/final-lines.txt","right":"bvh/pass-bottle-training0-lines.txt","att_check":false},"trial_type":"html-keyboard-response","trial_index":18,"time_elapsed":77334,"internal_node_id":"0.0-8.0-3.2","subject":"9931zf9f2oh0zww","sona":"9544"},{"rt":501,"stimulus":"<p>Bereit?</p>","key_press":32,"trial_type":"html-keyboard-response","trial_index":19,"time_elapsed":77836,"internal_node_id":"0.0-8.0-0.3","subject":"9931zf9f2oh0zww","sona":"9544"},{"rt":null,"stimulus":"<div style=\"font-size:60px;\">+</div>","key_press":null,"trial_type":"html-keyboard-response","trial_index":20,"time_elapsed":79845,"internal_node_id":"0.0-8.0-1.3","subject":"9931zf9f2oh0zww","sona":"9544"},{"trial_type":"turing-test","trial_index":21,"time_elapsed":84970,"internal_node_id":"0.0-8.0-2.3","subject":"9931zf9f2oh0zww","sona":"9544"},{"rt":631,"stimulus":"<p>Welche Sequenz haben Sie als natürlicher empfunden?</p>","key_press":70,"test_part":"response","test_stimulus":{"position":0,"left":"bvh/return-bottle-hold-training0-lines.txt","right":"bvh/vr_prediction_models/model(vcgpdm)-dataset(return-bottle-hold)-mode(ELBO)-parts(1)-dyn(30)-lvm(35)-hold(0)/final-lines.txt","att_check":false},"trial_type":"html-keyboard-response","trial_index":22,"time_elapsed":85604,"internal_node_id":"0.0-8.0-3.3","subject":"9931zf9f2oh0zww","sona":"9544"},{"rt":1010,"stimulus":"<p>Bereit?</p>","key_press":32,"trial_type":"html-keyboard-response","trial_index":23,"time_elapsed":86615,"internal_node_id":"0.0-8.0-0.4","subject":"9931zf9f2oh0zww","sona":"9544"},{"rt":null,"stimulus":"<div style=\"font-size:60px;\">+</div>","key_press":null,"trial_type":"html-keyboard-response","trial_index":24,"time_elapsed":88618,"internal_node_id":"0.0-8.0-1.4","subject":"9931zf9f2oh0zww","sona":"9544"},{"trial_type":"turing-test","trial_index":25,"time_elapsed":95180,"internal_node_id":"0.0-8.0-2.4","subject":"9931zf9f2oh0zww","sona":"9544"},{"rt":646,"stimulus":"<p>Welche Sequenz haben Sie als natürlicher empfunden?</p>","key_press":74,"test_part":"response","test_stimulus":{"position":0,"left":"bvh/return-bottle-training2-lines.txt","right":"bvh/vr_prediction_models/model(tmp)-dataset(return-bottle)-numprim(12)-hold(2)/final-lines.txt","att_check":false},"trial_type":"html-keyboard-response","trial_index":26,"time_elapsed":95829,"internal_node_id":"0.0-8.0-3.4","subject":"9931zf9f2oh0zww","sona":"9544"},{"rt":775,"stimulus":"<p>Bereit?</p>","key_press":32,"trial_type":"html-keyboard-response","trial_index":27,"time_elapsed":96603,"internal_node_id":"0.0-8.0-0.5","subject":"9931zf9f2oh0zww","sona":"9544"},{"rt":null,"stimulus":"<div style=\"font-size:60px;\">+</div>","key_press":null,"trial_type":"html-keyboard-response","trial_index":28,"time_elapsed":98615,"internal_node_id":"0.0-8.0-1.5","subject":"9931zf9f2oh0zww","sona":"9544"},{"trial_type":"turing-test","trial_index":29,"time_elapsed":102347,"internal_node_id":"0.0-8.0-2.5","subject":"9931zf9f2oh0zww","sona":"9544"},{"rt":1904,"stimulus":"<p>Welche Sequenz haben Sie als natürlicher empfunden?</p>","key_press":70,"test_part":"response","test_stimulus":{"position":0,"left":"bvh/return-bottle-hold-training4-lines.txt","right":"bvh/vr_prediction_models/model(vcgpdm)-dataset(return-bottle-hold)-mode(ELBO)-parts(1)-dyn(10)-lvm(5)-hold(4)/final-lines.txt","att_check":false},"trial_type":"html-keyboard-response","trial_index":30,"time_elapsed":104253,"internal_node_id":"0.0-8.0-3.5","subject":"9931zf9f2oh0zww","sona":"9544"},{"rt":645,"stimulus":"<p>Bereit?</p>","key_press":32,"trial_type":"html-keyboard-response","trial_index":31,"time_elapsed":104899,"internal_node_id":"0.0-8.0-0.6","subject":"9931zf9f2oh0zww","sona":"9544"},{"rt":null,"stimulus":"<div style=\"font-size:60px;\">+</div>","key_press":null,"trial_type":"html-keyboard-response","trial_index":32,"time_elapsed":106923,"internal_node_id":"0.0-8.0-1.6","subject":"9931zf9f2oh0zww","sona":"9544"},{"trial_type":"turing-test","trial_index":33,"time_elapsed":110290,"internal_node_id":"0.0-8.0-2.6","subject":"9931zf9f2oh0zww","sona":"9544"},{"rt":575,"stimulus":"<p>Welche Sequenz haben Sie als natürlicher empfunden?</p>","key_press":70,"test_part":"response","test_stimulus":{"position":0,"left":"bvh/pass-bottle-hold-training2-lines.txt","right":"bvh/vr_prediction_models/model(vcgpdm)-dataset(pass-bottle-hold)-mode(ELBO)-parts(1)-dyn(30)-lvm(30)-hold(2)/final-lines.txt","att_check":false},"trial_type":"html-keyboard-response","trial_index":34,"time_elapsed":110867,"internal_node_id":"0.0-8.0-3.6","subject":"9931zf9f2oh0zww","sona":"9544"},{"rt":505,"stimulus":"<p>Bereit?</p>","key_press":32,"trial_type":"html-keyboard-response","trial_index":35,"time_elapsed":111375,"internal_node_id":"0.0-8.0-0.7","subject":"9931zf9f2oh0zww","sona":"9544"},{"rt":null,"stimulus":"<div style=\"font-size:60px;\">+</div>","key_press":null,"trial_type":"html-keyboard-response","trial_index":36,"time_elapsed":113384,"internal_node_id":"0.0-8.0-1.7","subject":"9931zf9f2oh0zww","sona":"9544"},{"trial_type":"turing-test","trial_index":37,"time_elapsed":118498,"internal_node_id":"0.0-8.0-2.7","subject":"9931zf9f2oh0zww","sona":"9544"},{"rt":406,"stimulus":"<p>Welche Sequenz haben Sie als natürlicher empfunden?</p>","key_press":70,"test_part":"response","test_stimulus":{"position":1,"left":"bvh/vr_prediction_models/model(vcgpdm)-dataset(return-bottle-hold)-mode(ELBO)-parts(1)-dyn(30)-lvm(30)-hold(0)/final-lines.txt","right":"bvh/return-bottle-hold-training0-lines.txt","att_check":false},"trial_type":"html-keyboard-response","trial_index":38,"time_elapsed":118906,"internal_node_id":"0.0-8.0-3.7","subject":"9931zf9f2oh0zww","sona":"9544"},{"rt":417,"stimulus":"<p>Bereit?</p>","key_press":32,"trial_type":"html-keyboard-response","trial_index":39,"time_elapsed":119324,"internal_node_id":"0.0-8.0-0.8","subject":"9931zf9f2oh0zww","sona":"9544"},{"rt":null,"stimulus":"<div style=\"font-size:60px;\">+</div>","key_press":null,"trial_type":"html-keyboard-response","trial_index":40,"time_elapsed":121328,"internal_node_id":"0.0-8.0-1.8","subject":"9931zf9f2oh0zww","sona":"9544"},{"trial_type":"turing-test","trial_index":41,"time_elapsed":124486,"internal_node_id":"0.0-8.0-2.8","subject":"9931zf9f2oh0zww","sona":"9544"},{"rt":750,"stimulus":"<p>Welche Sequenz haben Sie als natürlicher empfunden?</p>","key_press":70,"test_part":"response","test_stimulus":{"position":1,"left":"bvh/vr_prediction_models/model(tmp)-dataset(pass-bottle-hold)-numprim(13)-hold(1)/final-lines.txt","right":"bvh/pass-bottle-hold-training1-lines.txt","att_check":false},"trial_type":"html-keyboard-response","trial_index":42,"time_elapsed":125238,"internal_node_id":"0.0-8.0-3.8","subject":"9931zf9f2oh0zww","sona":"9544"},{"rt":297,"stimulus":"<p>Bereit?</p>","key_press":32,"trial_type":"html-keyboard-response","trial_index":43,"time_elapsed":125537,"internal_node_id":"0.0-8.0-0.9","subject":"9931zf9f2oh0zww","sona":"9544"},{"rt":null,"stimulus":"<div style=\"font-size:60px;\">+</div>","key_press":null,"trial_type":"html-keyboard-response","trial_index":44,"time_elapsed":127569,"internal_node_id":"0.0-8.0-1.9","subject":"9931zf9f2oh0zww","sona":"9544"},{"trial_type":"turing-test","trial_index":45,"time_elapsed":133601,"internal_node_id":"0.0-8.0-2.9","subject":"9931zf9f2oh0zww","sona":"9544"},{"rt":914,"stimulus":"<p>Welche Sequenz haben Sie als natürlicher empfunden?</p>","key_press":74,"test_part":"response","test_stimulus":{"position":1,"left":"bvh/vr_prediction_models/model(dmp)-dataset(return-bottle)-npsi(60)-hold(1)/final-lines.txt","right":"bvh/return-bottle-training1-lines.txt","att_check":false},"trial_type":"html-keyboard-response","trial_index":46,"time_elapsed":134517,"internal_node_id":"0.0-8.0-3.9","subject":"9931zf9f2oh0zww","sona":"9544"},{"rt":485,"stimulus":"<p>Bereit?</p>","key_press":32,"trial_type":"html-keyboard-response","trial_index":47,"time_elapsed":135005,"internal_node_id":"0.0-8.0-0.10","subject":"9931zf9f2oh0zww","sona":"9544"},{"rt":null,"stimulus":"<div style=\"font-size:60px;\">+</div>","key_press":null,"trial_type":"html-keyboard-response","trial_index":48,"time_elapsed":137035,"internal_node_id":"0.0-8.0-1.10","subject":"9931zf9f2oh0zww","sona":"9544"},{"trial_type":"turing-test","trial_index":49,"time_elapsed":143766,"internal_node_id":"0.0-8.0-2.10","subject":"9931zf9f2oh0zww","sona":"9544"},{"rt":607,"stimulus":"<p>Welche Sequenz haben Sie als natürlicher empfunden?</p>","key_press":74,"test_part":"response","test_stimulus":{"position":1,"left":"bvh/vr_prediction_models/model(vcgpdm)-dataset(pass-bottle)-mode(MAP)-parts(1)-hold(0)/final-lines.txt","right":"bvh/pass-bottle-training0-lines.txt","att_check":false},"trial_type":"html-keyboard-response","trial_index":50,"time_elapsed":144375,"internal_node_id":"0.0-8.0-3.10","subject":"9931zf9f2oh0zww","sona":"9544"},{"rt":1056,"stimulus":"<p>Bereit?</p>","key_press":32,"trial_type":"html-keyboard-response","trial_index":51,"time_elapsed":145432,"internal_node_id":"0.0-8.0-0.11","subject":"9931zf9f2oh0zww","sona":"9544"},{"rt":null,"stimulus":"<div style=\"font-size:60px;\">+</div>","key_press":null,"trial_type":"html-keyboard-response","trial_index":52,"time_elapsed":147446,"internal_node_id":"0.0-8.0-1.11","subject":"9931zf9f2oh0zww","sona":"9544"},{"trial_type":"turing-test","trial_index":53,"time_elapsed":153515,"internal_node_id":"0.0-8.0-2.11","subject":"9931zf9f2oh0zww","sona":"9544"}]