[{"rt":1796,"stimulus":"<p>Welcome!<br> Please choose your language to start the experiment in the chosen language.</p><p>Willkommen!<br> Bitte wählen Sie eine Sprache, um das Experiment in der ausgewählten Sprache zu starten</p>","button_pressed":"0","trial_type":"html-button-response","trial_index":0,"time_elapsed":1802,"internal_node_id":"0.0-0.0","subject":"evchr5ozhs81woj","sona":"7624"},{"view_history":"[{\"page_index\":0,\"viewing_time\":1910},{\"page_index\":1,\"viewing_time\":1120},{\"page_index\":2,\"viewing_time\":904},{\"page_index\":3,\"viewing_time\":1543},{\"page_index\":4,\"viewing_time\":1313}]","rt":6790,"trial_type":"instructions","trial_index":1,"time_elapsed":8594,"internal_node_id":"0.0-2.0-0.0","subject":"evchr5ozhs81woj","sona":"7624"},{"rt":6641,"stimulus":"<p>Ready?</p>","key_press":32,"trial_type":"html-keyboard-response","trial_index":2,"time_elapsed":15238,"internal_node_id":"0.0-3.0","subject":"evchr5ozhs81woj","sona":"7624"},{"rt":null,"stimulus":"<div style=\"font-size:60px;\">+</div>","key_press":null,"trial_type":"html-keyboard-response","trial_index":3,"time_elapsed":17243,"internal_node_id":"0.0-4.0","subject":"evchr5ozhs81woj","sona":"7624"},{"trial_type":"training","trial_index":4,"time_elapsed":20472,"internal_node_id":"0.0-5.0","subject":"evchr5ozhs81woj","sona":"7624"},{"rt":321,"stimulus":"<p>Which sequence did you perceive as more natural?</p>","key_press":70,"trial_type":"html-keyboard-response","trial_index":5,"time_elapsed":20795,"internal_node_id":"0.0-6.0","subject":"evchr5ozhs81woj","sona":"7624"},{"rt":2788,"stimulus":"<p>The experiment starts now.</p><p><small>Please click the button if you are ready.</small></p>","button_pressed":"0","trial_type":"html-button-response","trial_index":6,"time_elapsed":23586,"internal_node_id":"0.0-7.0","subject":"evchr5ozhs81woj","sona":"7624"},{"rt":1346,"stimulus":"<p>Ready?</p>","key_press":32,"trial_type":"html-keyboard-response","trial_index":7,"time_elapsed":24934,"internal_node_id":"0.0-8.0-0.0","subject":"evchr5ozhs81woj","sona":"7624"},{"rt":null,"stimulus":"<div style=\"font-size:60px;\">+</div>","key_press":null,"trial_type":"html-keyboard-response","trial_index":8,"time_elapsed":26939,"internal_node_id":"0.0-8.0-1.0","subject":"evchr5ozhs81woj","sona":"7624"},{"trial_type":"turing-test","trial_index":9,"time_elapsed":30371,"internal_node_id":"0.0-8.0-2.0","subject":"evchr5ozhs81woj","sona":"7624"},{"rt":327,"stimulus":"<p>Which sequence did you perceive as more natural?</p>","key_press":74,"test_part":"response","test_stimulus":{"position":1,"left":"bvh/vr_prediction_models/model(tmp)-dataset(pass-bottle-hold)-numprim(13)-hold(2)/final-lines.txt","right":"bvh/pass-bottle-hold-training2-lines.txt","att_check":false},"trial_type":"html-keyboard-response","trial_index":10,"time_elapsed":30700,"internal_node_id":"0.0-8.0-3.0","subject":"evchr5ozhs81woj","sona":"7624"},{"rt":295,"stimulus":"<p>Ready?</p>","key_press":32,"trial_type":"html-keyboard-response","trial_index":11,"time_elapsed":30996,"internal_node_id":"0.0-8.0-0.1","subject":"evchr5ozhs81woj","sona":"7624"},{"rt":null,"stimulus":"<div style=\"font-size:60px;\">+</div>","key_press":null,"trial_type":"html-keyboard-response","trial_index":12,"time_elapsed":32999,"internal_node_id":"0.0-8.0-1.1","subject":"evchr5ozhs81woj","sona":"7624"},{"trial_type":"turing-test","trial_index":13,"time_elapsed":36276,"internal_node_id":"0.0-8.0-2.1","subject":"evchr5ozhs81woj","sona":"7624"},{"rt":326,"stimulus":"<p>Which sequence did you perceive as more natural?</p>","key_press":74,"test_part":"response","test_stimulus":{"position":1,"left":"bvh/vr_prediction_models/model(tmp)-dataset(pass-bottle-hold)-numprim(9)-hold(0)/final-lines.txt","right":"bvh/pass-bottle-hold-training0-lines.txt","att_check":false},"trial_type":"html-keyboard-response","trial_index":14,"time_elapsed":36604,"internal_node_id":"0.0-8.0-3.1","subject":"evchr5ozhs81woj","sona":"7624"},{"rt":287,"stimulus":"<p>Ready?</p>","key_press":32,"trial_type":"html-keyboard-response","trial_index":15,"time_elapsed":36891,"internal_node_id":"0.0-8.0-0.2","subject":"evchr5ozhs81woj","sona":"7624"},{"rt":null,"stimulus":"<div style=\"font-size:60px;\">+</div>","key_press":null,"trial_type":"html-keyboard-response","trial_index":16,"time_elapsed":38896,"internal_node_id":"0.0-8.0-1.2","subject":"evchr5ozhs81woj","sona":"7624"},{"trial_type":"turing-test","trial_index":17,"time_elapsed":44299,"internal_node_id":"0.0-8.0-2.2","subject":"evchr5ozhs81woj","sona":"7624"},{"rt":568,"stimulus":"<p>Which sequence did you perceive as more natural?</p>","key_press":70,"test_part":"response","test_stimulus":{"position":1,"left":"bvh/vr_prediction_models/model(tmp)-dataset(pass-bottle)-numprim(5)-hold(1)/final-lines.txt","right":"bvh/pass-bottle-training1-lines.txt","att_check":false},"trial_type":"html-keyboard-response","trial_index":18,"time_elapsed":44868,"internal_node_id":"0.0-8.0-3.2","subject":"evchr5ozhs81woj","sona":"7624"},{"rt":302,"stimulus":"<p>Ready?</p>","key_press":32,"trial_type":"html-keyboard-response","trial_index":19,"time_elapsed":45172,"internal_node_id":"0.0-8.0-0.3","subject":"evchr5ozhs81woj","sona":"7624"},{"rt":null,"stimulus":"<div style=\"font-size:60px;\">+</div>","key_press":null,"trial_type":"html-keyboard-response","trial_index":20,"time_elapsed":47176,"internal_node_id":"0.0-8.0-1.3","subject":"evchr5ozhs81woj","sona":"7624"},{"trial_type":"turing-test","trial_index":21,"time_elapsed":53201,"internal_node_id":"0.0-8.0-2.3","subject":"evchr5ozhs81woj","sona":"7624"},{"rt":562,"stimulus":"<p>Which sequence did you perceive as more natural?</p>","key_press":70,"test_part":"response","test_stimulus":{"position":0,"left":"bvh/pass-bottle-training3-lines.txt","right":"bvh/vr_prediction_models/model(vcgpdm)-dataset(pass-bottle)-mode(ELBO)-parts(1)-dyn(20)-lvm(5)-hold(3)/final-lines.txt","att_check":false},"trial_type":"html-keyboard-response","trial_index":22,"time_elapsed":53764,"internal_node_id":"0.0-8.0-3.3","subject":"evchr5ozhs81woj","sona":"7624"},{"rt":366,"stimulus":"<p>Ready?</p>","key_press":32,"trial_type":"html-keyboard-response","trial_index":23,"time_elapsed":54132,"internal_node_id":"0.0-8.0-0.4","subject":"evchr5ozhs81woj","sona":"7624"},{"rt":null,"stimulus":"<div style=\"font-size:60px;\">+</div>","key_press":null,"trial_type":"html-keyboard-response","trial_index":24,"time_elapsed":56136,"internal_node_id":"0.0-8.0-1.4","subject":"evchr5ozhs81woj","sona":"7624"},{"trial_type":"turing-test","trial_index":25,"time_elapsed":62041,"internal_node_id":"0.0-8.0-2.4","subject":"evchr5ozhs81woj","sona":"7624"},{"rt":609,"stimulus":"<p>Which sequence did you perceive as more natural?</p>","key_press":74,"test_part":"response","test_stimulus":{"position":0,"left":"bvh/pass-bottle-training4-lines.txt","right":"bvh/vr_prediction_models/model(tmp)-dataset(pass-bottle)-numprim(5)-hold(4)/final-lines.txt","att_check":false},"trial_type":"html-keyboard-response","trial_index":26,"time_elapsed":62651,"internal_node_id":"0.0-8.0-3.4","subject":"evchr5ozhs81woj","sona":"7624"},{"rt":303,"stimulus":"<p>Ready?</p>","key_press":32,"trial_type":"html-keyboard-response","trial_index":27,"time_elapsed":62956,"internal_node_id":"0.0-8.0-0.5","subject":"evchr5ozhs81woj","sona":"7624"},{"rt":null,"stimulus":"<div style=\"font-size:60px;\">+</div>","key_press":null,"trial_type":"html-keyboard-response","trial_index":28,"time_elapsed":64959,"internal_node_id":"0.0-8.0-1.5","subject":"evchr5ozhs81woj","sona":"7624"},{"trial_type":"turing-test","trial_index":29,"time_elapsed":70402,"internal_node_id":"0.0-8.0-2.5","subject":"evchr5ozhs81woj","sona":"7624"},{"rt":713,"stimulus":"<p>Which sequence did you perceive as more natural?</p>","key_press":70,"test_part":"response","test_stimulus":{"position":0,"left":"bvh/return-bottle-hold-training0-lines.txt","right":"bvh/vr_prediction_models/model(vcgpdm)-dataset(return-bottle-hold)-mode(ELBO)-parts(3)-dyn(20)-lvm(35)-hold(0)/final-lines.txt","att_check":false},"trial_type":"html-keyboard-response","trial_index":30,"time_elapsed":71117,"internal_node_id":"0.0-8.0-3.5","subject":"evchr5ozhs81woj","sona":"7624"},{"rt":367,"stimulus":"<p>Ready?</p>","key_press":32,"trial_type":"html-keyboard-response","trial_index":31,"time_elapsed":71484,"internal_node_id":"0.0-8.0-0.6","subject":"evchr5ozhs81woj","sona":"7624"},{"rt":null,"stimulus":"<div style=\"font-size:60px;\">+</div>","key_press":null,"trial_type":"html-keyboard-response","trial_index":32,"time_elapsed":73491,"internal_node_id":"0.0-8.0-1.6","subject":"evchr5ozhs81woj","sona":"7624"},{"trial_type":"turing-test","trial_index":33,"time_elapsed":77067,"internal_node_id":"0.0-8.0-2.6","subject":"evchr5ozhs81woj","sona":"7624"},{"rt":360,"stimulus":"<p>Which sequence did you perceive as more natural?</p>","key_press":74,"test_part":"response","test_stimulus":{"position":1,"left":"bvh/vr_prediction_models/model(tmp)-dataset(return-bottle-hold)-numprim(4)-hold(3)/final-lines.txt","right":"bvh/return-bottle-hold-training3-lines.txt","att_check":false},"trial_type":"html-keyboard-response","trial_index":34,"time_elapsed":77429,"internal_node_id":"0.0-8.0-3.6","subject":"evchr5ozhs81woj","sona":"7624"},{"rt":311,"stimulus":"<p>Ready?</p>","key_press":32,"trial_type":"html-keyboard-response","trial_index":35,"time_elapsed":77741,"internal_node_id":"0.0-8.0-0.7","subject":"evchr5ozhs81woj","sona":"7624"},{"rt":null,"stimulus":"<div style=\"font-size:60px;\">+</div>","key_press":null,"trial_type":"html-keyboard-response","trial_index":36,"time_elapsed":79749,"internal_node_id":"0.0-8.0-1.7","subject":"evchr5ozhs81woj","sona":"7624"},{"trial_type":"turing-test","trial_index":37,"time_elapsed":85172,"internal_node_id":"0.0-8.0-2.7","subject":"evchr5ozhs81woj","sona":"7624"},{"rt":336,"stimulus":"<p>Which sequence did you perceive as more natural?</p>","key_press":74,"test_part":"response","test_stimulus":{"position":0,"left":"bvh/pass-bottle-training1-lines.txt","right":"bvh/vr_prediction_models/model(tmp)-dataset(pass-bottle)-numprim(13)-hold(1)/final-lines.txt","att_check":false},"trial_type":"html-keyboard-response","trial_index":38,"time_elapsed":85508,"internal_node_id":"0.0-8.0-3.7","subject":"evchr5ozhs81woj","sona":"7624"},{"rt":382,"stimulus":"<p>Ready?</p>","key_press":32,"trial_type":"html-keyboard-response","trial_index":39,"time_elapsed":85893,"internal_node_id":"0.0-8.0-0.8","subject":"evchr5ozhs81woj","sona":"7624"},{"rt":null,"stimulus":"<div style=\"font-size:60px;\">+</div>","key_press":null,"trial_type":"html-keyboard-response","trial_index":40,"time_elapsed":87898,"internal_node_id":"0.0-8.0-1.8","subject":"evchr5ozhs81woj","sona":"7624"},{"trial_type":"turing-test","trial_index":41,"time_elapsed":93896,"internal_node_id":"0.0-8.0-2.8","subject":"evchr5ozhs81woj","sona":"7624"},{"rt":468,"stimulus":"<p>Which sequence did you perceive as more natural?</p>","key_press":74,"test_part":"response","test_stimulus":{"position":1,"left":"bvh/vr_prediction_models/model(vcgpdm)-dataset(pass-bottle)-mode(ELBO)-parts(1)-dyn(20)-lvm(5)-hold(2)/final-lines.txt","right":"bvh/pass-bottle-training2-lines.txt","att_check":false},"trial_type":"html-keyboard-response","trial_index":42,"time_elapsed":94365,"internal_node_id":"0.0-8.0-3.8","subject":"evchr5ozhs81woj","sona":"7624"},{"rt":278,"stimulus":"<p>Ready?</p>","key_press":32,"trial_type":"html-keyboard-response","trial_index":43,"time_elapsed":94645,"internal_node_id":"0.0-8.0-0.9","subject":"evchr5ozhs81woj","sona":"7624"},{"rt":null,"stimulus":"<div style=\"font-size:60px;\">+</div>","key_press":null,"trial_type":"html-keyboard-response","trial_index":44,"time_elapsed":96648,"internal_node_id":"0.0-8.0-1.9","subject":"evchr5ozhs81woj","sona":"7624"},{"trial_type":"turing-test","trial_index":45,"time_elapsed":100341,"internal_node_id":"0.0-8.0-2.9","subject":"evchr5ozhs81woj","sona":"7624"},{"rt":951,"stimulus":"<p>Which sequence did you perceive as more natural?</p>","key_press":70,"test_part":"response","test_stimulus":{"position":0,"left":"bvh/return-bottle-hold-training4-lines.txt","right":"bvh/vr_prediction_models/model(tmp)-dataset(return-bottle-hold)-numprim(10)-hold(4)/final-lines.txt","att_check":false},"trial_type":"html-keyboard-response","trial_index":46,"time_elapsed":101293,"internal_node_id":"0.0-8.0-3.9","subject":"evchr5ozhs81woj","sona":"7624"},{"rt":287,"stimulus":"<p>Ready?</p>","key_press":32,"trial_type":"html-keyboard-response","trial_index":47,"time_elapsed":101581,"internal_node_id":"0.0-8.0-0.10","subject":"evchr5ozhs81woj","sona":"7624"},{"rt":null,"stimulus":"<div style=\"font-size:60px;\">+</div>","key_press":null,"trial_type":"html-keyboard-response","trial_index":48,"time_elapsed":103588,"internal_node_id":"0.0-8.0-1.10","subject":"evchr5ozhs81woj","sona":"7624"},{"trial_type":"turing-test","trial_index":49,"time_elapsed":109181,"internal_node_id":"0.0-8.0-2.10","subject":"evchr5ozhs81woj","sona":"7624"},{"rt":415,"stimulus":"<p>Which sequence did you perceive as more natural?</p>","key_press":70,"test_part":"response","test_stimulus":{"position":0,"left":"bvh/return-bottle-training3-lines.txt","right":"bvh/vr_prediction_models/model(tmp)-dataset(return-bottle)-numprim(5)-hold(3)/final-lines.txt","att_check":false},"trial_type":"html-keyboard-response","trial_index":50,"time_elapsed":109598,"internal_node_id":"0.0-8.0-3.10","subject":"evchr5ozhs81woj","sona":"7624"},{"rt":374,"stimulus":"<p>Ready?</p>","key_press":32,"trial_type":"html-keyboard-response","trial_index":51,"time_elapsed":109974,"internal_node_id":"0.0-8.0-0.11","subject":"evchr5ozhs81woj","sona":"7624"},{"rt":null,"stimulus":"<div style=\"font-size:60px;\">+</div>","key_press":null,"trial_type":"html-keyboard-response","trial_index":52,"time_elapsed":111975,"internal_node_id":"0.0-8.0-1.11","subject":"evchr5ozhs81woj","sona":"7624"},{"trial_type":"turing-test","trial_index":53,"time_elapsed":115132,"internal_node_id":"0.0-8.0-2.11","subject":"evchr5ozhs81woj","sona":"7624"},{"rt":313,"stimulus":"<p>Which sequence did you perceive as more natural?</p>","key_press":74,"test_part":"response","test_stimulus":{"position":1,"left":"bvh/vr_prediction_models/model(tmp)-dataset(pass-bottle-hold)-numprim(4)-hold(1)/final-lines.txt","right":"bvh/pass-bottle-hold-training1-lines.txt","att_check":false},"trial_type":"html-keyboard-response","trial_index":54,"time_elapsed":115445,"internal_node_id":"0.0-8.0-3.11","subject":"evchr5ozhs81woj","sona":"7624"},{"rt":287,"stimulus":"<p>Ready?</p>","key_press":32,"trial_type":"html-keyboard-response","trial_index":55,"time_elapsed":115733,"internal_node_id":"0.0-8.0-0.12","subject":"evchr5ozhs81woj","sona":"7624"},{"rt":null,"stimulus":"<div style=\"font-size:60px;\">+</div>","key_press":null,"trial_type":"html-keyboard-response","trial_index":56,"time_elapsed":117738,"internal_node_id":"0.0-8.0-1.12","subject":"evchr5ozhs81woj","sona":"7624"},{"trial_type":"turing-test","trial_index":57,"time_elapsed":121378,"internal_node_id":"0.0-8.0-2.12","subject":"evchr5ozhs81woj","sona":"7624"},{"rt":427,"stimulus":"<p>Which sequence did you perceive as more natural?</p>","key_press":74,"test_part":"response","test_stimulus":{"position":0,"left":"bvh/return-bottle-hold-training3-lines.txt","right":"bvh/vr_prediction_models/model(dmp)-dataset(return-bottle-hold)-npsi(60)-hold(3)/final-lines.txt","att_check":false},"trial_type":"html-keyboard-response","trial_index":58,"time_elapsed":121805,"internal_node_id":"0.0-8.0-3.12","subject":"evchr5ozhs81woj","sona":"7624"},{"rt":287,"stimulus":"<p>Ready?</p>","key_press":32,"trial_type":"html-keyboard-response","trial_index":59,"time_elapsed":122093,"internal_node_id":"0.0-8.0-0.13","subject":"evchr5ozhs81woj","sona":"7624"},{"rt":null,"stimulus":"<div style=\"font-size:60px;\">+</div>","key_press":null,"trial_type":"html-keyboard-response","trial_index":60,"time_elapsed":124097,"internal_node_id":"0.0-8.0-1.13","subject":"evchr5ozhs81woj","sona":"7624"},{"trial_type":"turing-test","trial_index":61,"time_elapsed":130426,"internal_node_id":"0.0-8.0-2.13","subject":"evchr5ozhs81woj","sona":"7624"},{"rt":234,"stimulus":"<p>Which sequence did you perceive as more natural?</p>","key_press":70,"test_part":"response","test_stimulus":{"position":0,"left":"bvh/pass-bottle-training2-lines.txt","right":"bvh/vr_prediction_models/model(vcgpdm)-dataset(pass-bottle)-mode(ELBO)-parts(1)-dyn(35)-lvm(30)-hold(2)/final-lines.txt","att_check":false},"trial_type":"html-keyboard-response","trial_index":62,"time_elapsed":130662,"internal_node_id":"0.0-8.0-3.13","subject":"evchr5ozhs81woj","sona":"7624"},{"rt":310,"stimulus":"<p>Ready?</p>","key_press":32,"trial_type":"html-keyboard-response","trial_index":63,"time_elapsed":130974,"internal_node_id":"0.0-8.0-0.14","subject":"evchr5ozhs81woj","sona":"7624"},{"rt":null,"stimulus":"<div style=\"font-size:60px;\">+</div>","key_press":null,"trial_type":"html-keyboard-response","trial_index":64,"time_elapsed":132975,"internal_node_id":"0.0-8.0-1.14","subject":"evchr5ozhs81woj","sona":"7624"},{"trial_type":"turing-test","trial_index":65,"time_elapsed":136572,"internal_node_id":"0.0-8.0-2.14","subject":"evchr5ozhs81woj","sona":"7624"},{"rt":322,"stimulus":"<p>Which sequence did you perceive as more natural?</p>","key_press":70,"test_part":"response","test_stimulus":{"position":1,"left":"bvh/vr_prediction_models/model(vcgpdm)-dataset(pass-bottle-hold)-mode(ELBO)-parts(1)-dyn(5)-lvm(5)-hold(2)/final-lines.txt","right":"bvh/pass-bottle-hold-training2-lines.txt","att_check":false},"trial_type":"html-keyboard-response","trial_index":66,"time_elapsed":136894,"internal_node_id":"0.0-8.0-3.14","subject":"evchr5ozhs81woj","sona":"7624"},{"rt":295,"stimulus":"<p>Ready?</p>","key_press":32,"trial_type":"html-keyboard-response","trial_index":67,"time_elapsed":137190,"internal_node_id":"0.0-8.0-0.15","subject":"evchr5ozhs81woj","sona":"7624"},{"rt":null,"stimulus":"<div style=\"font-size:60px;\">+</div>","key_press":null,"trial_type":"html-keyboard-response","trial_index":68,"time_elapsed":139192,"internal_node_id":"0.0-8.0-1.15","subject":"evchr5ozhs81woj","sona":"7624"},{"trial_type":"turing-test","trial_index":69,"time_elapsed":145115,"internal_node_id":"0.0-8.0-2.15","subject":"evchr5ozhs81woj","sona":"7624"},{"rt":273,"stimulus":"<p>Which sequence did you perceive as more natural?</p>","key_press":70,"test_part":"response","test_stimulus":{"position":0,"left":"bvh/return-bottle-training3-lines.txt","right":"bvh/vr_prediction_models/model(vcgpdm)-dataset(return-bottle)-mode(ELBO)-parts(3)-dyn(15)-lvm(30)-hold(3)/final-lines.txt","att_check":false},"trial_type":"html-keyboard-response","trial_index":70,"time_elapsed":145390,"internal_node_id":"0.0-8.0-3.15","subject":"evchr5ozhs81woj","sona":"7624"},{"rt":279,"stimulus":"<p>Ready?</p>","key_press":32,"trial_type":"html-keyboard-response","trial_index":71,"time_elapsed":145670,"internal_node_id":"0.0-8.0-0.16","subject":"evchr5ozhs81woj","sona":"7624"},{"rt":null,"stimulus":"<div style=\"font-size:60px;\">+</div>","key_press":null,"trial_type":"html-keyboard-response","trial_index":72,"time_elapsed":147679,"internal_node_id":"0.0-8.0-1.16","subject":"evchr5ozhs81woj","sona":"7624"},{"trial_type":"turing-test","trial_index":73,"time_elapsed":153375,"internal_node_id":"0.0-8.0-2.16","subject":"evchr5ozhs81woj","sona":"7624"},{"rt":462,"stimulus":"<p>Which sequence did you perceive as more natural?</p>","key_press":70,"test_part":"response","test_stimulus":{"position":0,"left":"bvh/pass-bottle-training4-lines.txt","right":"bvh/vr_prediction_models/model(dmp)-dataset(pass-bottle)-npsi(20)-hold(4)/final-lines.txt","att_check":false},"trial_type":"html-keyboard-response","trial_index":74,"time_elapsed":153839,"internal_node_id":"0.0-8.0-3.16","subject":"evchr5ozhs81woj","sona":"7624"},{"rt":343,"stimulus":"<p>Ready?</p>","key_press":32,"trial_type":"html-keyboard-response","trial_index":75,"time_elapsed":154183,"internal_node_id":"0.0-8.0-0.17","subject":"evchr5ozhs81woj","sona":"7624"},{"rt":null,"stimulus":"<div style=\"font-size:60px;\">+</div>","key_press":null,"trial_type":"html-keyboard-response","trial_index":76,"time_elapsed":156185,"internal_node_id":"0.0-8.0-1.17","subject":"evchr5ozhs81woj","sona":"7624"},{"trial_type":"turing-test","trial_index":77,"time_elapsed":159348,"internal_node_id":"0.0-8.0-2.17","subject":"evchr5ozhs81woj","sona":"7624"},{"rt":304,"stimulus":"<p>Which sequence did you perceive as more natural?</p>","key_press":70,"test_part":"response","test_stimulus":{"position":1,"left":"bvh/vr_prediction_models/model(tmp)-dataset(pass-bottle-hold)-numprim(11)-hold(1)/final-lines.txt","right":"bvh/pass-bottle-hold-training1-lines.txt","att_check":false},"trial_type":"html-keyboard-response","trial_index":78,"time_elapsed":159655,"internal_node_id":"0.0-8.0-3.17","subject":"evchr5ozhs81woj","sona":"7624"},{"rt":255,"stimulus":"<p>Ready?</p>","key_press":32,"trial_type":"html-keyboard-response","trial_index":79,"time_elapsed":159910,"internal_node_id":"0.0-8.0-0.18","subject":"evchr5ozhs81woj","sona":"7624"},{"rt":null,"stimulus":"<div style=\"font-size:60px;\">+</div>","key_press":null,"trial_type":"html-keyboard-response","trial_index":80,"time_elapsed":161914,"internal_node_id":"0.0-8.0-1.18","subject":"evchr5ozhs81woj","sona":"7624"},{"trial_type":"turing-test","trial_index":81,"time_elapsed":165411,"internal_node_id":"0.0-8.0-2.18","subject":"evchr5ozhs81woj","sona":"7624"},{"rt":283,"stimulus":"<p>Which sequence did you perceive as more natural?</p>","key_press":70,"test_part":"response","test_stimulus":{"position":1,"left":"bvh/vr_prediction_models/model(dmp)-dataset(pass-bottle-hold)-npsi(20)-hold(3)/final-lines.txt","right":"bvh/pass-bottle-hold-training3-lines.txt","att_check":false},"trial_type":"html-keyboard-response","trial_index":82,"time_elapsed":165695,"internal_node_id":"0.0-8.0-3.18","subject":"evchr5ozhs81woj","sona":"7624"},{"rt":277,"stimulus":"<p>Ready?</p>","key_press":32,"trial_type":"html-keyboard-response","trial_index":83,"time_elapsed":165974,"internal_node_id":"0.0-8.0-0.19","subject":"evchr5ozhs81woj","sona":"7624"},{"rt":null,"stimulus":"<div style=\"font-size:60px;\">+</div>","key_press":null,"trial_type":"html-keyboard-response","trial_index":84,"time_elapsed":167976,"internal_node_id":"0.0-8.0-1.19","subject":"evchr5ozhs81woj","sona":"7624"},{"trial_type":"turing-test","trial_index":85,"time_elapsed":173379,"internal_node_id":"0.0-8.0-2.19","subject":"evchr5ozhs81woj","sona":"7624"},{"rt":604,"stimulus":"<p>Which sequence did you perceive as more natural?</p>","key_press":70,"test_part":"response","test_stimulus":{"position":0,"left":"bvh/pass-bottle-training1-lines.txt","right":"bvh/vr_prediction_models/model(dmp)-dataset(pass-bottle)-npsi(70)-hold(1)/final-lines.txt","att_check":false},"trial_type":"html-keyboard-response","trial_index":86,"time_elapsed":173983,"internal_node_id":"0.0-8.0-3.19","subject":"evchr5ozhs81woj","sona":"7624"},{"rt":366,"stimulus":"<p>Ready?</p>","key_press":32,"trial_type":"html-keyboard-response","trial_index":87,"time_elapsed":174351,"internal_node_id":"0.0-8.0-0.20","subject":"evchr5ozhs81woj","sona":"7624"},{"rt":null,"stimulus":"<div style=\"font-size:60px;\">+</div>","key_press":null,"trial_type":"html-keyboard-response","trial_index":88,"time_elapsed":176354,"internal_node_id":"0.0-8.0-1.20","subject":"evchr5ozhs81woj","sona":"7624"},{"trial_type":"turing-test","trial_index":89,"time_elapsed":179862,"internal_node_id":"0.0-8.0-2.20","subject":"evchr5ozhs81woj","sona":"7624"},{"rt":375,"stimulus":"<p>Which sequence did you perceive as more natural?</p>","key_press":74,"test_part":"response","test_stimulus":{"position":1,"left":"bvh/vr_prediction_models/model(dmp)-dataset(return-bottle-hold)-npsi(50)-hold(3)/final-lines.txt","right":"bvh/return-bottle-hold-training3-lines.txt","att_check":false},"trial_type":"html-keyboard-response","trial_index":90,"time_elapsed":180239,"internal_node_id":"0.0-8.0-3.20","subject":"evchr5ozhs81woj","sona":"7624"},{"rt":253,"stimulus":"<p>Ready?</p>","key_press":32,"trial_type":"html-keyboard-response","trial_index":91,"time_elapsed":180495,"internal_node_id":"0.0-8.0-0.21","subject":"evchr5ozhs81woj","sona":"7624"},{"rt":null,"stimulus":"<div style=\"font-size:60px;\">+</div>","key_press":null,"trial_type":"html-keyboard-response","trial_index":92,"time_elapsed":182501,"internal_node_id":"0.0-8.0-1.21","subject":"evchr5ozhs81woj","sona":"7624"},{"trial_type":"turing-test","trial_index":93,"time_elapsed":187577,"internal_node_id":"0.0-8.0-2.21","subject":"evchr5ozhs81woj","sona":"7624"},{"rt":565,"stimulus":"<p>Which sequence did you perceive as more natural?</p>","key_press":70,"test_part":"response","test_stimulus":{"position":0,"left":"bvh/return-bottle-hold-training0-lines.txt","right":"bvh/vr_prediction_models/model(dmp)-dataset(return-bottle-hold)-npsi(70)-hold(0)/final-lines.txt","att_check":false},"trial_type":"html-keyboard-response","trial_index":94,"time_elapsed":188143,"internal_node_id":"0.0-8.0-3.21","subject":"evchr5ozhs81woj","sona":"7624"},{"rt":262,"stimulus":"<p>Ready?</p>","key_press":32,"trial_type":"html-keyboard-response","trial_index":95,"time_elapsed":188407,"internal_node_id":"0.0-8.0-0.22","subject":"evchr5ozhs81woj","sona":"7624"},{"rt":null,"stimulus":"<div style=\"font-size:60px;\">+</div>","key_press":null,"trial_type":"html-keyboard-response","trial_index":96,"time_elapsed":190411,"internal_node_id":"0.0-8.0-1.22","subject":"evchr5ozhs81woj","sona":"7624"},{"trial_type":"turing-test","trial_index":97,"time_elapsed":196156,"internal_node_id":"0.0-8.0-2.22","subject":"evchr5ozhs81woj","sona":"7624"},{"rt":331,"stimulus":"<p>Which sequence did you perceive as more natural?</p>","key_press":74,"test_part":"response","test_stimulus":{"position":1,"left":"bvh/vr_prediction_models/model(dmp)-dataset(return-bottle)-npsi(60)-hold(4)/final-lines.txt","right":"bvh/return-bottle-training4-lines.txt","att_check":false},"trial_type":"html-keyboard-response","trial_index":98,"time_elapsed":196488,"internal_node_id":"0.0-8.0-3.22","subject":"evchr5ozhs81woj","sona":"7624"},{"rt":325,"stimulus":"<p>Ready?</p>","key_press":32,"trial_type":"html-keyboard-response","trial_index":99,"time_elapsed":196815,"internal_node_id":"0.0-8.0-0.23","subject":"evchr5ozhs81woj","sona":"7624"},{"rt":null,"stimulus":"<div style=\"font-size:60px;\">+</div>","key_press":null,"trial_type":"html-keyboard-response","trial_index":100,"time_elapsed":198821,"internal_node_id":"0.0-8.0-1.23","subject":"evchr5ozhs81woj","sona":"7624"},{"trial_type":"turing-test","trial_index":101,"time_elapsed":204793,"internal_node_id":"0.0-8.0-2.23","subject":"evchr5ozhs81woj","sona":"7624"},{"rt":573,"stimulus":"<p>Which sequence did you perceive as more natural?</p>","key_press":74,"test_part":"response","test_stimulus":{"position":0,"left":"bvh/return-bottle-training3-lines.txt","right":"bvh/vr_prediction_models/model(vcgpdm)-dataset(return-bottle)-mode(ELBO)-parts(1)-dyn(35)-lvm(30)-hold(3)/final-lines.txt","att_check":false},"trial_type":"html-keyboard-response","trial_index":102,"time_elapsed":205368,"internal_node_id":"0.0-8.0-3.23","subject":"evchr5ozhs81woj","sona":"7624"},{"rt":309,"stimulus":"<p>Ready?</p>","key_press":32,"trial_type":"html-keyboard-response","trial_index":103,"time_elapsed":205679,"internal_node_id":"0.0-8.0-0.24","subject":"evchr5ozhs81woj","sona":"7624"},{"rt":null,"stimulus":"<div style=\"font-size:60px;\">+</div>","key_press":null,"trial_type":"html-keyboard-response","trial_index":104,"time_elapsed":207681,"internal_node_id":"0.0-8.0-1.24","subject":"evchr5ozhs81woj","sona":"7624"},{"trial_type":"turing-test","trial_index":105,"time_elapsed":211635,"internal_node_id":"0.0-8.0-2.24","subject":"evchr5ozhs81woj","sona":"7624"},{"rt":283,"stimulus":"<p>Which sequence did you perceive as more natural?</p>","key_press":74,"test_part":"response","test_stimulus":{"position":1,"left":"bvh/vr_prediction_models/model(vcgpdm)-dataset(return-bottle-hold)-mode(ELBO)-parts(1)-dyn(35)-lvm(30)-hold(4)/final-lines.txt","right":"bvh/return-bottle-hold-training4-lines.txt","att_check":false},"trial_type":"html-keyboard-response","trial_index":106,"time_elapsed":211919,"internal_node_id":"0.0-8.0-3.24","subject":"evchr5ozhs81woj","sona":"7624"},{"rt":366,"stimulus":"<p>Ready?</p>","key_press":32,"trial_type":"html-keyboard-response","trial_index":107,"time_elapsed":212287,"internal_node_id":"0.0-8.0-0.25","subject":"evchr5ozhs81woj","sona":"7624"},{"rt":null,"stimulus":"<div style=\"font-size:60px;\">+</div>","key_press":null,"trial_type":"html-keyboard-response","trial_index":108,"time_elapsed":214290,"internal_node_id":"0.0-8.0-1.25","subject":"evchr5ozhs81woj","sona":"7624"},{"trial_type":"turing-test","trial_index":109,"time_elapsed":221880,"internal_node_id":"0.0-8.0-2.25","subject":"evchr5ozhs81woj","sona":"7624"},{"rt":431,"stimulus":"<p>Which sequence did you perceive as more natural?</p>","key_press":70,"test_part":"response","test_stimulus":{"position":0,"left":"bvh/return-bottle-hold-training0-lines.txt","right":"bvh/vr_prediction_models/model(vcgpdm)-dataset(return-bottle-hold)-mode(ELBO)-parts(1)-dyn(15)-lvm(35)-hold(0)/final-lines.txt","att_check":false},"trial_type":"html-keyboard-response","trial_index":110,"time_elapsed":222313,"internal_node_id":"0.0-8.0-3.25","subject":"evchr5ozhs81woj","sona":"7624"},{"rt":365,"stimulus":"<p>Ready?</p>","key_press":32,"trial_type":"html-keyboard-response","trial_index":111,"time_elapsed":222680,"internal_node_id":"0.0-8.0-0.26","subject":"evchr5ozhs81woj","sona":"7624"},{"rt":null,"stimulus":"<div style=\"font-size:60px;\">+</div>","key_press":null,"trial_type":"html-keyboard-response","trial_index":112,"time_elapsed":224684,"internal_node_id":"0.0-8.0-1.26","subject":"evchr5ozhs81woj","sona":"7624"},{"trial_type":"turing-test","trial_index":113,"time_elapsed":227780,"internal_node_id":"0.0-8.0-2.26","subject":"evchr5ozhs81woj","sona":"7624"},{"rt":420,"stimulus":"<p>Which sequence did you perceive as more natural?</p>","key_press":70,"test_part":"response","test_stimulus":{"position":0,"left":"bvh/pass-bottle-hold-training1-lines.txt","right":"bvh/vr_prediction_models/model(tmp)-dataset(pass-bottle-hold)-numprim(11)-hold(1)/final-lines.txt","att_check":false},"trial_type":"html-keyboard-response","trial_index":114,"time_elapsed":228201,"internal_node_id":"0.0-8.0-3.26","subject":"evchr5ozhs81woj","sona":"7624"},{"rt":246,"stimulus":"<p>Ready?</p>","key_press":32,"trial_type":"html-keyboard-response","trial_index":115,"time_elapsed":228448,"internal_node_id":"0.0-8.0-0.27","subject":"evchr5ozhs81woj","sona":"7624"},{"rt":null,"stimulus":"<div style=\"font-size:60px;\">+</div>","key_press":null,"trial_type":"html-keyboard-response","trial_index":116,"time_elapsed":230450,"internal_node_id":"0.0-8.0-1.27","subject":"evchr5ozhs81woj","sona":"7624"},{"trial_type":"turing-test","trial_index":117,"time_elapsed":235812,"internal_node_id":"0.0-8.0-2.27","subject":"evchr5ozhs81woj","sona":"7624"},{"rt":459,"stimulus":"<p>Which sequence did you perceive as more natural?</p>","key_press":74,"test_part":"response","test_stimulus":{"position":1,"left":"bvh/vr_prediction_models/model(vcgpdm)-dataset(return-bottle-hold)-mode(MAP)-parts(3)-hold(0)/final-lines.txt","right":"bvh/return-bottle-hold-training0-lines.txt","att_check":false},"trial_type":"html-keyboard-response","trial_index":118,"time_elapsed":236273,"internal_node_id":"0.0-8.0-3.27","subject":"evchr5ozhs81woj","sona":"7624"},{"rt":447,"stimulus":"<p>Ready?</p>","key_press":32,"trial_type":"html-keyboard-response","trial_index":119,"time_elapsed":236720,"internal_node_id":"0.0-8.0-0.28","subject":"evchr5ozhs81woj","sona":"7624"},{"rt":null,"stimulus":"<div style=\"font-size:60px;\">+</div>","key_press":null,"trial_type":"html-keyboard-response","trial_index":120,"time_elapsed":238724,"internal_node_id":"0.0-8.0-1.28","subject":"evchr5ozhs81woj","sona":"7624"},{"trial_type":"turing-test","trial_index":121,"time_elapsed":242357,"internal_node_id":"0.0-8.0-2.28","subject":"evchr5ozhs81woj","sona":"7624"},{"rt":497,"stimulus":"<p>Which sequence did you perceive as more natural?</p>","key_press":74,"test_part":"response","test_stimulus":{"position":0,"left":"bvh/return-bottle-hold-training3-lines.txt","right":"bvh/vr_prediction_models/model(tmp)-dataset(return-bottle-hold)-numprim(13)-hold(3)/final-lines.txt","att_check":false},"trial_type":"html-keyboard-response","trial_index":122,"time_elapsed":242857,"internal_node_id":"0.0-8.0-3.28","subject":"evchr5ozhs81woj","sona":"7624"},{"rt":42673,"stimulus":"<p>Ready?</p>","key_press":32,"trial_type":"html-keyboard-response","trial_index":123,"time_elapsed":285531,"internal_node_id":"0.0-8.0-0.29","subject":"evchr5ozhs81woj","sona":"7624"},{"rt":null,"stimulus":"<div style=\"font-size:60px;\">+</div>","key_press":null,"trial_type":"html-keyboard-response","trial_index":124,"time_elapsed":287536,"internal_node_id":"0.0-8.0-1.29","subject":"evchr5ozhs81woj","sona":"7624"},{"trial_type":"turing-test","trial_index":125,"time_elapsed":292883,"internal_node_id":"0.0-8.0-2.29","subject":"evchr5ozhs81woj","sona":"7624"},{"rt":630,"stimulus":"<p>Which sequence did you perceive as more natural?</p>","key_press":74,"test_part":"response","test_stimulus":{"position":0,"left":"bvh/return-bottle-hold-training0-lines.txt","right":"bvh/vr_prediction_models/model(vcgpdm)-dataset(return-bottle-hold)-mode(ELBO)-parts(1)-dyn(10)-lvm(25)-hold(0)/final-lines.txt","att_check":false},"trial_type":"html-keyboard-response","trial_index":126,"time_elapsed":293514,"internal_node_id":"0.0-8.0-3.29","subject":"evchr5ozhs81woj","sona":"7624"},{"rt":77439,"stimulus":"<p>Ready?</p>","key_press":32,"trial_type":"html-keyboard-response","trial_index":127,"time_elapsed":370956,"internal_node_id":"0.0-8.0-0.30","subject":"evchr5ozhs81woj","sona":"7624"},{"rt":null,"stimulus":"<div style=\"font-size:60px;\">+</div>","key_press":null,"trial_type":"html-keyboard-response","trial_index":128,"time_elapsed":372958,"internal_node_id":"0.0-8.0-1.30","subject":"evchr5ozhs81woj","sona":"7624"},{"trial_type":"turing-test","trial_index":129,"time_elapsed":379936,"internal_node_id":"0.0-8.0-2.30","subject":"evchr5ozhs81woj","sona":"7624"},{"rt":353,"stimulus":"<p>Which sequence did you perceive as more natural?</p>","key_press":70,"test_part":"response","test_stimulus":{"position":0,"left":"bvh/pass-bottle-training0-lines.txt","right":"bvh/vr_prediction_models/model(vcgpdm)-dataset(pass-bottle)-mode(ELBO)-parts(3)-dyn(15)-lvm(30)-hold(0)/final-lines.txt","att_check":false},"trial_type":"html-keyboard-response","trial_index":130,"time_elapsed":380294,"internal_node_id":"0.0-8.0-3.30","subject":"evchr5ozhs81woj","sona":"7624"},{"rt":436,"stimulus":"<p>Ready?</p>","key_press":32,"trial_type":"html-keyboard-response","trial_index":131,"time_elapsed":380732,"internal_node_id":"0.0-8.0-0.31","subject":"evchr5ozhs81woj","sona":"7624"},{"rt":null,"stimulus":"<div style=\"font-size:60px;\">+</div>","key_press":null,"trial_type":"html-keyboard-response","trial_index":132,"time_elapsed":382738,"internal_node_id":"0.0-8.0-1.31","subject":"evchr5ozhs81woj","sona":"7624"},{"trial_type":"turing-test","trial_index":133,"time_elapsed":385942,"internal_node_id":"0.0-8.0-2.31","subject":"evchr5ozhs81woj","sona":"7624"},{"rt":1094,"stimulus":"<p>Which sequence did you perceive as more natural?</p>","key_press":70,"test_part":"response","test_stimulus":{"position":1,"left":"bvh/vr_prediction_models/model(tmp)-dataset(pass-bottle-hold)-numprim(14)-hold(1)/final-lines.txt","right":"bvh/pass-bottle-hold-training1-lines.txt","att_check":false},"trial_type":"html-keyboard-response","trial_index":134,"time_elapsed":387036,"internal_node_id":"0.0-8.0-3.31","subject":"evchr5ozhs81woj","sona":"7624"},{"rt":174,"stimulus":"<p>Ready?</p>","key_press":32,"trial_type":"html-keyboard-response","trial_index":135,"time_elapsed":387213,"internal_node_id":"0.0-8.0-0.32","subject":"evchr5ozhs81woj","sona":"7624"},{"rt":null,"stimulus":"<div style=\"font-size:60px;\">+</div>","key_press":null,"trial_type":"html-keyboard-response","trial_index":136,"time_elapsed":389216,"internal_node_id":"0.0-8.0-1.32","subject":"evchr5ozhs81woj","sona":"7624"},{"trial_type":"turing-test","trial_index":137,"time_elapsed":395186,"internal_node_id":"0.0-8.0-2.32","subject":"evchr5ozhs81woj","sona":"7624"},{"rt":330,"stimulus":"<p>Which sequence did you perceive as more natural?</p>","key_press":74,"test_part":"response","test_stimulus":{"position":0,"left":"bvh/pass-bottle-training2-lines.txt","right":"bvh/vr_prediction_models/model(tmp)-dataset(pass-bottle)-numprim(3)-hold(2)/final-lines.txt","att_check":false},"trial_type":"html-keyboard-response","trial_index":138,"time_elapsed":395517,"internal_node_id":"0.0-8.0-3.32","subject":"evchr5ozhs81woj","sona":"7624"},{"rt":237,"stimulus":"<p>Ready?</p>","key_press":32,"trial_type":"html-keyboard-response","trial_index":139,"time_elapsed":395756,"internal_node_id":"0.0-8.0-0.33","subject":"evchr5ozhs81woj","sona":"7624"},{"rt":null,"stimulus":"<div style=\"font-size:60px;\">+</div>","key_press":null,"trial_type":"html-keyboard-response","trial_index":140,"time_elapsed":397758,"internal_node_id":"0.0-8.0-1.33","subject":"evchr5ozhs81woj","sona":"7624"},{"trial_type":"turing-test","trial_index":141,"time_elapsed":402750,"internal_node_id":"0.0-8.0-2.33","subject":"evchr5ozhs81woj","sona":"7624"},{"rt":342,"stimulus":"<p>Which sequence did you perceive as more natural?</p>","key_press":70,"test_part":"response","test_stimulus":{"position":0,"left":"bvh/return-bottle-hold-training0-lines.txt","right":"bvh/vr_prediction_models/model(vcgpdm)-dataset(return-bottle-hold)-mode(ELBO)-parts(1)-dyn(10)-lvm(25)-hold(0)/final-lines.txt","att_check":false},"trial_type":"html-keyboard-response","trial_index":142,"time_elapsed":403093,"internal_node_id":"0.0-8.0-3.33","subject":"evchr5ozhs81woj","sona":"7624"},{"rt":302,"stimulus":"<p>Ready?</p>","key_press":32,"trial_type":"html-keyboard-response","trial_index":143,"time_elapsed":403396,"internal_node_id":"0.0-8.0-0.34","subject":"evchr5ozhs81woj","sona":"7624"},{"rt":null,"stimulus":"<div style=\"font-size:60px;\">+</div>","key_press":null,"trial_type":"html-keyboard-response","trial_index":144,"time_elapsed":405400,"internal_node_id":"0.0-8.0-1.34","subject":"evchr5ozhs81woj","sona":"7624"},{"trial_type":"turing-test","trial_index":145,"time_elapsed":408963,"internal_node_id":"0.0-8.0-2.34","subject":"evchr5ozhs81woj","sona":"7624"},{"rt":800,"stimulus":"<p>Which sequence did you perceive as more natural?</p>","key_press":74,"test_part":"response","test_stimulus":{"position":1,"left":"bvh/vr_prediction_models/model(dmp)-dataset(return-bottle-hold)-npsi(80)-hold(2)/final-lines.txt","right":"bvh/return-bottle-hold-training2-lines.txt","att_check":true},"trial_type":"html-keyboard-response","trial_index":146,"time_elapsed":409765,"internal_node_id":"0.0-8.0-3.34","subject":"evchr5ozhs81woj","sona":"7624"},{"rt":246,"stimulus":"<p>Ready?</p>","key_press":32,"trial_type":"html-keyboard-response","trial_index":147,"time_elapsed":410012,"internal_node_id":"0.0-8.0-0.35","subject":"evchr5ozhs81woj","sona":"7624"},{"rt":null,"stimulus":"<div style=\"font-size:60px;\">+</div>","key_press":null,"trial_type":"html-keyboard-response","trial_index":148,"time_elapsed":412016,"internal_node_id":"0.0-8.0-1.35","subject":"evchr5ozhs81woj","sona":"7624"},{"trial_type":"turing-test","trial_index":149,"time_elapsed":416030,"internal_node_id":"0.0-8.0-2.35","subject":"evchr5ozhs81woj","sona":"7624"},{"rt":381,"stimulus":"<p>Which sequence did you perceive as more natural?</p>","key_press":74,"test_part":"response","test_stimulus":{"position":1,"left":"bvh/vr_prediction_models/model(vcgpdm)-dataset(return-bottle-hold)-mode(ELBO)-parts(3)-dyn(10)-lvm(25)-hold(4)/final-lines.txt","right":"bvh/return-bottle-hold-training4-lines.txt","att_check":false},"trial_type":"html-keyboard-response","trial_index":150,"time_elapsed":416413,"internal_node_id":"0.0-8.0-3.35","subject":"evchr5ozhs81woj","sona":"7624"},{"rt":261,"stimulus":"<p>Ready?</p>","key_press":32,"trial_type":"html-keyboard-response","trial_index":151,"time_elapsed":416677,"internal_node_id":"0.0-8.0-0.36","subject":"evchr5ozhs81woj","sona":"7624"},{"rt":null,"stimulus":"<div style=\"font-size:60px;\">+</div>","key_press":null,"trial_type":"html-keyboard-response","trial_index":152,"time_elapsed":418680,"internal_node_id":"0.0-8.0-1.36","subject":"evchr5ozhs81woj","sona":"7624"},{"trial_type":"turing-test","trial_index":153,"time_elapsed":424583,"internal_node_id":"0.0-8.0-2.36","subject":"evchr5ozhs81woj","sona":"7624"},{"rt":445,"stimulus":"<p>Which sequence did you perceive as more natural?</p>","key_press":70,"test_part":"response","test_stimulus":{"position":0,"left":"bvh/return-bottle-training3-lines.txt","right":"bvh/vr_prediction_models/model(vcgpdm)-dataset(return-bottle)-mode(ELBO)-parts(1)-dyn(15)-lvm(35)-hold(3)/final-lines.txt","att_check":false},"trial_type":"html-keyboard-response","trial_index":154,"time_elapsed":425029,"internal_node_id":"0.0-8.0-3.36","subject":"evchr5ozhs81woj","sona":"7624"},{"rt":326,"stimulus":"<p>Ready?</p>","key_press":32,"trial_type":"html-keyboard-response","trial_index":155,"time_elapsed":425357,"internal_node_id":"0.0-8.0-0.37","subject":"evchr5ozhs81woj","sona":"7624"},{"rt":null,"stimulus":"<div style=\"font-size:60px;\">+</div>","key_press":null,"trial_type":"html-keyboard-response","trial_index":156,"time_elapsed":427361,"internal_node_id":"0.0-8.0-1.37","subject":"evchr5ozhs81woj","sona":"7624"},{"trial_type":"turing-test","trial_index":157,"time_elapsed":431123,"internal_node_id":"0.0-8.0-2.37","subject":"evchr5ozhs81woj","sona":"7624"},{"rt":736,"stimulus":"<p>Which sequence did you perceive as more natural?</p>","key_press":74,"test_part":"response","test_stimulus":{"position":0,"left":"bvh/pass-bottle-hold-training3-lines.txt","right":"bvh/vr_prediction_models/model(vcgpdm)-dataset(pass-bottle-hold)-mode(ELBO)-parts(1)-dyn(20)-lvm(30)-hold(3)/final-lines.txt","att_check":false},"trial_type":"html-keyboard-response","trial_index":158,"time_elapsed":431861,"internal_node_id":"0.0-8.0-3.37","subject":"evchr5ozhs81woj","sona":"7624"},{"rt":255,"stimulus":"<p>Ready?</p>","key_press":32,"trial_type":"html-keyboard-response","trial_index":159,"time_elapsed":432118,"internal_node_id":"0.0-8.0-0.38","subject":"evchr5ozhs81woj","sona":"7624"},{"rt":null,"stimulus":"<div style=\"font-size:60px;\">+</div>","key_press":null,"trial_type":"html-keyboard-response","trial_index":160,"time_elapsed":434124,"internal_node_id":"0.0-8.0-1.38","subject":"evchr5ozhs81woj","sona":"7624"},{"trial_type":"turing-test","trial_index":161,"time_elapsed":439849,"internal_node_id":"0.0-8.0-2.38","subject":"evchr5ozhs81woj","sona":"7624"},{"rt":612,"stimulus":"<p>Which sequence did you perceive as more natural?</p>","key_press":70,"test_part":"response","test_stimulus":{"position":0,"left":"bvh/pass-bottle-training4-lines.txt","right":"bvh/vr_prediction_models/model(dmp)-dataset(pass-bottle)-npsi(50)-hold(4)/final-lines.txt","att_check":true},"trial_type":"html-keyboard-response","trial_index":162,"time_elapsed":440463,"internal_node_id":"0.0-8.0-3.38","subject":"evchr5ozhs81woj","sona":"7624"},{"rt":230,"stimulus":"<p>Ready?</p>","key_press":32,"trial_type":"html-keyboard-response","trial_index":163,"time_elapsed":440694,"internal_node_id":"0.0-8.0-0.39","subject":"evchr5ozhs81woj","sona":"7624"},{"rt":null,"stimulus":"<div style=\"font-size:60px;\">+</div>","key_press":null,"trial_type":"html-keyboard-response","trial_index":164,"time_elapsed":442697,"internal_node_id":"0.0-8.0-1.39","subject":"evchr5ozhs81woj","sona":"7624"},{"trial_type":"turing-test","trial_index":165,"time_elapsed":446234,"internal_node_id":"0.0-8.0-2.39","subject":"evchr5ozhs81woj","sona":"7624"},{"rt":1243,"stimulus":"<p>Which sequence did you perceive as more natural?</p>","key_press":70,"test_part":"response","test_stimulus":{"position":1,"left":"bvh/vr_prediction_models/model(vcgpdm)-dataset(pass-bottle-hold)-mode(ELBO)-parts(3)-dyn(20)-lvm(15)-hold(0)/final-lines.txt","right":"bvh/pass-bottle-hold-training0-lines.txt","att_check":false},"trial_type":"html-keyboard-response","trial_index":166,"time_elapsed":447478,"internal_node_id":"0.0-8.0-3.39","subject":"evchr5ozhs81woj","sona":"7624"},{"rt":151,"stimulus":"<p>Ready?</p>","key_press":32,"trial_type":"html-keyboard-response","trial_index":167,"time_elapsed":447629,"internal_node_id":"0.0-8.0-0.40","subject":"evchr5ozhs81woj","sona":"7624"},{"rt":null,"stimulus":"<div style=\"font-size:60px;\">+</div>","key_press":null,"trial_type":"html-keyboard-response","trial_index":168,"time_elapsed":449633,"internal_node_id":"0.0-8.0-1.40","subject":"evchr5ozhs81woj","sona":"7624"},{"trial_type":"turing-test","trial_index":169,"time_elapsed":453186,"internal_node_id":"0.0-8.0-2.40","subject":"evchr5ozhs81woj","sona":"7624"},{"rt":747,"stimulus":"<p>Which sequence did you perceive as more natural?</p>","key_press":70,"test_part":"response","test_stimulus":{"position":1,"left":"bvh/vr_prediction_models/model(tmp)-dataset(pass-bottle-hold)-numprim(12)-hold(4)/final-lines.txt","right":"bvh/pass-bottle-hold-training4-lines.txt","att_check":false},"trial_type":"html-keyboard-response","trial_index":170,"time_elapsed":453934,"internal_node_id":"0.0-8.0-3.40","subject":"evchr5ozhs81woj","sona":"7624"},{"rt":158,"stimulus":"<p>Ready?</p>","key_press":32,"trial_type":"html-keyboard-response","trial_index":171,"time_elapsed":454094,"internal_node_id":"0.0-8.0-0.41","subject":"evchr5ozhs81woj","sona":"7624"},{"rt":null,"stimulus":"<div style=\"font-size:60px;\">+</div>","key_press":null,"trial_type":"html-keyboard-response","trial_index":172,"time_elapsed":456101,"internal_node_id":"0.0-8.0-1.41","subject":"evchr5ozhs81woj","sona":"7624"},{"trial_type":"turing-test","trial_index":173,"time_elapsed":461690,"internal_node_id":"0.0-8.0-2.41","subject":"evchr5ozhs81woj","sona":"7624"},{"rt":364,"stimulus":"<p>Which sequence did you perceive as more natural?</p>","key_press":70,"test_part":"response","test_stimulus":{"position":0,"left":"bvh/pass-bottle-training4-lines.txt","right":"bvh/vr_prediction_models/model(dmp)-dataset(pass-bottle)-npsi(40)-hold(4)/final-lines.txt","att_check":false},"trial_type":"html-keyboard-response","trial_index":174,"time_elapsed":462054,"internal_node_id":"0.0-8.0-3.41","subject":"evchr5ozhs81woj","sona":"7624"},{"rt":230,"stimulus":"<p>Ready?</p>","key_press":32,"trial_type":"html-keyboard-response","trial_index":175,"time_elapsed":462286,"internal_node_id":"0.0-8.0-0.42","subject":"evchr5ozhs81woj","sona":"7624"},{"rt":null,"stimulus":"<div style=\"font-size:60px;\">+</div>","key_press":null,"trial_type":"html-keyboard-response","trial_index":176,"time_elapsed":464292,"internal_node_id":"0.0-8.0-1.42","subject":"evchr5ozhs81woj","sona":"7624"},{"trial_type":"turing-test","trial_index":177,"time_elapsed":467604,"internal_node_id":"0.0-8.0-2.42","subject":"evchr5ozhs81woj","sona":"7624"},{"rt":585,"stimulus":"<p>Which sequence did you perceive as more natural?</p>","key_press":74,"test_part":"response","test_stimulus":{"position":0,"left":"bvh/pass-bottle-hold-training2-lines.txt","right":"bvh/vr_prediction_models/model(dmp)-dataset(pass-bottle-hold)-npsi(40)-hold(2)/final-lines.txt","att_check":false},"trial_type":"html-keyboard-response","trial_index":178,"time_elapsed":468190,"internal_node_id":"0.0-8.0-3.42","subject":"evchr5ozhs81woj","sona":"7624"},{"rt":150,"stimulus":"<p>Ready?</p>","key_press":32,"trial_type":"html-keyboard-response","trial_index":179,"time_elapsed":468342,"internal_node_id":"0.0-8.0-0.43","subject":"evchr5ozhs81woj","sona":"7624"},{"rt":null,"stimulus":"<div style=\"font-size:60px;\">+</div>","key_press":null,"trial_type":"html-keyboard-response","trial_index":180,"time_elapsed":470350,"internal_node_id":"0.0-8.0-1.43","subject":"evchr5ozhs81woj","sona":"7624"},{"trial_type":"turing-test","trial_index":181,"time_elapsed":476625,"internal_node_id":"0.0-8.0-2.43","subject":"evchr5ozhs81woj","sona":"7624"},{"rt":621,"stimulus":"<p>Which sequence did you perceive as more natural?</p>","key_press":70,"test_part":"response","test_stimulus":{"position":0,"left":"bvh/pass-bottle-training2-lines.txt","right":"bvh/vr_prediction_models/model(vcgpdm)-dataset(pass-bottle)-mode(ELBO)-parts(3)-dyn(35)-lvm(20)-hold(2)/final-lines.txt","att_check":false},"trial_type":"html-keyboard-response","trial_index":182,"time_elapsed":477247,"internal_node_id":"0.0-8.0-3.43","subject":"evchr5ozhs81woj","sona":"7624"},{"rt":166,"stimulus":"<p>Ready?</p>","key_press":32,"trial_type":"html-keyboard-response","trial_index":183,"time_elapsed":477415,"internal_node_id":"0.0-8.0-0.44","subject":"evchr5ozhs81woj","sona":"7624"},{"rt":null,"stimulus":"<div style=\"font-size:60px;\">+</div>","key_press":null,"trial_type":"html-keyboard-response","trial_index":184,"time_elapsed":479416,"internal_node_id":"0.0-8.0-1.44","subject":"evchr5ozhs81woj","sona":"7624"},{"trial_type":"turing-test","trial_index":185,"time_elapsed":484882,"internal_node_id":"0.0-8.0-2.44","subject":"evchr5ozhs81woj","sona":"7624"},{"rt":491,"stimulus":"<p>Which sequence did you perceive as more natural?</p>","key_press":70,"test_part":"response","test_stimulus":{"position":1,"left":"bvh/vr_prediction_models/model(tmp)-dataset(return-bottle-hold)-numprim(13)-hold(0)/final-lines.txt","right":"bvh/return-bottle-hold-training0-lines.txt","att_check":false},"trial_type":"html-keyboard-response","trial_index":186,"time_elapsed":485375,"internal_node_id":"0.0-8.0-3.44","subject":"evchr5ozhs81woj","sona":"7624"},{"rt":222,"stimulus":"<p>Ready?</p>","key_press":32,"trial_type":"html-keyboard-response","trial_index":187,"time_elapsed":485598,"internal_node_id":"0.0-8.0-0.45","subject":"evchr5ozhs81woj","sona":"7624"},{"rt":null,"stimulus":"<div style=\"font-size:60px;\">+</div>","key_press":null,"trial_type":"html-keyboard-response","trial_index":188,"time_elapsed":487604,"internal_node_id":"0.0-8.0-1.45","subject":"evchr5ozhs81woj","sona":"7624"},{"trial_type":"turing-test","trial_index":189,"time_elapsed":494165,"internal_node_id":"0.0-8.0-2.45","subject":"evchr5ozhs81woj","sona":"7624"},{"rt":335,"stimulus":"<p>Which sequence did you perceive as more natural?</p>","key_press":74,"test_part":"response","test_stimulus":{"position":1,"left":"bvh/vr_prediction_models/model(tmp)-dataset(return-bottle)-numprim(8)-hold(2)/final-lines.txt","right":"bvh/return-bottle-training2-lines.txt","att_check":false},"trial_type":"html-keyboard-response","trial_index":190,"time_elapsed":494503,"internal_node_id":"0.0-8.0-3.45","subject":"evchr5ozhs81woj","sona":"7624"},{"rt":294,"stimulus":"<p>Ready?</p>","key_press":32,"trial_type":"html-keyboard-response","trial_index":191,"time_elapsed":494798,"internal_node_id":"0.0-8.0-0.46","subject":"evchr5ozhs81woj","sona":"7624"},{"rt":null,"stimulus":"<div style=\"font-size:60px;\">+</div>","key_press":null,"trial_type":"html-keyboard-response","trial_index":192,"time_elapsed":496810,"internal_node_id":"0.0-8.0-1.46","subject":"evchr5ozhs81woj","sona":"7624"},{"trial_type":"turing-test","trial_index":193,"time_elapsed":500542,"internal_node_id":"0.0-8.0-2.46","subject":"evchr5ozhs81woj","sona":"7624"},{"rt":600,"stimulus":"<p>Which sequence did you perceive as more natural?</p>","key_press":74,"test_part":"response","test_stimulus":{"position":0,"left":"bvh/return-bottle-hold-training2-lines.txt","right":"bvh/vr_prediction_models/model(vcgpdm)-dataset(return-bottle-hold)-mode(ELBO)-parts(3)-dyn(25)-lvm(30)-hold(2)/final-lines.txt","att_check":false},"trial_type":"html-keyboard-response","trial_index":194,"time_elapsed":501143,"internal_node_id":"0.0-8.0-3.46","subject":"evchr5ozhs81woj","sona":"7624"},{"rt":278,"stimulus":"<p>Ready?</p>","key_press":32,"trial_type":"html-keyboard-response","trial_index":195,"time_elapsed":501423,"internal_node_id":"0.0-8.0-0.47","subject":"evchr5ozhs81woj","sona":"7624"},{"rt":null,"stimulus":"<div style=\"font-size:60px;\">+</div>","key_press":null,"trial_type":"html-keyboard-response","trial_index":196,"time_elapsed":503429,"internal_node_id":"0.0-8.0-1.47","subject":"evchr5ozhs81woj","sona":"7624"},{"trial_type":"turing-test","trial_index":197,"time_elapsed":507117,"internal_node_id":"0.0-8.0-2.47","subject":"evchr5ozhs81woj","sona":"7624"},{"rt":658,"stimulus":"<p>Which sequence did you perceive as more natural?</p>","key_press":70,"test_part":"response","test_stimulus":{"position":0,"left":"bvh/return-bottle-hold-training2-lines.txt","right":"bvh/vr_prediction_models/model(vcgpdm)-dataset(return-bottle-hold)-mode(ELBO)-parts(3)-dyn(10)-lvm(30)-hold(2)/final-lines.txt","att_check":false},"trial_type":"html-keyboard-response","trial_index":198,"time_elapsed":507775,"internal_node_id":"0.0-8.0-3.47","subject":"evchr5ozhs81woj","sona":"7624"},{"rt":174,"stimulus":"<p>Ready?</p>","key_press":32,"trial_type":"html-keyboard-response","trial_index":199,"time_elapsed":507951,"internal_node_id":"0.0-8.0-0.48","subject":"evchr5ozhs81woj","sona":"7624"},{"rt":null,"stimulus":"<div style=\"font-size:60px;\">+</div>","key_press":null,"trial_type":"html-keyboard-response","trial_index":200,"time_elapsed":509961,"internal_node_id":"0.0-8.0-1.48","subject":"evchr5ozhs81woj","sona":"7624"},{"trial_type":"turing-test","trial_index":201,"time_elapsed":516316,"internal_node_id":"0.0-8.0-2.48","subject":"evchr5ozhs81woj","sona":"7624"},{"rt":313,"stimulus":"<p>Which sequence did you perceive as more natural?</p>","key_press":74,"test_part":"response","test_stimulus":{"position":1,"left":"bvh/vr_prediction_models/model(vcgpdm)-dataset(pass-bottle)-mode(ELBO)-parts(3)-dyn(20)-lvm(35)-hold(2)/final-lines.txt","right":"bvh/pass-bottle-training2-lines.txt","att_check":false},"trial_type":"html-keyboard-response","trial_index":202,"time_elapsed":516632,"internal_node_id":"0.0-8.0-3.48","subject":"evchr5ozhs81woj","sona":"7624"},{"rt":340,"stimulus":"<p>Ready?</p>","key_press":32,"trial_type":"html-keyboard-response","trial_index":203,"time_elapsed":516975,"internal_node_id":"0.0-8.0-0.49","subject":"evchr5ozhs81woj","sona":"7624"},{"rt":null,"stimulus":"<div style=\"font-size:60px;\">+</div>","key_press":null,"trial_type":"html-keyboard-response","trial_index":204,"time_elapsed":518980,"internal_node_id":"0.0-8.0-1.49","subject":"evchr5ozhs81woj","sona":"7624"},{"trial_type":"turing-test","trial_index":205,"time_elapsed":524681,"internal_node_id":"0.0-8.0-2.49","subject":"evchr5ozhs81woj","sona":"7624"},{"rt":486,"stimulus":"<p>Which sequence did you perceive as more natural?</p>","key_press":70,"test_part":"response","test_stimulus":{"position":0,"left":"bvh/pass-bottle-training4-lines.txt","right":"bvh/vr_prediction_models/model(dmp)-dataset(pass-bottle)-npsi(80)-hold(4)/final-lines.txt","att_check":false},"trial_type":"html-keyboard-response","trial_index":206,"time_elapsed":525168,"internal_node_id":"0.0-8.0-3.49","subject":"evchr5ozhs81woj","sona":"7624"},{"rt":247,"stimulus":"<p>Ready?</p>","key_press":32,"trial_type":"html-keyboard-response","trial_index":207,"time_elapsed":525415,"internal_node_id":"0.0-8.0-0.50","subject":"evchr5ozhs81woj","sona":"7624"},{"rt":null,"stimulus":"<div style=\"font-size:60px;\">+</div>","key_press":null,"trial_type":"html-keyboard-response","trial_index":208,"time_elapsed":527420,"internal_node_id":"0.0-8.0-1.50","subject":"evchr5ozhs81woj","sona":"7624"},{"trial_type":"turing-test","trial_index":209,"time_elapsed":534399,"internal_node_id":"0.0-8.0-2.50","subject":"evchr5ozhs81woj","sona":"7624"},{"rt":423,"stimulus":"<p>Which sequence did you perceive as more natural?</p>","key_press":70,"test_part":"response","test_stimulus":{"position":0,"left":"bvh/return-bottle-training2-lines.txt","right":"bvh/vr_prediction_models/model(vcgpdm)-dataset(return-bottle)-mode(ELBO)-parts(1)-dyn(30)-lvm(20)-hold(2)/final-lines.txt","att_check":false},"trial_type":"html-keyboard-response","trial_index":210,"time_elapsed":534824,"internal_node_id":"0.0-8.0-3.50","subject":"evchr5ozhs81woj","sona":"7624"},{"rt":287,"stimulus":"<p>Ready?</p>","key_press":32,"trial_type":"html-keyboard-response","trial_index":211,"time_elapsed":535112,"internal_node_id":"0.0-8.0-0.51","subject":"evchr5ozhs81woj","sona":"7624"},{"rt":null,"stimulus":"<div style=\"font-size:60px;\">+</div>","key_press":null,"trial_type":"html-keyboard-response","trial_index":212,"time_elapsed":537118,"internal_node_id":"0.0-8.0-1.51","subject":"evchr5ozhs81woj","sona":"7624"},{"trial_type":"turing-test","trial_index":213,"time_elapsed":540883,"internal_node_id":"0.0-8.0-2.51","subject":"evchr5ozhs81woj","sona":"7624"},{"rt":260,"stimulus":"<p>Which sequence did you perceive as more natural?</p>","key_press":70,"test_part":"response","test_stimulus":{"position":1,"left":"bvh/vr_prediction_models/model(vcgpdm)-dataset(pass-bottle-hold)-mode(ELBO)-parts(3)-dyn(15)-lvm(30)-hold(3)/final-lines.txt","right":"bvh/pass-bottle-hold-training3-lines.txt","att_check":false},"trial_type":"html-keyboard-response","trial_index":214,"time_elapsed":541144,"internal_node_id":"0.0-8.0-3.51","subject":"evchr5ozhs81woj","sona":"7624"},{"rt":326,"stimulus":"<p>Ready?</p>","key_press":32,"trial_type":"html-keyboard-response","trial_index":215,"time_elapsed":541472,"internal_node_id":"0.0-8.0-0.52","subject":"evchr5ozhs81woj","sona":"7624"},{"rt":null,"stimulus":"<div style=\"font-size:60px;\">+</div>","key_press":null,"trial_type":"html-keyboard-response","trial_index":216,"time_elapsed":543478,"internal_node_id":"0.0-8.0-1.52","subject":"evchr5ozhs81woj","sona":"7624"},{"trial_type":"turing-test","trial_index":217,"time_elapsed":549888,"internal_node_id":"0.0-8.0-2.52","subject":"evchr5ozhs81woj","sona":"7624"},{"rt":56,"stimulus":"<p>Which sequence did you perceive as more natural?</p>","key_press":74,"test_part":"response","test_stimulus":{"position":0,"left":"bvh/pass-bottle-training2-lines.txt","right":"bvh/vr_prediction_models/model(vcgpdm)-dataset(pass-bottle)-mode(MAP)-parts(1)-hold(2)/final-lines.txt","att_check":false},"trial_type":"html-keyboard-response","trial_index":218,"time_elapsed":549944,"internal_node_id":"0.0-8.0-3.52","subject":"evchr5ozhs81woj","sona":"7624"},{"rt":350,"stimulus":"<p>Ready?</p>","key_press":32,"trial_type":"html-keyboard-response","trial_index":219,"time_elapsed":550296,"internal_node_id":"0.0-8.0-0.53","subject":"evchr5ozhs81woj","sona":"7624"},{"rt":null,"stimulus":"<div style=\"font-size:60px;\">+</div>","key_press":null,"trial_type":"html-keyboard-response","trial_index":220,"time_elapsed":552300,"internal_node_id":"0.0-8.0-1.53","subject":"evchr5ozhs81woj","sona":"7624"},{"trial_type":"turing-test","trial_index":221,"time_elapsed":558741,"internal_node_id":"0.0-8.0-2.53","subject":"evchr5ozhs81woj","sona":"7624"},{"rt":737,"stimulus":"<p>Which sequence did you perceive as more natural?</p>","key_press":74,"test_part":"response","test_stimulus":{"position":1,"left":"bvh/vr_prediction_models/model(vcgpdm)-dataset(return-bottle)-mode(ELBO)-parts(3)-dyn(25)-lvm(15)-hold(2)/final-lines.txt","right":"bvh/return-bottle-training2-lines.txt","att_check":false},"trial_type":"html-keyboard-response","trial_index":222,"time_elapsed":559480,"internal_node_id":"0.0-8.0-3.53","subject":"evchr5ozhs81woj","sona":"7624"},{"rt":239,"stimulus":"<p>Ready?</p>","key_press":32,"trial_type":"html-keyboard-response","trial_index":223,"time_elapsed":559720,"internal_node_id":"0.0-8.0-0.54","subject":"evchr5ozhs81woj","sona":"7624"},{"rt":null,"stimulus":"<div style=\"font-size:60px;\">+</div>","key_press":null,"trial_type":"html-keyboard-response","trial_index":224,"time_elapsed":561724,"internal_node_id":"0.0-8.0-1.54","subject":"evchr5ozhs81woj","sona":"7624"},{"trial_type":"turing-test","trial_index":225,"time_elapsed":567811,"internal_node_id":"0.0-8.0-2.54","subject":"evchr5ozhs81woj","sona":"7624"},{"rt":348,"stimulus":"<p>Which sequence did you perceive as more natural?</p>","key_press":74,"test_part":"response","test_stimulus":{"position":1,"left":"bvh/vr_prediction_models/model(dmp)-dataset(return-bottle)-npsi(60)-hold(1)/final-lines.txt","right":"bvh/return-bottle-training1-lines.txt","att_check":false},"trial_type":"html-keyboard-response","trial_index":226,"time_elapsed":568161,"internal_node_id":"0.0-8.0-3.54","subject":"evchr5ozhs81woj","sona":"7624"},{"rt":246,"stimulus":"<p>Ready?</p>","key_press":32,"trial_type":"html-keyboard-response","trial_index":227,"time_elapsed":568409,"internal_node_id":"0.0-8.0-0.55","subject":"evchr5ozhs81woj","sona":"7624"},{"rt":null,"stimulus":"<div style=\"font-size:60px;\">+</div>","key_press":null,"trial_type":"html-keyboard-response","trial_index":228,"time_elapsed":570411,"internal_node_id":"0.0-8.0-1.55","subject":"evchr5ozhs81woj","sona":"7624"},{"trial_type":"turing-test","trial_index":229,"time_elapsed":576135,"internal_node_id":"0.0-8.0-2.55","subject":"evchr5ozhs81woj","sona":"7624"},{"rt":600,"stimulus":"<p>Which sequence did you perceive as more natural?</p>","key_press":70,"test_part":"response","test_stimulus":{"position":0,"left":"bvh/pass-bottle-training4-lines.txt","right":"bvh/vr_prediction_models/model(dmp)-dataset(pass-bottle)-npsi(100)-hold(4)/final-lines.txt","att_check":false},"trial_type":"html-keyboard-response","trial_index":230,"time_elapsed":576737,"internal_node_id":"0.0-8.0-3.55","subject":"evchr5ozhs81woj","sona":"7624"},{"rt":245,"stimulus":"<p>Ready?</p>","key_press":32,"trial_type":"html-keyboard-response","trial_index":231,"time_elapsed":576985,"internal_node_id":"0.0-8.0-0.56","subject":"evchr5ozhs81woj","sona":"7624"},{"rt":null,"stimulus":"<div style=\"font-size:60px;\">+</div>","key_press":null,"trial_type":"html-keyboard-response","trial_index":232,"time_elapsed":578987,"internal_node_id":"0.0-8.0-1.56","subject":"evchr5ozhs81woj","sona":"7624"},{"trial_type":"turing-test","trial_index":233,"time_elapsed":584398,"internal_node_id":"0.0-8.0-2.56","subject":"evchr5ozhs81woj","sona":"7624"},{"rt":345,"stimulus":"<p>Which sequence did you perceive as more natural?</p>","key_press":74,"test_part":"response","test_stimulus":{"position":1,"left":"bvh/vr_prediction_models/model(vcgpdm)-dataset(return-bottle-hold)-mode(ELBO)-parts(3)-dyn(10)-lvm(25)-hold(0)/final-lines.txt","right":"bvh/return-bottle-hold-training0-lines.txt","att_check":false},"trial_type":"html-keyboard-response","trial_index":234,"time_elapsed":584745,"internal_node_id":"0.0-8.0-3.56","subject":"evchr5ozhs81woj","sona":"7624"},{"rt":262,"stimulus":"<p>Ready?</p>","key_press":32,"trial_type":"html-keyboard-response","trial_index":235,"time_elapsed":585008,"internal_node_id":"0.0-8.0-0.57","subject":"evchr5ozhs81woj","sona":"7624"},{"rt":null,"stimulus":"<div style=\"font-size:60px;\">+</div>","key_press":null,"trial_type":"html-keyboard-response","trial_index":236,"time_elapsed":587013,"internal_node_id":"0.0-8.0-1.57","subject":"evchr5ozhs81woj","sona":"7624"},{"trial_type":"turing-test","trial_index":237,"time_elapsed":590640,"internal_node_id":"0.0-8.0-2.57","subject":"evchr5ozhs81woj","sona":"7624"},{"rt":520,"stimulus":"<p>Which sequence did you perceive as more natural?</p>","key_press":74,"test_part":"response","test_stimulus":{"position":1,"left":"bvh/vr_prediction_models/model(vcgpdm)-dataset(pass-bottle-hold)-mode(ELBO)-parts(1)-dyn(5)-lvm(5)-hold(0)/final-lines.txt","right":"bvh/pass-bottle-hold-training0-lines.txt","att_check":false},"trial_type":"html-keyboard-response","trial_index":238,"time_elapsed":591161,"internal_node_id":"0.0-8.0-3.57","subject":"evchr5ozhs81woj","sona":"7624"},{"rt":270,"stimulus":"<p>Ready?</p>","key_press":32,"trial_type":"html-keyboard-response","trial_index":239,"time_elapsed":591433,"internal_node_id":"0.0-8.0-0.58","subject":"evchr5ozhs81woj","sona":"7624"},{"rt":null,"stimulus":"<div style=\"font-size:60px;\">+</div>","key_press":null,"trial_type":"html-keyboard-response","trial_index":240,"time_elapsed":593436,"internal_node_id":"0.0-8.0-1.58","subject":"evchr5ozhs81woj","sona":"7624"},{"trial_type":"turing-test","trial_index":241,"time_elapsed":599176,"internal_node_id":"0.0-8.0-2.58","subject":"evchr5ozhs81woj","sona":"7624"},{"rt":297,"stimulus":"<p>Which sequence did you perceive as more natural?</p>","key_press":74,"test_part":"response","test_stimulus":{"position":1,"left":"bvh/vr_prediction_models/model(vcgpdm)-dataset(pass-bottle)-mode(ELBO)-parts(3)-dyn(25)-lvm(30)-hold(1)/final-lines.txt","right":"bvh/pass-bottle-training1-lines.txt","att_check":false},"trial_type":"html-keyboard-response","trial_index":242,"time_elapsed":599473,"internal_node_id":"0.0-8.0-3.58","subject":"evchr5ozhs81woj","sona":"7624"},{"rt":238,"stimulus":"<p>Ready?</p>","key_press":32,"trial_type":"html-keyboard-response","trial_index":243,"time_elapsed":599713,"internal_node_id":"0.0-8.0-0.59","subject":"evchr5ozhs81woj","sona":"7624"},{"rt":null,"stimulus":"<div style=\"font-size:60px;\">+</div>","key_press":null,"trial_type":"html-keyboard-response","trial_index":244,"time_elapsed":601717,"internal_node_id":"0.0-8.0-1.59","subject":"evchr5ozhs81woj","sona":"7624"},{"trial_type":"turing-test","trial_index":245,"time_elapsed":605333,"internal_node_id":"0.0-8.0-2.59","subject":"evchr5ozhs81woj","sona":"7624"},{"rt":283,"stimulus":"<p>Which sequence did you perceive as more natural?</p>","key_press":74,"test_part":"response","test_stimulus":{"position":1,"left":"bvh/vr_prediction_models/model(dmp)-dataset(return-bottle-hold)-npsi(90)-hold(3)/final-lines.txt","right":"bvh/return-bottle-hold-training3-lines.txt","att_check":false},"trial_type":"html-keyboard-response","trial_index":246,"time_elapsed":605618,"internal_node_id":"0.0-8.0-3.59","subject":"evchr5ozhs81woj","sona":"7624"},{"rt":294,"stimulus":"<p>Ready?</p>","key_press":32,"trial_type":"html-keyboard-response","trial_index":247,"time_elapsed":605913,"internal_node_id":"0.0-8.0-0.60","subject":"evchr5ozhs81woj","sona":"7624"},{"rt":null,"stimulus":"<div style=\"font-size:60px;\">+</div>","key_press":null,"trial_type":"html-keyboard-response","trial_index":248,"time_elapsed":607919,"internal_node_id":"0.0-8.0-1.60","subject":"evchr5ozhs81woj","sona":"7624"},{"trial_type":"turing-test","trial_index":249,"time_elapsed":611423,"internal_node_id":"0.0-8.0-2.60","subject":"evchr5ozhs81woj","sona":"7624"},{"rt":728,"stimulus":"<p>Which sequence did you perceive as more natural?</p>","key_press":70,"test_part":"response","test_stimulus":{"position":0,"left":"bvh/pass-bottle-hold-training3-lines.txt","right":"bvh/vr_prediction_models/model(dmp)-dataset(pass-bottle-hold)-npsi(60)-hold(3)/final-lines.txt","att_check":true},"trial_type":"html-keyboard-response","trial_index":250,"time_elapsed":612154,"internal_node_id":"0.0-8.0-3.60","subject":"evchr5ozhs81woj","sona":"7624"},{"rt":166,"stimulus":"<p>Ready?</p>","key_press":32,"trial_type":"html-keyboard-response","trial_index":251,"time_elapsed":612321,"internal_node_id":"0.0-8.0-0.61","subject":"evchr5ozhs81woj","sona":"7624"},{"rt":null,"stimulus":"<div style=\"font-size:60px;\">+</div>","key_press":null,"trial_type":"html-keyboard-response","trial_index":252,"time_elapsed":614324,"internal_node_id":"0.0-8.0-1.61","subject":"evchr5ozhs81woj","sona":"7624"},{"trial_type":"turing-test","trial_index":253,"time_elapsed":620327,"internal_node_id":"0.0-8.0-2.61","subject":"evchr5ozhs81woj","sona":"7624"},{"rt":345,"stimulus":"<p>Which sequence did you perceive as more natural?</p>","key_press":74,"test_part":"response","test_stimulus":{"position":1,"left":"bvh/vr_prediction_models/model(vcgpdm)-dataset(pass-bottle)-mode(ELBO)-parts(1)-dyn(10)-lvm(30)-hold(3)/final-lines.txt","right":"bvh/pass-bottle-training3-lines.txt","att_check":false},"trial_type":"html-keyboard-response","trial_index":254,"time_elapsed":620674,"internal_node_id":"0.0-8.0-3.61","subject":"evchr5ozhs81woj","sona":"7624"},{"rt":278,"stimulus":"<p>Ready?</p>","key_press":32,"trial_type":"html-keyboard-response","trial_index":255,"time_elapsed":620953,"internal_node_id":"0.0-8.0-0.62","subject":"evchr5ozhs81woj","sona":"7624"},{"rt":null,"stimulus":"<div style=\"font-size:60px;\">+</div>","key_press":null,"trial_type":"html-keyboard-response","trial_index":256,"time_elapsed":622962,"internal_node_id":"0.0-8.0-1.62","subject":"evchr5ozhs81woj","sona":"7624"},{"trial_type":"turing-test","trial_index":257,"time_elapsed":626779,"internal_node_id":"0.0-8.0-2.62","subject":"evchr5ozhs81woj","sona":"7624"},{"rt":1109,"stimulus":"<p>Which sequence did you perceive as more natural?</p>","key_press":74,"test_part":"response","test_stimulus":{"position":0,"left":"bvh/return-bottle-hold-training4-lines.txt","right":"bvh/vr_prediction_models/model(tmp)-dataset(return-bottle-hold)-numprim(6)-hold(4)/final-lines.txt","att_check":false},"trial_type":"html-keyboard-response","trial_index":258,"time_elapsed":627890,"internal_node_id":"0.0-8.0-3.62","subject":"evchr5ozhs81woj","sona":"7624"},{"rt":324,"stimulus":"<p>Ready?</p>","key_press":32,"trial_type":"html-keyboard-response","trial_index":259,"time_elapsed":628218,"internal_node_id":"0.0-8.0-0.63","subject":"evchr5ozhs81woj","sona":"7624"},{"rt":null,"stimulus":"<div style=\"font-size:60px;\">+</div>","key_press":null,"trial_type":"html-keyboard-response","trial_index":260,"time_elapsed":630221,"internal_node_id":"0.0-8.0-1.63","subject":"evchr5ozhs81woj","sona":"7624"},{"trial_type":"turing-test","trial_index":261,"time_elapsed":633733,"internal_node_id":"0.0-8.0-2.63","subject":"evchr5ozhs81woj","sona":"7624"},{"rt":395,"stimulus":"<p>Which sequence did you perceive as more natural?</p>","key_press":70,"test_part":"response","test_stimulus":{"position":0,"left":"bvh/return-bottle-hold-training3-lines.txt","right":"bvh/vr_prediction_models/model(tmp)-dataset(return-bottle-hold)-numprim(4)-hold(3)/final-lines.txt","att_check":false},"trial_type":"html-keyboard-response","trial_index":262,"time_elapsed":634130,"internal_node_id":"0.0-8.0-3.63","subject":"evchr5ozhs81woj","sona":"7624"},{"rt":190,"stimulus":"<p>Ready?</p>","key_press":32,"trial_type":"html-keyboard-response","trial_index":263,"time_elapsed":634322,"internal_node_id":"0.0-8.0-0.64","subject":"evchr5ozhs81woj","sona":"7624"},{"rt":null,"stimulus":"<div style=\"font-size:60px;\">+</div>","key_press":null,"trial_type":"html-keyboard-response","trial_index":264,"time_elapsed":636327,"internal_node_id":"0.0-8.0-1.64","subject":"evchr5ozhs81woj","sona":"7624"},{"trial_type":"turing-test","trial_index":265,"time_elapsed":645990,"internal_node_id":"0.0-8.0-2.64","subject":"evchr5ozhs81woj","sona":"7624"},{"rt":1051,"stimulus":"<p>Which sequence did you perceive as more natural?</p>","key_press":70,"test_part":"response","test_stimulus":{"position":0,"left":"bvh/pass-bottle-training0-lines.txt","right":"bvh/vr_prediction_models/model(dmp)-dataset(pass-bottle)-npsi(80)-hold(0)/final-lines.txt","att_check":false},"trial_type":"html-keyboard-response","trial_index":266,"time_elapsed":647042,"internal_node_id":"0.0-8.0-3.64","subject":"evchr5ozhs81woj","sona":"7624"},{"rt":334,"stimulus":"<p>Ready?</p>","key_press":32,"trial_type":"html-keyboard-response","trial_index":267,"time_elapsed":647379,"internal_node_id":"0.0-8.0-0.65","subject":"evchr5ozhs81woj","sona":"7624"},{"rt":null,"stimulus":"<div style=\"font-size:60px;\">+</div>","key_press":null,"trial_type":"html-keyboard-response","trial_index":268,"time_elapsed":649383,"internal_node_id":"0.0-8.0-1.65","subject":"evchr5ozhs81woj","sona":"7624"},{"trial_type":"turing-test","trial_index":269,"time_elapsed":655982,"internal_node_id":"0.0-8.0-2.65","subject":"evchr5ozhs81woj","sona":"7624"},{"rt":340,"stimulus":"<p>Which sequence did you perceive as more natural?</p>","key_press":74,"test_part":"response","test_stimulus":{"position":1,"left":"bvh/vr_prediction_models/model(tmp)-dataset(pass-bottle)-numprim(5)-hold(0)/final-lines.txt","right":"bvh/pass-bottle-training0-lines.txt","att_check":false},"trial_type":"html-keyboard-response","trial_index":270,"time_elapsed":656323,"internal_node_id":"0.0-8.0-3.65","subject":"evchr5ozhs81woj","sona":"7624"},{"rt":636,"stimulus":"<p>Ready?</p>","key_press":32,"trial_type":"html-keyboard-response","trial_index":271,"time_elapsed":656963,"internal_node_id":"0.0-8.0-0.66","subject":"evchr5ozhs81woj","sona":"7624"},{"rt":null,"stimulus":"<div style=\"font-size:60px;\">+</div>","key_press":null,"trial_type":"html-keyboard-response","trial_index":272,"time_elapsed":658965,"internal_node_id":"0.0-8.0-1.66","subject":"evchr5ozhs81woj","sona":"7624"},{"trial_type":"turing-test","trial_index":273,"time_elapsed":662398,"internal_node_id":"0.0-8.0-2.66","subject":"evchr5ozhs81woj","sona":"7624"},{"rt":419,"stimulus":"<p>Which sequence did you perceive as more natural?</p>","key_press":74,"test_part":"response","test_stimulus":{"position":1,"left":"bvh/vr_prediction_models/model(dmp)-dataset(pass-bottle-hold)-npsi(100)-hold(3)/final-lines.txt","right":"bvh/pass-bottle-hold-training3-lines.txt","att_check":false},"trial_type":"html-keyboard-response","trial_index":274,"time_elapsed":662820,"internal_node_id":"0.0-8.0-3.66","subject":"evchr5ozhs81woj","sona":"7624"},{"rt":253,"stimulus":"<p>Ready?</p>","key_press":32,"trial_type":"html-keyboard-response","trial_index":275,"time_elapsed":663075,"internal_node_id":"0.0-8.0-0.67","subject":"evchr5ozhs81woj","sona":"7624"},{"rt":null,"stimulus":"<div style=\"font-size:60px;\">+</div>","key_press":null,"trial_type":"html-keyboard-response","trial_index":276,"time_elapsed":665078,"internal_node_id":"0.0-8.0-1.67","subject":"evchr5ozhs81woj","sona":"7624"},{"trial_type":"turing-test","trial_index":277,"time_elapsed":671005,"internal_node_id":"0.0-8.0-2.67","subject":"evchr5ozhs81woj","sona":"7624"},{"rt":819,"stimulus":"<p>Which sequence did you perceive as more natural?</p>","key_press":70,"test_part":"response","test_stimulus":{"position":1,"left":"bvh/vr_prediction_models/model(vcgpdm)-dataset(pass-bottle)-mode(ELBO)-parts(3)-dyn(35)-lvm(20)-hold(4)/final-lines.txt","right":"bvh/pass-bottle-training4-lines.txt","att_check":false},"trial_type":"html-keyboard-response","trial_index":278,"time_elapsed":671827,"internal_node_id":"0.0-8.0-3.67","subject":"evchr5ozhs81woj","sona":"7624"},{"rt":301,"stimulus":"<p>Ready?</p>","key_press":32,"trial_type":"html-keyboard-response","trial_index":279,"time_elapsed":672131,"internal_node_id":"0.0-8.0-0.68","subject":"evchr5ozhs81woj","sona":"7624"},{"rt":null,"stimulus":"<div style=\"font-size:60px;\">+</div>","key_press":null,"trial_type":"html-keyboard-response","trial_index":280,"time_elapsed":674134,"internal_node_id":"0.0-8.0-1.68","subject":"evchr5ozhs81woj","sona":"7624"},{"trial_type":"turing-test","trial_index":281,"time_elapsed":679537,"internal_node_id":"0.0-8.0-2.68","subject":"evchr5ozhs81woj","sona":"7624"},{"rt":281,"stimulus":"<p>Which sequence did you perceive as more natural?</p>","key_press":74,"test_part":"response","test_stimulus":{"position":1,"left":"bvh/vr_prediction_models/model(dmp)-dataset(return-bottle)-npsi(70)-hold(0)/final-lines.txt","right":"bvh/return-bottle-training0-lines.txt","att_check":false},"trial_type":"html-keyboard-response","trial_index":282,"time_elapsed":679820,"internal_node_id":"0.0-8.0-3.68","subject":"evchr5ozhs81woj","sona":"7624"},{"rt":332,"stimulus":"<p>Ready?</p>","key_press":32,"trial_type":"html-keyboard-response","trial_index":283,"time_elapsed":680155,"internal_node_id":"0.0-8.0-0.69","subject":"evchr5ozhs81woj","sona":"7624"},{"rt":null,"stimulus":"<div style=\"font-size:60px;\">+</div>","key_press":null,"trial_type":"html-keyboard-response","trial_index":284,"time_elapsed":682158,"internal_node_id":"0.0-8.0-1.69","subject":"evchr5ozhs81woj","sona":"7624"},{"trial_type":"turing-test","trial_index":285,"time_elapsed":688440,"internal_node_id":"0.0-8.0-2.69","subject":"evchr5ozhs81woj","sona":"7624"},{"rt":107,"stimulus":"<p>Which sequence did you perceive as more natural?</p>","key_press":74,"test_part":"response","test_stimulus":{"position":1,"left":"bvh/vr_prediction_models/model(dmp)-dataset(return-bottle)-npsi(80)-hold(1)/final-lines.txt","right":"bvh/return-bottle-training1-lines.txt","att_check":false},"trial_type":"html-keyboard-response","trial_index":286,"time_elapsed":688549,"internal_node_id":"0.0-8.0-3.69","subject":"evchr5ozhs81woj","sona":"7624"},{"rt":453,"stimulus":"<p>Ready?</p>","key_press":32,"trial_type":"html-keyboard-response","trial_index":287,"time_elapsed":689005,"internal_node_id":"0.0-8.0-0.70","subject":"evchr5ozhs81woj","sona":"7624"},{"rt":null,"stimulus":"<div style=\"font-size:60px;\">+</div>","key_press":null,"trial_type":"html-keyboard-response","trial_index":288,"time_elapsed":691011,"internal_node_id":"0.0-8.0-1.70","subject":"evchr5ozhs81woj","sona":"7624"},{"trial_type":"turing-test","trial_index":289,"time_elapsed":697041,"internal_node_id":"0.0-8.0-2.70","subject":"evchr5ozhs81woj","sona":"7624"},{"rt":66,"stimulus":"<p>Which sequence did you perceive as more natural?</p>","key_press":74,"test_part":"response","test_stimulus":{"position":1,"left":"bvh/vr_prediction_models/model(vcgpdm)-dataset(return-bottle)-mode(ELBO)-parts(3)-dyn(10)-lvm(10)-hold(4)/final-lines.txt","right":"bvh/return-bottle-training4-lines.txt","att_check":false},"trial_type":"html-keyboard-response","trial_index":290,"time_elapsed":697110,"internal_node_id":"0.0-8.0-3.70","subject":"evchr5ozhs81woj","sona":"7624"},{"rt":406,"stimulus":"<p>Ready?</p>","key_press":32,"trial_type":"html-keyboard-response","trial_index":291,"time_elapsed":697519,"internal_node_id":"0.0-8.0-0.71","subject":"evchr5ozhs81woj","sona":"7624"},{"rt":null,"stimulus":"<div style=\"font-size:60px;\">+</div>","key_press":null,"trial_type":"html-keyboard-response","trial_index":292,"time_elapsed":699526,"internal_node_id":"0.0-8.0-1.71","subject":"evchr5ozhs81woj","sona":"7624"},{"trial_type":"turing-test","trial_index":293,"time_elapsed":705294,"internal_node_id":"0.0-8.0-2.71","subject":"evchr5ozhs81woj","sona":"7624"},{"rt":440,"stimulus":"<p>Which sequence did you perceive as more natural?</p>","key_press":74,"test_part":"response","test_stimulus":{"position":1,"left":"bvh/vr_prediction_models/model(tmp)-dataset(pass-bottle)-numprim(8)-hold(3)/final-lines.txt","right":"bvh/pass-bottle-training3-lines.txt","att_check":false},"trial_type":"html-keyboard-response","trial_index":294,"time_elapsed":705736,"internal_node_id":"0.0-8.0-3.71","subject":"evchr5ozhs81woj","sona":"7624"},{"rt":374,"stimulus":"<p>Ready?</p>","key_press":32,"trial_type":"html-keyboard-response","trial_index":295,"time_elapsed":706112,"internal_node_id":"0.0-8.0-0.72","subject":"evchr5ozhs81woj","sona":"7624"},{"rt":null,"stimulus":"<div style=\"font-size:60px;\">+</div>","key_press":null,"trial_type":"html-keyboard-response","trial_index":296,"time_elapsed":708116,"internal_node_id":"0.0-8.0-1.72","subject":"evchr5ozhs81woj","sona":"7624"},{"trial_type":"turing-test","trial_index":297,"time_elapsed":714435,"internal_node_id":"0.0-8.0-2.72","subject":"evchr5ozhs81woj","sona":"7624"},{"rt":132,"stimulus":"<p>Which sequence did you perceive as more natural?</p>","key_press":74,"test_part":"response","test_stimulus":{"position":1,"left":"bvh/vr_prediction_models/model(vcgpdm)-dataset(return-bottle)-mode(ELBO)-parts(3)-dyn(25)-lvm(30)-hold(1)/final-lines.txt","right":"bvh/return-bottle-training1-lines.txt","att_check":false},"trial_type":"html-keyboard-response","trial_index":298,"time_elapsed":714569,"internal_node_id":"0.0-8.0-3.72","subject":"evchr5ozhs81woj","sona":"7624"},{"rt":381,"stimulus":"<p>Ready?</p>","key_press":32,"trial_type":"html-keyboard-response","trial_index":299,"time_elapsed":714953,"internal_node_id":"0.0-8.0-0.73","subject":"evchr5ozhs81woj","sona":"7624"},{"rt":null,"stimulus":"<div style=\"font-size:60px;\">+</div>","key_press":null,"trial_type":"html-keyboard-response","trial_index":300,"time_elapsed":716955,"internal_node_id":"0.0-8.0-1.73","subject":"evchr5ozhs81woj","sona":"7624"},{"trial_type":"turing-test","trial_index":301,"time_elapsed":722899,"internal_node_id":"0.0-8.0-2.73","subject":"evchr5ozhs81woj","sona":"7624"},{"rt":501,"stimulus":"<p>Which sequence did you perceive as more natural?</p>","key_press":70,"test_part":"response","test_stimulus":{"position":0,"left":"bvh/return-bottle-training1-lines.txt","right":"bvh/vr_prediction_models/model(vcgpdm)-dataset(return-bottle)-mode(ELBO)-parts(1)-dyn(20)-lvm(20)-hold(1)/final-lines.txt","att_check":false},"trial_type":"html-keyboard-response","trial_index":302,"time_elapsed":723402,"internal_node_id":"0.0-8.0-3.73","subject":"evchr5ozhs81woj","sona":"7624"},{"rt":270,"stimulus":"<p>Ready?</p>","key_press":32,"trial_type":"html-keyboard-response","trial_index":303,"time_elapsed":723673,"internal_node_id":"0.0-8.0-0.74","subject":"evchr5ozhs81woj","sona":"7624"},{"rt":null,"stimulus":"<div style=\"font-size:60px;\">+</div>","key_press":null,"trial_type":"html-keyboard-response","trial_index":304,"time_elapsed":725677,"internal_node_id":"0.0-8.0-1.74","subject":"evchr5ozhs81woj","sona":"7624"},{"trial_type":"turing-test","trial_index":305,"time_elapsed":731676,"internal_node_id":"0.0-8.0-2.74","subject":"evchr5ozhs81woj","sona":"7624"},{"rt":325,"stimulus":"<p>Which sequence did you perceive as more natural?</p>","key_press":74,"test_part":"response","test_stimulus":{"position":1,"left":"bvh/vr_prediction_models/model(vcgpdm)-dataset(return-bottle)-mode(ELBO)-parts(1)-dyn(30)-lvm(20)-hold(3)/final-lines.txt","right":"bvh/return-bottle-training3-lines.txt","att_check":false},"trial_type":"html-keyboard-response","trial_index":306,"time_elapsed":732002,"internal_node_id":"0.0-8.0-3.74","subject":"evchr5ozhs81woj","sona":"7624"},{"rt":294,"stimulus":"<p>Ready?</p>","key_press":32,"trial_type":"html-keyboard-response","trial_index":307,"time_elapsed":732298,"internal_node_id":"0.0-8.0-0.75","subject":"evchr5ozhs81woj","sona":"7624"},{"rt":null,"stimulus":"<div style=\"font-size:60px;\">+</div>","key_press":null,"trial_type":"html-keyboard-response","trial_index":308,"time_elapsed":734301,"internal_node_id":"0.0-8.0-1.75","subject":"evchr5ozhs81woj","sona":"7624"},{"trial_type":"turing-test","trial_index":309,"time_elapsed":738214,"internal_node_id":"0.0-8.0-2.75","subject":"evchr5ozhs81woj","sona":"7624"},{"rt":331,"stimulus":"<p>Which sequence did you perceive as more natural?</p>","key_press":70,"test_part":"response","test_stimulus":{"position":0,"left":"bvh/return-bottle-hold-training3-lines.txt","right":"bvh/vr_prediction_models/model(vcgpdm)-dataset(return-bottle-hold)-mode(ELBO)-parts(1)-dyn(25)-lvm(35)-hold(3)/final-lines.txt","att_check":false},"trial_type":"html-keyboard-response","trial_index":310,"time_elapsed":738547,"internal_node_id":"0.0-8.0-3.75","subject":"evchr5ozhs81woj","sona":"7624"},{"rt":238,"stimulus":"<p>Ready?</p>","key_press":32,"trial_type":"html-keyboard-response","trial_index":311,"time_elapsed":738786,"internal_node_id":"0.0-8.0-0.76","subject":"evchr5ozhs81woj","sona":"7624"},{"rt":null,"stimulus":"<div style=\"font-size:60px;\">+</div>","key_press":null,"trial_type":"html-keyboard-response","trial_index":312,"time_elapsed":740791,"internal_node_id":"0.0-8.0-1.76","subject":"evchr5ozhs81woj","sona":"7624"},{"trial_type":"turing-test","trial_index":313,"time_elapsed":747745,"internal_node_id":"0.0-8.0-2.76","subject":"evchr5ozhs81woj","sona":"7624"},{"rt":376,"stimulus":"<p>Which sequence did you perceive as more natural?</p>","key_press":70,"test_part":"response","test_stimulus":{"position":0,"left":"bvh/return-bottle-training2-lines.txt","right":"bvh/vr_prediction_models/model(vcgpdm)-dataset(return-bottle)-mode(ELBO)-parts(1)-dyn(25)-lvm(35)-hold(2)/final-lines.txt","att_check":false},"trial_type":"html-keyboard-response","trial_index":314,"time_elapsed":748122,"internal_node_id":"0.0-8.0-3.76","subject":"evchr5ozhs81woj","sona":"7624"},{"rt":358,"stimulus":"<p>Ready?</p>","key_press":32,"trial_type":"html-keyboard-response","trial_index":315,"time_elapsed":748482,"internal_node_id":"0.0-8.0-0.77","subject":"evchr5ozhs81woj","sona":"7624"},{"rt":null,"stimulus":"<div style=\"font-size:60px;\">+</div>","key_press":null,"trial_type":"html-keyboard-response","trial_index":316,"time_elapsed":750490,"internal_node_id":"0.0-8.0-1.77","subject":"evchr5ozhs81woj","sona":"7624"},{"trial_type":"turing-test","trial_index":317,"time_elapsed":755812,"internal_node_id":"0.0-8.0-2.77","subject":"evchr5ozhs81woj","sona":"7624"},{"rt":363,"stimulus":"<p>Which sequence did you perceive as more natural?</p>","key_press":70,"test_part":"response","test_stimulus":{"position":0,"left":"bvh/pass-bottle-training1-lines.txt","right":"bvh/vr_prediction_models/model(vcgpdm)-dataset(pass-bottle)-mode(ELBO)-parts(3)-dyn(25)-lvm(30)-hold(1)/final-lines.txt","att_check":false},"trial_type":"html-keyboard-response","trial_index":318,"time_elapsed":756179,"internal_node_id":"0.0-8.0-3.77","subject":"evchr5ozhs81woj","sona":"7624"},{"rt":374,"stimulus":"<p>Ready?</p>","key_press":32,"trial_type":"html-keyboard-response","trial_index":319,"time_elapsed":756555,"internal_node_id":"0.0-8.0-0.78","subject":"evchr5ozhs81woj","sona":"7624"},{"rt":null,"stimulus":"<div style=\"font-size:60px;\">+</div>","key_press":null,"trial_type":"html-keyboard-response","trial_index":320,"time_elapsed":758557,"internal_node_id":"0.0-8.0-1.78","subject":"evchr5ozhs81woj","sona":"7624"},{"trial_type":"turing-test","trial_index":321,"time_elapsed":764276,"internal_node_id":"0.0-8.0-2.78","subject":"evchr5ozhs81woj","sona":"7624"},{"rt":381,"stimulus":"<p>Which sequence did you perceive as more natural?</p>","key_press":70,"test_part":"response","test_stimulus":{"position":1,"left":"bvh/vr_prediction_models/model(tmp)-dataset(pass-bottle)-numprim(8)-hold(4)/final-lines.txt","right":"bvh/pass-bottle-training4-lines.txt","att_check":false},"trial_type":"html-keyboard-response","trial_index":322,"time_elapsed":764660,"internal_node_id":"0.0-8.0-3.78","subject":"evchr5ozhs81woj","sona":"7624"},{"rt":318,"stimulus":"<p>Ready?</p>","key_press":32,"trial_type":"html-keyboard-response","trial_index":323,"time_elapsed":764979,"internal_node_id":"0.0-8.0-0.79","subject":"evchr5ozhs81woj","sona":"7624"},{"rt":null,"stimulus":"<div style=\"font-size:60px;\">+</div>","key_press":null,"trial_type":"html-keyboard-response","trial_index":324,"time_elapsed":766985,"internal_node_id":"0.0-8.0-1.79","subject":"evchr5ozhs81woj","sona":"7624"},{"trial_type":"turing-test","trial_index":325,"time_elapsed":770597,"internal_node_id":"0.0-8.0-2.79","subject":"evchr5ozhs81woj","sona":"7624"},{"rt":653,"stimulus":"<p>Which sequence did you perceive as more natural?</p>","key_press":70,"test_part":"response","test_stimulus":{"position":0,"left":"bvh/return-bottle-hold-training4-lines.txt","right":"bvh/vr_prediction_models/model(vcgpdm)-dataset(return-bottle-hold)-mode(ELBO)-parts(3)-dyn(20)-lvm(35)-hold(4)/final-lines.txt","att_check":false},"trial_type":"html-keyboard-response","trial_index":326,"time_elapsed":771251,"internal_node_id":"0.0-8.0-3.79","subject":"evchr5ozhs81woj","sona":"7624"},{"rt":7453,"responses":"{\"age\":\"20\",\"gender\":\"male\"}","trial_type":"survey-text","trial_index":327,"time_elapsed":778711,"internal_node_id":"0.0-9.0-0.0","subject":"evchr5ozhs81woj","sona":"7624"},{"rt":1889,"responses":"{\"area\":\"\",\"Q1\":\"\",\"Q2\":\"\"}","trial_type":"survey-text","trial_index":328,"time_elapsed":780607,"internal_node_id":"0.0-9.0-1.0","subject":"evchr5ozhs81woj","sona":"7624"}]