[{"rt":3749,"stimulus":"<p>Welcome!<br> Please choose your language to start the experiment in the chosen language.</p><p>Willkommen!<br> Bitte wählen Sie eine Sprache, um das Experiment in der ausgewählten Sprache zu starten</p>","button_pressed":"1","trial_type":"html-button-response","trial_index":0,"time_elapsed":3759,"internal_node_id":"0.0-0.0","subject":"ofm20hfpagutcx6","sona":"9646"},{"view_history":"[{\"page_index\":0,\"viewing_time\":7001},{\"page_index\":1,\"viewing_time\":3743},{\"page_index\":2,\"viewing_time\":5468},{\"page_index\":3,\"viewing_time\":4803},{\"page_index\":4,\"viewing_time\":2322}]","rt":23338,"trial_type":"instructions","trial_index":1,"time_elapsed":27099,"internal_node_id":"0.0-1.0-0.0","subject":"ofm20hfpagutcx6","sona":"9646"},{"rt":1707,"stimulus":"<p>Bereit?</p>","key_press":32,"trial_type":"html-keyboard-response","trial_index":2,"time_elapsed":28813,"internal_node_id":"0.0-3.0","subject":"ofm20hfpagutcx6","sona":"9646"},{"rt":null,"stimulus":"<div style=\"font-size:60px;\">+</div>","key_press":null,"trial_type":"html-keyboard-response","trial_index":3,"time_elapsed":30833,"internal_node_id":"0.0-4.0","subject":"ofm20hfpagutcx6","sona":"9646"},{"trial_type":"training","trial_index":4,"time_elapsed":35657,"internal_node_id":"0.0-5.0","subject":"ofm20hfpagutcx6","sona":"9646"},{"rt":1123,"stimulus":"<p>Welche Sequenz haben Sie als natürlicher empfunden?</p>","key_press":74,"trial_type":"html-keyboard-response","trial_index":5,"time_elapsed":36782,"internal_node_id":"0.0-6.0","subject":"ofm20hfpagutcx6","sona":"9646"},{"rt":3542,"stimulus":"<p>Das Experiment startet nun.</p><p><small>Bitte drücken Sie den Knopf, wenn Sie bereit sind.</small></p>","button_pressed":"0","trial_type":"html-button-response","trial_index":6,"time_elapsed":40327,"internal_node_id":"0.0-7.0","subject":"ofm20hfpagutcx6","sona":"9646"},{"rt":1255,"stimulus":"<p>Bereit?</p>","key_press":32,"trial_type":"html-keyboard-response","trial_index":7,"time_elapsed":41590,"internal_node_id":"0.0-8.0-0.0","subject":"ofm20hfpagutcx6","sona":"9646"},{"rt":null,"stimulus":"<div style=\"font-size:60px;\">+</div>","key_press":null,"trial_type":"html-keyboard-response","trial_index":8,"time_elapsed":43620,"internal_node_id":"0.0-8.0-1.0","subject":"ofm20hfpagutcx6","sona":"9646"},{"trial_type":"turing-test","trial_index":9,"time_elapsed":47748,"internal_node_id":"0.0-8.0-2.0","subject":"ofm20hfpagutcx6","sona":"9646"},{"rt":606,"stimulus":"<p>Welche Sequenz haben Sie als natürlicher empfunden?</p>","key_press":70,"test_part":"response","test_stimulus":{"position":0,"left":"bvh/return-bottle-hold-training1-lines.txt","right":"bvh/vr_prediction_models/model(dmp)-dataset(return-bottle-hold)-npsi(100)-hold(1)/final-lines.txt","att_check":false},"trial_type":"html-keyboard-response","trial_index":10,"time_elapsed":48359,"internal_node_id":"0.0-8.0-3.0","subject":"ofm20hfpagutcx6","sona":"9646"},{"rt":1121,"stimulus":"<p>Bereit?</p>","key_press":32,"trial_type":"html-keyboard-response","trial_index":11,"time_elapsed":49484,"internal_node_id":"0.0-8.0-0.1","subject":"ofm20hfpagutcx6","sona":"9646"},{"rt":null,"stimulus":"<div style=\"font-size:60px;\">+</div>","key_press":null,"trial_type":"html-keyboard-response","trial_index":12,"time_elapsed":51503,"internal_node_id":"0.0-8.0-1.1","subject":"ofm20hfpagutcx6","sona":"9646"},{"trial_type":"turing-test","trial_index":13,"time_elapsed":58575,"internal_node_id":"0.0-8.0-2.1","subject":"ofm20hfpagutcx6","sona":"9646"},{"rt":905,"stimulus":"<p>Welche Sequenz haben Sie als natürlicher empfunden?</p>","key_press":70,"test_part":"response","test_stimulus":{"position":1,"left":"bvh/vr_prediction_models/model(dmp)-dataset(pass-bottle)-npsi(20)-hold(3)/final-lines.txt","right":"bvh/pass-bottle-training3-lines.txt","att_check":false},"trial_type":"html-keyboard-response","trial_index":14,"time_elapsed":59480,"internal_node_id":"0.0-8.0-3.1","subject":"ofm20hfpagutcx6","sona":"9646"},{"rt":1270,"stimulus":"<p>Bereit?</p>","key_press":32,"trial_type":"html-keyboard-response","trial_index":15,"time_elapsed":60753,"internal_node_id":"0.0-8.0-0.2","subject":"ofm20hfpagutcx6","sona":"9646"},{"rt":null,"stimulus":"<div style=\"font-size:60px;\">+</div>","key_press":null,"trial_type":"html-keyboard-response","trial_index":16,"time_elapsed":62764,"internal_node_id":"0.0-8.0-1.2","subject":"ofm20hfpagutcx6","sona":"9646"},{"trial_type":"turing-test","trial_index":17,"time_elapsed":75892,"internal_node_id":"0.0-8.0-2.2","subject":"ofm20hfpagutcx6","sona":"9646"},{"rt":636,"stimulus":"<p>Welche Sequenz haben Sie als natürlicher empfunden?</p>","key_press":74,"test_part":"response","test_stimulus":{"position":0,"left":"bvh/pass-bottle-training3-lines.txt","right":"bvh/vr_prediction_models/model(vcgpdm)-dataset(pass-bottle)-mode(MAP)-parts(1)-hold(3)/final-lines.txt","att_check":false},"trial_type":"html-keyboard-response","trial_index":18,"time_elapsed":76536,"internal_node_id":"0.0-8.0-3.2","subject":"ofm20hfpagutcx6","sona":"9646"},{"rt":1011,"stimulus":"<p>Bereit?</p>","key_press":32,"trial_type":"html-keyboard-response","trial_index":19,"time_elapsed":77553,"internal_node_id":"0.0-8.0-0.3","subject":"ofm20hfpagutcx6","sona":"9646"},{"rt":null,"stimulus":"<div style=\"font-size:60px;\">+</div>","key_press":null,"trial_type":"html-keyboard-response","trial_index":20,"time_elapsed":79578,"internal_node_id":"0.0-8.0-1.3","subject":"ofm20hfpagutcx6","sona":"9646"},{"trial_type":"turing-test","trial_index":21,"time_elapsed":88997,"internal_node_id":"0.0-8.0-2.3","subject":"ofm20hfpagutcx6","sona":"9646"},{"rt":632,"stimulus":"<p>Welche Sequenz haben Sie als natürlicher empfunden?</p>","key_press":70,"test_part":"response","test_stimulus":{"position":1,"left":"bvh/vr_prediction_models/model(vcgpdm)-dataset(pass-bottle-hold)-mode(ELBO)-parts(1)-dyn(20)-lvm(20)-hold(1)/final-lines.txt","right":"bvh/pass-bottle-hold-training1-lines.txt","att_check":false},"trial_type":"html-keyboard-response","trial_index":22,"time_elapsed":89637,"internal_node_id":"0.0-8.0-3.3","subject":"ofm20hfpagutcx6","sona":"9646"},{"rt":628,"stimulus":"<p>Bereit?</p>","key_press":32,"trial_type":"html-keyboard-response","trial_index":23,"time_elapsed":90270,"internal_node_id":"0.0-8.0-0.4","subject":"ofm20hfpagutcx6","sona":"9646"},{"rt":null,"stimulus":"<div style=\"font-size:60px;\">+</div>","key_press":null,"trial_type":"html-keyboard-response","trial_index":24,"time_elapsed":92275,"internal_node_id":"0.0-8.0-1.4","subject":"ofm20hfpagutcx6","sona":"9646"},{"trial_type":"turing-test","trial_index":25,"time_elapsed":105081,"internal_node_id":"0.0-8.0-2.4","subject":"ofm20hfpagutcx6","sona":"9646"},{"rt":654,"stimulus":"<p>Welche Sequenz haben Sie als natürlicher empfunden?</p>","key_press":74,"test_part":"response","test_stimulus":{"position":0,"left":"bvh/return-bottle-training1-lines.txt","right":"bvh/vr_prediction_models/model(vcgpdm)-dataset(return-bottle)-mode(ELBO)-parts(1)-dyn(30)-lvm(30)-hold(1)/final-lines.txt","att_check":false},"trial_type":"html-keyboard-response","trial_index":26,"time_elapsed":105739,"internal_node_id":"0.0-8.0-3.4","subject":"ofm20hfpagutcx6","sona":"9646"},{"rt":908,"stimulus":"<p>Bereit?</p>","key_press":32,"trial_type":"html-keyboard-response","trial_index":27,"time_elapsed":106650,"internal_node_id":"0.0-8.0-0.5","subject":"ofm20hfpagutcx6","sona":"9646"},{"rt":null,"stimulus":"<div style=\"font-size:60px;\">+</div>","key_press":null,"trial_type":"html-keyboard-response","trial_index":28,"time_elapsed":108674,"internal_node_id":"0.0-8.0-1.5","subject":"ofm20hfpagutcx6","sona":"9646"},{"trial_type":"turing-test","trial_index":29,"time_elapsed":118181,"internal_node_id":"0.0-8.0-2.5","subject":"ofm20hfpagutcx6","sona":"9646"},{"rt":932,"stimulus":"<p>Welche Sequenz haben Sie als natürlicher empfunden?</p>","key_press":74,"test_part":"response","test_stimulus":{"position":1,"left":"bvh/vr_prediction_models/model(vcgpdm)-dataset(return-bottle-hold)-mode(ELBO)-parts(3)-dyn(25)-lvm(15)-hold(2)/final-lines.txt","right":"bvh/return-bottle-hold-training2-lines.txt","att_check":false},"trial_type":"html-keyboard-response","trial_index":30,"time_elapsed":119118,"internal_node_id":"0.0-8.0-3.5","subject":"ofm20hfpagutcx6","sona":"9646"},{"rt":599,"stimulus":"<p>Bereit?</p>","key_press":32,"trial_type":"html-keyboard-response","trial_index":31,"time_elapsed":119720,"internal_node_id":"0.0-8.0-0.6","subject":"ofm20hfpagutcx6","sona":"9646"},{"rt":null,"stimulus":"<div style=\"font-size:60px;\">+</div>","key_press":null,"trial_type":"html-keyboard-response","trial_index":32,"time_elapsed":121733,"internal_node_id":"0.0-8.0-1.6","subject":"ofm20hfpagutcx6","sona":"9646"},{"trial_type":"turing-test","trial_index":33,"time_elapsed":126346,"internal_node_id":"0.0-8.0-2.6","subject":"ofm20hfpagutcx6","sona":"9646"},{"rt":1751,"stimulus":"<p>Welche Sequenz haben Sie als natürlicher empfunden?</p>","key_press":74,"test_part":"response","test_stimulus":{"position":0,"left":"bvh/pass-bottle-hold-training3-lines.txt","right":"bvh/vr_prediction_models/model(dmp)-dataset(pass-bottle-hold)-npsi(40)-hold(3)/final-lines.txt","att_check":false},"trial_type":"html-keyboard-response","trial_index":34,"time_elapsed":128100,"internal_node_id":"0.0-8.0-3.6","subject":"ofm20hfpagutcx6","sona":"9646"},{"rt":705,"stimulus":"<p>Bereit?</p>","key_press":32,"trial_type":"html-keyboard-response","trial_index":35,"time_elapsed":128808,"internal_node_id":"0.0-8.0-0.7","subject":"ofm20hfpagutcx6","sona":"9646"},{"rt":null,"stimulus":"<div style=\"font-size:60px;\">+</div>","key_press":null,"trial_type":"html-keyboard-response","trial_index":36,"time_elapsed":130821,"internal_node_id":"0.0-8.0-1.7","subject":"ofm20hfpagutcx6","sona":"9646"},{"trial_type":"turing-test","trial_index":37,"time_elapsed":137848,"internal_node_id":"0.0-8.0-2.7","subject":"ofm20hfpagutcx6","sona":"9646"},{"rt":406,"stimulus":"<p>Welche Sequenz haben Sie als natürlicher empfunden?</p>","key_press":70,"test_part":"response","test_stimulus":{"position":0,"left":"bvh/pass-bottle-training4-lines.txt","right":"bvh/vr_prediction_models/model(tmp)-dataset(pass-bottle)-numprim(4)-hold(4)/final-lines.txt","att_check":false},"trial_type":"html-keyboard-response","trial_index":38,"time_elapsed":138257,"internal_node_id":"0.0-8.0-3.7","subject":"ofm20hfpagutcx6","sona":"9646"},{"rt":596,"stimulus":"<p>Bereit?</p>","key_press":32,"trial_type":"html-keyboard-response","trial_index":39,"time_elapsed":138856,"internal_node_id":"0.0-8.0-0.8","subject":"ofm20hfpagutcx6","sona":"9646"},{"rt":null,"stimulus":"<div style=\"font-size:60px;\">+</div>","key_press":null,"trial_type":"html-keyboard-response","trial_index":40,"time_elapsed":140868,"internal_node_id":"0.0-8.0-1.8","subject":"ofm20hfpagutcx6","sona":"9646"},{"trial_type":"turing-test","trial_index":41,"time_elapsed":148886,"internal_node_id":"0.0-8.0-2.8","subject":"ofm20hfpagutcx6","sona":"9646"},{"rt":338,"stimulus":"<p>Welche Sequenz haben Sie als natürlicher empfunden?</p>","key_press":70,"test_part":"response","test_stimulus":{"position":1,"left":"bvh/vr_prediction_models/model(dmp)-dataset(pass-bottle)-npsi(80)-hold(2)/final-lines.txt","right":"bvh/pass-bottle-training2-lines.txt","att_check":false},"trial_type":"html-keyboard-response","trial_index":42,"time_elapsed":149226,"internal_node_id":"0.0-8.0-3.8","subject":"ofm20hfpagutcx6","sona":"9646"},{"rt":697,"stimulus":"<p>Bereit?</p>","key_press":32,"trial_type":"html-keyboard-response","trial_index":43,"time_elapsed":149924,"internal_node_id":"0.0-8.0-0.9","subject":"ofm20hfpagutcx6","sona":"9646"},{"rt":null,"stimulus":"<div style=\"font-size:60px;\">+</div>","key_press":null,"trial_type":"html-keyboard-response","trial_index":44,"time_elapsed":151942,"internal_node_id":"0.0-8.0-1.9","subject":"ofm20hfpagutcx6","sona":"9646"},{"trial_type":"turing-test","trial_index":45,"time_elapsed":160730,"internal_node_id":"0.0-8.0-2.9","subject":"ofm20hfpagutcx6","sona":"9646"},{"rt":405,"stimulus":"<p>Welche Sequenz haben Sie als natürlicher empfunden?</p>","key_press":74,"test_part":"response","test_stimulus":{"position":0,"left":"bvh/pass-bottle-training0-lines.txt","right":"bvh/vr_prediction_models/model(tmp)-dataset(pass-bottle)-numprim(15)-hold(0)/final-lines.txt","att_check":false},"trial_type":"html-keyboard-response","trial_index":46,"time_elapsed":161139,"internal_node_id":"0.0-8.0-3.9","subject":"ofm20hfpagutcx6","sona":"9646"},{"rt":829,"stimulus":"<p>Bereit?</p>","key_press":32,"trial_type":"html-keyboard-response","trial_index":47,"time_elapsed":161972,"internal_node_id":"0.0-8.0-0.10","subject":"ofm20hfpagutcx6","sona":"9646"},{"rt":null,"stimulus":"<div style=\"font-size:60px;\">+</div>","key_press":null,"trial_type":"html-keyboard-response","trial_index":48,"time_elapsed":163981,"internal_node_id":"0.0-8.0-1.10","subject":"ofm20hfpagutcx6","sona":"9646"},{"trial_type":"turing-test","trial_index":49,"time_elapsed":175576,"internal_node_id":"0.0-8.0-2.10","subject":"ofm20hfpagutcx6","sona":"9646"},{"rt":1673,"stimulus":"<p>Welche Sequenz haben Sie als natürlicher empfunden?</p>","key_press":74,"test_part":"response","test_stimulus":{"position":0,"left":"bvh/return-bottle-training4-lines.txt","right":"bvh/vr_prediction_models/model(vcgpdm)-dataset(return-bottle)-mode(ELBO)-parts(1)-dyn(25)-lvm(35)-hold(4)/final-lines.txt","att_check":false},"trial_type":"html-keyboard-response","trial_index":50,"time_elapsed":177252,"internal_node_id":"0.0-8.0-3.10","subject":"ofm20hfpagutcx6","sona":"9646"},{"rt":952,"stimulus":"<p>Bereit?</p>","key_press":32,"trial_type":"html-keyboard-response","trial_index":51,"time_elapsed":178208,"internal_node_id":"0.0-8.0-0.11","subject":"ofm20hfpagutcx6","sona":"9646"},{"rt":null,"stimulus":"<div style=\"font-size:60px;\">+</div>","key_press":null,"trial_type":"html-keyboard-response","trial_index":52,"time_elapsed":180222,"internal_node_id":"0.0-8.0-1.11","subject":"ofm20hfpagutcx6","sona":"9646"},{"trial_type":"turing-test","trial_index":53,"time_elapsed":183905,"internal_node_id":"0.0-8.0-2.11","subject":"ofm20hfpagutcx6","sona":"9646"}]