[{"rt":1465.475000000879,"stimulus":"<p>Welcome!<br> Please choose your language to start the experiment in the chosen language.</p><p>Willkommen!<br> Bitte wählen Sie eine Sprache, um das Experiment in der ausgewählten Sprache zu starten</p>","button_pressed":"1","trial_type":"html-button-response","trial_index":0,"time_elapsed":1537,"internal_node_id":"0.0-0.0","subject":"f48egnjdzwvv443","sona":"5446"},{"view_history":"[{\"page_index\":0,\"viewing_time\":621.2450000020908},{\"page_index\":1,\"viewing_time\":1050.424999997631},{\"page_index\":2,\"viewing_time\":5111.3800000021},{\"page_index\":3,\"viewing_time\":3159.7449999972014},{\"page_index\":4,\"viewing_time\":2138.550000003306}]","rt":12083.975000001374,"trial_type":"instructions","trial_index":1,"time_elapsed":13623,"internal_node_id":"0.0-1.0-0.0","subject":"f48egnjdzwvv443","sona":"5446"},{"rt":1282.1850000000268,"stimulus":"<p>Bereit?</p>","key_press":32,"trial_type":"html-keyboard-response","trial_index":2,"time_elapsed":14909,"internal_node_id":"0.0-3.0","subject":"f48egnjdzwvv443","sona":"5446"},{"rt":null,"stimulus":"<div style=\"font-size:60px;\">+</div>","key_press":null,"trial_type":"html-keyboard-response","trial_index":3,"time_elapsed":16921,"internal_node_id":"0.0-4.0","subject":"f48egnjdzwvv443","sona":"5446"},{"trial_type":"training","trial_index":4,"time_elapsed":20463,"internal_node_id":"0.0-5.0","subject":"f48egnjdzwvv443","sona":"5446"},{"rt":992.6649999979418,"stimulus":"<p>Welche Sequenz haben Sie als natürlicher empfunden?</p>","key_press":70,"trial_type":"html-keyboard-response","trial_index":5,"time_elapsed":21458,"internal_node_id":"0.0-6.0","subject":"f48egnjdzwvv443","sona":"5446"},{"rt":3335.1699999984703,"stimulus":"<p>Das Experiment startet nun.</p><p><small>Bitte drücken Sie den Knopf, wenn Sie bereit sind.</small></p>","button_pressed":"0","trial_type":"html-button-response","trial_index":6,"time_elapsed":24795,"internal_node_id":"0.0-7.0","subject":"f48egnjdzwvv443","sona":"5446"},{"rt":2081.819999999425,"stimulus":"<p>Bereit?</p>","key_press":32,"trial_type":"html-keyboard-response","trial_index":7,"time_elapsed":26880,"internal_node_id":"0.0-8.0-0.0","subject":"f48egnjdzwvv443","sona":"5446"},{"rt":null,"stimulus":"<div style=\"font-size:60px;\">+</div>","key_press":null,"trial_type":"html-keyboard-response","trial_index":8,"time_elapsed":28894,"internal_node_id":"0.0-8.0-1.0","subject":"f48egnjdzwvv443","sona":"5446"},{"trial_type":"turing-test","trial_index":9,"time_elapsed":32302,"internal_node_id":"0.0-8.0-2.0","subject":"f48egnjdzwvv443","sona":"5446"},{"rt":726.2850000006438,"stimulus":"<p>Welche Sequenz haben Sie als natürlicher empfunden?</p>","key_press":74,"test_part":"response","test_stimulus":{"position":0,"left":"bvh/pass-bottle-hold-training2-lines.txt","right":"bvh/vr_prediction_models/model(dmp)-dataset(pass-bottle-hold)-npsi(50)-hold(2)/final-lines.txt","att_check":false},"trial_type":"html-keyboard-response","trial_index":10,"time_elapsed":33039,"internal_node_id":"0.0-8.0-3.0","subject":"f48egnjdzwvv443","sona":"5446"},{"rt":1228.7350000005972,"stimulus":"<p>Bereit?</p>","key_press":32,"trial_type":"html-keyboard-response","trial_index":11,"time_elapsed":34274,"internal_node_id":"0.0-8.0-0.1","subject":"f48egnjdzwvv443","sona":"5446"},{"rt":null,"stimulus":"<div style=\"font-size:60px;\">+</div>","key_press":null,"trial_type":"html-keyboard-response","trial_index":12,"time_elapsed":36290,"internal_node_id":"0.0-8.0-1.1","subject":"f48egnjdzwvv443","sona":"5446"},{"trial_type":"turing-test","trial_index":13,"time_elapsed":39976,"internal_node_id":"0.0-8.0-2.1","subject":"f48egnjdzwvv443","sona":"5446"},{"rt":541.3950000001932,"stimulus":"<p>Welche Sequenz haben Sie als natürlicher empfunden?</p>","key_press":74,"test_part":"response","test_stimulus":{"position":1,"left":"bvh/vr_prediction_models/model(tmp)-dataset(pass-bottle-hold)-numprim(6)-hold(4)/final-lines.txt","right":"bvh/pass-bottle-hold-training4-lines.txt","att_check":false},"trial_type":"html-keyboard-response","trial_index":14,"time_elapsed":40523,"internal_node_id":"0.0-8.0-3.1","subject":"f48egnjdzwvv443","sona":"5446"},{"rt":864.1649999990477,"stimulus":"<p>Bereit?</p>","key_press":32,"trial_type":"html-keyboard-response","trial_index":15,"time_elapsed":41392,"internal_node_id":"0.0-8.0-0.2","subject":"f48egnjdzwvv443","sona":"5446"},{"rt":null,"stimulus":"<div style=\"font-size:60px;\">+</div>","key_press":null,"trial_type":"html-keyboard-response","trial_index":16,"time_elapsed":43409,"internal_node_id":"0.0-8.0-1.2","subject":"f48egnjdzwvv443","sona":"5446"},{"trial_type":"turing-test","trial_index":17,"time_elapsed":50408,"internal_node_id":"0.0-8.0-2.2","subject":"f48egnjdzwvv443","sona":"5446"},{"rt":488.8250000003609,"stimulus":"<p>Welche Sequenz haben Sie als natürlicher empfunden?</p>","key_press":74,"test_part":"response","test_stimulus":{"position":1,"left":"bvh/vr_prediction_models/model(vcgpdm)-dataset(pass-bottle)-mode(ELBO)-parts(1)-dyn(20)-lvm(5)-hold(0)/final-lines.txt","right":"bvh/pass-bottle-training0-lines.txt","att_check":false},"trial_type":"html-keyboard-response","trial_index":18,"time_elapsed":50904,"internal_node_id":"0.0-8.0-3.2","subject":"f48egnjdzwvv443","sona":"5446"},{"rt":507.46000000071945,"stimulus":"<p>Bereit?</p>","key_press":32,"trial_type":"html-keyboard-response","trial_index":19,"time_elapsed":51417,"internal_node_id":"0.0-8.0-0.3","subject":"f48egnjdzwvv443","sona":"5446"},{"rt":null,"stimulus":"<div style=\"font-size:60px;\">+</div>","key_press":null,"trial_type":"html-keyboard-response","trial_index":20,"time_elapsed":53441,"internal_node_id":"0.0-8.0-1.3","subject":"f48egnjdzwvv443","sona":"5446"},{"trial_type":"turing-test","trial_index":21,"time_elapsed":56740,"internal_node_id":"0.0-8.0-2.3","subject":"f48egnjdzwvv443","sona":"5446"},{"rt":889.4550000004529,"stimulus":"<p>Welche Sequenz haben Sie als natürlicher empfunden?</p>","key_press":70,"test_part":"response","test_stimulus":{"position":0,"left":"bvh/pass-bottle-hold-training1-lines.txt","right":"bvh/vr_prediction_models/model(tmp)-dataset(pass-bottle-hold)-numprim(3)-hold(1)/final-lines.txt","att_check":false},"trial_type":"html-keyboard-response","trial_index":22,"time_elapsed":57634,"internal_node_id":"0.0-8.0-3.3","subject":"f48egnjdzwvv443","sona":"5446"},{"rt":661.1850000008417,"stimulus":"<p>Bereit?</p>","key_press":32,"trial_type":"html-keyboard-response","trial_index":23,"time_elapsed":58299,"internal_node_id":"0.0-8.0-0.4","subject":"f48egnjdzwvv443","sona":"5446"},{"rt":null,"stimulus":"<div style=\"font-size:60px;\">+</div>","key_press":null,"trial_type":"html-keyboard-response","trial_index":24,"time_elapsed":60304,"internal_node_id":"0.0-8.0-1.4","subject":"f48egnjdzwvv443","sona":"5446"},{"trial_type":"turing-test","trial_index":25,"time_elapsed":66653,"internal_node_id":"0.0-8.0-2.4","subject":"f48egnjdzwvv443","sona":"5446"},{"rt":1084.774999999354,"stimulus":"<p>Welche Sequenz haben Sie als natürlicher empfunden?</p>","key_press":74,"test_part":"response","test_stimulus":{"position":1,"left":"bvh/vr_prediction_models/model(vcgpdm)-dataset(pass-bottle)-mode(ELBO)-parts(3)-dyn(20)-lvm(20)-hold(2)/final-lines.txt","right":"bvh/pass-bottle-training2-lines.txt","att_check":false},"trial_type":"html-keyboard-response","trial_index":26,"time_elapsed":67750,"internal_node_id":"0.0-8.0-3.4","subject":"f48egnjdzwvv443","sona":"5446"},{"rt":1622.7949999993143,"stimulus":"<p>Bereit?</p>","key_press":32,"trial_type":"html-keyboard-response","trial_index":27,"time_elapsed":69380,"internal_node_id":"0.0-8.0-0.5","subject":"f48egnjdzwvv443","sona":"5446"},{"rt":null,"stimulus":"<div style=\"font-size:60px;\">+</div>","key_press":null,"trial_type":"html-keyboard-response","trial_index":28,"time_elapsed":71396,"internal_node_id":"0.0-8.0-1.5","subject":"f48egnjdzwvv443","sona":"5446"},{"trial_type":"turing-test","trial_index":29,"time_elapsed":77275,"internal_node_id":"0.0-8.0-2.5","subject":"f48egnjdzwvv443","sona":"5446"},{"rt":1035.120000000461,"stimulus":"<p>Welche Sequenz haben Sie als natürlicher empfunden?</p>","key_press":74,"test_part":"response","test_stimulus":{"position":0,"left":"bvh/return-bottle-training3-lines.txt","right":"bvh/vr_prediction_models/model(vcgpdm)-dataset(return-bottle)-mode(ELBO)-parts(3)-dyn(20)-lvm(20)-hold(3)/final-lines.txt","att_check":false},"trial_type":"html-keyboard-response","trial_index":30,"time_elapsed":78313,"internal_node_id":"0.0-8.0-3.5","subject":"f48egnjdzwvv443","sona":"5446"},{"rt":1235.6650000001537,"stimulus":"<p>Bereit?</p>","key_press":32,"trial_type":"html-keyboard-response","trial_index":31,"time_elapsed":79551,"internal_node_id":"0.0-8.0-0.6","subject":"f48egnjdzwvv443","sona":"5446"},{"rt":null,"stimulus":"<div style=\"font-size:60px;\">+</div>","key_press":null,"trial_type":"html-keyboard-response","trial_index":32,"time_elapsed":81558,"internal_node_id":"0.0-8.0-1.6","subject":"f48egnjdzwvv443","sona":"5446"},{"trial_type":"turing-test","trial_index":33,"time_elapsed":84911,"internal_node_id":"0.0-8.0-2.6","subject":"f48egnjdzwvv443","sona":"5446"},{"rt":906.7549999999756,"stimulus":"<p>Welche Sequenz haben Sie als natürlicher empfunden?</p>","key_press":74,"test_part":"response","test_stimulus":{"position":1,"left":"bvh/vr_prediction_models/model(tmp)-dataset(return-bottle-hold)-numprim(7)-hold(1)/final-lines.txt","right":"bvh/return-bottle-hold-training1-lines.txt","att_check":false},"trial_type":"html-keyboard-response","trial_index":34,"time_elapsed":85820,"internal_node_id":"0.0-8.0-3.6","subject":"f48egnjdzwvv443","sona":"5446"},{"rt":551.5850000010687,"stimulus":"<p>Bereit?</p>","key_press":32,"trial_type":"html-keyboard-response","trial_index":35,"time_elapsed":86373,"internal_node_id":"0.0-8.0-0.7","subject":"f48egnjdzwvv443","sona":"5446"},{"rt":null,"stimulus":"<div style=\"font-size:60px;\">+</div>","key_press":null,"trial_type":"html-keyboard-response","trial_index":36,"time_elapsed":88391,"internal_node_id":"0.0-8.0-1.7","subject":"f48egnjdzwvv443","sona":"5446"},{"trial_type":"turing-test","trial_index":37,"time_elapsed":91695,"internal_node_id":"0.0-8.0-2.7","subject":"f48egnjdzwvv443","sona":"5446"},{"rt":923.8749999967695,"stimulus":"<p>Welche Sequenz haben Sie als natürlicher empfunden?</p>","key_press":70,"test_part":"response","test_stimulus":{"position":1,"left":"bvh/vr_prediction_models/model(dmp)-dataset(pass-bottle-hold)-npsi(90)-hold(0)/final-lines.txt","right":"bvh/pass-bottle-hold-training0-lines.txt","att_check":false},"trial_type":"html-keyboard-response","trial_index":38,"time_elapsed":92624,"internal_node_id":"0.0-8.0-3.7","subject":"f48egnjdzwvv443","sona":"5446"},{"rt":1463.384999999107,"stimulus":"<p>Bereit?</p>","key_press":32,"trial_type":"html-keyboard-response","trial_index":39,"time_elapsed":94092,"internal_node_id":"0.0-8.0-0.8","subject":"f48egnjdzwvv443","sona":"5446"},{"rt":null,"stimulus":"<div style=\"font-size:60px;\">+</div>","key_press":null,"trial_type":"html-keyboard-response","trial_index":40,"time_elapsed":96113,"internal_node_id":"0.0-8.0-1.8","subject":"f48egnjdzwvv443","sona":"5446"},{"trial_type":"turing-test","trial_index":41,"time_elapsed":99501,"internal_node_id":"0.0-8.0-2.8","subject":"f48egnjdzwvv443","sona":"5446"},{"rt":708.5900000020047,"stimulus":"<p>Welche Sequenz haben Sie als natürlicher empfunden?</p>","key_press":74,"test_part":"response","test_stimulus":{"position":1,"left":"bvh/vr_prediction_models/model(vcgpdm)-dataset(pass-bottle-hold)-mode(ELBO)-parts(1)-dyn(5)-lvm(5)-hold(1)/final-lines.txt","right":"bvh/pass-bottle-hold-training1-lines.txt","att_check":false},"trial_type":"html-keyboard-response","trial_index":42,"time_elapsed":100216,"internal_node_id":"0.0-8.0-3.8","subject":"f48egnjdzwvv443","sona":"5446"},{"rt":406.7450000002282,"stimulus":"<p>Bereit?</p>","key_press":32,"trial_type":"html-keyboard-response","trial_index":43,"time_elapsed":100628,"internal_node_id":"0.0-8.0-0.9","subject":"f48egnjdzwvv443","sona":"5446"},{"rt":null,"stimulus":"<div style=\"font-size:60px;\">+</div>","key_press":null,"trial_type":"html-keyboard-response","trial_index":44,"time_elapsed":102648,"internal_node_id":"0.0-8.0-1.9","subject":"f48egnjdzwvv443","sona":"5446"},{"trial_type":"turing-test","trial_index":45,"time_elapsed":106243,"internal_node_id":"0.0-8.0-2.9","subject":"f48egnjdzwvv443","sona":"5446"},{"rt":756.1650000025111,"stimulus":"<p>Welche Sequenz haben Sie als natürlicher empfunden?</p>","key_press":74,"test_part":"response","test_stimulus":{"position":0,"left":"bvh/pass-bottle-hold-training3-lines.txt","right":"bvh/vr_prediction_models/model(tmp)-dataset(pass-bottle-hold)-numprim(5)-hold(3)/final-lines.txt","att_check":false},"trial_type":"html-keyboard-response","trial_index":46,"time_elapsed":107007,"internal_node_id":"0.0-8.0-3.9","subject":"f48egnjdzwvv443","sona":"5446"},{"rt":532.005000000936,"stimulus":"<p>Bereit?</p>","key_press":32,"trial_type":"html-keyboard-response","trial_index":47,"time_elapsed":107544,"internal_node_id":"0.0-8.0-0.10","subject":"f48egnjdzwvv443","sona":"5446"},{"rt":null,"stimulus":"<div style=\"font-size:60px;\">+</div>","key_press":null,"trial_type":"html-keyboard-response","trial_index":48,"time_elapsed":109566,"internal_node_id":"0.0-8.0-1.10","subject":"f48egnjdzwvv443","sona":"5446"},{"trial_type":"turing-test","trial_index":49,"time_elapsed":115371,"internal_node_id":"0.0-8.0-2.10","subject":"f48egnjdzwvv443","sona":"5446"},{"rt":621.0299999984272,"stimulus":"<p>Welche Sequenz haben Sie als natürlicher empfunden?</p>","key_press":70,"test_part":"response","test_stimulus":{"position":1,"left":"bvh/vr_prediction_models/model(dmp)-dataset(return-bottle)-npsi(70)-hold(3)/final-lines.txt","right":"bvh/return-bottle-training3-lines.txt","att_check":false},"trial_type":"html-keyboard-response","trial_index":50,"time_elapsed":116000,"internal_node_id":"0.0-8.0-3.10","subject":"f48egnjdzwvv443","sona":"5446"},{"rt":610.4300000006333,"stimulus":"<p>Bereit?</p>","key_press":32,"trial_type":"html-keyboard-response","trial_index":51,"time_elapsed":116615,"internal_node_id":"0.0-8.0-0.11","subject":"f48egnjdzwvv443","sona":"5446"},{"rt":null,"stimulus":"<div style=\"font-size:60px;\">+</div>","key_press":null,"trial_type":"html-keyboard-response","trial_index":52,"time_elapsed":118624,"internal_node_id":"0.0-8.0-1.11","subject":"f48egnjdzwvv443","sona":"5446"}]