[{"rt":4961,"stimulus":"<p>Welcome!<br> Please choose your language to start the experiment in the chosen language.</p><p>Willkommen!<br> Bitte wählen Sie eine Sprache, um das Experiment in der ausgewählten Sprache zu starten</p>","button_pressed":"1","trial_type":"html-button-response","trial_index":0,"time_elapsed":4984,"internal_node_id":"0.0-0.0","subject":"zux680qj89hgl3a","sona":"9538"},{"view_history":"[{\"page_index\":0,\"viewing_time\":10524},{\"page_index\":1,\"viewing_time\":3208},{\"page_index\":2,\"viewing_time\":5555},{\"page_index\":3,\"viewing_time\":6923},{\"page_index\":4,\"viewing_time\":2457}]","rt":28668,"trial_type":"instructions","trial_index":1,"time_elapsed":33651,"internal_node_id":"0.0-1.0-0.0","subject":"zux680qj89hgl3a","sona":"9538"},{"rt":2208,"stimulus":"<p>Bereit?</p>","key_press":32,"trial_type":"html-keyboard-response","trial_index":2,"time_elapsed":35861,"internal_node_id":"0.0-3.0","subject":"zux680qj89hgl3a","sona":"9538"},{"rt":null,"stimulus":"<div style=\"font-size:60px;\">+</div>","key_press":null,"trial_type":"html-keyboard-response","trial_index":3,"time_elapsed":37869,"internal_node_id":"0.0-4.0","subject":"zux680qj89hgl3a","sona":"9538"},{"trial_type":"training","trial_index":4,"time_elapsed":41375,"internal_node_id":"0.0-5.0","subject":"zux680qj89hgl3a","sona":"9538"},{"rt":4113,"stimulus":"<p>Welche Sequenz haben Sie als natürlicher empfunden?</p>","key_press":70,"trial_type":"html-keyboard-response","trial_index":5,"time_elapsed":45489,"internal_node_id":"0.0-6.0","subject":"zux680qj89hgl3a","sona":"9538"},{"rt":4751,"stimulus":"<p>Das Experiment startet nun.</p><p><small>Bitte drücken Sie den Knopf, wenn Sie bereit sind.</small></p>","button_pressed":"0","trial_type":"html-button-response","trial_index":6,"time_elapsed":50241,"internal_node_id":"0.0-7.0","subject":"zux680qj89hgl3a","sona":"9538"},{"rt":1674,"stimulus":"<p>Bereit?</p>","key_press":32,"trial_type":"html-keyboard-response","trial_index":7,"time_elapsed":51916,"internal_node_id":"0.0-8.0-0.0","subject":"zux680qj89hgl3a","sona":"9538"},{"rt":null,"stimulus":"<div style=\"font-size:60px;\">+</div>","key_press":null,"trial_type":"html-keyboard-response","trial_index":8,"time_elapsed":53925,"internal_node_id":"0.0-8.0-1.0","subject":"zux680qj89hgl3a","sona":"9538"},{"trial_type":"turing-test","trial_index":9,"time_elapsed":59615,"internal_node_id":"0.0-8.0-2.0","subject":"zux680qj89hgl3a","sona":"9538"},{"rt":3231,"stimulus":"<p>Welche Sequenz haben Sie als natürlicher empfunden?</p>","key_press":74,"test_part":"response","test_stimulus":{"position":0,"left":"bvh/return-bottle-training0-lines.txt","right":"bvh/vr_prediction_models/model(vcgpdm)-dataset(return-bottle)-mode(ELBO)-parts(3)-dyn(25)-lvm(15)-hold(0)/final-lines.txt","att_check":false},"trial_type":"html-keyboard-response","trial_index":10,"time_elapsed":62850,"internal_node_id":"0.0-8.0-3.0","subject":"zux680qj89hgl3a","sona":"9538"},{"rt":1316,"stimulus":"<p>Bereit?</p>","key_press":32,"trial_type":"html-keyboard-response","trial_index":11,"time_elapsed":64168,"internal_node_id":"0.0-8.0-0.1","subject":"zux680qj89hgl3a","sona":"9538"},{"rt":null,"stimulus":"<div style=\"font-size:60px;\">+</div>","key_press":null,"trial_type":"html-keyboard-response","trial_index":12,"time_elapsed":66175,"internal_node_id":"0.0-8.0-1.1","subject":"zux680qj89hgl3a","sona":"9538"},{"trial_type":"turing-test","trial_index":13,"time_elapsed":70227,"internal_node_id":"0.0-8.0-2.1","subject":"zux680qj89hgl3a","sona":"9538"},{"rt":792,"stimulus":"<p>Welche Sequenz haben Sie als natürlicher empfunden?</p>","key_press":74,"test_part":"response","test_stimulus":{"position":1,"left":"bvh/vr_prediction_models/model(vcgpdm)-dataset(return-bottle-hold)-mode(ELBO)-parts(3)-dyn(15)-lvm(30)-hold(3)/final-lines.txt","right":"bvh/return-bottle-hold-training3-lines.txt","att_check":false},"trial_type":"html-keyboard-response","trial_index":14,"time_elapsed":71021,"internal_node_id":"0.0-8.0-3.1","subject":"zux680qj89hgl3a","sona":"9538"},{"rt":1200.0000000000146,"stimulus":"<p>Bereit?</p>","key_press":32,"trial_type":"html-keyboard-response","trial_index":15,"time_elapsed":72223,"internal_node_id":"0.0-8.0-0.2","subject":"zux680qj89hgl3a","sona":"9538"},{"rt":null,"stimulus":"<div style=\"font-size:60px;\">+</div>","key_press":null,"trial_type":"html-keyboard-response","trial_index":16,"time_elapsed":74230,"internal_node_id":"0.0-8.0-1.2","subject":"zux680qj89hgl3a","sona":"9538"},{"trial_type":"turing-test","trial_index":17,"time_elapsed":78060,"internal_node_id":"0.0-8.0-2.2","subject":"zux680qj89hgl3a","sona":"9538"},{"rt":1593,"stimulus":"<p>Welche Sequenz haben Sie als natürlicher empfunden?</p>","key_press":70,"test_part":"response","test_stimulus":{"position":0,"left":"bvh/pass-bottle-hold-training3-lines.txt","right":"bvh/vr_prediction_models/model(tmp)-dataset(pass-bottle-hold)-numprim(13)-hold(3)/final-lines.txt","att_check":false},"trial_type":"html-keyboard-response","trial_index":18,"time_elapsed":79656,"internal_node_id":"0.0-8.0-3.2","subject":"zux680qj89hgl3a","sona":"9538"},{"rt":681,"stimulus":"<p>Bereit?</p>","key_press":32,"trial_type":"html-keyboard-response","trial_index":19,"time_elapsed":80340,"internal_node_id":"0.0-8.0-0.3","subject":"zux680qj89hgl3a","sona":"9538"},{"rt":null,"stimulus":"<div style=\"font-size:60px;\">+</div>","key_press":null,"trial_type":"html-keyboard-response","trial_index":20,"time_elapsed":82348,"internal_node_id":"0.0-8.0-1.3","subject":"zux680qj89hgl3a","sona":"9538"},{"trial_type":"turing-test","trial_index":21,"time_elapsed":87600,"internal_node_id":"0.0-8.0-2.3","subject":"zux680qj89hgl3a","sona":"9538"},{"rt":2583.9999999999854,"stimulus":"<p>Welche Sequenz haben Sie als natürlicher empfunden?</p>","key_press":70,"test_part":"response","test_stimulus":{"position":0,"left":"bvh/pass-bottle-hold-training2-lines.txt","right":"bvh/vr_prediction_models/model(vcgpdm)-dataset(pass-bottle-hold)-mode(ELBO)-parts(3)-dyn(10)-lvm(25)-hold(2)/final-lines.txt","att_check":false},"trial_type":"html-keyboard-response","trial_index":22,"time_elapsed":90187,"internal_node_id":"0.0-8.0-3.3","subject":"zux680qj89hgl3a","sona":"9538"},{"rt":889,"stimulus":"<p>Bereit?</p>","key_press":32,"trial_type":"html-keyboard-response","trial_index":23,"time_elapsed":91078,"internal_node_id":"0.0-8.0-0.4","subject":"zux680qj89hgl3a","sona":"9538"},{"rt":null,"stimulus":"<div style=\"font-size:60px;\">+</div>","key_press":null,"trial_type":"html-keyboard-response","trial_index":24,"time_elapsed":93083,"internal_node_id":"0.0-8.0-1.4","subject":"zux680qj89hgl3a","sona":"9538"},{"trial_type":"turing-test","trial_index":25,"time_elapsed":100322,"internal_node_id":"0.0-8.0-2.4","subject":"zux680qj89hgl3a","sona":"9538"},{"rt":804,"stimulus":"<p>Welche Sequenz haben Sie als natürlicher empfunden?</p>","key_press":70,"test_part":"response","test_stimulus":{"position":0,"left":"bvh/pass-bottle-training1-lines.txt","right":"bvh/vr_prediction_models/model(vcgpdm)-dataset(pass-bottle)-mode(ELBO)-parts(1)-dyn(35)-lvm(10)-hold(1)/final-lines.txt","att_check":false},"trial_type":"html-keyboard-response","trial_index":26,"time_elapsed":101131,"internal_node_id":"0.0-8.0-3.4","subject":"zux680qj89hgl3a","sona":"9538"},{"rt":1042,"stimulus":"<p>Bereit?</p>","key_press":32,"trial_type":"html-keyboard-response","trial_index":27,"time_elapsed":102175,"internal_node_id":"0.0-8.0-0.5","subject":"zux680qj89hgl3a","sona":"9538"},{"rt":null,"stimulus":"<div style=\"font-size:60px;\">+</div>","key_press":null,"trial_type":"html-keyboard-response","trial_index":28,"time_elapsed":104183,"internal_node_id":"0.0-8.0-1.5","subject":"zux680qj89hgl3a","sona":"9538"},{"trial_type":"turing-test","trial_index":29,"time_elapsed":109014,"internal_node_id":"0.0-8.0-2.5","subject":"zux680qj89hgl3a","sona":"9538"},{"rt":659,"stimulus":"<p>Welche Sequenz haben Sie als natürlicher empfunden?</p>","key_press":74,"test_part":"response","test_stimulus":{"position":1,"left":"bvh/vr_prediction_models/model(vcgpdm)-dataset(pass-bottle-hold)-mode(ELBO)-parts(1)-dyn(20)-lvm(5)-hold(4)/final-lines.txt","right":"bvh/pass-bottle-hold-training4-lines.txt","att_check":false},"trial_type":"html-keyboard-response","trial_index":30,"time_elapsed":109677,"internal_node_id":"0.0-8.0-3.5","subject":"zux680qj89hgl3a","sona":"9538"},{"rt":942,"stimulus":"<p>Bereit?</p>","key_press":32,"trial_type":"html-keyboard-response","trial_index":31,"time_elapsed":110622,"internal_node_id":"0.0-8.0-0.6","subject":"zux680qj89hgl3a","sona":"9538"},{"rt":null,"stimulus":"<div style=\"font-size:60px;\">+</div>","key_press":null,"trial_type":"html-keyboard-response","trial_index":32,"time_elapsed":112634,"internal_node_id":"0.0-8.0-1.6","subject":"zux680qj89hgl3a","sona":"9538"},{"trial_type":"turing-test","trial_index":33,"time_elapsed":116172,"internal_node_id":"0.0-8.0-2.6","subject":"zux680qj89hgl3a","sona":"9538"},{"rt":811.0000000000146,"stimulus":"<p>Welche Sequenz haben Sie als natürlicher empfunden?</p>","key_press":70,"test_part":"response","test_stimulus":{"position":0,"left":"bvh/pass-bottle-hold-training0-lines.txt","right":"bvh/vr_prediction_models/model(vcgpdm)-dataset(pass-bottle-hold)-mode(ELBO)-parts(3)-dyn(35)-lvm(20)-hold(0)/final-lines.txt","att_check":false},"trial_type":"html-keyboard-response","trial_index":34,"time_elapsed":116986,"internal_node_id":"0.0-8.0-3.6","subject":"zux680qj89hgl3a","sona":"9538"},{"rt":677,"stimulus":"<p>Bereit?</p>","key_press":32,"trial_type":"html-keyboard-response","trial_index":35,"time_elapsed":117665,"internal_node_id":"0.0-8.0-0.7","subject":"zux680qj89hgl3a","sona":"9538"},{"rt":null,"stimulus":"<div style=\"font-size:60px;\">+</div>","key_press":null,"trial_type":"html-keyboard-response","trial_index":36,"time_elapsed":119669,"internal_node_id":"0.0-8.0-1.7","subject":"zux680qj89hgl3a","sona":"9538"},{"trial_type":"turing-test","trial_index":37,"time_elapsed":123324,"internal_node_id":"0.0-8.0-2.7","subject":"zux680qj89hgl3a","sona":"9538"},{"rt":2836,"stimulus":"<p>Welche Sequenz haben Sie als natürlicher empfunden?</p>","key_press":74,"test_part":"response","test_stimulus":{"position":0,"left":"bvh/pass-bottle-hold-training4-lines.txt","right":"bvh/vr_prediction_models/model(tmp)-dataset(pass-bottle-hold)-numprim(8)-hold(4)/final-lines.txt","att_check":false},"trial_type":"html-keyboard-response","trial_index":38,"time_elapsed":126163,"internal_node_id":"0.0-8.0-3.7","subject":"zux680qj89hgl3a","sona":"9538"},{"rt":538.0000000000146,"stimulus":"<p>Bereit?</p>","key_press":32,"trial_type":"html-keyboard-response","trial_index":39,"time_elapsed":126703,"internal_node_id":"0.0-8.0-0.8","subject":"zux680qj89hgl3a","sona":"9538"},{"rt":null,"stimulus":"<div style=\"font-size:60px;\">+</div>","key_press":null,"trial_type":"html-keyboard-response","trial_index":40,"time_elapsed":128711,"internal_node_id":"0.0-8.0-1.8","subject":"zux680qj89hgl3a","sona":"9538"},{"trial_type":"turing-test","trial_index":41,"time_elapsed":132404,"internal_node_id":"0.0-8.0-2.8","subject":"zux680qj89hgl3a","sona":"9538"},{"rt":534,"stimulus":"<p>Welche Sequenz haben Sie als natürlicher empfunden?</p>","key_press":74,"test_part":"response","test_stimulus":{"position":0,"left":"bvh/pass-bottle-hold-training3-lines.txt","right":"bvh/vr_prediction_models/model(vcgpdm)-dataset(pass-bottle-hold)-mode(ELBO)-parts(3)-dyn(15)-lvm(30)-hold(3)/final-lines.txt","att_check":false},"trial_type":"html-keyboard-response","trial_index":42,"time_elapsed":132941,"internal_node_id":"0.0-8.0-3.8","subject":"zux680qj89hgl3a","sona":"9538"},{"rt":514.9999999999709,"stimulus":"<p>Bereit?</p>","key_press":32,"trial_type":"html-keyboard-response","trial_index":43,"time_elapsed":133457,"internal_node_id":"0.0-8.0-0.9","subject":"zux680qj89hgl3a","sona":"9538"},{"rt":null,"stimulus":"<div style=\"font-size:60px;\">+</div>","key_press":null,"trial_type":"html-keyboard-response","trial_index":44,"time_elapsed":135463,"internal_node_id":"0.0-8.0-1.9","subject":"zux680qj89hgl3a","sona":"9538"},{"trial_type":"turing-test","trial_index":45,"time_elapsed":141076,"internal_node_id":"0.0-8.0-2.9","subject":"zux680qj89hgl3a","sona":"9538"},{"rt":834.9999999999709,"stimulus":"<p>Welche Sequenz haben Sie als natürlicher empfunden?</p>","key_press":70,"test_part":"response","test_stimulus":{"position":0,"left":"bvh/return-bottle-hold-training0-lines.txt","right":"bvh/vr_prediction_models/model(dmp)-dataset(return-bottle-hold)-npsi(60)-hold(0)/final-lines.txt","att_check":true},"trial_type":"html-keyboard-response","trial_index":46,"time_elapsed":141914,"internal_node_id":"0.0-8.0-3.9","subject":"zux680qj89hgl3a","sona":"9538"},{"rt":711,"stimulus":"<p>Bereit?</p>","key_press":32,"trial_type":"html-keyboard-response","trial_index":47,"time_elapsed":142627,"internal_node_id":"0.0-8.0-0.10","subject":"zux680qj89hgl3a","sona":"9538"},{"rt":null,"stimulus":"<div style=\"font-size:60px;\">+</div>","key_press":null,"trial_type":"html-keyboard-response","trial_index":48,"time_elapsed":144633,"internal_node_id":"0.0-8.0-1.10","subject":"zux680qj89hgl3a","sona":"9538"},{"trial_type":"turing-test","trial_index":49,"time_elapsed":150453,"internal_node_id":"0.0-8.0-2.10","subject":"zux680qj89hgl3a","sona":"9538"},{"rt":1854.000000000029,"stimulus":"<p>Welche Sequenz haben Sie als natürlicher empfunden?</p>","key_press":74,"test_part":"response","test_stimulus":{"position":1,"left":"bvh/vr_prediction_models/model(tmp)-dataset(return-bottle)-numprim(7)-hold(3)/final-lines.txt","right":"bvh/return-bottle-training3-lines.txt","att_check":false},"trial_type":"html-keyboard-response","trial_index":50,"time_elapsed":152311,"internal_node_id":"0.0-8.0-3.10","subject":"zux680qj89hgl3a","sona":"9538"},{"rt":597.0000000000291,"stimulus":"<p>Bereit?</p>","key_press":32,"trial_type":"html-keyboard-response","trial_index":51,"time_elapsed":152911,"internal_node_id":"0.0-8.0-0.11","subject":"zux680qj89hgl3a","sona":"9538"},{"rt":null,"stimulus":"<div style=\"font-size:60px;\">+</div>","key_press":null,"trial_type":"html-keyboard-response","trial_index":52,"time_elapsed":154919,"internal_node_id":"0.0-8.0-1.11","subject":"zux680qj89hgl3a","sona":"9538"},{"trial_type":"turing-test","trial_index":53,"time_elapsed":159452,"internal_node_id":"0.0-8.0-2.11","subject":"zux680qj89hgl3a","sona":"9538"}]