[{"rt":1469.810000000507,"stimulus":"<p>Welcome!<br> Please choose your language to start the experiment in the chosen language.</p><p>Willkommen!<br> Bitte wählen Sie eine Sprache, um das Experiment in der ausgewählten Sprache zu starten</p>","button_pressed":"1","trial_type":"html-button-response","trial_index":0,"time_elapsed":1486,"internal_node_id":"0.0-0.0","subject":"lslyho4arzmvbz2","sona":"7351"},{"view_history":"[{\"page_index\":0,\"viewing_time\":765.4949999996461},{\"page_index\":1,\"viewing_time\":770.6049999997049},{\"page_index\":2,\"viewing_time\":591.3250000003245},{\"page_index\":3,\"viewing_time\":751.7299999999523},{\"page_index\":4,\"viewing_time\":768.3600000000297}]","rt":3649.069999999483,"trial_type":"instructions","trial_index":1,"time_elapsed":5136,"internal_node_id":"0.0-1.0-0.0","subject":"lslyho4arzmvbz2","sona":"7351"},{"rt":1896.0150000002614,"stimulus":"<p>Bereit?</p>","key_press":32,"trial_type":"html-keyboard-response","trial_index":2,"time_elapsed":7034,"internal_node_id":"0.0-3.0","subject":"lslyho4arzmvbz2","sona":"7351"},{"rt":null,"stimulus":"<div style=\"font-size:60px;\">+</div>","key_press":null,"trial_type":"html-keyboard-response","trial_index":3,"time_elapsed":9037,"internal_node_id":"0.0-4.0","subject":"lslyho4arzmvbz2","sona":"7351"},{"trial_type":"training","trial_index":4,"time_elapsed":12307,"internal_node_id":"0.0-5.0","subject":"lslyho4arzmvbz2","sona":"7351"},{"rt":567.8949999992255,"stimulus":"<p>Welche Sequenz haben Sie als natürlicher empfunden?</p>","key_press":70,"trial_type":"html-keyboard-response","trial_index":5,"time_elapsed":12877,"internal_node_id":"0.0-6.0","subject":"lslyho4arzmvbz2","sona":"7351"},{"rt":3055.475000000115,"stimulus":"<p>Das Experiment startet nun.</p><p><small>Bitte drücken Sie den Knopf, wenn Sie bereit sind.</small></p>","button_pressed":"0","trial_type":"html-button-response","trial_index":6,"time_elapsed":15935,"internal_node_id":"0.0-7.0","subject":"lslyho4arzmvbz2","sona":"7351"},{"rt":1576.4099999996688,"stimulus":"<p>Bereit?</p>","key_press":32,"trial_type":"html-keyboard-response","trial_index":7,"time_elapsed":17514,"internal_node_id":"0.0-8.0-0.0","subject":"lslyho4arzmvbz2","sona":"7351"},{"rt":null,"stimulus":"<div style=\"font-size:60px;\">+</div>","key_press":null,"trial_type":"html-keyboard-response","trial_index":8,"time_elapsed":19518,"internal_node_id":"0.0-8.0-1.0","subject":"lslyho4arzmvbz2","sona":"7351"},{"trial_type":"turing-test","trial_index":9,"time_elapsed":23416,"internal_node_id":"0.0-8.0-2.0","subject":"lslyho4arzmvbz2","sona":"7351"},{"rt":381.09499999973195,"stimulus":"<p>Welche Sequenz haben Sie als natürlicher empfunden?</p>","key_press":70,"test_part":"response","test_stimulus":{"position":0,"left":"bvh/pass-bottle-hold-training3-lines.txt","right":"bvh/vr_prediction_models/model(vcgpdm)-dataset(pass-bottle-hold)-mode(ELBO)-parts(1)-dyn(20)-lvm(20)-hold(3)/final-lines.txt","att_check":false},"trial_type":"html-keyboard-response","trial_index":10,"time_elapsed":23802,"internal_node_id":"0.0-8.0-3.0","subject":"lslyho4arzmvbz2","sona":"7351"},{"rt":352.6000000001659,"stimulus":"<p>Bereit?</p>","key_press":32,"trial_type":"html-keyboard-response","trial_index":11,"time_elapsed":24159,"internal_node_id":"0.0-8.0-0.1","subject":"lslyho4arzmvbz2","sona":"7351"},{"rt":null,"stimulus":"<div style=\"font-size:60px;\">+</div>","key_press":null,"trial_type":"html-keyboard-response","trial_index":12,"time_elapsed":26162,"internal_node_id":"0.0-8.0-1.1","subject":"lslyho4arzmvbz2","sona":"7351"},{"trial_type":"turing-test","trial_index":13,"time_elapsed":29781,"internal_node_id":"0.0-8.0-2.1","subject":"lslyho4arzmvbz2","sona":"7351"},{"rt":369.684999999663,"stimulus":"<p>Welche Sequenz haben Sie als natürlicher empfunden?</p>","key_press":70,"test_part":"response","test_stimulus":{"position":0,"left":"bvh/pass-bottle-hold-training2-lines.txt","right":"bvh/vr_prediction_models/model(vcgpdm)-dataset(pass-bottle-hold)-mode(MAP)-parts(1)-hold(2)/final-lines.txt","att_check":false},"trial_type":"html-keyboard-response","trial_index":14,"time_elapsed":30153,"internal_node_id":"0.0-8.0-3.1","subject":"lslyho4arzmvbz2","sona":"7351"},{"rt":395.26499999919906,"stimulus":"<p>Bereit?</p>","key_press":32,"trial_type":"html-keyboard-response","trial_index":15,"time_elapsed":30550,"internal_node_id":"0.0-8.0-0.2","subject":"lslyho4arzmvbz2","sona":"7351"},{"rt":null,"stimulus":"<div style=\"font-size:60px;\">+</div>","key_press":null,"trial_type":"html-keyboard-response","trial_index":16,"time_elapsed":32554,"internal_node_id":"0.0-8.0-1.2","subject":"lslyho4arzmvbz2","sona":"7351"},{"trial_type":"turing-test","trial_index":17,"time_elapsed":36133,"internal_node_id":"0.0-8.0-2.2","subject":"lslyho4arzmvbz2","sona":"7351"},{"rt":524.9650000005204,"stimulus":"<p>Welche Sequenz haben Sie als natürlicher empfunden?</p>","key_press":74,"test_part":"response","test_stimulus":{"position":1,"left":"bvh/vr_prediction_models/model(vcgpdm)-dataset(return-bottle-hold)-mode(MAP)-parts(1)-hold(3)/final-lines.txt","right":"bvh/return-bottle-hold-training3-lines.txt","att_check":false},"trial_type":"html-keyboard-response","trial_index":18,"time_elapsed":36662,"internal_node_id":"0.0-8.0-3.2","subject":"lslyho4arzmvbz2","sona":"7351"},{"rt":349.83999999985826,"stimulus":"<p>Bereit?</p>","key_press":32,"trial_type":"html-keyboard-response","trial_index":19,"time_elapsed":37015,"internal_node_id":"0.0-8.0-0.3","subject":"lslyho4arzmvbz2","sona":"7351"},{"rt":null,"stimulus":"<div style=\"font-size:60px;\">+</div>","key_press":null,"trial_type":"html-keyboard-response","trial_index":20,"time_elapsed":39019,"internal_node_id":"0.0-8.0-1.3","subject":"lslyho4arzmvbz2","sona":"7351"},{"trial_type":"turing-test","trial_index":21,"time_elapsed":42187,"internal_node_id":"0.0-8.0-2.3","subject":"lslyho4arzmvbz2","sona":"7351"},{"rt":695.9100000003673,"stimulus":"<p>Welche Sequenz haben Sie als natürlicher empfunden?</p>","key_press":74,"test_part":"response","test_stimulus":{"position":0,"left":"bvh/pass-bottle-hold-training1-lines.txt","right":"bvh/vr_prediction_models/model(dmp)-dataset(pass-bottle-hold)-npsi(80)-hold(1)/final-lines.txt","att_check":false},"trial_type":"html-keyboard-response","trial_index":22,"time_elapsed":42888,"internal_node_id":"0.0-8.0-3.3","subject":"lslyho4arzmvbz2","sona":"7351"},{"rt":276.1350000000675,"stimulus":"<p>Bereit?</p>","key_press":32,"trial_type":"html-keyboard-response","trial_index":23,"time_elapsed":43168,"internal_node_id":"0.0-8.0-0.4","subject":"lslyho4arzmvbz2","sona":"7351"},{"rt":null,"stimulus":"<div style=\"font-size:60px;\">+</div>","key_press":null,"trial_type":"html-keyboard-response","trial_index":24,"time_elapsed":45171,"internal_node_id":"0.0-8.0-1.4","subject":"lslyho4arzmvbz2","sona":"7351"},{"trial_type":"turing-test","trial_index":25,"time_elapsed":50311,"internal_node_id":"0.0-8.0-2.4","subject":"lslyho4arzmvbz2","sona":"7351"},{"rt":550.3900000003341,"stimulus":"<p>Welche Sequenz haben Sie als natürlicher empfunden?</p>","key_press":74,"test_part":"response","test_stimulus":{"position":1,"left":"bvh/vr_prediction_models/model(dmp)-dataset(return-bottle-hold)-npsi(80)-hold(0)/final-lines.txt","right":"bvh/return-bottle-hold-training0-lines.txt","att_check":false},"trial_type":"html-keyboard-response","trial_index":26,"time_elapsed":50869,"internal_node_id":"0.0-8.0-3.4","subject":"lslyho4arzmvbz2","sona":"7351"},{"rt":291.52500000054715,"stimulus":"<p>Bereit?</p>","key_press":32,"trial_type":"html-keyboard-response","trial_index":27,"time_elapsed":51164,"internal_node_id":"0.0-8.0-0.5","subject":"lslyho4arzmvbz2","sona":"7351"},{"rt":null,"stimulus":"<div style=\"font-size:60px;\">+</div>","key_press":null,"trial_type":"html-keyboard-response","trial_index":28,"time_elapsed":53168,"internal_node_id":"0.0-8.0-1.5","subject":"lslyho4arzmvbz2","sona":"7351"},{"trial_type":"turing-test","trial_index":29,"time_elapsed":58589,"internal_node_id":"0.0-8.0-2.5","subject":"lslyho4arzmvbz2","sona":"7351"},{"rt":609.9899999999252,"stimulus":"<p>Welche Sequenz haben Sie als natürlicher empfunden?</p>","key_press":70,"test_part":"response","test_stimulus":{"position":0,"left":"bvh/return-bottle-training0-lines.txt","right":"bvh/vr_prediction_models/model(dmp)-dataset(return-bottle)-npsi(60)-hold(0)/final-lines.txt","att_check":true},"trial_type":"html-keyboard-response","trial_index":30,"time_elapsed":59202,"internal_node_id":"0.0-8.0-3.5","subject":"lslyho4arzmvbz2","sona":"7351"},{"rt":428.8649999998597,"stimulus":"<p>Bereit?</p>","key_press":32,"trial_type":"html-keyboard-response","trial_index":31,"time_elapsed":59635,"internal_node_id":"0.0-8.0-0.6","subject":"lslyho4arzmvbz2","sona":"7351"},{"rt":null,"stimulus":"<div style=\"font-size:60px;\">+</div>","key_press":null,"trial_type":"html-keyboard-response","trial_index":32,"time_elapsed":61637,"internal_node_id":"0.0-8.0-1.6","subject":"lslyho4arzmvbz2","sona":"7351"},{"trial_type":"turing-test","trial_index":33,"time_elapsed":67471,"internal_node_id":"0.0-8.0-2.6","subject":"lslyho4arzmvbz2","sona":"7351"},{"rt":472.0600000000559,"stimulus":"<p>Welche Sequenz haben Sie als natürlicher empfunden?</p>","key_press":70,"test_part":"response","test_stimulus":{"position":0,"left":"bvh/pass-bottle-training3-lines.txt","right":"bvh/vr_prediction_models/model(tmp)-dataset(pass-bottle)-numprim(13)-hold(3)/final-lines.txt","att_check":false},"trial_type":"html-keyboard-response","trial_index":34,"time_elapsed":67946,"internal_node_id":"0.0-8.0-3.6","subject":"lslyho4arzmvbz2","sona":"7351"},{"rt":297.8699999994278,"stimulus":"<p>Bereit?</p>","key_press":32,"trial_type":"html-keyboard-response","trial_index":35,"time_elapsed":68246,"internal_node_id":"0.0-8.0-0.7","subject":"lslyho4arzmvbz2","sona":"7351"},{"rt":null,"stimulus":"<div style=\"font-size:60px;\">+</div>","key_press":null,"trial_type":"html-keyboard-response","trial_index":36,"time_elapsed":70249,"internal_node_id":"0.0-8.0-1.7","subject":"lslyho4arzmvbz2","sona":"7351"},{"trial_type":"turing-test","trial_index":37,"time_elapsed":73584,"internal_node_id":"0.0-8.0-2.7","subject":"lslyho4arzmvbz2","sona":"7351"},{"rt":530.3249999997206,"stimulus":"<p>Welche Sequenz haben Sie als natürlicher empfunden?</p>","key_press":70,"test_part":"response","test_stimulus":{"position":1,"left":"bvh/vr_prediction_models/model(dmp)-dataset(pass-bottle-hold)-npsi(60)-hold(2)/final-lines.txt","right":"bvh/pass-bottle-hold-training2-lines.txt","att_check":false},"trial_type":"html-keyboard-response","trial_index":38,"time_elapsed":74118,"internal_node_id":"0.0-8.0-3.7","subject":"lslyho4arzmvbz2","sona":"7351"},{"rt":256.1100000002625,"stimulus":"<p>Bereit?</p>","key_press":32,"trial_type":"html-keyboard-response","trial_index":39,"time_elapsed":74377,"internal_node_id":"0.0-8.0-0.8","subject":"lslyho4arzmvbz2","sona":"7351"},{"rt":null,"stimulus":"<div style=\"font-size:60px;\">+</div>","key_press":null,"trial_type":"html-keyboard-response","trial_index":40,"time_elapsed":76380,"internal_node_id":"0.0-8.0-1.8","subject":"lslyho4arzmvbz2","sona":"7351"},{"trial_type":"turing-test","trial_index":41,"time_elapsed":79854,"internal_node_id":"0.0-8.0-2.8","subject":"lslyho4arzmvbz2","sona":"7351"},{"rt":28556.099999999802,"stimulus":"<p>Welche Sequenz haben Sie als natürlicher empfunden?</p>","key_press":70,"test_part":"response","test_stimulus":{"position":0,"left":"bvh/pass-bottle-hold-training1-lines.txt","right":"bvh/vr_prediction_models/model(vcgpdm)-dataset(pass-bottle-hold)-mode(MAP)-parts(3)-hold(1)/final-lines.txt","att_check":false},"trial_type":"html-keyboard-response","trial_index":42,"time_elapsed":108413,"internal_node_id":"0.0-8.0-3.8","subject":"lslyho4arzmvbz2","sona":"7351"},{"rt":692.1199999997043,"stimulus":"<p>Bereit?</p>","key_press":32,"trial_type":"html-keyboard-response","trial_index":43,"time_elapsed":109108,"internal_node_id":"0.0-8.0-0.9","subject":"lslyho4arzmvbz2","sona":"7351"},{"rt":null,"stimulus":"<div style=\"font-size:60px;\">+</div>","key_press":null,"trial_type":"html-keyboard-response","trial_index":44,"time_elapsed":111111,"internal_node_id":"0.0-8.0-1.9","subject":"lslyho4arzmvbz2","sona":"7351"},{"trial_type":"turing-test","trial_index":45,"time_elapsed":116914,"internal_node_id":"0.0-8.0-2.9","subject":"lslyho4arzmvbz2","sona":"7351"},{"rt":657.024999999514,"stimulus":"<p>Welche Sequenz haben Sie als natürlicher empfunden?</p>","key_press":70,"test_part":"response","test_stimulus":{"position":1,"left":"bvh/vr_prediction_models/model(tmp)-dataset(return-bottle)-numprim(10)-hold(4)/final-lines.txt","right":"bvh/return-bottle-training4-lines.txt","att_check":false},"trial_type":"html-keyboard-response","trial_index":46,"time_elapsed":117578,"internal_node_id":"0.0-8.0-3.9","subject":"lslyho4arzmvbz2","sona":"7351"},{"rt":545.1149999999034,"stimulus":"<p>Bereit?</p>","key_press":32,"trial_type":"html-keyboard-response","trial_index":47,"time_elapsed":118125,"internal_node_id":"0.0-8.0-0.10","subject":"lslyho4arzmvbz2","sona":"7351"},{"rt":null,"stimulus":"<div style=\"font-size:60px;\">+</div>","key_press":null,"trial_type":"html-keyboard-response","trial_index":48,"time_elapsed":120128,"internal_node_id":"0.0-8.0-1.10","subject":"lslyho4arzmvbz2","sona":"7351"},{"trial_type":"turing-test","trial_index":49,"time_elapsed":125413,"internal_node_id":"0.0-8.0-2.10","subject":"lslyho4arzmvbz2","sona":"7351"},{"rt":477.82999999981257,"stimulus":"<p>Welche Sequenz haben Sie als natürlicher empfunden?</p>","key_press":70,"test_part":"response","test_stimulus":{"position":1,"left":"bvh/vr_prediction_models/model(tmp)-dataset(return-bottle)-numprim(5)-hold(0)/final-lines.txt","right":"bvh/return-bottle-training0-lines.txt","att_check":false},"trial_type":"html-keyboard-response","trial_index":50,"time_elapsed":125897,"internal_node_id":"0.0-8.0-3.10","subject":"lslyho4arzmvbz2","sona":"7351"},{"rt":293.409999999305,"stimulus":"<p>Bereit?</p>","key_press":32,"trial_type":"html-keyboard-response","trial_index":51,"time_elapsed":126194,"internal_node_id":"0.0-8.0-0.11","subject":"lslyho4arzmvbz2","sona":"7351"},{"rt":null,"stimulus":"<div style=\"font-size:60px;\">+</div>","key_press":null,"trial_type":"html-keyboard-response","trial_index":52,"time_elapsed":128197,"internal_node_id":"0.0-8.0-1.11","subject":"lslyho4arzmvbz2","sona":"7351"},{"trial_type":"turing-test","trial_index":53,"time_elapsed":133612,"internal_node_id":"0.0-8.0-2.11","subject":"lslyho4arzmvbz2","sona":"7351"}]