[{"rt":2112.8800000005867,"stimulus":"<p>Welcome!<br> Please choose your language to start the experiment in the chosen language.</p><p>Willkommen!<br> Bitte wählen Sie eine Sprache, um das Experiment in der ausgewählten Sprache zu starten</p>","button_pressed":"1","trial_type":"html-button-response","trial_index":0,"time_elapsed":2132,"internal_node_id":"0.0-0.0","subject":"agyz2g35lxfkdee","sona":"7600"},{"view_history":"[{\"page_index\":0,\"viewing_time\":8737.100000000282},{\"page_index\":1,\"viewing_time\":2756.8249999994805},{\"page_index\":2,\"viewing_time\":4977.240000000165},{\"page_index\":3,\"viewing_time\":2236.6200000005847},{\"page_index\":4,\"viewing_time\":2178.8550000001123}]","rt":20889.869999999974,"trial_type":"instructions","trial_index":1,"time_elapsed":23025,"internal_node_id":"0.0-1.0-0.0","subject":"agyz2g35lxfkdee","sona":"7600"},{"rt":1202.1850000000995,"stimulus":"<p>Bereit?</p>","key_press":32,"trial_type":"html-keyboard-response","trial_index":2,"time_elapsed":24229,"internal_node_id":"0.0-3.0","subject":"agyz2g35lxfkdee","sona":"7600"},{"rt":null,"stimulus":"<div style=\"font-size:60px;\">+</div>","key_press":null,"trial_type":"html-keyboard-response","trial_index":3,"time_elapsed":26232,"internal_node_id":"0.0-4.0","subject":"agyz2g35lxfkdee","sona":"7600"},{"trial_type":"training","trial_index":4,"time_elapsed":29637,"internal_node_id":"0.0-5.0","subject":"agyz2g35lxfkdee","sona":"7600"},{"rt":2738.7900000003356,"stimulus":"<p>Welche Sequenz haben Sie als natürlicher empfunden?</p>","key_press":74,"trial_type":"html-keyboard-response","trial_index":5,"time_elapsed":32379,"internal_node_id":"0.0-6.0","subject":"agyz2g35lxfkdee","sona":"7600"},{"rt":5850.484999999935,"stimulus":"<p>Das Experiment startet nun.</p><p><small>Bitte drücken Sie den Knopf, wenn Sie bereit sind.</small></p>","button_pressed":"0","trial_type":"html-button-response","trial_index":6,"time_elapsed":38233,"internal_node_id":"0.0-7.0","subject":"agyz2g35lxfkdee","sona":"7600"},{"rt":1604.5500000000175,"stimulus":"<p>Bereit?</p>","key_press":32,"trial_type":"html-keyboard-response","trial_index":7,"time_elapsed":39840,"internal_node_id":"0.0-8.0-0.0","subject":"agyz2g35lxfkdee","sona":"7600"},{"rt":null,"stimulus":"<div style=\"font-size:60px;\">+</div>","key_press":null,"trial_type":"html-keyboard-response","trial_index":8,"time_elapsed":41842,"internal_node_id":"0.0-8.0-1.0","subject":"agyz2g35lxfkdee","sona":"7600"},{"trial_type":"turing-test","trial_index":9,"time_elapsed":45116,"internal_node_id":"0.0-8.0-2.0","subject":"agyz2g35lxfkdee","sona":"7600"},{"rt":661.5249999995285,"stimulus":"<p>Welche Sequenz haben Sie als natürlicher empfunden?</p>","key_press":70,"test_part":"response","test_stimulus":{"position":1,"left":"bvh/vr_prediction_models/model(dmp)-dataset(pass-bottle-hold)-npsi(70)-hold(0)/final-lines.txt","right":"bvh/pass-bottle-hold-training0-lines.txt","att_check":false},"trial_type":"html-keyboard-response","trial_index":10,"time_elapsed":45784,"internal_node_id":"0.0-8.0-3.0","subject":"agyz2g35lxfkdee","sona":"7600"},{"rt":653.360000000248,"stimulus":"<p>Bereit?</p>","key_press":32,"trial_type":"html-keyboard-response","trial_index":11,"time_elapsed":46442,"internal_node_id":"0.0-8.0-0.1","subject":"agyz2g35lxfkdee","sona":"7600"},{"rt":null,"stimulus":"<div style=\"font-size:60px;\">+</div>","key_press":null,"trial_type":"html-keyboard-response","trial_index":12,"time_elapsed":48444,"internal_node_id":"0.0-8.0-1.1","subject":"agyz2g35lxfkdee","sona":"7600"},{"trial_type":"turing-test","trial_index":13,"time_elapsed":51790,"internal_node_id":"0.0-8.0-2.1","subject":"agyz2g35lxfkdee","sona":"7600"},{"rt":812.579999999798,"stimulus":"<p>Welche Sequenz haben Sie als natürlicher empfunden?</p>","key_press":74,"test_part":"response","test_stimulus":{"position":0,"left":"bvh/pass-bottle-hold-training2-lines.txt","right":"bvh/vr_prediction_models/model(tmp)-dataset(pass-bottle-hold)-numprim(8)-hold(2)/final-lines.txt","att_check":false},"trial_type":"html-keyboard-response","trial_index":14,"time_elapsed":52605,"internal_node_id":"0.0-8.0-3.1","subject":"agyz2g35lxfkdee","sona":"7600"},{"rt":541.7899999993097,"stimulus":"<p>Bereit?</p>","key_press":32,"trial_type":"html-keyboard-response","trial_index":15,"time_elapsed":53150,"internal_node_id":"0.0-8.0-0.2","subject":"agyz2g35lxfkdee","sona":"7600"},{"rt":null,"stimulus":"<div style=\"font-size:60px;\">+</div>","key_press":null,"trial_type":"html-keyboard-response","trial_index":16,"time_elapsed":55152,"internal_node_id":"0.0-8.0-1.2","subject":"agyz2g35lxfkdee","sona":"7600"},{"trial_type":"turing-test","trial_index":17,"time_elapsed":61321,"internal_node_id":"0.0-8.0-2.2","subject":"agyz2g35lxfkdee","sona":"7600"},{"rt":979.2950000000928,"stimulus":"<p>Welche Sequenz haben Sie als natürlicher empfunden?</p>","key_press":74,"test_part":"response","test_stimulus":{"position":1,"left":"bvh/vr_prediction_models/model(dmp)-dataset(pass-bottle)-npsi(10)-hold(2)/final-lines.txt","right":"bvh/pass-bottle-training2-lines.txt","att_check":false},"trial_type":"html-keyboard-response","trial_index":18,"time_elapsed":62305,"internal_node_id":"0.0-8.0-3.2","subject":"agyz2g35lxfkdee","sona":"7600"},{"rt":441.48000000041066,"stimulus":"<p>Bereit?</p>","key_press":32,"trial_type":"html-keyboard-response","trial_index":19,"time_elapsed":62751,"internal_node_id":"0.0-8.0-0.3","subject":"agyz2g35lxfkdee","sona":"7600"},{"rt":null,"stimulus":"<div style=\"font-size:60px;\">+</div>","key_press":null,"trial_type":"html-keyboard-response","trial_index":20,"time_elapsed":64753,"internal_node_id":"0.0-8.0-1.3","subject":"agyz2g35lxfkdee","sona":"7600"},{"trial_type":"turing-test","trial_index":21,"time_elapsed":68386,"internal_node_id":"0.0-8.0-2.3","subject":"agyz2g35lxfkdee","sona":"7600"},{"rt":640.6500000002852,"stimulus":"<p>Welche Sequenz haben Sie als natürlicher empfunden?</p>","key_press":70,"test_part":"response","test_stimulus":{"position":1,"left":"bvh/vr_prediction_models/model(tmp)-dataset(return-bottle-hold)-numprim(9)-hold(2)/final-lines.txt","right":"bvh/return-bottle-hold-training2-lines.txt","att_check":false},"trial_type":"html-keyboard-response","trial_index":22,"time_elapsed":69032,"internal_node_id":"0.0-8.0-3.3","subject":"agyz2g35lxfkdee","sona":"7600"},{"rt":1106.3249999997497,"stimulus":"<p>Bereit?</p>","key_press":32,"trial_type":"html-keyboard-response","trial_index":23,"time_elapsed":70143,"internal_node_id":"0.0-8.0-0.4","subject":"agyz2g35lxfkdee","sona":"7600"},{"rt":null,"stimulus":"<div style=\"font-size:60px;\">+</div>","key_press":null,"trial_type":"html-keyboard-response","trial_index":24,"time_elapsed":72146,"internal_node_id":"0.0-8.0-1.4","subject":"agyz2g35lxfkdee","sona":"7600"},{"trial_type":"turing-test","trial_index":25,"time_elapsed":77652,"internal_node_id":"0.0-8.0-2.4","subject":"agyz2g35lxfkdee","sona":"7600"},{"rt":478.89000000031956,"stimulus":"<p>Welche Sequenz haben Sie als natürlicher empfunden?</p>","key_press":70,"test_part":"response","test_stimulus":{"position":0,"left":"bvh/pass-bottle-training1-lines.txt","right":"bvh/vr_prediction_models/model(vcgpdm)-dataset(pass-bottle)-mode(ELBO)-parts(1)-dyn(25)-lvm(35)-hold(1)/final-lines.txt","att_check":false},"trial_type":"html-keyboard-response","trial_index":26,"time_elapsed":78137,"internal_node_id":"0.0-8.0-3.4","subject":"agyz2g35lxfkdee","sona":"7600"},{"rt":780.5250000001397,"stimulus":"<p>Bereit?</p>","key_press":32,"trial_type":"html-keyboard-response","trial_index":27,"time_elapsed":78923,"internal_node_id":"0.0-8.0-0.5","subject":"agyz2g35lxfkdee","sona":"7600"},{"rt":null,"stimulus":"<div style=\"font-size:60px;\">+</div>","key_press":null,"trial_type":"html-keyboard-response","trial_index":28,"time_elapsed":80925,"internal_node_id":"0.0-8.0-1.5","subject":"agyz2g35lxfkdee","sona":"7600"},{"trial_type":"turing-test","trial_index":29,"time_elapsed":86817,"internal_node_id":"0.0-8.0-2.5","subject":"agyz2g35lxfkdee","sona":"7600"},{"rt":323.7699999999604,"stimulus":"<p>Welche Sequenz haben Sie als natürlicher empfunden?</p>","key_press":70,"test_part":"response","test_stimulus":{"position":0,"left":"bvh/return-bottle-training3-lines.txt","right":"bvh/vr_prediction_models/model(vcgpdm)-dataset(return-bottle)-mode(ELBO)-parts(1)-dyn(30)-lvm(35)-hold(3)/final-lines.txt","att_check":false},"trial_type":"html-keyboard-response","trial_index":30,"time_elapsed":87146,"internal_node_id":"0.0-8.0-3.5","subject":"agyz2g35lxfkdee","sona":"7600"},{"rt":604.2750000005908,"stimulus":"<p>Bereit?</p>","key_press":32,"trial_type":"html-keyboard-response","trial_index":31,"time_elapsed":87755,"internal_node_id":"0.0-8.0-0.6","subject":"agyz2g35lxfkdee","sona":"7600"},{"rt":null,"stimulus":"<div style=\"font-size:60px;\">+</div>","key_press":null,"trial_type":"html-keyboard-response","trial_index":32,"time_elapsed":89757,"internal_node_id":"0.0-8.0-1.6","subject":"agyz2g35lxfkdee","sona":"7600"},{"trial_type":"turing-test","trial_index":33,"time_elapsed":93018,"internal_node_id":"0.0-8.0-2.6","subject":"agyz2g35lxfkdee","sona":"7600"},{"rt":158.80999999991036,"stimulus":"<p>Welche Sequenz haben Sie als natürlicher empfunden?</p>","key_press":74,"test_part":"response","test_stimulus":{"position":0,"left":"bvh/pass-bottle-hold-training2-lines.txt","right":"bvh/vr_prediction_models/model(tmp)-dataset(pass-bottle-hold)-numprim(5)-hold(2)/final-lines.txt","att_check":false},"trial_type":"html-keyboard-response","trial_index":34,"time_elapsed":93182,"internal_node_id":"0.0-8.0-3.6","subject":"agyz2g35lxfkdee","sona":"7600"},{"rt":1007.3050000000803,"stimulus":"<p>Bereit?</p>","key_press":32,"trial_type":"html-keyboard-response","trial_index":35,"time_elapsed":94194,"internal_node_id":"0.0-8.0-0.7","subject":"agyz2g35lxfkdee","sona":"7600"},{"rt":null,"stimulus":"<div style=\"font-size:60px;\">+</div>","key_press":null,"trial_type":"html-keyboard-response","trial_index":36,"time_elapsed":96197,"internal_node_id":"0.0-8.0-1.7","subject":"agyz2g35lxfkdee","sona":"7600"},{"trial_type":"turing-test","trial_index":37,"time_elapsed":102121,"internal_node_id":"0.0-8.0-2.7","subject":"agyz2g35lxfkdee","sona":"7600"},{"rt":1029.8650000004272,"stimulus":"<p>Welche Sequenz haben Sie als natürlicher empfunden?</p>","key_press":74,"test_part":"response","test_stimulus":{"position":1,"left":"bvh/vr_prediction_models/model(vcgpdm)-dataset(pass-bottle)-mode(ELBO)-parts(3)-dyn(10)-lvm(30)-hold(3)/final-lines.txt","right":"bvh/pass-bottle-training3-lines.txt","att_check":false},"trial_type":"html-keyboard-response","trial_index":38,"time_elapsed":103156,"internal_node_id":"0.0-8.0-3.7","subject":"agyz2g35lxfkdee","sona":"7600"},{"rt":367.92999999944004,"stimulus":"<p>Bereit?</p>","key_press":32,"trial_type":"html-keyboard-response","trial_index":39,"time_elapsed":103528,"internal_node_id":"0.0-8.0-0.8","subject":"agyz2g35lxfkdee","sona":"7600"},{"rt":null,"stimulus":"<div style=\"font-size:60px;\">+</div>","key_press":null,"trial_type":"html-keyboard-response","trial_index":40,"time_elapsed":105531,"internal_node_id":"0.0-8.0-1.8","subject":"agyz2g35lxfkdee","sona":"7600"},{"trial_type":"turing-test","trial_index":41,"time_elapsed":112265,"internal_node_id":"0.0-8.0-2.8","subject":"agyz2g35lxfkdee","sona":"7600"},{"rt":530.354999999865,"stimulus":"<p>Welche Sequenz haben Sie als natürlicher empfunden?</p>","key_press":74,"test_part":"response","test_stimulus":{"position":1,"left":"bvh/vr_prediction_models/model(tmp)-dataset(pass-bottle)-numprim(7)-hold(0)/final-lines.txt","right":"bvh/pass-bottle-training0-lines.txt","att_check":false},"trial_type":"html-keyboard-response","trial_index":42,"time_elapsed":112801,"internal_node_id":"0.0-8.0-3.8","subject":"agyz2g35lxfkdee","sona":"7600"},{"rt":893.5849999997881,"stimulus":"<p>Bereit?</p>","key_press":32,"trial_type":"html-keyboard-response","trial_index":43,"time_elapsed":113698,"internal_node_id":"0.0-8.0-0.9","subject":"agyz2g35lxfkdee","sona":"7600"},{"rt":null,"stimulus":"<div style=\"font-size:60px;\">+</div>","key_press":null,"trial_type":"html-keyboard-response","trial_index":44,"time_elapsed":115701,"internal_node_id":"0.0-8.0-1.9","subject":"agyz2g35lxfkdee","sona":"7600"},{"trial_type":"turing-test","trial_index":45,"time_elapsed":119243,"internal_node_id":"0.0-8.0-2.9","subject":"agyz2g35lxfkdee","sona":"7600"},{"rt":534.9249999999302,"stimulus":"<p>Welche Sequenz haben Sie als natürlicher empfunden?</p>","key_press":70,"test_part":"response","test_stimulus":{"position":0,"left":"bvh/pass-bottle-hold-training3-lines.txt","right":"bvh/vr_prediction_models/model(tmp)-dataset(pass-bottle-hold)-numprim(10)-hold(3)/final-lines.txt","att_check":false},"trial_type":"html-keyboard-response","trial_index":46,"time_elapsed":119780,"internal_node_id":"0.0-8.0-3.9","subject":"agyz2g35lxfkdee","sona":"7600"},{"rt":371.55499999971653,"stimulus":"<p>Bereit?</p>","key_press":32,"trial_type":"html-keyboard-response","trial_index":47,"time_elapsed":120160,"internal_node_id":"0.0-8.0-0.10","subject":"agyz2g35lxfkdee","sona":"7600"},{"rt":null,"stimulus":"<div style=\"font-size:60px;\">+</div>","key_press":null,"trial_type":"html-keyboard-response","trial_index":48,"time_elapsed":122164,"internal_node_id":"0.0-8.0-1.10","subject":"agyz2g35lxfkdee","sona":"7600"},{"trial_type":"turing-test","trial_index":49,"time_elapsed":125336,"internal_node_id":"0.0-8.0-2.10","subject":"agyz2g35lxfkdee","sona":"7600"},{"rt":1460.7999999998428,"stimulus":"<p>Welche Sequenz haben Sie als natürlicher empfunden?</p>","key_press":74,"test_part":"response","test_stimulus":{"position":1,"left":"bvh/vr_prediction_models/model(tmp)-dataset(pass-bottle-hold)-numprim(11)-hold(1)/final-lines.txt","right":"bvh/pass-bottle-hold-training1-lines.txt","att_check":false},"trial_type":"html-keyboard-response","trial_index":50,"time_elapsed":126801,"internal_node_id":"0.0-8.0-3.10","subject":"agyz2g35lxfkdee","sona":"7600"},{"rt":599.8950000002806,"stimulus":"<p>Bereit?</p>","key_press":32,"trial_type":"html-keyboard-response","trial_index":51,"time_elapsed":127407,"internal_node_id":"0.0-8.0-0.11","subject":"agyz2g35lxfkdee","sona":"7600"},{"rt":null,"stimulus":"<div style=\"font-size:60px;\">+</div>","key_press":null,"trial_type":"html-keyboard-response","trial_index":52,"time_elapsed":129410,"internal_node_id":"0.0-8.0-1.11","subject":"agyz2g35lxfkdee","sona":"7600"},{"trial_type":"turing-test","trial_index":53,"time_elapsed":133140,"internal_node_id":"0.0-8.0-2.11","subject":"agyz2g35lxfkdee","sona":"7600"},{"rt":860.0799999994633,"stimulus":"<p>Welche Sequenz haben Sie als natürlicher empfunden?</p>","key_press":74,"test_part":"response","test_stimulus":{"position":1,"left":"bvh/vr_prediction_models/model(vcgpdm)-dataset(return-bottle-hold)-mode(ELBO)-parts(1)-dyn(25)-lvm(35)-hold(3)/final-lines.txt","right":"bvh/return-bottle-hold-training3-lines.txt","att_check":false},"trial_type":"html-keyboard-response","trial_index":54,"time_elapsed":134005,"internal_node_id":"0.0-8.0-3.11","subject":"agyz2g35lxfkdee","sona":"7600"},{"rt":385.29999999990105,"stimulus":"<p>Bereit?</p>","key_press":32,"trial_type":"html-keyboard-response","trial_index":55,"time_elapsed":134395,"internal_node_id":"0.0-8.0-0.12","subject":"agyz2g35lxfkdee","sona":"7600"},{"rt":null,"stimulus":"<div style=\"font-size:60px;\">+</div>","key_press":null,"trial_type":"html-keyboard-response","trial_index":56,"time_elapsed":136398,"internal_node_id":"0.0-8.0-1.12","subject":"agyz2g35lxfkdee","sona":"7600"},{"trial_type":"turing-test","trial_index":57,"time_elapsed":140066,"internal_node_id":"0.0-8.0-2.12","subject":"agyz2g35lxfkdee","sona":"7600"},{"rt":283.33000000022,"stimulus":"<p>Welche Sequenz haben Sie als natürlicher empfunden?</p>","key_press":70,"test_part":"response","test_stimulus":{"position":0,"left":"bvh/pass-bottle-hold-training3-lines.txt","right":"bvh/vr_prediction_models/model(tmp)-dataset(pass-bottle-hold)-numprim(6)-hold(3)/final-lines.txt","att_check":false},"trial_type":"html-keyboard-response","trial_index":58,"time_elapsed":140356,"internal_node_id":"0.0-8.0-3.12","subject":"agyz2g35lxfkdee","sona":"7600"},{"rt":559.9099999999453,"stimulus":"<p>Bereit?</p>","key_press":32,"trial_type":"html-keyboard-response","trial_index":59,"time_elapsed":140922,"internal_node_id":"0.0-8.0-0.13","subject":"agyz2g35lxfkdee","sona":"7600"},{"rt":null,"stimulus":"<div style=\"font-size:60px;\">+</div>","key_press":null,"trial_type":"html-keyboard-response","trial_index":60,"time_elapsed":142925,"internal_node_id":"0.0-8.0-1.13","subject":"agyz2g35lxfkdee","sona":"7600"},{"trial_type":"turing-test","trial_index":61,"time_elapsed":146657,"internal_node_id":"0.0-8.0-2.13","subject":"agyz2g35lxfkdee","sona":"7600"},{"rt":350.57499999945867,"stimulus":"<p>Welche Sequenz haben Sie als natürlicher empfunden?</p>","key_press":74,"test_part":"response","test_stimulus":{"position":1,"left":"bvh/vr_prediction_models/model(vcgpdm)-dataset(pass-bottle-hold)-mode(MAP)-parts(3)-hold(3)/final-lines.txt","right":"bvh/pass-bottle-hold-training3-lines.txt","att_check":false},"trial_type":"html-keyboard-response","trial_index":62,"time_elapsed":147013,"internal_node_id":"0.0-8.0-3.13","subject":"agyz2g35lxfkdee","sona":"7600"},{"rt":726.1699999998964,"stimulus":"<p>Bereit?</p>","key_press":32,"trial_type":"html-keyboard-response","trial_index":63,"time_elapsed":147744,"internal_node_id":"0.0-8.0-0.14","subject":"agyz2g35lxfkdee","sona":"7600"},{"rt":null,"stimulus":"<div style=\"font-size:60px;\">+</div>","key_press":null,"trial_type":"html-keyboard-response","trial_index":64,"time_elapsed":149747,"internal_node_id":"0.0-8.0-1.14","subject":"agyz2g35lxfkdee","sona":"7600"},{"trial_type":"turing-test","trial_index":65,"time_elapsed":155605,"internal_node_id":"0.0-8.0-2.14","subject":"agyz2g35lxfkdee","sona":"7600"},{"rt":411.0849999997299,"stimulus":"<p>Welche Sequenz haben Sie als natürlicher empfunden?</p>","key_press":70,"test_part":"response","test_stimulus":{"position":0,"left":"bvh/pass-bottle-training3-lines.txt","right":"bvh/vr_prediction_models/model(vcgpdm)-dataset(pass-bottle)-mode(ELBO)-parts(3)-dyn(10)-lvm(10)-hold(3)/final-lines.txt","att_check":false},"trial_type":"html-keyboard-response","trial_index":66,"time_elapsed":156023,"internal_node_id":"0.0-8.0-3.14","subject":"agyz2g35lxfkdee","sona":"7600"},{"rt":405.37500000029104,"stimulus":"<p>Bereit?</p>","key_press":32,"trial_type":"html-keyboard-response","trial_index":67,"time_elapsed":156433,"internal_node_id":"0.0-8.0-0.15","subject":"agyz2g35lxfkdee","sona":"7600"},{"rt":null,"stimulus":"<div style=\"font-size:60px;\">+</div>","key_press":null,"trial_type":"html-keyboard-response","trial_index":68,"time_elapsed":158436,"internal_node_id":"0.0-8.0-1.15","subject":"agyz2g35lxfkdee","sona":"7600"},{"trial_type":"turing-test","trial_index":69,"time_elapsed":162169,"internal_node_id":"0.0-8.0-2.15","subject":"agyz2g35lxfkdee","sona":"7600"},{"rt":416.1999999996624,"stimulus":"<p>Welche Sequenz haben Sie als natürlicher empfunden?</p>","key_press":74,"test_part":"response","test_stimulus":{"position":0,"left":"bvh/return-bottle-hold-training4-lines.txt","right":"bvh/vr_prediction_models/model(tmp)-dataset(return-bottle-hold)-numprim(15)-hold(4)/final-lines.txt","att_check":false},"trial_type":"html-keyboard-response","trial_index":70,"time_elapsed":162590,"internal_node_id":"0.0-8.0-3.15","subject":"agyz2g35lxfkdee","sona":"7600"},{"rt":552.3899999998393,"stimulus":"<p>Bereit?</p>","key_press":32,"trial_type":"html-keyboard-response","trial_index":71,"time_elapsed":163148,"internal_node_id":"0.0-8.0-0.16","subject":"agyz2g35lxfkdee","sona":"7600"},{"rt":null,"stimulus":"<div style=\"font-size:60px;\">+</div>","key_press":null,"trial_type":"html-keyboard-response","trial_index":72,"time_elapsed":165151,"internal_node_id":"0.0-8.0-1.16","subject":"agyz2g35lxfkdee","sona":"7600"},{"trial_type":"turing-test","trial_index":73,"time_elapsed":170934,"internal_node_id":"0.0-8.0-2.16","subject":"agyz2g35lxfkdee","sona":"7600"},{"rt":55.425000000483124,"stimulus":"<p>Welche Sequenz haben Sie als natürlicher empfunden?</p>","key_press":74,"test_part":"response","test_stimulus":{"position":0,"left":"bvh/pass-bottle-training3-lines.txt","right":"bvh/vr_prediction_models/model(tmp)-dataset(pass-bottle)-numprim(13)-hold(3)/final-lines.txt","att_check":false},"trial_type":"html-keyboard-response","trial_index":74,"time_elapsed":170995,"internal_node_id":"0.0-8.0-3.16","subject":"agyz2g35lxfkdee","sona":"7600"},{"rt":542.28500000044,"stimulus":"<p>Bereit?</p>","key_press":32,"trial_type":"html-keyboard-response","trial_index":75,"time_elapsed":171542,"internal_node_id":"0.0-8.0-0.17","subject":"agyz2g35lxfkdee","sona":"7600"},{"rt":null,"stimulus":"<div style=\"font-size:60px;\">+</div>","key_press":null,"trial_type":"html-keyboard-response","trial_index":76,"time_elapsed":173544,"internal_node_id":"0.0-8.0-1.17","subject":"agyz2g35lxfkdee","sona":"7600"},{"trial_type":"turing-test","trial_index":77,"time_elapsed":180128,"internal_node_id":"0.0-8.0-2.17","subject":"agyz2g35lxfkdee","sona":"7600"},{"rt":406.97999999974854,"stimulus":"<p>Welche Sequenz haben Sie als natürlicher empfunden?</p>","key_press":74,"test_part":"response","test_stimulus":{"position":0,"left":"bvh/pass-bottle-training0-lines.txt","right":"bvh/vr_prediction_models/model(tmp)-dataset(pass-bottle)-numprim(7)-hold(0)/final-lines.txt","att_check":false},"trial_type":"html-keyboard-response","trial_index":78,"time_elapsed":180541,"internal_node_id":"0.0-8.0-3.17","subject":"agyz2g35lxfkdee","sona":"7600"},{"rt":509.2599999998056,"stimulus":"<p>Bereit?</p>","key_press":32,"trial_type":"html-keyboard-response","trial_index":79,"time_elapsed":181057,"internal_node_id":"0.0-8.0-0.18","subject":"agyz2g35lxfkdee","sona":"7600"},{"rt":null,"stimulus":"<div style=\"font-size:60px;\">+</div>","key_press":null,"trial_type":"html-keyboard-response","trial_index":80,"time_elapsed":183059,"internal_node_id":"0.0-8.0-1.18","subject":"agyz2g35lxfkdee","sona":"7600"},{"trial_type":"turing-test","trial_index":81,"time_elapsed":189126,"internal_node_id":"0.0-8.0-2.18","subject":"agyz2g35lxfkdee","sona":"7600"},{"rt":728.8850000004459,"stimulus":"<p>Welche Sequenz haben Sie als natürlicher empfunden?</p>","key_press":74,"test_part":"response","test_stimulus":{"position":0,"left":"bvh/pass-bottle-training2-lines.txt","right":"bvh/vr_prediction_models/model(dmp)-dataset(pass-bottle)-npsi(20)-hold(2)/final-lines.txt","att_check":true},"trial_type":"html-keyboard-response","trial_index":82,"time_elapsed":189861,"internal_node_id":"0.0-8.0-3.18","subject":"agyz2g35lxfkdee","sona":"7600"},{"rt":369.7500000007567,"stimulus":"<p>Bereit?</p>","key_press":32,"trial_type":"html-keyboard-response","trial_index":83,"time_elapsed":190236,"internal_node_id":"0.0-8.0-0.19","subject":"agyz2g35lxfkdee","sona":"7600"},{"rt":null,"stimulus":"<div style=\"font-size:60px;\">+</div>","key_press":null,"trial_type":"html-keyboard-response","trial_index":84,"time_elapsed":192239,"internal_node_id":"0.0-8.0-1.19","subject":"agyz2g35lxfkdee","sona":"7600"},{"trial_type":"turing-test","trial_index":85,"time_elapsed":197936,"internal_node_id":"0.0-8.0-2.19","subject":"agyz2g35lxfkdee","sona":"7600"},{"rt":1033.3200000004726,"stimulus":"<p>Welche Sequenz haben Sie als natürlicher empfunden?</p>","key_press":70,"test_part":"response","test_stimulus":{"position":0,"left":"bvh/return-bottle-training3-lines.txt","right":"bvh/vr_prediction_models/model(tmp)-dataset(return-bottle)-numprim(14)-hold(3)/final-lines.txt","att_check":false},"trial_type":"html-keyboard-response","trial_index":86,"time_elapsed":198976,"internal_node_id":"0.0-8.0-3.19","subject":"agyz2g35lxfkdee","sona":"7600"},{"rt":383.09499999924446,"stimulus":"<p>Bereit?</p>","key_press":32,"trial_type":"html-keyboard-response","trial_index":87,"time_elapsed":199364,"internal_node_id":"0.0-8.0-0.20","subject":"agyz2g35lxfkdee","sona":"7600"},{"rt":null,"stimulus":"<div style=\"font-size:60px;\">+</div>","key_press":null,"trial_type":"html-keyboard-response","trial_index":88,"time_elapsed":201367,"internal_node_id":"0.0-8.0-1.20","subject":"agyz2g35lxfkdee","sona":"7600"},{"trial_type":"turing-test","trial_index":89,"time_elapsed":208052,"internal_node_id":"0.0-8.0-2.20","subject":"agyz2g35lxfkdee","sona":"7600"},{"rt":679.7900000001537,"stimulus":"<p>Welche Sequenz haben Sie als natürlicher empfunden?</p>","key_press":70,"test_part":"response","test_stimulus":{"position":0,"left":"bvh/return-bottle-training2-lines.txt","right":"bvh/vr_prediction_models/model(dmp)-dataset(return-bottle)-npsi(40)-hold(2)/final-lines.txt","att_check":false},"trial_type":"html-keyboard-response","trial_index":90,"time_elapsed":208738,"internal_node_id":"0.0-8.0-3.20","subject":"agyz2g35lxfkdee","sona":"7600"},{"rt":313.3349999998172,"stimulus":"<p>Bereit?</p>","key_press":32,"trial_type":"html-keyboard-response","trial_index":91,"time_elapsed":209057,"internal_node_id":"0.0-8.0-0.21","subject":"agyz2g35lxfkdee","sona":"7600"},{"rt":null,"stimulus":"<div style=\"font-size:60px;\">+</div>","key_press":null,"trial_type":"html-keyboard-response","trial_index":92,"time_elapsed":211061,"internal_node_id":"0.0-8.0-1.21","subject":"agyz2g35lxfkdee","sona":"7600"},{"trial_type":"turing-test","trial_index":93,"time_elapsed":214531,"internal_node_id":"0.0-8.0-2.21","subject":"agyz2g35lxfkdee","sona":"7600"},{"rt":361.9749999998021,"stimulus":"<p>Welche Sequenz haben Sie als natürlicher empfunden?</p>","key_press":74,"test_part":"response","test_stimulus":{"position":1,"left":"bvh/vr_prediction_models/model(vcgpdm)-dataset(pass-bottle-hold)-mode(ELBO)-parts(1)-dyn(30)-lvm(35)-hold(2)/final-lines.txt","right":"bvh/pass-bottle-hold-training2-lines.txt","att_check":false},"trial_type":"html-keyboard-response","trial_index":94,"time_elapsed":214899,"internal_node_id":"0.0-8.0-3.21","subject":"agyz2g35lxfkdee","sona":"7600"},{"rt":285.2499999999127,"stimulus":"<p>Bereit?</p>","key_press":32,"trial_type":"html-keyboard-response","trial_index":95,"time_elapsed":215189,"internal_node_id":"0.0-8.0-0.22","subject":"agyz2g35lxfkdee","sona":"7600"},{"rt":null,"stimulus":"<div style=\"font-size:60px;\">+</div>","key_press":null,"trial_type":"html-keyboard-response","trial_index":96,"time_elapsed":217193,"internal_node_id":"0.0-8.0-1.22","subject":"agyz2g35lxfkdee","sona":"7600"},{"trial_type":"turing-test","trial_index":97,"time_elapsed":220520,"internal_node_id":"0.0-8.0-2.22","subject":"agyz2g35lxfkdee","sona":"7600"},{"rt":5622.150000000169,"stimulus":"<p>Welche Sequenz haben Sie als natürlicher empfunden?</p>","key_press":70,"test_part":"response","test_stimulus":{"position":0,"left":"bvh/pass-bottle-hold-training0-lines.txt","right":"bvh/vr_prediction_models/model(dmp)-dataset(pass-bottle-hold)-npsi(10)-hold(0)/final-lines.txt","att_check":false},"trial_type":"html-keyboard-response","trial_index":98,"time_elapsed":226146,"internal_node_id":"0.0-8.0-3.22","subject":"agyz2g35lxfkdee","sona":"7600"},{"rt":264.1250000006112,"stimulus":"<p>Bereit?</p>","key_press":32,"trial_type":"html-keyboard-response","trial_index":99,"time_elapsed":226416,"internal_node_id":"0.0-8.0-0.23","subject":"agyz2g35lxfkdee","sona":"7600"},{"rt":null,"stimulus":"<div style=\"font-size:60px;\">+</div>","key_press":null,"trial_type":"html-keyboard-response","trial_index":100,"time_elapsed":228419,"internal_node_id":"0.0-8.0-1.23","subject":"agyz2g35lxfkdee","sona":"7600"},{"trial_type":"turing-test","trial_index":101,"time_elapsed":231614,"internal_node_id":"0.0-8.0-2.23","subject":"agyz2g35lxfkdee","sona":"7600"},{"rt":273.104999999312,"stimulus":"<p>Welche Sequenz haben Sie als natürlicher empfunden?</p>","key_press":70,"test_part":"response","test_stimulus":{"position":1,"left":"bvh/vr_prediction_models/model(dmp)-dataset(pass-bottle-hold)-npsi(90)-hold(1)/final-lines.txt","right":"bvh/pass-bottle-hold-training1-lines.txt","att_check":false},"trial_type":"html-keyboard-response","trial_index":102,"time_elapsed":231893,"internal_node_id":"0.0-8.0-3.23","subject":"agyz2g35lxfkdee","sona":"7600"},{"rt":296.1700000005367,"stimulus":"<p>Bereit?</p>","key_press":32,"trial_type":"html-keyboard-response","trial_index":103,"time_elapsed":232195,"internal_node_id":"0.0-8.0-0.24","subject":"agyz2g35lxfkdee","sona":"7600"},{"rt":null,"stimulus":"<div style=\"font-size:60px;\">+</div>","key_press":null,"trial_type":"html-keyboard-response","trial_index":104,"time_elapsed":234198,"internal_node_id":"0.0-8.0-1.24","subject":"agyz2g35lxfkdee","sona":"7600"},{"trial_type":"turing-test","trial_index":105,"time_elapsed":237362,"internal_node_id":"0.0-8.0-2.24","subject":"agyz2g35lxfkdee","sona":"7600"},{"rt":331.11000000007334,"stimulus":"<p>Welche Sequenz haben Sie als natürlicher empfunden?</p>","key_press":74,"test_part":"response","test_stimulus":{"position":1,"left":"bvh/vr_prediction_models/model(tmp)-dataset(pass-bottle-hold)-numprim(8)-hold(1)/final-lines.txt","right":"bvh/pass-bottle-hold-training1-lines.txt","att_check":false},"trial_type":"html-keyboard-response","trial_index":106,"time_elapsed":237697,"internal_node_id":"0.0-8.0-3.24","subject":"agyz2g35lxfkdee","sona":"7600"},{"rt":257.5999999999185,"stimulus":"<p>Bereit?</p>","key_press":32,"trial_type":"html-keyboard-response","trial_index":107,"time_elapsed":237960,"internal_node_id":"0.0-8.0-0.25","subject":"agyz2g35lxfkdee","sona":"7600"},{"rt":null,"stimulus":"<div style=\"font-size:60px;\">+</div>","key_press":null,"trial_type":"html-keyboard-response","trial_index":108,"time_elapsed":239963,"internal_node_id":"0.0-8.0-1.25","subject":"agyz2g35lxfkdee","sona":"7600"},{"trial_type":"turing-test","trial_index":109,"time_elapsed":246102,"internal_node_id":"0.0-8.0-2.25","subject":"agyz2g35lxfkdee","sona":"7600"},{"rt":246.68000000019674,"stimulus":"<p>Welche Sequenz haben Sie als natürlicher empfunden?</p>","key_press":74,"test_part":"response","test_stimulus":{"position":1,"left":"bvh/vr_prediction_models/model(tmp)-dataset(pass-bottle)-numprim(9)-hold(2)/final-lines.txt","right":"bvh/pass-bottle-training2-lines.txt","att_check":false},"trial_type":"html-keyboard-response","trial_index":110,"time_elapsed":246355,"internal_node_id":"0.0-8.0-3.25","subject":"agyz2g35lxfkdee","sona":"7600"},{"rt":248.46499999967637,"stimulus":"<p>Bereit?</p>","key_press":32,"trial_type":"html-keyboard-response","trial_index":111,"time_elapsed":246610,"internal_node_id":"0.0-8.0-0.26","subject":"agyz2g35lxfkdee","sona":"7600"},{"rt":null,"stimulus":"<div style=\"font-size:60px;\">+</div>","key_press":null,"trial_type":"html-keyboard-response","trial_index":112,"time_elapsed":248613,"internal_node_id":"0.0-8.0-1.26","subject":"agyz2g35lxfkdee","sona":"7600"},{"trial_type":"turing-test","trial_index":113,"time_elapsed":252141,"internal_node_id":"0.0-8.0-2.26","subject":"agyz2g35lxfkdee","sona":"7600"},{"rt":326.50500000000466,"stimulus":"<p>Welche Sequenz haben Sie als natürlicher empfunden?</p>","key_press":70,"test_part":"response","test_stimulus":{"position":0,"left":"bvh/pass-bottle-hold-training0-lines.txt","right":"bvh/vr_prediction_models/model(vcgpdm)-dataset(pass-bottle-hold)-mode(MAP)-parts(1)-hold(0)/final-lines.txt","att_check":false},"trial_type":"html-keyboard-response","trial_index":114,"time_elapsed":252473,"internal_node_id":"0.0-8.0-3.26","subject":"agyz2g35lxfkdee","sona":"7600"},{"rt":325.52000000030966,"stimulus":"<p>Bereit?</p>","key_press":32,"trial_type":"html-keyboard-response","trial_index":115,"time_elapsed":252802,"internal_node_id":"0.0-8.0-0.27","subject":"agyz2g35lxfkdee","sona":"7600"},{"rt":null,"stimulus":"<div style=\"font-size:60px;\">+</div>","key_press":null,"trial_type":"html-keyboard-response","trial_index":116,"time_elapsed":254805,"internal_node_id":"0.0-8.0-1.27","subject":"agyz2g35lxfkdee","sona":"7600"},{"trial_type":"turing-test","trial_index":117,"time_elapsed":260555,"internal_node_id":"0.0-8.0-2.27","subject":"agyz2g35lxfkdee","sona":"7600"},{"rt":685.1800000004005,"stimulus":"<p>Welche Sequenz haben Sie als natürlicher empfunden?</p>","key_press":70,"test_part":"response","test_stimulus":{"position":1,"left":"bvh/vr_prediction_models/model(tmp)-dataset(pass-bottle)-numprim(3)-hold(4)/final-lines.txt","right":"bvh/pass-bottle-training4-lines.txt","att_check":false},"trial_type":"html-keyboard-response","trial_index":118,"time_elapsed":261247,"internal_node_id":"0.0-8.0-3.27","subject":"agyz2g35lxfkdee","sona":"7600"},{"rt":255.1799999991781,"stimulus":"<p>Bereit?</p>","key_press":32,"trial_type":"html-keyboard-response","trial_index":119,"time_elapsed":261507,"internal_node_id":"0.0-8.0-0.28","subject":"agyz2g35lxfkdee","sona":"7600"},{"rt":null,"stimulus":"<div style=\"font-size:60px;\">+</div>","key_press":null,"trial_type":"html-keyboard-response","trial_index":120,"time_elapsed":263512,"internal_node_id":"0.0-8.0-1.28","subject":"agyz2g35lxfkdee","sona":"7600"},{"trial_type":"turing-test","trial_index":121,"time_elapsed":266946,"internal_node_id":"0.0-8.0-2.28","subject":"agyz2g35lxfkdee","sona":"7600"},{"rt":323.269999999844,"stimulus":"<p>Welche Sequenz haben Sie als natürlicher empfunden?</p>","key_press":70,"test_part":"response","test_stimulus":{"position":0,"left":"bvh/pass-bottle-hold-training0-lines.txt","right":"bvh/vr_prediction_models/model(dmp)-dataset(pass-bottle-hold)-npsi(100)-hold(0)/final-lines.txt","att_check":false},"trial_type":"html-keyboard-response","trial_index":122,"time_elapsed":267274,"internal_node_id":"0.0-8.0-3.28","subject":"agyz2g35lxfkdee","sona":"7600"},{"rt":405.7849999999162,"stimulus":"<p>Bereit?</p>","key_press":32,"trial_type":"html-keyboard-response","trial_index":123,"time_elapsed":267686,"internal_node_id":"0.0-8.0-0.29","subject":"agyz2g35lxfkdee","sona":"7600"},{"rt":null,"stimulus":"<div style=\"font-size:60px;\">+</div>","key_press":null,"trial_type":"html-keyboard-response","trial_index":124,"time_elapsed":269689,"internal_node_id":"0.0-8.0-1.29","subject":"agyz2g35lxfkdee","sona":"7600"},{"trial_type":"turing-test","trial_index":125,"time_elapsed":272988,"internal_node_id":"0.0-8.0-2.29","subject":"agyz2g35lxfkdee","sona":"7600"},{"rt":347.98499999946216,"stimulus":"<p>Welche Sequenz haben Sie als natürlicher empfunden?</p>","key_press":70,"test_part":"response","test_stimulus":{"position":1,"left":"bvh/vr_prediction_models/model(dmp)-dataset(pass-bottle-hold)-npsi(60)-hold(2)/final-lines.txt","right":"bvh/pass-bottle-hold-training2-lines.txt","att_check":false},"trial_type":"html-keyboard-response","trial_index":126,"time_elapsed":273341,"internal_node_id":"0.0-8.0-3.29","subject":"agyz2g35lxfkdee","sona":"7600"},{"rt":340.39500000019325,"stimulus":"<p>Bereit?</p>","key_press":32,"trial_type":"html-keyboard-response","trial_index":127,"time_elapsed":273686,"internal_node_id":"0.0-8.0-0.30","subject":"agyz2g35lxfkdee","sona":"7600"},{"rt":null,"stimulus":"<div style=\"font-size:60px;\">+</div>","key_press":null,"trial_type":"html-keyboard-response","trial_index":128,"time_elapsed":275689,"internal_node_id":"0.0-8.0-1.30","subject":"agyz2g35lxfkdee","sona":"7600"},{"trial_type":"turing-test","trial_index":129,"time_elapsed":281330,"internal_node_id":"0.0-8.0-2.30","subject":"agyz2g35lxfkdee","sona":"7600"},{"rt":283.32000000047265,"stimulus":"<p>Welche Sequenz haben Sie als natürlicher empfunden?</p>","key_press":70,"test_part":"response","test_stimulus":{"position":0,"left":"bvh/return-bottle-training0-lines.txt","right":"bvh/vr_prediction_models/model(vcgpdm)-dataset(return-bottle)-mode(ELBO)-parts(3)-dyn(20)-lvm(35)-hold(0)/final-lines.txt","att_check":false},"trial_type":"html-keyboard-response","trial_index":130,"time_elapsed":281620,"internal_node_id":"0.0-8.0-3.30","subject":"agyz2g35lxfkdee","sona":"7600"},{"rt":330.3949999999604,"stimulus":"<p>Bereit?</p>","key_press":32,"trial_type":"html-keyboard-response","trial_index":131,"time_elapsed":281956,"internal_node_id":"0.0-8.0-0.31","subject":"agyz2g35lxfkdee","sona":"7600"},{"rt":null,"stimulus":"<div style=\"font-size:60px;\">+</div>","key_press":null,"trial_type":"html-keyboard-response","trial_index":132,"time_elapsed":283960,"internal_node_id":"0.0-8.0-1.31","subject":"agyz2g35lxfkdee","sona":"7600"},{"trial_type":"turing-test","trial_index":133,"time_elapsed":287593,"internal_node_id":"0.0-8.0-2.31","subject":"agyz2g35lxfkdee","sona":"7600"},{"rt":373.6499999995576,"stimulus":"<p>Welche Sequenz haben Sie als natürlicher empfunden?</p>","key_press":74,"test_part":"response","test_stimulus":{"position":0,"left":"bvh/return-bottle-hold-training2-lines.txt","right":"bvh/vr_prediction_models/model(vcgpdm)-dataset(return-bottle-hold)-mode(ELBO)-parts(3)-dyn(15)-lvm(30)-hold(2)/final-lines.txt","att_check":false},"trial_type":"html-keyboard-response","trial_index":134,"time_elapsed":287973,"internal_node_id":"0.0-8.0-3.31","subject":"agyz2g35lxfkdee","sona":"7600"},{"rt":309.2600000000093,"stimulus":"<p>Bereit?</p>","key_press":32,"trial_type":"html-keyboard-response","trial_index":135,"time_elapsed":288288,"internal_node_id":"0.0-8.0-0.32","subject":"agyz2g35lxfkdee","sona":"7600"},{"rt":null,"stimulus":"<div style=\"font-size:60px;\">+</div>","key_press":null,"trial_type":"html-keyboard-response","trial_index":136,"time_elapsed":290291,"internal_node_id":"0.0-8.0-1.32","subject":"agyz2g35lxfkdee","sona":"7600"},{"trial_type":"turing-test","trial_index":137,"time_elapsed":293555,"internal_node_id":"0.0-8.0-2.32","subject":"agyz2g35lxfkdee","sona":"7600"},{"rt":318.9449999999488,"stimulus":"<p>Welche Sequenz haben Sie als natürlicher empfunden?</p>","key_press":70,"test_part":"response","test_stimulus":{"position":0,"left":"bvh/pass-bottle-hold-training1-lines.txt","right":"bvh/vr_prediction_models/model(tmp)-dataset(pass-bottle-hold)-numprim(4)-hold(1)/final-lines.txt","att_check":false},"trial_type":"html-keyboard-response","trial_index":138,"time_elapsed":293881,"internal_node_id":"0.0-8.0-3.32","subject":"agyz2g35lxfkdee","sona":"7600"},{"rt":320.23500000016065,"stimulus":"<p>Bereit?</p>","key_press":32,"trial_type":"html-keyboard-response","trial_index":139,"time_elapsed":294206,"internal_node_id":"0.0-8.0-0.33","subject":"agyz2g35lxfkdee","sona":"7600"},{"rt":null,"stimulus":"<div style=\"font-size:60px;\">+</div>","key_press":null,"trial_type":"html-keyboard-response","trial_index":140,"time_elapsed":296209,"internal_node_id":"0.0-8.0-1.33","subject":"agyz2g35lxfkdee","sona":"7600"},{"trial_type":"turing-test","trial_index":141,"time_elapsed":302453,"internal_node_id":"0.0-8.0-2.33","subject":"agyz2g35lxfkdee","sona":"7600"},{"rt":333.1099999995786,"stimulus":"<p>Welche Sequenz haben Sie als natürlicher empfunden?</p>","key_press":70,"test_part":"response","test_stimulus":{"position":0,"left":"bvh/pass-bottle-training2-lines.txt","right":"bvh/vr_prediction_models/model(vcgpdm)-dataset(pass-bottle)-mode(ELBO)-parts(1)-dyn(30)-lvm(20)-hold(2)/final-lines.txt","att_check":false},"trial_type":"html-keyboard-response","trial_index":142,"time_elapsed":302795,"internal_node_id":"0.0-8.0-3.33","subject":"agyz2g35lxfkdee","sona":"7600"},{"rt":333.7199999996228,"stimulus":"<p>Bereit?</p>","key_press":32,"trial_type":"html-keyboard-response","trial_index":143,"time_elapsed":303134,"internal_node_id":"0.0-8.0-0.34","subject":"agyz2g35lxfkdee","sona":"7600"},{"rt":null,"stimulus":"<div style=\"font-size:60px;\">+</div>","key_press":null,"trial_type":"html-keyboard-response","trial_index":144,"time_elapsed":305138,"internal_node_id":"0.0-8.0-1.34","subject":"agyz2g35lxfkdee","sona":"7600"},{"trial_type":"turing-test","trial_index":145,"time_elapsed":311026,"internal_node_id":"0.0-8.0-2.34","subject":"agyz2g35lxfkdee","sona":"7600"},{"rt":292.5050000003539,"stimulus":"<p>Welche Sequenz haben Sie als natürlicher empfunden?</p>","key_press":70,"test_part":"response","test_stimulus":{"position":1,"left":"bvh/vr_prediction_models/model(vcgpdm)-dataset(pass-bottle)-mode(ELBO)-parts(3)-dyn(25)-lvm(30)-hold(4)/final-lines.txt","right":"bvh/pass-bottle-training4-lines.txt","att_check":false},"trial_type":"html-keyboard-response","trial_index":146,"time_elapsed":311325,"internal_node_id":"0.0-8.0-3.34","subject":"agyz2g35lxfkdee","sona":"7600"},{"rt":302.0749999996042,"stimulus":"<p>Bereit?</p>","key_press":32,"trial_type":"html-keyboard-response","trial_index":147,"time_elapsed":311629,"internal_node_id":"0.0-8.0-0.35","subject":"agyz2g35lxfkdee","sona":"7600"},{"rt":null,"stimulus":"<div style=\"font-size:60px;\">+</div>","key_press":null,"trial_type":"html-keyboard-response","trial_index":148,"time_elapsed":313633,"internal_node_id":"0.0-8.0-1.35","subject":"agyz2g35lxfkdee","sona":"7600"},{"trial_type":"turing-test","trial_index":149,"time_elapsed":319331,"internal_node_id":"0.0-8.0-2.35","subject":"agyz2g35lxfkdee","sona":"7600"},{"rt":351.31999999977415,"stimulus":"<p>Welche Sequenz haben Sie als natürlicher empfunden?</p>","key_press":70,"test_part":"response","test_stimulus":{"position":0,"left":"bvh/return-bottle-training3-lines.txt","right":"bvh/vr_prediction_models/model(tmp)-dataset(return-bottle)-numprim(13)-hold(3)/final-lines.txt","att_check":false},"trial_type":"html-keyboard-response","trial_index":150,"time_elapsed":319689,"internal_node_id":"0.0-8.0-3.35","subject":"agyz2g35lxfkdee","sona":"7600"},{"rt":264.57500000012806,"stimulus":"<p>Bereit?</p>","key_press":32,"trial_type":"html-keyboard-response","trial_index":151,"time_elapsed":319964,"internal_node_id":"0.0-8.0-0.36","subject":"agyz2g35lxfkdee","sona":"7600"},{"rt":null,"stimulus":"<div style=\"font-size:60px;\">+</div>","key_press":null,"trial_type":"html-keyboard-response","trial_index":152,"time_elapsed":321967,"internal_node_id":"0.0-8.0-1.36","subject":"agyz2g35lxfkdee","sona":"7600"},{"trial_type":"turing-test","trial_index":153,"time_elapsed":327508,"internal_node_id":"0.0-8.0-2.36","subject":"agyz2g35lxfkdee","sona":"7600"},{"rt":335.38499999942724,"stimulus":"<p>Welche Sequenz haben Sie als natürlicher empfunden?</p>","key_press":74,"test_part":"response","test_stimulus":{"position":1,"left":"bvh/vr_prediction_models/model(vcgpdm)-dataset(pass-bottle)-mode(ELBO)-parts(3)-dyn(25)-lvm(30)-hold(1)/final-lines.txt","right":"bvh/pass-bottle-training1-lines.txt","att_check":false},"trial_type":"html-keyboard-response","trial_index":154,"time_elapsed":327850,"internal_node_id":"0.0-8.0-3.36","subject":"agyz2g35lxfkdee","sona":"7600"},{"rt":341.6950000000652,"stimulus":"<p>Bereit?</p>","key_press":32,"trial_type":"html-keyboard-response","trial_index":155,"time_elapsed":328199,"internal_node_id":"0.0-8.0-0.37","subject":"agyz2g35lxfkdee","sona":"7600"},{"rt":null,"stimulus":"<div style=\"font-size:60px;\">+</div>","key_press":null,"trial_type":"html-keyboard-response","trial_index":156,"time_elapsed":330202,"internal_node_id":"0.0-8.0-1.37","subject":"agyz2g35lxfkdee","sona":"7600"},{"trial_type":"turing-test","trial_index":157,"time_elapsed":333549,"internal_node_id":"0.0-8.0-2.37","subject":"agyz2g35lxfkdee","sona":"7600"},{"rt":407.77499999967404,"stimulus":"<p>Welche Sequenz haben Sie als natürlicher empfunden?</p>","key_press":70,"test_part":"response","test_stimulus":{"position":1,"left":"bvh/vr_prediction_models/model(tmp)-dataset(pass-bottle-hold)-numprim(11)-hold(0)/final-lines.txt","right":"bvh/pass-bottle-hold-training0-lines.txt","att_check":false},"trial_type":"html-keyboard-response","trial_index":158,"time_elapsed":333963,"internal_node_id":"0.0-8.0-3.37","subject":"agyz2g35lxfkdee","sona":"7600"},{"rt":213.3949999997276,"stimulus":"<p>Bereit?</p>","key_press":32,"trial_type":"html-keyboard-response","trial_index":159,"time_elapsed":334179,"internal_node_id":"0.0-8.0-0.38","subject":"agyz2g35lxfkdee","sona":"7600"},{"rt":null,"stimulus":"<div style=\"font-size:60px;\">+</div>","key_press":null,"trial_type":"html-keyboard-response","trial_index":160,"time_elapsed":336183,"internal_node_id":"0.0-8.0-1.38","subject":"agyz2g35lxfkdee","sona":"7600"},{"trial_type":"turing-test","trial_index":161,"time_elapsed":341429,"internal_node_id":"0.0-8.0-2.38","subject":"agyz2g35lxfkdee","sona":"7600"},{"rt":268.60000000032596,"stimulus":"<p>Welche Sequenz haben Sie als natürlicher empfunden?</p>","key_press":74,"test_part":"response","test_stimulus":{"position":1,"left":"bvh/vr_prediction_models/model(vcgpdm)-dataset(return-bottle-hold)-mode(ELBO)-parts(1)-dyn(15)-lvm(35)-hold(0)/final-lines.txt","right":"bvh/return-bottle-hold-training0-lines.txt","att_check":false},"trial_type":"html-keyboard-response","trial_index":162,"time_elapsed":341703,"internal_node_id":"0.0-8.0-3.38","subject":"agyz2g35lxfkdee","sona":"7600"},{"rt":362.8400000006659,"stimulus":"<p>Bereit?</p>","key_press":32,"trial_type":"html-keyboard-response","trial_index":163,"time_elapsed":342070,"internal_node_id":"0.0-8.0-0.39","subject":"agyz2g35lxfkdee","sona":"7600"},{"rt":null,"stimulus":"<div style=\"font-size:60px;\">+</div>","key_press":null,"trial_type":"html-keyboard-response","trial_index":164,"time_elapsed":344073,"internal_node_id":"0.0-8.0-1.39","subject":"agyz2g35lxfkdee","sona":"7600"},{"trial_type":"turing-test","trial_index":165,"time_elapsed":348644,"internal_node_id":"0.0-8.0-2.39","subject":"agyz2g35lxfkdee","sona":"7600"},{"rt":381.23500000074273,"stimulus":"<p>Welche Sequenz haben Sie als natürlicher empfunden?</p>","key_press":70,"test_part":"response","test_stimulus":{"position":1,"left":"bvh/vr_prediction_models/model(vcgpdm)-dataset(return-bottle-hold)-mode(ELBO)-parts(3)-dyn(25)-lvm(15)-hold(3)/final-lines.txt","right":"bvh/return-bottle-hold-training3-lines.txt","att_check":false},"trial_type":"html-keyboard-response","trial_index":166,"time_elapsed":349032,"internal_node_id":"0.0-8.0-3.39","subject":"agyz2g35lxfkdee","sona":"7600"},{"rt":219.01500000053784,"stimulus":"<p>Bereit?</p>","key_press":32,"trial_type":"html-keyboard-response","trial_index":167,"time_elapsed":349257,"internal_node_id":"0.0-8.0-0.40","subject":"agyz2g35lxfkdee","sona":"7600"},{"rt":null,"stimulus":"<div style=\"font-size:60px;\">+</div>","key_press":null,"trial_type":"html-keyboard-response","trial_index":168,"time_elapsed":351259,"internal_node_id":"0.0-8.0-1.40","subject":"agyz2g35lxfkdee","sona":"7600"},{"trial_type":"turing-test","trial_index":169,"time_elapsed":354860,"internal_node_id":"0.0-8.0-2.40","subject":"agyz2g35lxfkdee","sona":"7600"},{"rt":319.4549999998417,"stimulus":"<p>Welche Sequenz haben Sie als natürlicher empfunden?</p>","key_press":70,"test_part":"response","test_stimulus":{"position":0,"left":"bvh/return-bottle-hold-training3-lines.txt","right":"bvh/vr_prediction_models/model(dmp)-dataset(return-bottle-hold)-npsi(70)-hold(3)/final-lines.txt","att_check":false},"trial_type":"html-keyboard-response","trial_index":170,"time_elapsed":355186,"internal_node_id":"0.0-8.0-3.40","subject":"agyz2g35lxfkdee","sona":"7600"},{"rt":357.18499999982305,"stimulus":"<p>Bereit?</p>","key_press":32,"trial_type":"html-keyboard-response","trial_index":171,"time_elapsed":355549,"internal_node_id":"0.0-8.0-0.41","subject":"agyz2g35lxfkdee","sona":"7600"},{"rt":null,"stimulus":"<div style=\"font-size:60px;\">+</div>","key_press":null,"trial_type":"html-keyboard-response","trial_index":172,"time_elapsed":357552,"internal_node_id":"0.0-8.0-1.41","subject":"agyz2g35lxfkdee","sona":"7600"},{"trial_type":"turing-test","trial_index":173,"time_elapsed":360997,"internal_node_id":"0.0-8.0-2.41","subject":"agyz2g35lxfkdee","sona":"7600"},{"rt":907.0650000003516,"stimulus":"<p>Welche Sequenz haben Sie als natürlicher empfunden?</p>","key_press":70,"test_part":"response","test_stimulus":{"position":0,"left":"bvh/pass-bottle-hold-training0-lines.txt","right":"bvh/vr_prediction_models/model(vcgpdm)-dataset(pass-bottle-hold)-mode(ELBO)-parts(3)-dyn(20)-lvm(20)-hold(0)/final-lines.txt","att_check":false},"trial_type":"html-keyboard-response","trial_index":174,"time_elapsed":361910,"internal_node_id":"0.0-8.0-3.41","subject":"agyz2g35lxfkdee","sona":"7600"},{"rt":338.3249999996624,"stimulus":"<p>Bereit?</p>","key_press":32,"trial_type":"html-keyboard-response","trial_index":175,"time_elapsed":362251,"internal_node_id":"0.0-8.0-0.42","subject":"agyz2g35lxfkdee","sona":"7600"},{"rt":null,"stimulus":"<div style=\"font-size:60px;\">+</div>","key_press":null,"trial_type":"html-keyboard-response","trial_index":176,"time_elapsed":364254,"internal_node_id":"0.0-8.0-1.42","subject":"agyz2g35lxfkdee","sona":"7600"},{"trial_type":"turing-test","trial_index":177,"time_elapsed":367734,"internal_node_id":"0.0-8.0-2.42","subject":"agyz2g35lxfkdee","sona":"7600"},{"rt":448.4099999999162,"stimulus":"<p>Welche Sequenz haben Sie als natürlicher empfunden?</p>","key_press":74,"test_part":"response","test_stimulus":{"position":0,"left":"bvh/pass-bottle-hold-training0-lines.txt","right":"bvh/vr_prediction_models/model(vcgpdm)-dataset(pass-bottle-hold)-mode(ELBO)-parts(1)-dyn(30)-lvm(35)-hold(0)/final-lines.txt","att_check":false},"trial_type":"html-keyboard-response","trial_index":178,"time_elapsed":368189,"internal_node_id":"0.0-8.0-3.42","subject":"agyz2g35lxfkdee","sona":"7600"},{"rt":328.6100000005099,"stimulus":"<p>Bereit?</p>","key_press":32,"trial_type":"html-keyboard-response","trial_index":179,"time_elapsed":368524,"internal_node_id":"0.0-8.0-0.43","subject":"agyz2g35lxfkdee","sona":"7600"},{"rt":null,"stimulus":"<div style=\"font-size:60px;\">+</div>","key_press":null,"trial_type":"html-keyboard-response","trial_index":180,"time_elapsed":370527,"internal_node_id":"0.0-8.0-1.43","subject":"agyz2g35lxfkdee","sona":"7600"},{"trial_type":"turing-test","trial_index":181,"time_elapsed":374168,"internal_node_id":"0.0-8.0-2.43","subject":"agyz2g35lxfkdee","sona":"7600"},{"rt":866.874999999709,"stimulus":"<p>Welche Sequenz haben Sie als natürlicher empfunden?</p>","key_press":70,"test_part":"response","test_stimulus":{"position":1,"left":"bvh/vr_prediction_models/model(vcgpdm)-dataset(pass-bottle-hold)-mode(ELBO)-parts(1)-dyn(20)-lvm(5)-hold(0)/final-lines.txt","right":"bvh/pass-bottle-hold-training0-lines.txt","att_check":false},"trial_type":"html-keyboard-response","trial_index":182,"time_elapsed":375041,"internal_node_id":"0.0-8.0-3.43","subject":"agyz2g35lxfkdee","sona":"7600"},{"rt":200.13000000017928,"stimulus":"<p>Bereit?</p>","key_press":32,"trial_type":"html-keyboard-response","trial_index":183,"time_elapsed":375247,"internal_node_id":"0.0-8.0-0.44","subject":"agyz2g35lxfkdee","sona":"7600"},{"rt":null,"stimulus":"<div style=\"font-size:60px;\">+</div>","key_press":null,"trial_type":"html-keyboard-response","trial_index":184,"time_elapsed":377251,"internal_node_id":"0.0-8.0-1.44","subject":"agyz2g35lxfkdee","sona":"7600"},{"trial_type":"turing-test","trial_index":185,"time_elapsed":380537,"internal_node_id":"0.0-8.0-2.44","subject":"agyz2g35lxfkdee","sona":"7600"},{"rt":292.5999999997439,"stimulus":"<p>Welche Sequenz haben Sie als natürlicher empfunden?</p>","key_press":70,"test_part":"response","test_stimulus":{"position":1,"left":"bvh/vr_prediction_models/model(tmp)-dataset(pass-bottle-hold)-numprim(6)-hold(0)/final-lines.txt","right":"bvh/pass-bottle-hold-training0-lines.txt","att_check":false},"trial_type":"html-keyboard-response","trial_index":186,"time_elapsed":380835,"internal_node_id":"0.0-8.0-3.44","subject":"agyz2g35lxfkdee","sona":"7600"},{"rt":345.45499999972526,"stimulus":"<p>Bereit?</p>","key_press":32,"trial_type":"html-keyboard-response","trial_index":187,"time_elapsed":381188,"internal_node_id":"0.0-8.0-0.45","subject":"agyz2g35lxfkdee","sona":"7600"},{"rt":null,"stimulus":"<div style=\"font-size:60px;\">+</div>","key_press":null,"trial_type":"html-keyboard-response","trial_index":188,"time_elapsed":383191,"internal_node_id":"0.0-8.0-1.45","subject":"agyz2g35lxfkdee","sona":"7600"},{"trial_type":"turing-test","trial_index":189,"time_elapsed":389506,"internal_node_id":"0.0-8.0-2.45","subject":"agyz2g35lxfkdee","sona":"7600"},{"rt":250.70999999932246,"stimulus":"<p>Welche Sequenz haben Sie als natürlicher empfunden?</p>","key_press":70,"test_part":"response","test_stimulus":{"position":1,"left":"bvh/vr_prediction_models/model(vcgpdm)-dataset(pass-bottle)-mode(ELBO)-parts(3)-dyn(10)-lvm(10)-hold(2)/final-lines.txt","right":"bvh/pass-bottle-training2-lines.txt","att_check":false},"trial_type":"html-keyboard-response","trial_index":190,"time_elapsed":389763,"internal_node_id":"0.0-8.0-3.45","subject":"agyz2g35lxfkdee","sona":"7600"},{"rt":342.7400000000489,"stimulus":"<p>Bereit?</p>","key_press":32,"trial_type":"html-keyboard-response","trial_index":191,"time_elapsed":390114,"internal_node_id":"0.0-8.0-0.46","subject":"agyz2g35lxfkdee","sona":"7600"},{"rt":null,"stimulus":"<div style=\"font-size:60px;\">+</div>","key_press":null,"trial_type":"html-keyboard-response","trial_index":192,"time_elapsed":392116,"internal_node_id":"0.0-8.0-1.46","subject":"agyz2g35lxfkdee","sona":"7600"},{"trial_type":"turing-test","trial_index":193,"time_elapsed":398161,"internal_node_id":"0.0-8.0-2.46","subject":"agyz2g35lxfkdee","sona":"7600"},{"rt":547.1299999998882,"stimulus":"<p>Welche Sequenz haben Sie als natürlicher empfunden?</p>","key_press":74,"test_part":"response","test_stimulus":{"position":1,"left":"bvh/vr_prediction_models/model(vcgpdm)-dataset(return-bottle)-mode(ELBO)-parts(3)-dyn(25)-lvm(15)-hold(0)/final-lines.txt","right":"bvh/return-bottle-training0-lines.txt","att_check":false},"trial_type":"html-keyboard-response","trial_index":194,"time_elapsed":398715,"internal_node_id":"0.0-8.0-3.46","subject":"agyz2g35lxfkdee","sona":"7600"},{"rt":307.0299999999115,"stimulus":"<p>Bereit?</p>","key_press":32,"trial_type":"html-keyboard-response","trial_index":195,"time_elapsed":399034,"internal_node_id":"0.0-8.0-0.47","subject":"agyz2g35lxfkdee","sona":"7600"},{"rt":null,"stimulus":"<div style=\"font-size:60px;\">+</div>","key_press":null,"trial_type":"html-keyboard-response","trial_index":196,"time_elapsed":401037,"internal_node_id":"0.0-8.0-1.47","subject":"agyz2g35lxfkdee","sona":"7600"},{"trial_type":"turing-test","trial_index":197,"time_elapsed":404855,"internal_node_id":"0.0-8.0-2.47","subject":"agyz2g35lxfkdee","sona":"7600"},{"rt":336.1050000003306,"stimulus":"<p>Welche Sequenz haben Sie als natürlicher empfunden?</p>","key_press":74,"test_part":"response","test_stimulus":{"position":1,"left":"bvh/vr_prediction_models/model(vcgpdm)-dataset(return-bottle-hold)-mode(ELBO)-parts(1)-dyn(30)-lvm(35)-hold(4)/final-lines.txt","right":"bvh/return-bottle-hold-training4-lines.txt","att_check":false},"trial_type":"html-keyboard-response","trial_index":198,"time_elapsed":405200,"internal_node_id":"0.0-8.0-3.47","subject":"agyz2g35lxfkdee","sona":"7600"},{"rt":307.7050000001327,"stimulus":"<p>Bereit?</p>","key_press":32,"trial_type":"html-keyboard-response","trial_index":199,"time_elapsed":405516,"internal_node_id":"0.0-8.0-0.48","subject":"agyz2g35lxfkdee","sona":"7600"},{"rt":null,"stimulus":"<div style=\"font-size:60px;\">+</div>","key_press":null,"trial_type":"html-keyboard-response","trial_index":200,"time_elapsed":407519,"internal_node_id":"0.0-8.0-1.48","subject":"agyz2g35lxfkdee","sona":"7600"},{"trial_type":"turing-test","trial_index":201,"time_elapsed":414268,"internal_node_id":"0.0-8.0-2.48","subject":"agyz2g35lxfkdee","sona":"7600"},{"rt":313.2950000008568,"stimulus":"<p>Welche Sequenz haben Sie als natürlicher empfunden?</p>","key_press":70,"test_part":"response","test_stimulus":{"position":0,"left":"bvh/return-bottle-training2-lines.txt","right":"bvh/vr_prediction_models/model(vcgpdm)-dataset(return-bottle)-mode(ELBO)-parts(3)-dyn(30)-lvm(15)-hold(2)/final-lines.txt","att_check":false},"trial_type":"html-keyboard-response","trial_index":202,"time_elapsed":414593,"internal_node_id":"0.0-8.0-3.48","subject":"agyz2g35lxfkdee","sona":"7600"},{"rt":336.50000000034925,"stimulus":"<p>Bereit?</p>","key_press":32,"trial_type":"html-keyboard-response","trial_index":203,"time_elapsed":414933,"internal_node_id":"0.0-8.0-0.49","subject":"agyz2g35lxfkdee","sona":"7600"},{"rt":null,"stimulus":"<div style=\"font-size:60px;\">+</div>","key_press":null,"trial_type":"html-keyboard-response","trial_index":204,"time_elapsed":416937,"internal_node_id":"0.0-8.0-1.49","subject":"agyz2g35lxfkdee","sona":"7600"},{"trial_type":"turing-test","trial_index":205,"time_elapsed":422751,"internal_node_id":"0.0-8.0-2.49","subject":"agyz2g35lxfkdee","sona":"7600"},{"rt":404.6200000002864,"stimulus":"<p>Welche Sequenz haben Sie als natürlicher empfunden?</p>","key_press":74,"test_part":"response","test_stimulus":{"position":0,"left":"bvh/pass-bottle-training4-lines.txt","right":"bvh/vr_prediction_models/model(dmp)-dataset(pass-bottle)-npsi(30)-hold(4)/final-lines.txt","att_check":false},"trial_type":"html-keyboard-response","trial_index":206,"time_elapsed":423161,"internal_node_id":"0.0-8.0-3.49","subject":"agyz2g35lxfkdee","sona":"7600"},{"rt":293.41500000009546,"stimulus":"<p>Bereit?</p>","key_press":32,"trial_type":"html-keyboard-response","trial_index":207,"time_elapsed":423461,"internal_node_id":"0.0-8.0-0.50","subject":"agyz2g35lxfkdee","sona":"7600"},{"rt":null,"stimulus":"<div style=\"font-size:60px;\">+</div>","key_press":null,"trial_type":"html-keyboard-response","trial_index":208,"time_elapsed":425464,"internal_node_id":"0.0-8.0-1.50","subject":"agyz2g35lxfkdee","sona":"7600"},{"trial_type":"turing-test","trial_index":209,"time_elapsed":429513,"internal_node_id":"0.0-8.0-2.50","subject":"agyz2g35lxfkdee","sona":"7600"},{"rt":279.9549999999581,"stimulus":"<p>Welche Sequenz haben Sie als natürlicher empfunden?</p>","key_press":74,"test_part":"response","test_stimulus":{"position":1,"left":"bvh/vr_prediction_models/model(vcgpdm)-dataset(pass-bottle-hold)-mode(ELBO)-parts(3)-dyn(20)-lvm(20)-hold(2)/final-lines.txt","right":"bvh/pass-bottle-hold-training2-lines.txt","att_check":false},"trial_type":"html-keyboard-response","trial_index":210,"time_elapsed":429800,"internal_node_id":"0.0-8.0-3.50","subject":"agyz2g35lxfkdee","sona":"7600"},{"rt":365.8100000002305,"stimulus":"<p>Bereit?</p>","key_press":32,"trial_type":"html-keyboard-response","trial_index":211,"time_elapsed":430169,"internal_node_id":"0.0-8.0-0.51","subject":"agyz2g35lxfkdee","sona":"7600"},{"rt":null,"stimulus":"<div style=\"font-size:60px;\">+</div>","key_press":null,"trial_type":"html-keyboard-response","trial_index":212,"time_elapsed":432172,"internal_node_id":"0.0-8.0-1.51","subject":"agyz2g35lxfkdee","sona":"7600"},{"trial_type":"turing-test","trial_index":213,"time_elapsed":435252,"internal_node_id":"0.0-8.0-2.51","subject":"agyz2g35lxfkdee","sona":"7600"},{"rt":330.5600000003469,"stimulus":"<p>Welche Sequenz haben Sie als natürlicher empfunden?</p>","key_press":70,"test_part":"response","test_stimulus":{"position":0,"left":"bvh/pass-bottle-hold-training1-lines.txt","right":"bvh/vr_prediction_models/model(tmp)-dataset(pass-bottle-hold)-numprim(8)-hold(1)/final-lines.txt","att_check":false},"trial_type":"html-keyboard-response","trial_index":214,"time_elapsed":435590,"internal_node_id":"0.0-8.0-3.51","subject":"agyz2g35lxfkdee","sona":"7600"},{"rt":355.35500000062166,"stimulus":"<p>Bereit?</p>","key_press":32,"trial_type":"html-keyboard-response","trial_index":215,"time_elapsed":435951,"internal_node_id":"0.0-8.0-0.52","subject":"agyz2g35lxfkdee","sona":"7600"},{"rt":null,"stimulus":"<div style=\"font-size:60px;\">+</div>","key_press":null,"trial_type":"html-keyboard-response","trial_index":216,"time_elapsed":437954,"internal_node_id":"0.0-8.0-1.52","subject":"agyz2g35lxfkdee","sona":"7600"},{"trial_type":"turing-test","trial_index":217,"time_elapsed":441394,"internal_node_id":"0.0-8.0-2.52","subject":"agyz2g35lxfkdee","sona":"7600"},{"rt":296.62000000005355,"stimulus":"<p>Welche Sequenz haben Sie als natürlicher empfunden?</p>","key_press":74,"test_part":"response","test_stimulus":{"position":1,"left":"bvh/vr_prediction_models/model(dmp)-dataset(return-bottle-hold)-npsi(40)-hold(2)/final-lines.txt","right":"bvh/return-bottle-hold-training2-lines.txt","att_check":false},"trial_type":"html-keyboard-response","trial_index":218,"time_elapsed":441697,"internal_node_id":"0.0-8.0-3.52","subject":"agyz2g35lxfkdee","sona":"7600"},{"rt":323.199999999837,"stimulus":"<p>Bereit?</p>","key_press":32,"trial_type":"html-keyboard-response","trial_index":219,"time_elapsed":442027,"internal_node_id":"0.0-8.0-0.53","subject":"agyz2g35lxfkdee","sona":"7600"},{"rt":null,"stimulus":"<div style=\"font-size:60px;\">+</div>","key_press":null,"trial_type":"html-keyboard-response","trial_index":220,"time_elapsed":444030,"internal_node_id":"0.0-8.0-1.53","subject":"agyz2g35lxfkdee","sona":"7600"},{"trial_type":"turing-test","trial_index":221,"time_elapsed":449984,"internal_node_id":"0.0-8.0-2.53","subject":"agyz2g35lxfkdee","sona":"7600"},{"rt":244.5250000000815,"stimulus":"<p>Welche Sequenz haben Sie als natürlicher empfunden?</p>","key_press":74,"test_part":"response","test_stimulus":{"position":1,"left":"bvh/vr_prediction_models/model(vcgpdm)-dataset(return-bottle)-mode(ELBO)-parts(1)-dyn(20)-lvm(30)-hold(4)/final-lines.txt","right":"bvh/return-bottle-training4-lines.txt","att_check":false},"trial_type":"html-keyboard-response","trial_index":222,"time_elapsed":450236,"internal_node_id":"0.0-8.0-3.53","subject":"agyz2g35lxfkdee","sona":"7600"},{"rt":372.7550000003539,"stimulus":"<p>Bereit?</p>","key_press":32,"trial_type":"html-keyboard-response","trial_index":223,"time_elapsed":450616,"internal_node_id":"0.0-8.0-0.54","subject":"agyz2g35lxfkdee","sona":"7600"},{"rt":null,"stimulus":"<div style=\"font-size:60px;\">+</div>","key_press":null,"trial_type":"html-keyboard-response","trial_index":224,"time_elapsed":452620,"internal_node_id":"0.0-8.0-1.54","subject":"agyz2g35lxfkdee","sona":"7600"},{"trial_type":"turing-test","trial_index":225,"time_elapsed":459328,"internal_node_id":"0.0-8.0-2.54","subject":"agyz2g35lxfkdee","sona":"7600"},{"rt":206.33999999973457,"stimulus":"<p>Welche Sequenz haben Sie als natürlicher empfunden?</p>","key_press":70,"test_part":"response","test_stimulus":{"position":0,"left":"bvh/return-bottle-training2-lines.txt","right":"bvh/vr_prediction_models/model(vcgpdm)-dataset(return-bottle)-mode(ELBO)-parts(3)-dyn(35)-lvm(20)-hold(2)/final-lines.txt","att_check":false},"trial_type":"html-keyboard-response","trial_index":226,"time_elapsed":459541,"internal_node_id":"0.0-8.0-3.54","subject":"agyz2g35lxfkdee","sona":"7600"},{"rt":424.35000000020955,"stimulus":"<p>Bereit?</p>","key_press":32,"trial_type":"html-keyboard-response","trial_index":227,"time_elapsed":459972,"internal_node_id":"0.0-8.0-0.55","subject":"agyz2g35lxfkdee","sona":"7600"},{"rt":null,"stimulus":"<div style=\"font-size:60px;\">+</div>","key_press":null,"trial_type":"html-keyboard-response","trial_index":228,"time_elapsed":461976,"internal_node_id":"0.0-8.0-1.55","subject":"agyz2g35lxfkdee","sona":"7600"},{"trial_type":"turing-test","trial_index":229,"time_elapsed":466009,"internal_node_id":"0.0-8.0-2.55","subject":"agyz2g35lxfkdee","sona":"7600"},{"rt":287.2950000001001,"stimulus":"<p>Welche Sequenz haben Sie als natürlicher empfunden?</p>","key_press":70,"test_part":"response","test_stimulus":{"position":0,"left":"bvh/pass-bottle-hold-training4-lines.txt","right":"bvh/vr_prediction_models/model(vcgpdm)-dataset(pass-bottle-hold)-mode(ELBO)-parts(1)-dyn(10)-lvm(30)-hold(4)/final-lines.txt","att_check":false},"trial_type":"html-keyboard-response","trial_index":230,"time_elapsed":466303,"internal_node_id":"0.0-8.0-3.55","subject":"agyz2g35lxfkdee","sona":"7600"},{"rt":348.8400000005495,"stimulus":"<p>Bereit?</p>","key_press":32,"trial_type":"html-keyboard-response","trial_index":231,"time_elapsed":466663,"internal_node_id":"0.0-8.0-0.56","subject":"agyz2g35lxfkdee","sona":"7600"},{"rt":null,"stimulus":"<div style=\"font-size:60px;\">+</div>","key_press":null,"trial_type":"html-keyboard-response","trial_index":232,"time_elapsed":468668,"internal_node_id":"0.0-8.0-1.56","subject":"agyz2g35lxfkdee","sona":"7600"},{"trial_type":"turing-test","trial_index":233,"time_elapsed":471869,"internal_node_id":"0.0-8.0-2.56","subject":"agyz2g35lxfkdee","sona":"7600"},{"rt":293.1349999998929,"stimulus":"<p>Welche Sequenz haben Sie als natürlicher empfunden?</p>","key_press":74,"test_part":"response","test_stimulus":{"position":1,"left":"bvh/vr_prediction_models/model(dmp)-dataset(pass-bottle-hold)-npsi(10)-hold(0)/final-lines.txt","right":"bvh/pass-bottle-hold-training0-lines.txt","att_check":false},"trial_type":"html-keyboard-response","trial_index":234,"time_elapsed":472170,"internal_node_id":"0.0-8.0-3.56","subject":"agyz2g35lxfkdee","sona":"7600"},{"rt":333.17500000068685,"stimulus":"<p>Bereit?</p>","key_press":32,"trial_type":"html-keyboard-response","trial_index":235,"time_elapsed":472510,"internal_node_id":"0.0-8.0-0.57","subject":"agyz2g35lxfkdee","sona":"7600"},{"rt":null,"stimulus":"<div style=\"font-size:60px;\">+</div>","key_press":null,"trial_type":"html-keyboard-response","trial_index":236,"time_elapsed":474514,"internal_node_id":"0.0-8.0-1.57","subject":"agyz2g35lxfkdee","sona":"7600"},{"trial_type":"turing-test","trial_index":237,"time_elapsed":480100,"internal_node_id":"0.0-8.0-2.57","subject":"agyz2g35lxfkdee","sona":"7600"},{"rt":345.83000000024913,"stimulus":"<p>Welche Sequenz haben Sie als natürlicher empfunden?</p>","key_press":74,"test_part":"response","test_stimulus":{"position":1,"left":"bvh/vr_prediction_models/model(tmp)-dataset(return-bottle)-numprim(13)-hold(3)/final-lines.txt","right":"bvh/return-bottle-training3-lines.txt","att_check":false},"trial_type":"html-keyboard-response","trial_index":238,"time_elapsed":480464,"internal_node_id":"0.0-8.0-3.57","subject":"agyz2g35lxfkdee","sona":"7600"},{"rt":405.0999999999185,"stimulus":"<p>Bereit?</p>","key_press":32,"trial_type":"html-keyboard-response","trial_index":239,"time_elapsed":480875,"internal_node_id":"0.0-8.0-0.58","subject":"agyz2g35lxfkdee","sona":"7600"},{"rt":null,"stimulus":"<div style=\"font-size:60px;\">+</div>","key_press":null,"trial_type":"html-keyboard-response","trial_index":240,"time_elapsed":482879,"internal_node_id":"0.0-8.0-1.58","subject":"agyz2g35lxfkdee","sona":"7600"},{"trial_type":"turing-test","trial_index":241,"time_elapsed":486227,"internal_node_id":"0.0-8.0-2.58","subject":"agyz2g35lxfkdee","sona":"7600"},{"rt":798.7299999995739,"stimulus":"<p>Welche Sequenz haben Sie als natürlicher empfunden?</p>","key_press":70,"test_part":"response","test_stimulus":{"position":1,"left":"bvh/vr_prediction_models/model(vcgpdm)-dataset(pass-bottle-hold)-mode(ELBO)-parts(3)-dyn(25)-lvm(25)-hold(1)/final-lines.txt","right":"bvh/pass-bottle-hold-training1-lines.txt","att_check":false},"trial_type":"html-keyboard-response","trial_index":242,"time_elapsed":487032,"internal_node_id":"0.0-8.0-3.58","subject":"agyz2g35lxfkdee","sona":"7600"},{"rt":1204.694999999425,"stimulus":"<p>Bereit?</p>","key_press":32,"trial_type":"html-keyboard-response","trial_index":243,"time_elapsed":488242,"internal_node_id":"0.0-8.0-0.59","subject":"agyz2g35lxfkdee","sona":"7600"},{"rt":null,"stimulus":"<div style=\"font-size:60px;\">+</div>","key_press":null,"trial_type":"html-keyboard-response","trial_index":244,"time_elapsed":490246,"internal_node_id":"0.0-8.0-1.59","subject":"agyz2g35lxfkdee","sona":"7600"},{"trial_type":"turing-test","trial_index":245,"time_elapsed":495931,"internal_node_id":"0.0-8.0-2.59","subject":"agyz2g35lxfkdee","sona":"7600"},{"rt":393.25499999994645,"stimulus":"<p>Welche Sequenz haben Sie als natürlicher empfunden?</p>","key_press":74,"test_part":"response","test_stimulus":{"position":0,"left":"bvh/return-bottle-training3-lines.txt","right":"bvh/vr_prediction_models/model(tmp)-dataset(return-bottle)-numprim(9)-hold(3)/final-lines.txt","att_check":false},"trial_type":"html-keyboard-response","trial_index":246,"time_elapsed":496332,"internal_node_id":"0.0-8.0-3.59","subject":"agyz2g35lxfkdee","sona":"7600"},{"rt":685.7650000001886,"stimulus":"<p>Bereit?</p>","key_press":32,"trial_type":"html-keyboard-response","trial_index":247,"time_elapsed":497023,"internal_node_id":"0.0-8.0-0.60","subject":"agyz2g35lxfkdee","sona":"7600"},{"rt":null,"stimulus":"<div style=\"font-size:60px;\">+</div>","key_press":null,"trial_type":"html-keyboard-response","trial_index":248,"time_elapsed":499028,"internal_node_id":"0.0-8.0-1.60","subject":"agyz2g35lxfkdee","sona":"7600"},{"trial_type":"turing-test","trial_index":249,"time_elapsed":504661,"internal_node_id":"0.0-8.0-2.60","subject":"agyz2g35lxfkdee","sona":"7600"},{"rt":504.43499999982305,"stimulus":"<p>Welche Sequenz haben Sie als natürlicher empfunden?</p>","key_press":74,"test_part":"response","test_stimulus":{"position":1,"left":"bvh/vr_prediction_models/model(vcgpdm)-dataset(return-bottle)-mode(ELBO)-parts(1)-dyn(35)-lvm(30)-hold(0)/final-lines.txt","right":"bvh/return-bottle-training0-lines.txt","att_check":false},"trial_type":"html-keyboard-response","trial_index":250,"time_elapsed":505172,"internal_node_id":"0.0-8.0-3.60","subject":"agyz2g35lxfkdee","sona":"7600"},{"rt":1177.7000000001863,"stimulus":"<p>Bereit?</p>","key_press":32,"trial_type":"html-keyboard-response","trial_index":251,"time_elapsed":506358,"internal_node_id":"0.0-8.0-0.61","subject":"agyz2g35lxfkdee","sona":"7600"},{"rt":null,"stimulus":"<div style=\"font-size:60px;\">+</div>","key_press":null,"trial_type":"html-keyboard-response","trial_index":252,"time_elapsed":508362,"internal_node_id":"0.0-8.0-1.61","subject":"agyz2g35lxfkdee","sona":"7600"},{"trial_type":"turing-test","trial_index":253,"time_elapsed":512133,"internal_node_id":"0.0-8.0-2.61","subject":"agyz2g35lxfkdee","sona":"7600"},{"rt":573.4899999997579,"stimulus":"<p>Welche Sequenz haben Sie als natürlicher empfunden?</p>","key_press":70,"test_part":"response","test_stimulus":{"position":0,"left":"bvh/return-bottle-hold-training2-lines.txt","right":"bvh/vr_prediction_models/model(vcgpdm)-dataset(return-bottle-hold)-mode(ELBO)-parts(1)-dyn(10)-lvm(30)-hold(2)/final-lines.txt","att_check":false},"trial_type":"html-keyboard-response","trial_index":254,"time_elapsed":512713,"internal_node_id":"0.0-8.0-3.61","subject":"agyz2g35lxfkdee","sona":"7600"},{"rt":315.40500000026077,"stimulus":"<p>Bereit?</p>","key_press":32,"trial_type":"html-keyboard-response","trial_index":255,"time_elapsed":513031,"internal_node_id":"0.0-8.0-0.62","subject":"agyz2g35lxfkdee","sona":"7600"},{"rt":null,"stimulus":"<div style=\"font-size:60px;\">+</div>","key_press":null,"trial_type":"html-keyboard-response","trial_index":256,"time_elapsed":515035,"internal_node_id":"0.0-8.0-1.62","subject":"agyz2g35lxfkdee","sona":"7600"},{"trial_type":"turing-test","trial_index":257,"time_elapsed":518492,"internal_node_id":"0.0-8.0-2.62","subject":"agyz2g35lxfkdee","sona":"7600"},{"rt":799.7599999998929,"stimulus":"<p>Welche Sequenz haben Sie als natürlicher empfunden?</p>","key_press":74,"test_part":"response","test_stimulus":{"position":1,"left":"bvh/vr_prediction_models/model(dmp)-dataset(pass-bottle-hold)-npsi(30)-hold(3)/final-lines.txt","right":"bvh/pass-bottle-hold-training3-lines.txt","att_check":false},"trial_type":"html-keyboard-response","trial_index":258,"time_elapsed":519298,"internal_node_id":"0.0-8.0-3.62","subject":"agyz2g35lxfkdee","sona":"7600"},{"rt":328.75999999942724,"stimulus":"<p>Bereit?</p>","key_press":32,"trial_type":"html-keyboard-response","trial_index":259,"time_elapsed":519633,"internal_node_id":"0.0-8.0-0.63","subject":"agyz2g35lxfkdee","sona":"7600"},{"rt":null,"stimulus":"<div style=\"font-size:60px;\">+</div>","key_press":null,"trial_type":"html-keyboard-response","trial_index":260,"time_elapsed":521636,"internal_node_id":"0.0-8.0-1.63","subject":"agyz2g35lxfkdee","sona":"7600"},{"trial_type":"turing-test","trial_index":261,"time_elapsed":524980,"internal_node_id":"0.0-8.0-2.63","subject":"agyz2g35lxfkdee","sona":"7600"},{"rt":558.2400000002235,"stimulus":"<p>Welche Sequenz haben Sie als natürlicher empfunden?</p>","key_press":74,"test_part":"response","test_stimulus":{"position":0,"left":"bvh/pass-bottle-hold-training0-lines.txt","right":"bvh/vr_prediction_models/model(dmp)-dataset(pass-bottle-hold)-npsi(50)-hold(0)/final-lines.txt","att_check":true},"trial_type":"html-keyboard-response","trial_index":262,"time_elapsed":525544,"internal_node_id":"0.0-8.0-3.63","subject":"agyz2g35lxfkdee","sona":"7600"},{"rt":276.9000000007218,"stimulus":"<p>Bereit?</p>","key_press":32,"trial_type":"html-keyboard-response","trial_index":263,"time_elapsed":525829,"internal_node_id":"0.0-8.0-0.64","subject":"agyz2g35lxfkdee","sona":"7600"},{"rt":null,"stimulus":"<div style=\"font-size:60px;\">+</div>","key_press":null,"trial_type":"html-keyboard-response","trial_index":264,"time_elapsed":527831,"internal_node_id":"0.0-8.0-1.64","subject":"agyz2g35lxfkdee","sona":"7600"},{"trial_type":"turing-test","trial_index":265,"time_elapsed":531398,"internal_node_id":"0.0-8.0-2.64","subject":"agyz2g35lxfkdee","sona":"7600"},{"rt":330.09499999939,"stimulus":"<p>Welche Sequenz haben Sie als natürlicher empfunden?</p>","key_press":74,"test_part":"response","test_stimulus":{"position":1,"left":"bvh/vr_prediction_models/model(dmp)-dataset(return-bottle-hold)-npsi(100)-hold(2)/final-lines.txt","right":"bvh/return-bottle-hold-training2-lines.txt","att_check":true},"trial_type":"html-keyboard-response","trial_index":266,"time_elapsed":531734,"internal_node_id":"0.0-8.0-3.64","subject":"agyz2g35lxfkdee","sona":"7600"},{"rt":304.0799999999581,"stimulus":"<p>Bereit?</p>","key_press":32,"trial_type":"html-keyboard-response","trial_index":267,"time_elapsed":532042,"internal_node_id":"0.0-8.0-0.65","subject":"agyz2g35lxfkdee","sona":"7600"},{"rt":null,"stimulus":"<div style=\"font-size:60px;\">+</div>","key_press":null,"trial_type":"html-keyboard-response","trial_index":268,"time_elapsed":534046,"internal_node_id":"0.0-8.0-1.65","subject":"agyz2g35lxfkdee","sona":"7600"},{"trial_type":"turing-test","trial_index":269,"time_elapsed":539438,"internal_node_id":"0.0-8.0-2.65","subject":"agyz2g35lxfkdee","sona":"7600"},{"rt":679.9350000000559,"stimulus":"<p>Welche Sequenz haben Sie als natürlicher empfunden?</p>","key_press":70,"test_part":"response","test_stimulus":{"position":0,"left":"bvh/pass-bottle-training1-lines.txt","right":"bvh/vr_prediction_models/model(dmp)-dataset(pass-bottle)-npsi(50)-hold(1)/final-lines.txt","att_check":false},"trial_type":"html-keyboard-response","trial_index":270,"time_elapsed":540124,"internal_node_id":"0.0-8.0-3.65","subject":"agyz2g35lxfkdee","sona":"7600"},{"rt":260.6150000001071,"stimulus":"<p>Bereit?</p>","key_press":32,"trial_type":"html-keyboard-response","trial_index":271,"time_elapsed":540395,"internal_node_id":"0.0-8.0-0.66","subject":"agyz2g35lxfkdee","sona":"7600"},{"rt":null,"stimulus":"<div style=\"font-size:60px;\">+</div>","key_press":null,"trial_type":"html-keyboard-response","trial_index":272,"time_elapsed":542398,"internal_node_id":"0.0-8.0-1.66","subject":"agyz2g35lxfkdee","sona":"7600"},{"trial_type":"turing-test","trial_index":273,"time_elapsed":548477,"internal_node_id":"0.0-8.0-2.66","subject":"agyz2g35lxfkdee","sona":"7600"},{"rt":529.520000000135,"stimulus":"<p>Welche Sequenz haben Sie als natürlicher empfunden?</p>","key_press":74,"test_part":"response","test_stimulus":{"position":0,"left":"bvh/return-bottle-training1-lines.txt","right":"bvh/vr_prediction_models/model(dmp)-dataset(return-bottle)-npsi(20)-hold(1)/final-lines.txt","att_check":false},"trial_type":"html-keyboard-response","trial_index":274,"time_elapsed":549014,"internal_node_id":"0.0-8.0-3.66","subject":"agyz2g35lxfkdee","sona":"7600"},{"rt":345.2900000002701,"stimulus":"<p>Bereit?</p>","key_press":32,"trial_type":"html-keyboard-response","trial_index":275,"time_elapsed":549363,"internal_node_id":"0.0-8.0-0.67","subject":"agyz2g35lxfkdee","sona":"7600"},{"rt":null,"stimulus":"<div style=\"font-size:60px;\">+</div>","key_press":null,"trial_type":"html-keyboard-response","trial_index":276,"time_elapsed":551365,"internal_node_id":"0.0-8.0-1.67","subject":"agyz2g35lxfkdee","sona":"7600"},{"trial_type":"turing-test","trial_index":277,"time_elapsed":556446,"internal_node_id":"0.0-8.0-2.67","subject":"agyz2g35lxfkdee","sona":"7600"},{"rt":284.84000000031665,"stimulus":"<p>Welche Sequenz haben Sie als natürlicher empfunden?</p>","key_press":74,"test_part":"response","test_stimulus":{"position":1,"left":"bvh/vr_prediction_models/model(dmp)-dataset(return-bottle-hold)-npsi(10)-hold(0)/final-lines.txt","right":"bvh/return-bottle-hold-training0-lines.txt","att_check":false},"trial_type":"html-keyboard-response","trial_index":278,"time_elapsed":556738,"internal_node_id":"0.0-8.0-3.67","subject":"agyz2g35lxfkdee","sona":"7600"},{"rt":409.085000000312,"stimulus":"<p>Bereit?</p>","key_press":32,"trial_type":"html-keyboard-response","trial_index":279,"time_elapsed":557159,"internal_node_id":"0.0-8.0-0.68","subject":"agyz2g35lxfkdee","sona":"7600"},{"rt":null,"stimulus":"<div style=\"font-size:60px;\">+</div>","key_press":null,"trial_type":"html-keyboard-response","trial_index":280,"time_elapsed":559160,"internal_node_id":"0.0-8.0-1.68","subject":"agyz2g35lxfkdee","sona":"7600"},{"trial_type":"turing-test","trial_index":281,"time_elapsed":562706,"internal_node_id":"0.0-8.0-2.68","subject":"agyz2g35lxfkdee","sona":"7600"},{"rt":414.36499999964144,"stimulus":"<p>Welche Sequenz haben Sie als natürlicher empfunden?</p>","key_press":70,"test_part":"response","test_stimulus":{"position":0,"left":"bvh/pass-bottle-hold-training4-lines.txt","right":"bvh/vr_prediction_models/model(tmp)-dataset(pass-bottle-hold)-numprim(12)-hold(4)/final-lines.txt","att_check":false},"trial_type":"html-keyboard-response","trial_index":282,"time_elapsed":563126,"internal_node_id":"0.0-8.0-3.68","subject":"agyz2g35lxfkdee","sona":"7600"},{"rt":349.9999999994179,"stimulus":"<p>Bereit?</p>","key_press":32,"trial_type":"html-keyboard-response","trial_index":283,"time_elapsed":563481,"internal_node_id":"0.0-8.0-0.69","subject":"agyz2g35lxfkdee","sona":"7600"},{"rt":null,"stimulus":"<div style=\"font-size:60px;\">+</div>","key_press":null,"trial_type":"html-keyboard-response","trial_index":284,"time_elapsed":565483,"internal_node_id":"0.0-8.0-1.69","subject":"agyz2g35lxfkdee","sona":"7600"},{"trial_type":"turing-test","trial_index":285,"time_elapsed":568990,"internal_node_id":"0.0-8.0-2.69","subject":"agyz2g35lxfkdee","sona":"7600"},{"rt":306.0899999999674,"stimulus":"<p>Welche Sequenz haben Sie als natürlicher empfunden?</p>","key_press":70,"test_part":"response","test_stimulus":{"position":0,"left":"bvh/pass-bottle-hold-training0-lines.txt","right":"bvh/vr_prediction_models/model(vcgpdm)-dataset(pass-bottle-hold)-mode(ELBO)-parts(3)-dyn(25)-lvm(25)-hold(0)/final-lines.txt","att_check":false},"trial_type":"html-keyboard-response","trial_index":286,"time_elapsed":569303,"internal_node_id":"0.0-8.0-3.69","subject":"agyz2g35lxfkdee","sona":"7600"},{"rt":383.2250000004424,"stimulus":"<p>Bereit?</p>","key_press":32,"trial_type":"html-keyboard-response","trial_index":287,"time_elapsed":569692,"internal_node_id":"0.0-8.0-0.70","subject":"agyz2g35lxfkdee","sona":"7600"},{"rt":null,"stimulus":"<div style=\"font-size:60px;\">+</div>","key_press":null,"trial_type":"html-keyboard-response","trial_index":288,"time_elapsed":571695,"internal_node_id":"0.0-8.0-1.70","subject":"agyz2g35lxfkdee","sona":"7600"},{"trial_type":"turing-test","trial_index":289,"time_elapsed":577211,"internal_node_id":"0.0-8.0-2.70","subject":"agyz2g35lxfkdee","sona":"7600"},{"rt":1205.0149999995483,"stimulus":"<p>Welche Sequenz haben Sie als natürlicher empfunden?</p>","key_press":70,"test_part":"response","test_stimulus":{"position":0,"left":"bvh/return-bottle-training0-lines.txt","right":"bvh/vr_prediction_models/model(tmp)-dataset(return-bottle)-numprim(14)-hold(0)/final-lines.txt","att_check":false},"trial_type":"html-keyboard-response","trial_index":290,"time_elapsed":578423,"internal_node_id":"0.0-8.0-3.70","subject":"agyz2g35lxfkdee","sona":"7600"},{"rt":288.78499999979977,"stimulus":"<p>Bereit?</p>","key_press":32,"trial_type":"html-keyboard-response","trial_index":291,"time_elapsed":578718,"internal_node_id":"0.0-8.0-0.71","subject":"agyz2g35lxfkdee","sona":"7600"},{"rt":null,"stimulus":"<div style=\"font-size:60px;\">+</div>","key_press":null,"trial_type":"html-keyboard-response","trial_index":292,"time_elapsed":580720,"internal_node_id":"0.0-8.0-1.71","subject":"agyz2g35lxfkdee","sona":"7600"},{"trial_type":"turing-test","trial_index":293,"time_elapsed":584105,"internal_node_id":"0.0-8.0-2.71","subject":"agyz2g35lxfkdee","sona":"7600"},{"rt":401.63500000024214,"stimulus":"<p>Welche Sequenz haben Sie als natürlicher empfunden?</p>","key_press":74,"test_part":"response","test_stimulus":{"position":0,"left":"bvh/return-bottle-hold-training1-lines.txt","right":"bvh/vr_prediction_models/model(tmp)-dataset(return-bottle-hold)-numprim(9)-hold(1)/final-lines.txt","att_check":false},"trial_type":"html-keyboard-response","trial_index":294,"time_elapsed":584514,"internal_node_id":"0.0-8.0-3.71","subject":"agyz2g35lxfkdee","sona":"7600"},{"rt":27.900000000023283,"stimulus":"<p>Bereit?</p>","key_press":32,"trial_type":"html-keyboard-response","trial_index":295,"time_elapsed":584548,"internal_node_id":"0.0-8.0-0.72","subject":"agyz2g35lxfkdee","sona":"7600"},{"rt":null,"stimulus":"<div style=\"font-size:60px;\">+</div>","key_press":null,"trial_type":"html-keyboard-response","trial_index":296,"time_elapsed":586550,"internal_node_id":"0.0-8.0-1.72","subject":"agyz2g35lxfkdee","sona":"7600"},{"trial_type":"turing-test","trial_index":297,"time_elapsed":592783,"internal_node_id":"0.0-8.0-2.72","subject":"agyz2g35lxfkdee","sona":"7600"},{"rt":262.6899999995949,"stimulus":"<p>Welche Sequenz haben Sie als natürlicher empfunden?</p>","key_press":70,"test_part":"response","test_stimulus":{"position":1,"left":"bvh/vr_prediction_models/model(vcgpdm)-dataset(pass-bottle)-mode(ELBO)-parts(3)-dyn(25)-lvm(15)-hold(2)/final-lines.txt","right":"bvh/pass-bottle-training2-lines.txt","att_check":false},"trial_type":"html-keyboard-response","trial_index":298,"time_elapsed":593055,"internal_node_id":"0.0-8.0-3.72","subject":"agyz2g35lxfkdee","sona":"7600"},{"rt":27.339999999618158,"stimulus":"<p>Bereit?</p>","key_press":32,"trial_type":"html-keyboard-response","trial_index":299,"time_elapsed":593088,"internal_node_id":"0.0-8.0-0.73","subject":"agyz2g35lxfkdee","sona":"7600"},{"rt":null,"stimulus":"<div style=\"font-size:60px;\">+</div>","key_press":null,"trial_type":"html-keyboard-response","trial_index":300,"time_elapsed":595090,"internal_node_id":"0.0-8.0-1.73","subject":"agyz2g35lxfkdee","sona":"7600"},{"trial_type":"turing-test","trial_index":301,"time_elapsed":598877,"internal_node_id":"0.0-8.0-2.73","subject":"agyz2g35lxfkdee","sona":"7600"},{"rt":487.46500000020023,"stimulus":"<p>Welche Sequenz haben Sie als natürlicher empfunden?</p>","key_press":74,"test_part":"response","test_stimulus":{"position":0,"left":"bvh/pass-bottle-hold-training2-lines.txt","right":"bvh/vr_prediction_models/model(vcgpdm)-dataset(pass-bottle-hold)-mode(ELBO)-parts(1)-dyn(5)-lvm(5)-hold(2)/final-lines.txt","att_check":false},"trial_type":"html-keyboard-response","trial_index":302,"time_elapsed":599371,"internal_node_id":"0.0-8.0-3.73","subject":"agyz2g35lxfkdee","sona":"7600"},{"rt":1295.5300000003772,"stimulus":"<p>Bereit?</p>","key_press":32,"trial_type":"html-keyboard-response","trial_index":303,"time_elapsed":600673,"internal_node_id":"0.0-8.0-0.74","subject":"agyz2g35lxfkdee","sona":"7600"},{"rt":null,"stimulus":"<div style=\"font-size:60px;\">+</div>","key_press":null,"trial_type":"html-keyboard-response","trial_index":304,"time_elapsed":602676,"internal_node_id":"0.0-8.0-1.74","subject":"agyz2g35lxfkdee","sona":"7600"},{"trial_type":"turing-test","trial_index":305,"time_elapsed":606374,"internal_node_id":"0.0-8.0-2.74","subject":"agyz2g35lxfkdee","sona":"7600"},{"rt":302.8000000002794,"stimulus":"<p>Welche Sequenz haben Sie als natürlicher empfunden?</p>","key_press":70,"test_part":"response","test_stimulus":{"position":0,"left":"bvh/return-bottle-hold-training4-lines.txt","right":"bvh/vr_prediction_models/model(dmp)-dataset(return-bottle-hold)-npsi(40)-hold(4)/final-lines.txt","att_check":false},"trial_type":"html-keyboard-response","trial_index":306,"time_elapsed":606681,"internal_node_id":"0.0-8.0-3.74","subject":"agyz2g35lxfkdee","sona":"7600"},{"rt":6.330000000190921,"stimulus":"<p>Bereit?</p>","key_press":32,"trial_type":"html-keyboard-response","trial_index":307,"time_elapsed":606693,"internal_node_id":"0.0-8.0-0.75","subject":"agyz2g35lxfkdee","sona":"7600"},{"rt":null,"stimulus":"<div style=\"font-size:60px;\">+</div>","key_press":null,"trial_type":"html-keyboard-response","trial_index":308,"time_elapsed":608695,"internal_node_id":"0.0-8.0-1.75","subject":"agyz2g35lxfkdee","sona":"7600"},{"trial_type":"turing-test","trial_index":309,"time_elapsed":612367,"internal_node_id":"0.0-8.0-2.75","subject":"agyz2g35lxfkdee","sona":"7600"},{"rt":333.6799999998184,"stimulus":"<p>Welche Sequenz haben Sie als natürlicher empfunden?</p>","key_press":70,"test_part":"response","test_stimulus":{"position":0,"left":"bvh/return-bottle-hold-training3-lines.txt","right":"bvh/vr_prediction_models/model(dmp)-dataset(return-bottle-hold)-npsi(100)-hold(3)/final-lines.txt","att_check":false},"trial_type":"html-keyboard-response","trial_index":310,"time_elapsed":612707,"internal_node_id":"0.0-8.0-3.75","subject":"agyz2g35lxfkdee","sona":"7600"},{"rt":66.66500000027008,"stimulus":"<p>Bereit?</p>","key_press":32,"trial_type":"html-keyboard-response","trial_index":311,"time_elapsed":612780,"internal_node_id":"0.0-8.0-0.76","subject":"agyz2g35lxfkdee","sona":"7600"},{"rt":null,"stimulus":"<div style=\"font-size:60px;\">+</div>","key_press":null,"trial_type":"html-keyboard-response","trial_index":312,"time_elapsed":614782,"internal_node_id":"0.0-8.0-1.76","subject":"agyz2g35lxfkdee","sona":"7600"},{"trial_type":"turing-test","trial_index":313,"time_elapsed":618611,"internal_node_id":"0.0-8.0-2.76","subject":"agyz2g35lxfkdee","sona":"7600"},{"rt":244.82000000076368,"stimulus":"<p>Welche Sequenz haben Sie als natürlicher empfunden?</p>","key_press":74,"test_part":"response","test_stimulus":{"position":1,"left":"bvh/vr_prediction_models/model(dmp)-dataset(return-bottle-hold)-npsi(60)-hold(4)/final-lines.txt","right":"bvh/return-bottle-hold-training4-lines.txt","att_check":false},"trial_type":"html-keyboard-response","trial_index":314,"time_elapsed":618862,"internal_node_id":"0.0-8.0-3.76","subject":"agyz2g35lxfkdee","sona":"7600"},{"rt":47.19500000006519,"stimulus":"<p>Bereit?</p>","key_press":32,"trial_type":"html-keyboard-response","trial_index":315,"time_elapsed":618913,"internal_node_id":"0.0-8.0-0.77","subject":"agyz2g35lxfkdee","sona":"7600"},{"rt":null,"stimulus":"<div style=\"font-size:60px;\">+</div>","key_press":null,"trial_type":"html-keyboard-response","trial_index":316,"time_elapsed":620916,"internal_node_id":"0.0-8.0-1.77","subject":"agyz2g35lxfkdee","sona":"7600"},{"trial_type":"turing-test","trial_index":317,"time_elapsed":624418,"internal_node_id":"0.0-8.0-2.77","subject":"agyz2g35lxfkdee","sona":"7600"},{"rt":273.38499999942724,"stimulus":"<p>Welche Sequenz haben Sie als natürlicher empfunden?</p>","key_press":70,"test_part":"response","test_stimulus":{"position":0,"left":"bvh/return-bottle-hold-training1-lines.txt","right":"bvh/vr_prediction_models/model(vcgpdm)-dataset(return-bottle-hold)-mode(ELBO)-parts(3)-dyn(25)-lvm(30)-hold(1)/final-lines.txt","att_check":false},"trial_type":"html-keyboard-response","trial_index":318,"time_elapsed":624695,"internal_node_id":"0.0-8.0-3.77","subject":"agyz2g35lxfkdee","sona":"7600"},{"rt":167.9349999994738,"stimulus":"<p>Bereit?</p>","key_press":32,"trial_type":"html-keyboard-response","trial_index":319,"time_elapsed":624867,"internal_node_id":"0.0-8.0-0.78","subject":"agyz2g35lxfkdee","sona":"7600"},{"rt":null,"stimulus":"<div style=\"font-size:60px;\">+</div>","key_press":null,"trial_type":"html-keyboard-response","trial_index":320,"time_elapsed":626870,"internal_node_id":"0.0-8.0-1.78","subject":"agyz2g35lxfkdee","sona":"7600"},{"trial_type":"turing-test","trial_index":321,"time_elapsed":630519,"internal_node_id":"0.0-8.0-2.78","subject":"agyz2g35lxfkdee","sona":"7600"},{"rt":237.79000000015367,"stimulus":"<p>Welche Sequenz haben Sie als natürlicher empfunden?</p>","key_press":70,"test_part":"response","test_stimulus":{"position":0,"left":"bvh/return-bottle-hold-training3-lines.txt","right":"bvh/vr_prediction_models/model(dmp)-dataset(return-bottle-hold)-npsi(40)-hold(3)/final-lines.txt","att_check":false},"trial_type":"html-keyboard-response","trial_index":322,"time_elapsed":630764,"internal_node_id":"0.0-8.0-3.78","subject":"agyz2g35lxfkdee","sona":"7600"},{"rt":129.54999999969732,"stimulus":"<p>Bereit?</p>","key_press":32,"trial_type":"html-keyboard-response","trial_index":323,"time_elapsed":630898,"internal_node_id":"0.0-8.0-0.79","subject":"agyz2g35lxfkdee","sona":"7600"},{"rt":null,"stimulus":"<div style=\"font-size:60px;\">+</div>","key_press":null,"trial_type":"html-keyboard-response","trial_index":324,"time_elapsed":632901,"internal_node_id":"0.0-8.0-1.79","subject":"agyz2g35lxfkdee","sona":"7600"},{"trial_type":"turing-test","trial_index":325,"time_elapsed":636133,"internal_node_id":"0.0-8.0-2.79","subject":"agyz2g35lxfkdee","sona":"7600"},{"rt":195.01499999931548,"stimulus":"<p>Welche Sequenz haben Sie als natürlicher empfunden?</p>","key_press":74,"test_part":"response","test_stimulus":{"position":1,"left":"bvh/vr_prediction_models/model(vcgpdm)-dataset(return-bottle-hold)-mode(ELBO)-parts(3)-dyn(25)-lvm(30)-hold(1)/final-lines.txt","right":"bvh/return-bottle-hold-training1-lines.txt","att_check":false},"trial_type":"html-keyboard-response","trial_index":326,"time_elapsed":636337,"internal_node_id":"0.0-8.0-3.79","subject":"agyz2g35lxfkdee","sona":"7600"},{"rt":7275.480000000214,"responses":"{\"age\":\" 18\",\"gender\":\"weiblich\"}","trial_type":"survey-text","trial_index":327,"time_elapsed":643619,"internal_node_id":"0.0-10.0-0.0","subject":"agyz2g35lxfkdee","sona":"7600"},{"rt":28043.23999999999,"responses":"{\"area\":\"Arme\",\"Q1\":\"Synchronität, Abfolge der Bewegungen\",\"Q2\":\"Obriges\"}","trial_type":"survey-text","trial_index":328,"time_elapsed":671692,"internal_node_id":"0.0-10.0-1.0","subject":"agyz2g35lxfkdee","sona":"7600"}]