[{"rt":4026.015000010375,"stimulus":"<p>Welcome!<br> Please choose your language to start the experiment in the chosen language.</p><p>Willkommen!<br> Bitte wählen Sie eine Sprache, um das Experiment in der ausgewählten Sprache zu starten</p>","button_pressed":"1","trial_type":"html-button-response","trial_index":0,"time_elapsed":4039,"internal_node_id":"0.0-0.0","subject":"pk0g7ad3rlpkdjt","sona":"9688"},{"view_history":"[{\"page_index\":0,\"viewing_time\":1958.2249999803025},{\"page_index\":1,\"viewing_time\":1403.85500001139},{\"page_index\":2,\"viewing_time\":2881.935000012163},{\"page_index\":3,\"viewing_time\":1180.144999991171},{\"page_index\":4,\"viewing_time\":1499.8949999862816}]","rt":8924.594999989495,"trial_type":"instructions","trial_index":1,"time_elapsed":12964,"internal_node_id":"0.0-1.0-0.0","subject":"pk0g7ad3rlpkdjt","sona":"9688"},{"rt":1688.9749999972992,"stimulus":"<p>Bereit?</p>","key_press":32,"trial_type":"html-keyboard-response","trial_index":2,"time_elapsed":14654,"internal_node_id":"0.0-3.0","subject":"pk0g7ad3rlpkdjt","sona":"9688"},{"rt":null,"stimulus":"<div style=\"font-size:60px;\">+</div>","key_press":null,"trial_type":"html-keyboard-response","trial_index":3,"time_elapsed":16656,"internal_node_id":"0.0-4.0","subject":"pk0g7ad3rlpkdjt","sona":"9688"},{"trial_type":"training","trial_index":4,"time_elapsed":19869,"internal_node_id":"0.0-5.0","subject":"pk0g7ad3rlpkdjt","sona":"9688"},{"rt":382.145000010496,"stimulus":"<p>Welche Sequenz haben Sie als natürlicher empfunden?</p>","key_press":70,"trial_type":"html-keyboard-response","trial_index":5,"time_elapsed":20252,"internal_node_id":"0.0-6.0","subject":"pk0g7ad3rlpkdjt","sona":"9688"},{"rt":1388.7399999948684,"stimulus":"<p>Das Experiment startet nun.</p><p><small>Bitte drücken Sie den Knopf, wenn Sie bereit sind.</small></p>","button_pressed":"0","trial_type":"html-button-response","trial_index":6,"time_elapsed":21642,"internal_node_id":"0.0-7.0","subject":"pk0g7ad3rlpkdjt","sona":"9688"},{"rt":2564.299999998184,"stimulus":"<p>Bereit?</p>","key_press":32,"trial_type":"html-keyboard-response","trial_index":7,"time_elapsed":24207,"internal_node_id":"0.0-8.0-0.0","subject":"pk0g7ad3rlpkdjt","sona":"9688"},{"rt":null,"stimulus":"<div style=\"font-size:60px;\">+</div>","key_press":null,"trial_type":"html-keyboard-response","trial_index":8,"time_elapsed":26210,"internal_node_id":"0.0-8.0-1.0","subject":"pk0g7ad3rlpkdjt","sona":"9688"},{"trial_type":"turing-test","trial_index":9,"time_elapsed":29570,"internal_node_id":"0.0-8.0-2.0","subject":"pk0g7ad3rlpkdjt","sona":"9688"},{"rt":619.5000000006985,"stimulus":"<p>Welche Sequenz haben Sie als natürlicher empfunden?</p>","key_press":74,"test_part":"response","test_stimulus":{"position":1,"left":"bvh/vr_prediction_models/model(vcgpdm)-dataset(return-bottle-hold)-mode(ELBO)-parts(1)-dyn(10)-lvm(25)-hold(1)/final-lines.txt","right":"bvh/return-bottle-hold-training1-lines.txt","att_check":false},"trial_type":"html-keyboard-response","trial_index":10,"time_elapsed":30191,"internal_node_id":"0.0-8.0-3.0","subject":"pk0g7ad3rlpkdjt","sona":"9688"},{"rt":288.75999999581836,"stimulus":"<p>Bereit?</p>","key_press":32,"trial_type":"html-keyboard-response","trial_index":11,"time_elapsed":30481,"internal_node_id":"0.0-8.0-0.1","subject":"pk0g7ad3rlpkdjt","sona":"9688"},{"rt":null,"stimulus":"<div style=\"font-size:60px;\">+</div>","key_press":null,"trial_type":"html-keyboard-response","trial_index":12,"time_elapsed":32483,"internal_node_id":"0.0-8.0-1.1","subject":"pk0g7ad3rlpkdjt","sona":"9688"},{"trial_type":"turing-test","trial_index":13,"time_elapsed":35745,"internal_node_id":"0.0-8.0-2.1","subject":"pk0g7ad3rlpkdjt","sona":"9688"},{"rt":508.3549999981187,"stimulus":"<p>Welche Sequenz haben Sie als natürlicher empfunden?</p>","key_press":70,"test_part":"response","test_stimulus":{"position":1,"left":"bvh/vr_prediction_models/model(tmp)-dataset(pass-bottle-hold)-numprim(11)-hold(2)/final-lines.txt","right":"bvh/pass-bottle-hold-training2-lines.txt","att_check":false},"trial_type":"html-keyboard-response","trial_index":14,"time_elapsed":36255,"internal_node_id":"0.0-8.0-3.1","subject":"pk0g7ad3rlpkdjt","sona":"9688"},{"rt":404.6000000089407,"stimulus":"<p>Bereit?</p>","key_press":32,"trial_type":"html-keyboard-response","trial_index":15,"time_elapsed":36660,"internal_node_id":"0.0-8.0-0.2","subject":"pk0g7ad3rlpkdjt","sona":"9688"},{"rt":null,"stimulus":"<div style=\"font-size:60px;\">+</div>","key_press":null,"trial_type":"html-keyboard-response","trial_index":16,"time_elapsed":38663,"internal_node_id":"0.0-8.0-1.2","subject":"pk0g7ad3rlpkdjt","sona":"9688"},{"trial_type":"turing-test","trial_index":17,"time_elapsed":45383,"internal_node_id":"0.0-8.0-2.2","subject":"pk0g7ad3rlpkdjt","sona":"9688"},{"rt":317.6200000161771,"stimulus":"<p>Welche Sequenz haben Sie als natürlicher empfunden?</p>","key_press":70,"test_part":"response","test_stimulus":{"position":0,"left":"bvh/pass-bottle-training0-lines.txt","right":"bvh/vr_prediction_models/model(vcgpdm)-dataset(pass-bottle)-mode(MAP)-parts(1)-hold(0)/final-lines.txt","att_check":false},"trial_type":"html-keyboard-response","trial_index":18,"time_elapsed":45703,"internal_node_id":"0.0-8.0-3.2","subject":"pk0g7ad3rlpkdjt","sona":"9688"},{"rt":344.4500000041444,"stimulus":"<p>Bereit?</p>","key_press":32,"trial_type":"html-keyboard-response","trial_index":19,"time_elapsed":46049,"internal_node_id":"0.0-8.0-0.3","subject":"pk0g7ad3rlpkdjt","sona":"9688"},{"rt":null,"stimulus":"<div style=\"font-size:60px;\">+</div>","key_press":null,"trial_type":"html-keyboard-response","trial_index":20,"time_elapsed":48050,"internal_node_id":"0.0-8.0-1.3","subject":"pk0g7ad3rlpkdjt","sona":"9688"},{"trial_type":"turing-test","trial_index":21,"time_elapsed":51506,"internal_node_id":"0.0-8.0-2.3","subject":"pk0g7ad3rlpkdjt","sona":"9688"},{"rt":905.8899999945424,"stimulus":"<p>Welche Sequenz haben Sie als natürlicher empfunden?</p>","key_press":70,"test_part":"response","test_stimulus":{"position":0,"left":"bvh/pass-bottle-hold-training3-lines.txt","right":"bvh/vr_prediction_models/model(dmp)-dataset(pass-bottle-hold)-npsi(20)-hold(3)/final-lines.txt","att_check":true},"trial_type":"html-keyboard-response","trial_index":22,"time_elapsed":52413,"internal_node_id":"0.0-8.0-3.3","subject":"pk0g7ad3rlpkdjt","sona":"9688"},{"rt":203.76500001293607,"stimulus":"<p>Bereit?</p>","key_press":32,"trial_type":"html-keyboard-response","trial_index":23,"time_elapsed":52618,"internal_node_id":"0.0-8.0-0.4","subject":"pk0g7ad3rlpkdjt","sona":"9688"},{"rt":null,"stimulus":"<div style=\"font-size:60px;\">+</div>","key_press":null,"trial_type":"html-keyboard-response","trial_index":24,"time_elapsed":54620,"internal_node_id":"0.0-8.0-1.4","subject":"pk0g7ad3rlpkdjt","sona":"9688"},{"trial_type":"turing-test","trial_index":25,"time_elapsed":60580,"internal_node_id":"0.0-8.0-2.4","subject":"pk0g7ad3rlpkdjt","sona":"9688"},{"rt":573.3999999938533,"stimulus":"<p>Welche Sequenz haben Sie als natürlicher empfunden?</p>","key_press":74,"test_part":"response","test_stimulus":{"position":1,"left":"bvh/vr_prediction_models/model(dmp)-dataset(return-bottle)-npsi(90)-hold(1)/final-lines.txt","right":"bvh/return-bottle-training1-lines.txt","att_check":true},"trial_type":"html-keyboard-response","trial_index":26,"time_elapsed":61154,"internal_node_id":"0.0-8.0-3.4","subject":"pk0g7ad3rlpkdjt","sona":"9688"},{"rt":755.8349999890197,"stimulus":"<p>Bereit?</p>","key_press":32,"trial_type":"html-keyboard-response","trial_index":27,"time_elapsed":61911,"internal_node_id":"0.0-8.0-0.5","subject":"pk0g7ad3rlpkdjt","sona":"9688"},{"rt":null,"stimulus":"<div style=\"font-size:60px;\">+</div>","key_press":null,"trial_type":"html-keyboard-response","trial_index":28,"time_elapsed":63913,"internal_node_id":"0.0-8.0-1.5","subject":"pk0g7ad3rlpkdjt","sona":"9688"},{"trial_type":"turing-test","trial_index":29,"time_elapsed":69929,"internal_node_id":"0.0-8.0-2.5","subject":"pk0g7ad3rlpkdjt","sona":"9688"},{"rt":425.95500001334585,"stimulus":"<p>Welche Sequenz haben Sie als natürlicher empfunden?</p>","key_press":70,"test_part":"response","test_stimulus":{"position":0,"left":"bvh/pass-bottle-training2-lines.txt","right":"bvh/vr_prediction_models/model(dmp)-dataset(pass-bottle)-npsi(10)-hold(2)/final-lines.txt","att_check":false},"trial_type":"html-keyboard-response","trial_index":30,"time_elapsed":70356,"internal_node_id":"0.0-8.0-3.5","subject":"pk0g7ad3rlpkdjt","sona":"9688"},{"rt":394.46499999030493,"stimulus":"<p>Bereit?</p>","key_press":32,"trial_type":"html-keyboard-response","trial_index":31,"time_elapsed":70752,"internal_node_id":"0.0-8.0-0.6","subject":"pk0g7ad3rlpkdjt","sona":"9688"},{"rt":null,"stimulus":"<div style=\"font-size:60px;\">+</div>","key_press":null,"trial_type":"html-keyboard-response","trial_index":32,"time_elapsed":72753,"internal_node_id":"0.0-8.0-1.6","subject":"pk0g7ad3rlpkdjt","sona":"9688"},{"trial_type":"turing-test","trial_index":33,"time_elapsed":76477,"internal_node_id":"0.0-8.0-2.6","subject":"pk0g7ad3rlpkdjt","sona":"9688"},{"rt":2439.189999975497,"stimulus":"<p>Welche Sequenz haben Sie als natürlicher empfunden?</p>","key_press":70,"test_part":"response","test_stimulus":{"position":1,"left":"bvh/vr_prediction_models/model(vcgpdm)-dataset(return-bottle-hold)-mode(ELBO)-parts(1)-dyn(25)-lvm(35)-hold(4)/final-lines.txt","right":"bvh/return-bottle-hold-training4-lines.txt","att_check":false},"trial_type":"html-keyboard-response","trial_index":34,"time_elapsed":78917,"internal_node_id":"0.0-8.0-3.6","subject":"pk0g7ad3rlpkdjt","sona":"9688"},{"rt":820.7299999776296,"stimulus":"<p>Bereit?</p>","key_press":32,"trial_type":"html-keyboard-response","trial_index":35,"time_elapsed":79739,"internal_node_id":"0.0-8.0-0.7","subject":"pk0g7ad3rlpkdjt","sona":"9688"},{"rt":null,"stimulus":"<div style=\"font-size:60px;\">+</div>","key_press":null,"trial_type":"html-keyboard-response","trial_index":36,"time_elapsed":81740,"internal_node_id":"0.0-8.0-1.7","subject":"pk0g7ad3rlpkdjt","sona":"9688"},{"trial_type":"turing-test","trial_index":37,"time_elapsed":85081,"internal_node_id":"0.0-8.0-2.7","subject":"pk0g7ad3rlpkdjt","sona":"9688"},{"rt":325.0500000140164,"stimulus":"<p>Welche Sequenz haben Sie als natürlicher empfunden?</p>","key_press":70,"test_part":"response","test_stimulus":{"position":0,"left":"bvh/pass-bottle-hold-training0-lines.txt","right":"bvh/vr_prediction_models/model(vcgpdm)-dataset(pass-bottle-hold)-mode(ELBO)-parts(1)-dyn(35)-lvm(30)-hold(0)/final-lines.txt","att_check":false},"trial_type":"html-keyboard-response","trial_index":38,"time_elapsed":85407,"internal_node_id":"0.0-8.0-3.7","subject":"pk0g7ad3rlpkdjt","sona":"9688"},{"rt":269.479999988107,"stimulus":"<p>Bereit?</p>","key_press":32,"trial_type":"html-keyboard-response","trial_index":39,"time_elapsed":85678,"internal_node_id":"0.0-8.0-0.8","subject":"pk0g7ad3rlpkdjt","sona":"9688"},{"rt":null,"stimulus":"<div style=\"font-size:60px;\">+</div>","key_press":null,"trial_type":"html-keyboard-response","trial_index":40,"time_elapsed":87680,"internal_node_id":"0.0-8.0-1.8","subject":"pk0g7ad3rlpkdjt","sona":"9688"},{"trial_type":"turing-test","trial_index":41,"time_elapsed":91315,"internal_node_id":"0.0-8.0-2.8","subject":"pk0g7ad3rlpkdjt","sona":"9688"},{"rt":877.1750000014435,"stimulus":"<p>Welche Sequenz haben Sie als natürlicher empfunden?</p>","key_press":74,"test_part":"response","test_stimulus":{"position":0,"left":"bvh/return-bottle-hold-training3-lines.txt","right":"bvh/vr_prediction_models/model(vcgpdm)-dataset(return-bottle-hold)-mode(ELBO)-parts(3)-dyn(10)-lvm(25)-hold(3)/final-lines.txt","att_check":false},"trial_type":"html-keyboard-response","trial_index":42,"time_elapsed":92193,"internal_node_id":"0.0-8.0-3.8","subject":"pk0g7ad3rlpkdjt","sona":"9688"},{"rt":1482.6750000065658,"stimulus":"<p>Bereit?</p>","key_press":32,"trial_type":"html-keyboard-response","trial_index":43,"time_elapsed":93677,"internal_node_id":"0.0-8.0-0.9","subject":"pk0g7ad3rlpkdjt","sona":"9688"},{"rt":null,"stimulus":"<div style=\"font-size:60px;\">+</div>","key_press":null,"trial_type":"html-keyboard-response","trial_index":44,"time_elapsed":95679,"internal_node_id":"0.0-8.0-1.9","subject":"pk0g7ad3rlpkdjt","sona":"9688"},{"trial_type":"turing-test","trial_index":45,"time_elapsed":100758,"internal_node_id":"0.0-8.0-2.9","subject":"pk0g7ad3rlpkdjt","sona":"9688"},{"rt":2645.970000012312,"stimulus":"<p>Welche Sequenz haben Sie als natürlicher empfunden?</p>","key_press":74,"test_part":"response","test_stimulus":{"position":0,"left":"bvh/return-bottle-hold-training0-lines.txt","right":"bvh/vr_prediction_models/model(vcgpdm)-dataset(return-bottle-hold)-mode(ELBO)-parts(3)-dyn(10)-lvm(30)-hold(0)/final-lines.txt","att_check":false},"trial_type":"html-keyboard-response","trial_index":46,"time_elapsed":103405,"internal_node_id":"0.0-8.0-3.9","subject":"pk0g7ad3rlpkdjt","sona":"9688"},{"rt":294.47500000242144,"stimulus":"<p>Bereit?</p>","key_press":32,"trial_type":"html-keyboard-response","trial_index":47,"time_elapsed":103701,"internal_node_id":"0.0-8.0-0.10","subject":"pk0g7ad3rlpkdjt","sona":"9688"},{"rt":null,"stimulus":"<div style=\"font-size:60px;\">+</div>","key_press":null,"trial_type":"html-keyboard-response","trial_index":48,"time_elapsed":105704,"internal_node_id":"0.0-8.0-1.10","subject":"pk0g7ad3rlpkdjt","sona":"9688"},{"trial_type":"turing-test","trial_index":49,"time_elapsed":109252,"internal_node_id":"0.0-8.0-2.10","subject":"pk0g7ad3rlpkdjt","sona":"9688"},{"rt":265.1649999897927,"stimulus":"<p>Welche Sequenz haben Sie als natürlicher empfunden?</p>","key_press":70,"test_part":"response","test_stimulus":{"position":0,"left":"bvh/pass-bottle-hold-training3-lines.txt","right":"bvh/vr_prediction_models/model(vcgpdm)-dataset(pass-bottle-hold)-mode(ELBO)-parts(1)-dyn(15)-lvm(35)-hold(3)/final-lines.txt","att_check":false},"trial_type":"html-keyboard-response","trial_index":50,"time_elapsed":109519,"internal_node_id":"0.0-8.0-3.10","subject":"pk0g7ad3rlpkdjt","sona":"9688"},{"rt":304.7399999923073,"stimulus":"<p>Bereit?</p>","key_press":32,"trial_type":"html-keyboard-response","trial_index":51,"time_elapsed":109825,"internal_node_id":"0.0-8.0-0.11","subject":"pk0g7ad3rlpkdjt","sona":"9688"},{"rt":null,"stimulus":"<div style=\"font-size:60px;\">+</div>","key_press":null,"trial_type":"html-keyboard-response","trial_index":52,"time_elapsed":111827,"internal_node_id":"0.0-8.0-1.11","subject":"pk0g7ad3rlpkdjt","sona":"9688"}]