[{"rt":5914,"stimulus":"<p>Welcome!<br> Please choose your language to start the experiment in the chosen language.</p><p>Willkommen!<br> Bitte wählen Sie eine Sprache, um das Experiment in der ausgewählten Sprache zu starten</p>","button_pressed":"1","trial_type":"html-button-response","trial_index":0,"time_elapsed":5922,"internal_node_id":"0.0-0.0","subject":"y76ojlq7u4eorgf","sona":"7429"},{"view_history":"[{\"page_index\":0,\"viewing_time\":3531},{\"page_index\":1,\"viewing_time\":2140},{\"page_index\":2,\"viewing_time\":4269},{\"page_index\":3,\"viewing_time\":1333},{\"page_index\":4,\"viewing_time\":1185}]","rt":12459,"trial_type":"instructions","trial_index":1,"time_elapsed":18383,"internal_node_id":"0.0-1.0-0.0","subject":"y76ojlq7u4eorgf","sona":"7429"},{"rt":969,"stimulus":"<p>Bereit?</p>","key_press":32,"trial_type":"html-keyboard-response","trial_index":2,"time_elapsed":19354,"internal_node_id":"0.0-3.0","subject":"y76ojlq7u4eorgf","sona":"7429"},{"rt":null,"stimulus":"<div style=\"font-size:60px;\">+</div>","key_press":null,"trial_type":"html-keyboard-response","trial_index":3,"time_elapsed":21377,"internal_node_id":"0.0-4.0","subject":"y76ojlq7u4eorgf","sona":"7429"},{"trial_type":"training","trial_index":4,"time_elapsed":24779,"internal_node_id":"0.0-5.0","subject":"y76ojlq7u4eorgf","sona":"7429"},{"rt":305,"stimulus":"<p>Welche Sequenz haben Sie als natürlicher empfunden?</p>","key_press":70,"trial_type":"html-keyboard-response","trial_index":5,"time_elapsed":25085,"internal_node_id":"0.0-6.0","subject":"y76ojlq7u4eorgf","sona":"7429"},{"rt":2864,"stimulus":"<p>Das Experiment startet nun.</p><p><small>Bitte drücken Sie den Knopf, wenn Sie bereit sind.</small></p>","button_pressed":"0","trial_type":"html-button-response","trial_index":6,"time_elapsed":27950,"internal_node_id":"0.0-7.0","subject":"y76ojlq7u4eorgf","sona":"7429"},{"rt":991,"stimulus":"<p>Bereit?</p>","key_press":32,"trial_type":"html-keyboard-response","trial_index":7,"time_elapsed":28947,"internal_node_id":"0.0-8.0-0.0","subject":"y76ojlq7u4eorgf","sona":"7429"},{"rt":null,"stimulus":"<div style=\"font-size:60px;\">+</div>","key_press":null,"trial_type":"html-keyboard-response","trial_index":8,"time_elapsed":30952,"internal_node_id":"0.0-8.0-1.0","subject":"y76ojlq7u4eorgf","sona":"7429"},{"trial_type":"turing-test","trial_index":9,"time_elapsed":34629,"internal_node_id":"0.0-8.0-2.0","subject":"y76ojlq7u4eorgf","sona":"7429"},{"rt":1352,"stimulus":"<p>Welche Sequenz haben Sie als natürlicher empfunden?</p>","key_press":70,"test_part":"response","test_stimulus":{"position":0,"left":"bvh/return-bottle-hold-training4-lines.txt","right":"bvh/vr_prediction_models/model(dmp)-dataset(return-bottle-hold)-npsi(100)-hold(4)/final-lines.txt","att_check":false},"trial_type":"html-keyboard-response","trial_index":10,"time_elapsed":35984,"internal_node_id":"0.0-8.0-3.0","subject":"y76ojlq7u4eorgf","sona":"7429"},{"rt":3469,"stimulus":"<p>Bereit?</p>","key_press":32,"trial_type":"html-keyboard-response","trial_index":11,"time_elapsed":39456,"internal_node_id":"0.0-8.0-0.1","subject":"y76ojlq7u4eorgf","sona":"7429"},{"rt":null,"stimulus":"<div style=\"font-size:60px;\">+</div>","key_press":null,"trial_type":"html-keyboard-response","trial_index":12,"time_elapsed":41459,"internal_node_id":"0.0-8.0-1.1","subject":"y76ojlq7u4eorgf","sona":"7429"},{"trial_type":"turing-test","trial_index":13,"time_elapsed":44873,"internal_node_id":"0.0-8.0-2.1","subject":"y76ojlq7u4eorgf","sona":"7429"},{"rt":235,"stimulus":"<p>Welche Sequenz haben Sie als natürlicher empfunden?</p>","key_press":74,"test_part":"response","test_stimulus":{"position":1,"left":"bvh/vr_prediction_models/model(tmp)-dataset(return-bottle-hold)-numprim(11)-hold(1)/final-lines.txt","right":"bvh/return-bottle-hold-training1-lines.txt","att_check":false},"trial_type":"html-keyboard-response","trial_index":14,"time_elapsed":45110,"internal_node_id":"0.0-8.0-3.1","subject":"y76ojlq7u4eorgf","sona":"7429"},{"rt":401,"stimulus":"<p>Bereit?</p>","key_press":32,"trial_type":"html-keyboard-response","trial_index":15,"time_elapsed":45512,"internal_node_id":"0.0-8.0-0.2","subject":"y76ojlq7u4eorgf","sona":"7429"},{"rt":null,"stimulus":"<div style=\"font-size:60px;\">+</div>","key_press":null,"trial_type":"html-keyboard-response","trial_index":16,"time_elapsed":47514,"internal_node_id":"0.0-8.0-1.2","subject":"y76ojlq7u4eorgf","sona":"7429"},{"trial_type":"turing-test","trial_index":17,"time_elapsed":51226,"internal_node_id":"0.0-8.0-2.2","subject":"y76ojlq7u4eorgf","sona":"7429"},{"rt":348,"stimulus":"<p>Welche Sequenz haben Sie als natürlicher empfunden?</p>","key_press":70,"test_part":"response","test_stimulus":{"position":0,"left":"bvh/return-bottle-hold-training2-lines.txt","right":"bvh/vr_prediction_models/model(vcgpdm)-dataset(return-bottle-hold)-mode(ELBO)-parts(3)-dyn(10)-lvm(10)-hold(2)/final-lines.txt","att_check":false},"trial_type":"html-keyboard-response","trial_index":18,"time_elapsed":51575,"internal_node_id":"0.0-8.0-3.2","subject":"y76ojlq7u4eorgf","sona":"7429"},{"rt":623,"stimulus":"<p>Bereit?</p>","key_press":32,"trial_type":"html-keyboard-response","trial_index":19,"time_elapsed":52200,"internal_node_id":"0.0-8.0-0.3","subject":"y76ojlq7u4eorgf","sona":"7429"},{"rt":null,"stimulus":"<div style=\"font-size:60px;\">+</div>","key_press":null,"trial_type":"html-keyboard-response","trial_index":20,"time_elapsed":54217,"internal_node_id":"0.0-8.0-1.3","subject":"y76ojlq7u4eorgf","sona":"7429"},{"trial_type":"turing-test","trial_index":21,"time_elapsed":60148,"internal_node_id":"0.0-8.0-2.3","subject":"y76ojlq7u4eorgf","sona":"7429"},{"rt":30,"stimulus":"<p>Welche Sequenz haben Sie als natürlicher empfunden?</p>","key_press":74,"test_part":"response","test_stimulus":{"position":0,"left":"bvh/return-bottle-training3-lines.txt","right":"bvh/vr_prediction_models/model(vcgpdm)-dataset(return-bottle)-mode(ELBO)-parts(3)-dyn(10)-lvm(10)-hold(3)/final-lines.txt","att_check":false},"trial_type":"html-keyboard-response","trial_index":22,"time_elapsed":60182,"internal_node_id":"0.0-8.0-3.3","subject":"y76ojlq7u4eorgf","sona":"7429"},{"rt":988,"stimulus":"<p>Bereit?</p>","key_press":32,"trial_type":"html-keyboard-response","trial_index":23,"time_elapsed":61173,"internal_node_id":"0.0-8.0-0.4","subject":"y76ojlq7u4eorgf","sona":"7429"},{"rt":null,"stimulus":"<div style=\"font-size:60px;\">+</div>","key_press":null,"trial_type":"html-keyboard-response","trial_index":24,"time_elapsed":63180,"internal_node_id":"0.0-8.0-1.4","subject":"y76ojlq7u4eorgf","sona":"7429"},{"trial_type":"turing-test","trial_index":25,"time_elapsed":69499,"internal_node_id":"0.0-8.0-2.4","subject":"y76ojlq7u4eorgf","sona":"7429"},{"rt":302,"stimulus":"<p>Welche Sequenz haben Sie als natürlicher empfunden?</p>","key_press":70,"test_part":"response","test_stimulus":{"position":0,"left":"bvh/pass-bottle-training2-lines.txt","right":"bvh/vr_prediction_models/model(vcgpdm)-dataset(pass-bottle)-mode(ELBO)-parts(3)-dyn(20)-lvm(15)-hold(2)/final-lines.txt","att_check":false},"trial_type":"html-keyboard-response","trial_index":26,"time_elapsed":69802,"internal_node_id":"0.0-8.0-3.4","subject":"y76ojlq7u4eorgf","sona":"7429"},{"rt":494,"stimulus":"<p>Bereit?</p>","key_press":32,"trial_type":"html-keyboard-response","trial_index":27,"time_elapsed":70297,"internal_node_id":"0.0-8.0-0.5","subject":"y76ojlq7u4eorgf","sona":"7429"},{"rt":null,"stimulus":"<div style=\"font-size:60px;\">+</div>","key_press":null,"trial_type":"html-keyboard-response","trial_index":28,"time_elapsed":72313,"internal_node_id":"0.0-8.0-1.5","subject":"y76ojlq7u4eorgf","sona":"7429"},{"trial_type":"turing-test","trial_index":29,"time_elapsed":76090,"internal_node_id":"0.0-8.0-2.5","subject":"y76ojlq7u4eorgf","sona":"7429"},{"rt":969,"stimulus":"<p>Welche Sequenz haben Sie als natürlicher empfunden?</p>","key_press":74,"test_part":"response","test_stimulus":{"position":0,"left":"bvh/pass-bottle-hold-training4-lines.txt","right":"bvh/vr_prediction_models/model(vcgpdm)-dataset(pass-bottle-hold)-mode(ELBO)-parts(3)-dyn(20)-lvm(15)-hold(4)/final-lines.txt","att_check":false},"trial_type":"html-keyboard-response","trial_index":30,"time_elapsed":77062,"internal_node_id":"0.0-8.0-3.5","subject":"y76ojlq7u4eorgf","sona":"7429"},{"rt":603,"stimulus":"<p>Bereit?</p>","key_press":32,"trial_type":"html-keyboard-response","trial_index":31,"time_elapsed":77667,"internal_node_id":"0.0-8.0-0.6","subject":"y76ojlq7u4eorgf","sona":"7429"},{"rt":null,"stimulus":"<div style=\"font-size:60px;\">+</div>","key_press":null,"trial_type":"html-keyboard-response","trial_index":32,"time_elapsed":79684,"internal_node_id":"0.0-8.0-1.6","subject":"y76ojlq7u4eorgf","sona":"7429"},{"trial_type":"turing-test","trial_index":33,"time_elapsed":85148,"internal_node_id":"0.0-8.0-2.6","subject":"y76ojlq7u4eorgf","sona":"7429"},{"rt":295,"stimulus":"<p>Welche Sequenz haben Sie als natürlicher empfunden?</p>","key_press":70,"test_part":"response","test_stimulus":{"position":0,"left":"bvh/return-bottle-training0-lines.txt","right":"bvh/vr_prediction_models/model(dmp)-dataset(return-bottle)-npsi(40)-hold(0)/final-lines.txt","att_check":false},"trial_type":"html-keyboard-response","trial_index":34,"time_elapsed":85445,"internal_node_id":"0.0-8.0-3.6","subject":"y76ojlq7u4eorgf","sona":"7429"},{"rt":1721,"stimulus":"<p>Bereit?</p>","key_press":32,"trial_type":"html-keyboard-response","trial_index":35,"time_elapsed":87168,"internal_node_id":"0.0-8.0-0.7","subject":"y76ojlq7u4eorgf","sona":"7429"},{"rt":null,"stimulus":"<div style=\"font-size:60px;\">+</div>","key_press":null,"trial_type":"html-keyboard-response","trial_index":36,"time_elapsed":89195,"internal_node_id":"0.0-8.0-1.7","subject":"y76ojlq7u4eorgf","sona":"7429"},{"trial_type":"turing-test","trial_index":37,"time_elapsed":95524,"internal_node_id":"0.0-8.0-2.7","subject":"y76ojlq7u4eorgf","sona":"7429"},{"rt":79,"stimulus":"<p>Welche Sequenz haben Sie als natürlicher empfunden?</p>","key_press":70,"test_part":"response","test_stimulus":{"position":0,"left":"bvh/pass-bottle-training2-lines.txt","right":"bvh/vr_prediction_models/model(vcgpdm)-dataset(pass-bottle)-mode(ELBO)-parts(3)-dyn(20)-lvm(20)-hold(2)/final-lines.txt","att_check":false},"trial_type":"html-keyboard-response","trial_index":38,"time_elapsed":95604,"internal_node_id":"0.0-8.0-3.7","subject":"y76ojlq7u4eorgf","sona":"7429"},{"rt":403,"stimulus":"<p>Bereit?</p>","key_press":32,"trial_type":"html-keyboard-response","trial_index":39,"time_elapsed":96009,"internal_node_id":"0.0-8.0-0.8","subject":"y76ojlq7u4eorgf","sona":"7429"},{"rt":null,"stimulus":"<div style=\"font-size:60px;\">+</div>","key_press":null,"trial_type":"html-keyboard-response","trial_index":40,"time_elapsed":98039,"internal_node_id":"0.0-8.0-1.8","subject":"y76ojlq7u4eorgf","sona":"7429"},{"trial_type":"turing-test","trial_index":41,"time_elapsed":104784,"internal_node_id":"0.0-8.0-2.8","subject":"y76ojlq7u4eorgf","sona":"7429"},{"rt":634,"stimulus":"<p>Welche Sequenz haben Sie als natürlicher empfunden?</p>","key_press":74,"test_part":"response","test_stimulus":{"position":1,"left":"bvh/vr_prediction_models/model(vcgpdm)-dataset(return-bottle)-mode(ELBO)-parts(1)-dyn(30)-lvm(30)-hold(2)/final-lines.txt","right":"bvh/return-bottle-training2-lines.txt","att_check":false},"trial_type":"html-keyboard-response","trial_index":42,"time_elapsed":105420,"internal_node_id":"0.0-8.0-3.8","subject":"y76ojlq7u4eorgf","sona":"7429"},{"rt":6004,"stimulus":"<p>Bereit?</p>","key_press":32,"trial_type":"html-keyboard-response","trial_index":43,"time_elapsed":111426,"internal_node_id":"0.0-8.0-0.9","subject":"y76ojlq7u4eorgf","sona":"7429"},{"rt":null,"stimulus":"<div style=\"font-size:60px;\">+</div>","key_press":null,"trial_type":"html-keyboard-response","trial_index":44,"time_elapsed":113441,"internal_node_id":"0.0-8.0-1.9","subject":"y76ojlq7u4eorgf","sona":"7429"},{"trial_type":"turing-test","trial_index":45,"time_elapsed":117290,"internal_node_id":"0.0-8.0-2.9","subject":"y76ojlq7u4eorgf","sona":"7429"},{"rt":572,"stimulus":"<p>Welche Sequenz haben Sie als natürlicher empfunden?</p>","key_press":70,"test_part":"response","test_stimulus":{"position":0,"left":"bvh/pass-bottle-hold-training3-lines.txt","right":"bvh/vr_prediction_models/model(vcgpdm)-dataset(pass-bottle-hold)-mode(ELBO)-parts(1)-dyn(10)-lvm(5)-hold(3)/final-lines.txt","att_check":false},"trial_type":"html-keyboard-response","trial_index":46,"time_elapsed":117863,"internal_node_id":"0.0-8.0-3.9","subject":"y76ojlq7u4eorgf","sona":"7429"},{"rt":466,"stimulus":"<p>Bereit?</p>","key_press":32,"trial_type":"html-keyboard-response","trial_index":47,"time_elapsed":118331,"internal_node_id":"0.0-8.0-0.10","subject":"y76ojlq7u4eorgf","sona":"7429"},{"rt":null,"stimulus":"<div style=\"font-size:60px;\">+</div>","key_press":null,"trial_type":"html-keyboard-response","trial_index":48,"time_elapsed":120337,"internal_node_id":"0.0-8.0-1.10","subject":"y76ojlq7u4eorgf","sona":"7429"},{"trial_type":"turing-test","trial_index":49,"time_elapsed":126017,"internal_node_id":"0.0-8.0-2.10","subject":"y76ojlq7u4eorgf","sona":"7429"},{"rt":396,"stimulus":"<p>Welche Sequenz haben Sie als natürlicher empfunden?</p>","key_press":74,"test_part":"response","test_stimulus":{"position":0,"left":"bvh/pass-bottle-training4-lines.txt","right":"bvh/vr_prediction_models/model(tmp)-dataset(pass-bottle)-numprim(3)-hold(4)/final-lines.txt","att_check":false},"trial_type":"html-keyboard-response","trial_index":50,"time_elapsed":126415,"internal_node_id":"0.0-8.0-3.10","subject":"y76ojlq7u4eorgf","sona":"7429"},{"rt":403,"stimulus":"<p>Bereit?</p>","key_press":32,"trial_type":"html-keyboard-response","trial_index":51,"time_elapsed":126820,"internal_node_id":"0.0-8.0-0.11","subject":"y76ojlq7u4eorgf","sona":"7429"},{"rt":null,"stimulus":"<div style=\"font-size:60px;\">+</div>","key_press":null,"trial_type":"html-keyboard-response","trial_index":52,"time_elapsed":128830,"internal_node_id":"0.0-8.0-1.11","subject":"y76ojlq7u4eorgf","sona":"7429"},{"trial_type":"turing-test","trial_index":53,"time_elapsed":132456,"internal_node_id":"0.0-8.0-2.11","subject":"y76ojlq7u4eorgf","sona":"7429"}]