[{"rt":3688.964999979362,"stimulus":"<p>Welcome!<br> Please choose your language to start the experiment in the chosen language.</p><p>Willkommen!<br> Bitte wählen Sie eine Sprache, um das Experiment in der ausgewählten Sprache zu starten</p>","button_pressed":"1","trial_type":"html-button-response","trial_index":0,"time_elapsed":3750,"internal_node_id":"0.0-0.0","subject":"dtxhjrtj7684dvy","sona":"5338"},{"view_history":"[{\"page_index\":0,\"viewing_time\":10118.024999974295},{\"page_index\":1,\"viewing_time\":6214.005000016186},{\"page_index\":2,\"viewing_time\":4598.969999991823},{\"page_index\":3,\"viewing_time\":5034.325000015087},{\"page_index\":4,\"viewing_time\":3324.099999968894}]","rt":29290.574999991804,"trial_type":"instructions","trial_index":1,"time_elapsed":33043,"internal_node_id":"0.0-1.0-0.0","subject":"dtxhjrtj7684dvy","sona":"5338"},{"rt":3246.7949999845587,"stimulus":"<p>Bereit?</p>","key_press":32,"trial_type":"html-keyboard-response","trial_index":2,"time_elapsed":36292,"internal_node_id":"0.0-3.0","subject":"dtxhjrtj7684dvy","sona":"5338"},{"rt":null,"stimulus":"<div style=\"font-size:60px;\">+</div>","key_press":null,"trial_type":"html-keyboard-response","trial_index":3,"time_elapsed":38297,"internal_node_id":"0.0-4.0","subject":"dtxhjrtj7684dvy","sona":"5338"},{"trial_type":"training","trial_index":4,"time_elapsed":41740,"internal_node_id":"0.0-5.0","subject":"dtxhjrtj7684dvy","sona":"5338"},{"rt":1991.9999999692664,"stimulus":"<p>Welche Sequenz haben Sie als natürlicher empfunden?</p>","key_press":74,"trial_type":"html-keyboard-response","trial_index":5,"time_elapsed":43733,"internal_node_id":"0.0-6.0","subject":"dtxhjrtj7684dvy","sona":"5338"},{"rt":4662.300000025425,"stimulus":"<p>Das Experiment startet nun.</p><p><small>Bitte drücken Sie den Knopf, wenn Sie bereit sind.</small></p>","button_pressed":"0","trial_type":"html-button-response","trial_index":6,"time_elapsed":48398,"internal_node_id":"0.0-7.0","subject":"dtxhjrtj7684dvy","sona":"5338"},{"rt":1532.4550000368617,"stimulus":"<p>Bereit?</p>","key_press":32,"trial_type":"html-keyboard-response","trial_index":7,"time_elapsed":49932,"internal_node_id":"0.0-8.0-0.0","subject":"dtxhjrtj7684dvy","sona":"5338"},{"rt":null,"stimulus":"<div style=\"font-size:60px;\">+</div>","key_press":null,"trial_type":"html-keyboard-response","trial_index":8,"time_elapsed":51938,"internal_node_id":"0.0-8.0-1.0","subject":"dtxhjrtj7684dvy","sona":"5338"},{"trial_type":"turing-test","trial_index":9,"time_elapsed":55397,"internal_node_id":"0.0-8.0-2.0","subject":"dtxhjrtj7684dvy","sona":"5338"},{"rt":169.19500002404675,"stimulus":"<p>Welche Sequenz haben Sie als natürlicher empfunden?</p>","key_press":70,"test_part":"response","test_stimulus":{"position":0,"left":"bvh/return-bottle-hold-training1-lines.txt","right":"bvh/vr_prediction_models/model(tmp)-dataset(return-bottle-hold)-numprim(12)-hold(1)/final-lines.txt","att_check":false},"trial_type":"html-keyboard-response","trial_index":10,"time_elapsed":55572,"internal_node_id":"0.0-8.0-3.0","subject":"dtxhjrtj7684dvy","sona":"5338"},{"rt":1357.4050000170246,"stimulus":"<p>Bereit?</p>","key_press":32,"trial_type":"html-keyboard-response","trial_index":11,"time_elapsed":56934,"internal_node_id":"0.0-8.0-0.1","subject":"dtxhjrtj7684dvy","sona":"5338"},{"rt":null,"stimulus":"<div style=\"font-size:60px;\">+</div>","key_press":null,"trial_type":"html-keyboard-response","trial_index":12,"time_elapsed":58937,"internal_node_id":"0.0-8.0-1.1","subject":"dtxhjrtj7684dvy","sona":"5338"},{"trial_type":"turing-test","trial_index":13,"time_elapsed":62746,"internal_node_id":"0.0-8.0-2.1","subject":"dtxhjrtj7684dvy","sona":"5338"},{"rt":1560.9749999712221,"stimulus":"<p>Welche Sequenz haben Sie als natürlicher empfunden?</p>","key_press":70,"test_part":"response","test_stimulus":{"position":0,"left":"bvh/pass-bottle-hold-training4-lines.txt","right":"bvh/vr_prediction_models/model(vcgpdm)-dataset(pass-bottle-hold)-mode(ELBO)-parts(1)-dyn(25)-lvm(35)-hold(4)/final-lines.txt","att_check":false},"trial_type":"html-keyboard-response","trial_index":14,"time_elapsed":64310,"internal_node_id":"0.0-8.0-3.1","subject":"dtxhjrtj7684dvy","sona":"5338"},{"rt":1102.7999999932945,"stimulus":"<p>Bereit?</p>","key_press":32,"trial_type":"html-keyboard-response","trial_index":15,"time_elapsed":65415,"internal_node_id":"0.0-8.0-0.2","subject":"dtxhjrtj7684dvy","sona":"5338"},{"rt":null,"stimulus":"<div style=\"font-size:60px;\">+</div>","key_press":null,"trial_type":"html-keyboard-response","trial_index":16,"time_elapsed":67416,"internal_node_id":"0.0-8.0-1.2","subject":"dtxhjrtj7684dvy","sona":"5338"},{"trial_type":"turing-test","trial_index":17,"time_elapsed":70719,"internal_node_id":"0.0-8.0-2.2","subject":"dtxhjrtj7684dvy","sona":"5338"},{"rt":1204.8950000316836,"stimulus":"<p>Welche Sequenz haben Sie als natürlicher empfunden?</p>","key_press":74,"test_part":"response","test_stimulus":{"position":0,"left":"bvh/return-bottle-hold-training1-lines.txt","right":"bvh/vr_prediction_models/model(tmp)-dataset(return-bottle-hold)-numprim(12)-hold(1)/final-lines.txt","att_check":false},"trial_type":"html-keyboard-response","trial_index":18,"time_elapsed":71926,"internal_node_id":"0.0-8.0-3.2","subject":"dtxhjrtj7684dvy","sona":"5338"},{"rt":747.4800000200048,"stimulus":"<p>Bereit?</p>","key_press":32,"trial_type":"html-keyboard-response","trial_index":19,"time_elapsed":72676,"internal_node_id":"0.0-8.0-0.3","subject":"dtxhjrtj7684dvy","sona":"5338"},{"rt":null,"stimulus":"<div style=\"font-size:60px;\">+</div>","key_press":null,"trial_type":"html-keyboard-response","trial_index":20,"time_elapsed":74679,"internal_node_id":"0.0-8.0-1.3","subject":"dtxhjrtj7684dvy","sona":"5338"},{"trial_type":"turing-test","trial_index":21,"time_elapsed":78228,"internal_node_id":"0.0-8.0-2.3","subject":"dtxhjrtj7684dvy","sona":"5338"},{"rt":2088.9750000205822,"stimulus":"<p>Welche Sequenz haben Sie als natürlicher empfunden?</p>","key_press":74,"test_part":"response","test_stimulus":{"position":1,"left":"bvh/vr_prediction_models/model(vcgpdm)-dataset(pass-bottle-hold)-mode(ELBO)-parts(3)-dyn(35)-lvm(20)-hold(0)/final-lines.txt","right":"bvh/pass-bottle-hold-training0-lines.txt","att_check":false},"trial_type":"html-keyboard-response","trial_index":22,"time_elapsed":80321,"internal_node_id":"0.0-8.0-3.3","subject":"dtxhjrtj7684dvy","sona":"5338"},{"rt":1110.6049999943934,"stimulus":"<p>Bereit?</p>","key_press":32,"trial_type":"html-keyboard-response","trial_index":23,"time_elapsed":81434,"internal_node_id":"0.0-8.0-0.4","subject":"dtxhjrtj7684dvy","sona":"5338"},{"rt":null,"stimulus":"<div style=\"font-size:60px;\">+</div>","key_press":null,"trial_type":"html-keyboard-response","trial_index":24,"time_elapsed":83437,"internal_node_id":"0.0-8.0-1.4","subject":"dtxhjrtj7684dvy","sona":"5338"},{"trial_type":"turing-test","trial_index":25,"time_elapsed":89809,"internal_node_id":"0.0-8.0-2.4","subject":"dtxhjrtj7684dvy","sona":"5338"},{"rt":1567.159999976866,"stimulus":"<p>Welche Sequenz haben Sie als natürlicher empfunden?</p>","key_press":74,"test_part":"response","test_stimulus":{"position":1,"left":"bvh/vr_prediction_models/model(vcgpdm)-dataset(pass-bottle)-mode(ELBO)-parts(1)-dyn(30)-lvm(30)-hold(2)/final-lines.txt","right":"bvh/pass-bottle-training2-lines.txt","att_check":false},"trial_type":"html-keyboard-response","trial_index":26,"time_elapsed":91379,"internal_node_id":"0.0-8.0-3.4","subject":"dtxhjrtj7684dvy","sona":"5338"},{"rt":528.2749999896623,"stimulus":"<p>Bereit?</p>","key_press":32,"trial_type":"html-keyboard-response","trial_index":27,"time_elapsed":91910,"internal_node_id":"0.0-8.0-0.5","subject":"dtxhjrtj7684dvy","sona":"5338"},{"rt":null,"stimulus":"<div style=\"font-size:60px;\">+</div>","key_press":null,"trial_type":"html-keyboard-response","trial_index":28,"time_elapsed":93913,"internal_node_id":"0.0-8.0-1.5","subject":"dtxhjrtj7684dvy","sona":"5338"},{"trial_type":"turing-test","trial_index":29,"time_elapsed":97513,"internal_node_id":"0.0-8.0-2.5","subject":"dtxhjrtj7684dvy","sona":"5338"},{"rt":702.5949999806471,"stimulus":"<p>Welche Sequenz haben Sie als natürlicher empfunden?</p>","key_press":70,"test_part":"response","test_stimulus":{"position":1,"left":"bvh/vr_prediction_models/model(tmp)-dataset(pass-bottle-hold)-numprim(7)-hold(4)/final-lines.txt","right":"bvh/pass-bottle-hold-training4-lines.txt","att_check":false},"trial_type":"html-keyboard-response","trial_index":30,"time_elapsed":98221,"internal_node_id":"0.0-8.0-3.5","subject":"dtxhjrtj7684dvy","sona":"5338"},{"rt":1163.6450000223704,"stimulus":"<p>Bereit?</p>","key_press":32,"trial_type":"html-keyboard-response","trial_index":31,"time_elapsed":99387,"internal_node_id":"0.0-8.0-0.6","subject":"dtxhjrtj7684dvy","sona":"5338"},{"rt":null,"stimulus":"<div style=\"font-size:60px;\">+</div>","key_press":null,"trial_type":"html-keyboard-response","trial_index":32,"time_elapsed":101390,"internal_node_id":"0.0-8.0-1.6","subject":"dtxhjrtj7684dvy","sona":"5338"},{"trial_type":"turing-test","trial_index":33,"time_elapsed":107283,"internal_node_id":"0.0-8.0-2.6","subject":"dtxhjrtj7684dvy","sona":"5338"},{"rt":387.87999999476597,"stimulus":"<p>Welche Sequenz haben Sie als natürlicher empfunden?</p>","key_press":70,"test_part":"response","test_stimulus":{"position":0,"left":"bvh/pass-bottle-training3-lines.txt","right":"bvh/vr_prediction_models/model(tmp)-dataset(pass-bottle)-numprim(6)-hold(3)/final-lines.txt","att_check":false},"trial_type":"html-keyboard-response","trial_index":34,"time_elapsed":107676,"internal_node_id":"0.0-8.0-3.6","subject":"dtxhjrtj7684dvy","sona":"5338"},{"rt":683.7950000190176,"stimulus":"<p>Bereit?</p>","key_press":32,"trial_type":"html-keyboard-response","trial_index":35,"time_elapsed":108363,"internal_node_id":"0.0-8.0-0.7","subject":"dtxhjrtj7684dvy","sona":"5338"},{"rt":null,"stimulus":"<div style=\"font-size:60px;\">+</div>","key_press":null,"trial_type":"html-keyboard-response","trial_index":36,"time_elapsed":110366,"internal_node_id":"0.0-8.0-1.7","subject":"dtxhjrtj7684dvy","sona":"5338"},{"trial_type":"turing-test","trial_index":37,"time_elapsed":113863,"internal_node_id":"0.0-8.0-2.7","subject":"dtxhjrtj7684dvy","sona":"5338"},{"rt":2025.7850000052713,"stimulus":"<p>Welche Sequenz haben Sie als natürlicher empfunden?</p>","key_press":70,"test_part":"response","test_stimulus":{"position":1,"left":"bvh/vr_prediction_models/model(vcgpdm)-dataset(pass-bottle-hold)-mode(ELBO)-parts(3)-dyn(25)-lvm(30)-hold(1)/final-lines.txt","right":"bvh/pass-bottle-hold-training1-lines.txt","att_check":false},"trial_type":"html-keyboard-response","trial_index":38,"time_elapsed":115894,"internal_node_id":"0.0-8.0-3.7","subject":"dtxhjrtj7684dvy","sona":"5338"},{"rt":1821.7449999647215,"stimulus":"<p>Bereit?</p>","key_press":32,"trial_type":"html-keyboard-response","trial_index":39,"time_elapsed":117719,"internal_node_id":"0.0-8.0-0.8","subject":"dtxhjrtj7684dvy","sona":"5338"},{"rt":null,"stimulus":"<div style=\"font-size:60px;\">+</div>","key_press":null,"trial_type":"html-keyboard-response","trial_index":40,"time_elapsed":119723,"internal_node_id":"0.0-8.0-1.8","subject":"dtxhjrtj7684dvy","sona":"5338"},{"trial_type":"turing-test","trial_index":41,"time_elapsed":124910,"internal_node_id":"0.0-8.0-2.8","subject":"dtxhjrtj7684dvy","sona":"5338"},{"rt":523.2549999491312,"stimulus":"<p>Welche Sequenz haben Sie als natürlicher empfunden?</p>","key_press":70,"test_part":"response","test_stimulus":{"position":0,"left":"bvh/return-bottle-hold-training0-lines.txt","right":"bvh/vr_prediction_models/model(dmp)-dataset(return-bottle-hold)-npsi(60)-hold(0)/final-lines.txt","att_check":false},"trial_type":"html-keyboard-response","trial_index":42,"time_elapsed":125438,"internal_node_id":"0.0-8.0-3.8","subject":"dtxhjrtj7684dvy","sona":"5338"},{"rt":591.7450000415556,"stimulus":"<p>Bereit?</p>","key_press":32,"trial_type":"html-keyboard-response","trial_index":43,"time_elapsed":126032,"internal_node_id":"0.0-8.0-0.9","subject":"dtxhjrtj7684dvy","sona":"5338"},{"rt":null,"stimulus":"<div style=\"font-size:60px;\">+</div>","key_press":null,"trial_type":"html-keyboard-response","trial_index":44,"time_elapsed":128034,"internal_node_id":"0.0-8.0-1.9","subject":"dtxhjrtj7684dvy","sona":"5338"},{"trial_type":"turing-test","trial_index":45,"time_elapsed":133903,"internal_node_id":"0.0-8.0-2.9","subject":"dtxhjrtj7684dvy","sona":"5338"},{"rt":640.9100000164472,"stimulus":"<p>Welche Sequenz haben Sie als natürlicher empfunden?</p>","key_press":70,"test_part":"response","test_stimulus":{"position":0,"left":"bvh/pass-bottle-training3-lines.txt","right":"bvh/vr_prediction_models/model(dmp)-dataset(pass-bottle)-npsi(20)-hold(3)/final-lines.txt","att_check":false},"trial_type":"html-keyboard-response","trial_index":46,"time_elapsed":134547,"internal_node_id":"0.0-8.0-3.9","subject":"dtxhjrtj7684dvy","sona":"5338"},{"rt":524.7849999577738,"stimulus":"<p>Bereit?</p>","key_press":32,"trial_type":"html-keyboard-response","trial_index":47,"time_elapsed":135074,"internal_node_id":"0.0-8.0-0.10","subject":"dtxhjrtj7684dvy","sona":"5338"},{"rt":null,"stimulus":"<div style=\"font-size:60px;\">+</div>","key_press":null,"trial_type":"html-keyboard-response","trial_index":48,"time_elapsed":137078,"internal_node_id":"0.0-8.0-1.10","subject":"dtxhjrtj7684dvy","sona":"5338"},{"trial_type":"turing-test","trial_index":49,"time_elapsed":140567,"internal_node_id":"0.0-8.0-2.10","subject":"dtxhjrtj7684dvy","sona":"5338"},{"rt":1473.6499999999069,"stimulus":"<p>Welche Sequenz haben Sie als natürlicher empfunden?</p>","key_press":74,"test_part":"response","test_stimulus":{"position":1,"left":"bvh/vr_prediction_models/model(vcgpdm)-dataset(pass-bottle-hold)-mode(ELBO)-parts(3)-dyn(10)-lvm(30)-hold(2)/final-lines.txt","right":"bvh/pass-bottle-hold-training2-lines.txt","att_check":false},"trial_type":"html-keyboard-response","trial_index":50,"time_elapsed":142044,"internal_node_id":"0.0-8.0-3.10","subject":"dtxhjrtj7684dvy","sona":"5338"},{"rt":466.60500002326444,"stimulus":"<p>Bereit?</p>","key_press":32,"trial_type":"html-keyboard-response","trial_index":51,"time_elapsed":142513,"internal_node_id":"0.0-8.0-0.11","subject":"dtxhjrtj7684dvy","sona":"5338"},{"rt":null,"stimulus":"<div style=\"font-size:60px;\">+</div>","key_press":null,"trial_type":"html-keyboard-response","trial_index":52,"time_elapsed":144517,"internal_node_id":"0.0-8.0-1.11","subject":"dtxhjrtj7684dvy","sona":"5338"}]