[{"rt":3157,"stimulus":"<p>Welcome!<br> Please choose your language to start the experiment in the chosen language.</p><p>Willkommen!<br> Bitte wählen Sie eine Sprache, um das Experiment in der ausgewählten Sprache zu starten</p>","button_pressed":"1","trial_type":"html-button-response","trial_index":0,"time_elapsed":3164,"internal_node_id":"0.0-0.0","subject":"00qqp089tz364ge","sona":"7477"},{"view_history":"[{\"page_index\":0,\"viewing_time\":7620},{\"page_index\":1,\"viewing_time\":2505},{\"page_index\":2,\"viewing_time\":8303},{\"page_index\":3,\"viewing_time\":3559},{\"page_index\":4,\"viewing_time\":3137}]","rt":25125,"trial_type":"instructions","trial_index":1,"time_elapsed":28292,"internal_node_id":"0.0-1.0-0.0","subject":"00qqp089tz364ge","sona":"7477"},{"rt":1842,"stimulus":"<p>Bereit?</p>","key_press":32,"trial_type":"html-keyboard-response","trial_index":2,"time_elapsed":30137,"internal_node_id":"0.0-3.0","subject":"00qqp089tz364ge","sona":"7477"},{"rt":null,"stimulus":"<div style=\"font-size:60px;\">+</div>","key_press":null,"trial_type":"html-keyboard-response","trial_index":3,"time_elapsed":32161,"internal_node_id":"0.0-4.0","subject":"00qqp089tz364ge","sona":"7477"},{"trial_type":"training","trial_index":4,"time_elapsed":36273,"internal_node_id":"0.0-5.0","subject":"00qqp089tz364ge","sona":"7477"},{"rt":3599,"stimulus":"<p>Welche Sequenz haben Sie als natürlicher empfunden?</p>","key_press":70,"trial_type":"html-keyboard-response","trial_index":5,"time_elapsed":39878,"internal_node_id":"0.0-6.0","subject":"00qqp089tz364ge","sona":"7477"},{"rt":4508,"stimulus":"<p>Das Experiment startet nun.</p><p><small>Bitte drücken Sie den Knopf, wenn Sie bereit sind.</small></p>","button_pressed":"0","trial_type":"html-button-response","trial_index":6,"time_elapsed":44388,"internal_node_id":"0.0-7.0","subject":"00qqp089tz364ge","sona":"7477"},{"rt":1238,"stimulus":"<p>Bereit?</p>","key_press":32,"trial_type":"html-keyboard-response","trial_index":7,"time_elapsed":45628,"internal_node_id":"0.0-8.0-0.0","subject":"00qqp089tz364ge","sona":"7477"},{"rt":null,"stimulus":"<div style=\"font-size:60px;\">+</div>","key_press":null,"trial_type":"html-keyboard-response","trial_index":8,"time_elapsed":47655,"internal_node_id":"0.0-8.0-1.0","subject":"00qqp089tz364ge","sona":"7477"},{"trial_type":"turing-test","trial_index":9,"time_elapsed":53612,"internal_node_id":"0.0-8.0-2.0","subject":"00qqp089tz364ge","sona":"7477"},{"rt":507,"stimulus":"<p>Welche Sequenz haben Sie als natürlicher empfunden?</p>","key_press":74,"test_part":"response","test_stimulus":{"position":0,"left":"bvh/return-bottle-training4-lines.txt","right":"bvh/vr_prediction_models/model(vcgpdm)-dataset(return-bottle)-mode(ELBO)-parts(3)-dyn(30)-lvm(15)-hold(4)/final-lines.txt","att_check":false},"trial_type":"html-keyboard-response","trial_index":10,"time_elapsed":54124,"internal_node_id":"0.0-8.0-3.0","subject":"00qqp089tz364ge","sona":"7477"},{"rt":927,"stimulus":"<p>Bereit?</p>","key_press":32,"trial_type":"html-keyboard-response","trial_index":11,"time_elapsed":55055,"internal_node_id":"0.0-8.0-0.1","subject":"00qqp089tz364ge","sona":"7477"},{"rt":null,"stimulus":"<div style=\"font-size:60px;\">+</div>","key_press":null,"trial_type":"html-keyboard-response","trial_index":12,"time_elapsed":57091,"internal_node_id":"0.0-8.0-1.1","subject":"00qqp089tz364ge","sona":"7477"},{"trial_type":"turing-test","trial_index":13,"time_elapsed":62992,"internal_node_id":"0.0-8.0-2.1","subject":"00qqp089tz364ge","sona":"7477"},{"rt":753,"stimulus":"<p>Welche Sequenz haben Sie als natürlicher empfunden?</p>","key_press":74,"test_part":"response","test_stimulus":{"position":0,"left":"bvh/pass-bottle-training3-lines.txt","right":"bvh/vr_prediction_models/model(tmp)-dataset(pass-bottle)-numprim(8)-hold(3)/final-lines.txt","att_check":false},"trial_type":"html-keyboard-response","trial_index":14,"time_elapsed":63748,"internal_node_id":"0.0-8.0-3.1","subject":"00qqp089tz364ge","sona":"7477"},{"rt":538,"stimulus":"<p>Bereit?</p>","key_press":32,"trial_type":"html-keyboard-response","trial_index":15,"time_elapsed":64289,"internal_node_id":"0.0-8.0-0.2","subject":"00qqp089tz364ge","sona":"7477"},{"rt":null,"stimulus":"<div style=\"font-size:60px;\">+</div>","key_press":null,"trial_type":"html-keyboard-response","trial_index":16,"time_elapsed":66302,"internal_node_id":"0.0-8.0-1.2","subject":"00qqp089tz364ge","sona":"7477"},{"trial_type":"turing-test","trial_index":17,"time_elapsed":72111,"internal_node_id":"0.0-8.0-2.2","subject":"00qqp089tz364ge","sona":"7477"},{"rt":532,"stimulus":"<p>Welche Sequenz haben Sie als natürlicher empfunden?</p>","key_press":70,"test_part":"response","test_stimulus":{"position":1,"left":"bvh/vr_prediction_models/model(tmp)-dataset(return-bottle)-numprim(3)-hold(3)/final-lines.txt","right":"bvh/return-bottle-training3-lines.txt","att_check":false},"trial_type":"html-keyboard-response","trial_index":18,"time_elapsed":72648,"internal_node_id":"0.0-8.0-3.2","subject":"00qqp089tz364ge","sona":"7477"},{"rt":745,"stimulus":"<p>Bereit?</p>","key_press":32,"trial_type":"html-keyboard-response","trial_index":19,"time_elapsed":73396,"internal_node_id":"0.0-8.0-0.3","subject":"00qqp089tz364ge","sona":"7477"},{"rt":null,"stimulus":"<div style=\"font-size:60px;\">+</div>","key_press":null,"trial_type":"html-keyboard-response","trial_index":20,"time_elapsed":75421,"internal_node_id":"0.0-8.0-1.3","subject":"00qqp089tz364ge","sona":"7477"},{"trial_type":"turing-test","trial_index":21,"time_elapsed":80621,"internal_node_id":"0.0-8.0-2.3","subject":"00qqp089tz364ge","sona":"7477"},{"rt":1434,"stimulus":"<p>Welche Sequenz haben Sie als natürlicher empfunden?</p>","key_press":74,"test_part":"response","test_stimulus":{"position":1,"left":"bvh/vr_prediction_models/model(tmp)-dataset(return-bottle-hold)-numprim(6)-hold(0)/final-lines.txt","right":"bvh/return-bottle-hold-training0-lines.txt","att_check":false},"trial_type":"html-keyboard-response","trial_index":22,"time_elapsed":82061,"internal_node_id":"0.0-8.0-3.3","subject":"00qqp089tz364ge","sona":"7477"},{"rt":489,"stimulus":"<p>Bereit?</p>","key_press":32,"trial_type":"html-keyboard-response","trial_index":23,"time_elapsed":82554,"internal_node_id":"0.0-8.0-0.4","subject":"00qqp089tz364ge","sona":"7477"},{"rt":null,"stimulus":"<div style=\"font-size:60px;\">+</div>","key_press":null,"trial_type":"html-keyboard-response","trial_index":24,"time_elapsed":84581,"internal_node_id":"0.0-8.0-1.4","subject":"00qqp089tz364ge","sona":"7477"},{"trial_type":"turing-test","trial_index":25,"time_elapsed":88142,"internal_node_id":"0.0-8.0-2.4","subject":"00qqp089tz364ge","sona":"7477"},{"rt":1067,"stimulus":"<p>Welche Sequenz haben Sie als natürlicher empfunden?</p>","key_press":74,"test_part":"response","test_stimulus":{"position":1,"left":"bvh/vr_prediction_models/model(tmp)-dataset(return-bottle-hold)-numprim(12)-hold(2)/final-lines.txt","right":"bvh/return-bottle-hold-training2-lines.txt","att_check":false},"trial_type":"html-keyboard-response","trial_index":26,"time_elapsed":89214,"internal_node_id":"0.0-8.0-3.4","subject":"00qqp089tz364ge","sona":"7477"},{"rt":313,"stimulus":"<p>Bereit?</p>","key_press":32,"trial_type":"html-keyboard-response","trial_index":27,"time_elapsed":89529,"internal_node_id":"0.0-8.0-0.5","subject":"00qqp089tz364ge","sona":"7477"},{"rt":null,"stimulus":"<div style=\"font-size:60px;\">+</div>","key_press":null,"trial_type":"html-keyboard-response","trial_index":28,"time_elapsed":91561,"internal_node_id":"0.0-8.0-1.5","subject":"00qqp089tz364ge","sona":"7477"},{"trial_type":"turing-test","trial_index":29,"time_elapsed":94971,"internal_node_id":"0.0-8.0-2.5","subject":"00qqp089tz364ge","sona":"7477"},{"rt":835,"stimulus":"<p>Welche Sequenz haben Sie als natürlicher empfunden?</p>","key_press":74,"test_part":"response","test_stimulus":{"position":1,"left":"bvh/vr_prediction_models/model(vcgpdm)-dataset(pass-bottle-hold)-mode(ELBO)-parts(3)-dyn(20)-lvm(15)-hold(1)/final-lines.txt","right":"bvh/pass-bottle-hold-training1-lines.txt","att_check":false},"trial_type":"html-keyboard-response","trial_index":30,"time_elapsed":95807,"internal_node_id":"0.0-8.0-3.5","subject":"00qqp089tz364ge","sona":"7477"},{"rt":314,"stimulus":"<p>Bereit?</p>","key_press":32,"trial_type":"html-keyboard-response","trial_index":31,"time_elapsed":96126,"internal_node_id":"0.0-8.0-0.6","subject":"00qqp089tz364ge","sona":"7477"},{"rt":null,"stimulus":"<div style=\"font-size:60px;\">+</div>","key_press":null,"trial_type":"html-keyboard-response","trial_index":32,"time_elapsed":98150,"internal_node_id":"0.0-8.0-1.6","subject":"00qqp089tz364ge","sona":"7477"},{"trial_type":"turing-test","trial_index":33,"time_elapsed":101551,"internal_node_id":"0.0-8.0-2.6","subject":"00qqp089tz364ge","sona":"7477"},{"rt":681,"stimulus":"<p>Welche Sequenz haben Sie als natürlicher empfunden?</p>","key_press":70,"test_part":"response","test_stimulus":{"position":1,"left":"bvh/vr_prediction_models/model(dmp)-dataset(pass-bottle-hold)-npsi(60)-hold(0)/final-lines.txt","right":"bvh/pass-bottle-hold-training0-lines.txt","att_check":false},"trial_type":"html-keyboard-response","trial_index":34,"time_elapsed":102236,"internal_node_id":"0.0-8.0-3.6","subject":"00qqp089tz364ge","sona":"7477"},{"rt":538,"stimulus":"<p>Bereit?</p>","key_press":32,"trial_type":"html-keyboard-response","trial_index":35,"time_elapsed":102777,"internal_node_id":"0.0-8.0-0.7","subject":"00qqp089tz364ge","sona":"7477"},{"rt":null,"stimulus":"<div style=\"font-size:60px;\">+</div>","key_press":null,"trial_type":"html-keyboard-response","trial_index":36,"time_elapsed":104800,"internal_node_id":"0.0-8.0-1.7","subject":"00qqp089tz364ge","sona":"7477"},{"trial_type":"turing-test","trial_index":37,"time_elapsed":110010,"internal_node_id":"0.0-8.0-2.7","subject":"00qqp089tz364ge","sona":"7477"},{"rt":776,"stimulus":"<p>Welche Sequenz haben Sie als natürlicher empfunden?</p>","key_press":74,"test_part":"response","test_stimulus":{"position":1,"left":"bvh/vr_prediction_models/model(vcgpdm)-dataset(return-bottle-hold)-mode(ELBO)-parts(3)-dyn(20)-lvm(15)-hold(0)/final-lines.txt","right":"bvh/return-bottle-hold-training0-lines.txt","att_check":false},"trial_type":"html-keyboard-response","trial_index":38,"time_elapsed":110790,"internal_node_id":"0.0-8.0-3.7","subject":"00qqp089tz364ge","sona":"7477"},{"rt":329,"stimulus":"<p>Bereit?</p>","key_press":32,"trial_type":"html-keyboard-response","trial_index":39,"time_elapsed":111124,"internal_node_id":"0.0-8.0-0.8","subject":"00qqp089tz364ge","sona":"7477"},{"rt":null,"stimulus":"<div style=\"font-size:60px;\">+</div>","key_press":null,"trial_type":"html-keyboard-response","trial_index":40,"time_elapsed":113130,"internal_node_id":"0.0-8.0-1.8","subject":"00qqp089tz364ge","sona":"7477"},{"trial_type":"turing-test","trial_index":41,"time_elapsed":119309,"internal_node_id":"0.0-8.0-2.8","subject":"00qqp089tz364ge","sona":"7477"},{"rt":1820,"stimulus":"<p>Welche Sequenz haben Sie als natürlicher empfunden?</p>","key_press":74,"test_part":"response","test_stimulus":{"position":0,"left":"bvh/pass-bottle-training2-lines.txt","right":"bvh/vr_prediction_models/model(tmp)-dataset(pass-bottle)-numprim(15)-hold(2)/final-lines.txt","att_check":false},"trial_type":"html-keyboard-response","trial_index":42,"time_elapsed":121133,"internal_node_id":"0.0-8.0-3.8","subject":"00qqp089tz364ge","sona":"7477"},{"rt":355,"stimulus":"<p>Bereit?</p>","key_press":32,"trial_type":"html-keyboard-response","trial_index":43,"time_elapsed":121492,"internal_node_id":"0.0-8.0-0.9","subject":"00qqp089tz364ge","sona":"7477"},{"rt":null,"stimulus":"<div style=\"font-size:60px;\">+</div>","key_press":null,"trial_type":"html-keyboard-response","trial_index":44,"time_elapsed":123530,"internal_node_id":"0.0-8.0-1.9","subject":"00qqp089tz364ge","sona":"7477"},{"trial_type":"turing-test","trial_index":45,"time_elapsed":127010,"internal_node_id":"0.0-8.0-2.9","subject":"00qqp089tz364ge","sona":"7477"},{"rt":887,"stimulus":"<p>Welche Sequenz haben Sie als natürlicher empfunden?</p>","key_press":70,"test_part":"response","test_stimulus":{"position":0,"left":"bvh/pass-bottle-hold-training0-lines.txt","right":"bvh/vr_prediction_models/model(vcgpdm)-dataset(pass-bottle-hold)-mode(ELBO)-parts(1)-dyn(20)-lvm(30)-hold(0)/final-lines.txt","att_check":false},"trial_type":"html-keyboard-response","trial_index":46,"time_elapsed":127902,"internal_node_id":"0.0-8.0-3.9","subject":"00qqp089tz364ge","sona":"7477"},{"rt":370,"stimulus":"<p>Bereit?</p>","key_press":32,"trial_type":"html-keyboard-response","trial_index":47,"time_elapsed":128276,"internal_node_id":"0.0-8.0-0.10","subject":"00qqp089tz364ge","sona":"7477"},{"rt":null,"stimulus":"<div style=\"font-size:60px;\">+</div>","key_press":null,"trial_type":"html-keyboard-response","trial_index":48,"time_elapsed":130299,"internal_node_id":"0.0-8.0-1.10","subject":"00qqp089tz364ge","sona":"7477"},{"trial_type":"turing-test","trial_index":49,"time_elapsed":136169,"internal_node_id":"0.0-8.0-2.10","subject":"00qqp089tz364ge","sona":"7477"},{"rt":528,"stimulus":"<p>Welche Sequenz haben Sie als natürlicher empfunden?</p>","key_press":74,"test_part":"response","test_stimulus":{"position":0,"left":"bvh/pass-bottle-training4-lines.txt","right":"bvh/vr_prediction_models/model(vcgpdm)-dataset(pass-bottle)-mode(ELBO)-parts(3)-dyn(25)-lvm(25)-hold(4)/final-lines.txt","att_check":false},"trial_type":"html-keyboard-response","trial_index":50,"time_elapsed":136704,"internal_node_id":"0.0-8.0-3.10","subject":"00qqp089tz364ge","sona":"7477"},{"rt":315,"stimulus":"<p>Bereit?</p>","key_press":32,"trial_type":"html-keyboard-response","trial_index":51,"time_elapsed":137022,"internal_node_id":"0.0-8.0-0.11","subject":"00qqp089tz364ge","sona":"7477"},{"rt":null,"stimulus":"<div style=\"font-size:60px;\">+</div>","key_press":null,"trial_type":"html-keyboard-response","trial_index":52,"time_elapsed":139050,"internal_node_id":"0.0-8.0-1.11","subject":"00qqp089tz364ge","sona":"7477"},{"trial_type":"turing-test","trial_index":53,"time_elapsed":146114,"internal_node_id":"0.0-8.0-2.11","subject":"00qqp089tz364ge","sona":"7477"},{"rt":951,"stimulus":"<p>Welche Sequenz haben Sie als natürlicher empfunden?</p>","key_press":70,"test_part":"response","test_stimulus":{"position":0,"left":"bvh/pass-bottle-training0-lines.txt","right":"bvh/vr_prediction_models/model(vcgpdm)-dataset(pass-bottle)-mode(ELBO)-parts(1)-dyn(10)-lvm(30)-hold(0)/final-lines.txt","att_check":false},"trial_type":"html-keyboard-response","trial_index":54,"time_elapsed":147070,"internal_node_id":"0.0-8.0-3.11","subject":"00qqp089tz364ge","sona":"7477"},{"rt":532,"stimulus":"<p>Bereit?</p>","key_press":32,"trial_type":"html-keyboard-response","trial_index":55,"time_elapsed":147605,"internal_node_id":"0.0-8.0-0.12","subject":"00qqp089tz364ge","sona":"7477"},{"rt":null,"stimulus":"<div style=\"font-size:60px;\">+</div>","key_press":null,"trial_type":"html-keyboard-response","trial_index":56,"time_elapsed":149634,"internal_node_id":"0.0-8.0-1.12","subject":"00qqp089tz364ge","sona":"7477"},{"trial_type":"turing-test","trial_index":57,"time_elapsed":152973,"internal_node_id":"0.0-8.0-2.12","subject":"00qqp089tz364ge","sona":"7477"},{"rt":1159,"stimulus":"<p>Welche Sequenz haben Sie als natürlicher empfunden?</p>","key_press":70,"test_part":"response","test_stimulus":{"position":0,"left":"bvh/pass-bottle-hold-training0-lines.txt","right":"bvh/vr_prediction_models/model(tmp)-dataset(pass-bottle-hold)-numprim(7)-hold(0)/final-lines.txt","att_check":false},"trial_type":"html-keyboard-response","trial_index":58,"time_elapsed":154136,"internal_node_id":"0.0-8.0-3.12","subject":"00qqp089tz364ge","sona":"7477"},{"rt":290,"stimulus":"<p>Bereit?</p>","key_press":32,"trial_type":"html-keyboard-response","trial_index":59,"time_elapsed":154430,"internal_node_id":"0.0-8.0-0.13","subject":"00qqp089tz364ge","sona":"7477"},{"rt":null,"stimulus":"<div style=\"font-size:60px;\">+</div>","key_press":null,"trial_type":"html-keyboard-response","trial_index":60,"time_elapsed":156463,"internal_node_id":"0.0-8.0-1.13","subject":"00qqp089tz364ge","sona":"7477"},{"trial_type":"turing-test","trial_index":61,"time_elapsed":160273,"internal_node_id":"0.0-8.0-2.13","subject":"00qqp089tz364ge","sona":"7477"},{"rt":666,"stimulus":"<p>Welche Sequenz haben Sie als natürlicher empfunden?</p>","key_press":70,"test_part":"response","test_stimulus":{"position":0,"left":"bvh/return-bottle-hold-training4-lines.txt","right":"bvh/vr_prediction_models/model(dmp)-dataset(return-bottle-hold)-npsi(90)-hold(4)/final-lines.txt","att_check":false},"trial_type":"html-keyboard-response","trial_index":62,"time_elapsed":160945,"internal_node_id":"0.0-8.0-3.13","subject":"00qqp089tz364ge","sona":"7477"},{"rt":275,"stimulus":"<p>Bereit?</p>","key_press":32,"trial_type":"html-keyboard-response","trial_index":63,"time_elapsed":161223,"internal_node_id":"0.0-8.0-0.14","subject":"00qqp089tz364ge","sona":"7477"},{"rt":null,"stimulus":"<div style=\"font-size:60px;\">+</div>","key_press":null,"trial_type":"html-keyboard-response","trial_index":64,"time_elapsed":163234,"internal_node_id":"0.0-8.0-1.14","subject":"00qqp089tz364ge","sona":"7477"},{"trial_type":"turing-test","trial_index":65,"time_elapsed":168693,"internal_node_id":"0.0-8.0-2.14","subject":"00qqp089tz364ge","sona":"7477"},{"rt":624,"stimulus":"<p>Welche Sequenz haben Sie als natürlicher empfunden?</p>","key_press":74,"test_part":"response","test_stimulus":{"position":1,"left":"bvh/vr_prediction_models/model(tmp)-dataset(return-bottle)-numprim(4)-hold(0)/final-lines.txt","right":"bvh/return-bottle-training0-lines.txt","att_check":false},"trial_type":"html-keyboard-response","trial_index":66,"time_elapsed":169321,"internal_node_id":"0.0-8.0-3.14","subject":"00qqp089tz364ge","sona":"7477"},{"rt":425,"stimulus":"<p>Bereit?</p>","key_press":32,"trial_type":"html-keyboard-response","trial_index":67,"time_elapsed":169751,"internal_node_id":"0.0-8.0-0.15","subject":"00qqp089tz364ge","sona":"7477"},{"rt":null,"stimulus":"<div style=\"font-size:60px;\">+</div>","key_press":null,"trial_type":"html-keyboard-response","trial_index":68,"time_elapsed":171773,"internal_node_id":"0.0-8.0-1.15","subject":"00qqp089tz364ge","sona":"7477"},{"trial_type":"turing-test","trial_index":69,"time_elapsed":175777,"internal_node_id":"0.0-8.0-2.15","subject":"00qqp089tz364ge","sona":"7477"},{"rt":386,"stimulus":"<p>Welche Sequenz haben Sie als natürlicher empfunden?</p>","key_press":70,"test_part":"response","test_stimulus":{"position":1,"left":"bvh/vr_prediction_models/model(dmp)-dataset(pass-bottle-hold)-npsi(30)-hold(4)/final-lines.txt","right":"bvh/pass-bottle-hold-training4-lines.txt","att_check":false},"trial_type":"html-keyboard-response","trial_index":70,"time_elapsed":176168,"internal_node_id":"0.0-8.0-3.15","subject":"00qqp089tz364ge","sona":"7477"},{"rt":323,"stimulus":"<p>Bereit?</p>","key_press":32,"trial_type":"html-keyboard-response","trial_index":71,"time_elapsed":176495,"internal_node_id":"0.0-8.0-0.16","subject":"00qqp089tz364ge","sona":"7477"},{"rt":null,"stimulus":"<div style=\"font-size:60px;\">+</div>","key_press":null,"trial_type":"html-keyboard-response","trial_index":72,"time_elapsed":178527,"internal_node_id":"0.0-8.0-1.16","subject":"00qqp089tz364ge","sona":"7477"},{"trial_type":"turing-test","trial_index":73,"time_elapsed":184278,"internal_node_id":"0.0-8.0-2.16","subject":"00qqp089tz364ge","sona":"7477"},{"rt":502,"stimulus":"<p>Welche Sequenz haben Sie als natürlicher empfunden?</p>","key_press":74,"test_part":"response","test_stimulus":{"position":0,"left":"bvh/return-bottle-training3-lines.txt","right":"bvh/vr_prediction_models/model(dmp)-dataset(return-bottle)-npsi(60)-hold(3)/final-lines.txt","att_check":false},"trial_type":"html-keyboard-response","trial_index":74,"time_elapsed":184784,"internal_node_id":"0.0-8.0-3.16","subject":"00qqp089tz364ge","sona":"7477"},{"rt":251,"stimulus":"<p>Bereit?</p>","key_press":32,"trial_type":"html-keyboard-response","trial_index":75,"time_elapsed":185039,"internal_node_id":"0.0-8.0-0.17","subject":"00qqp089tz364ge","sona":"7477"},{"rt":null,"stimulus":"<div style=\"font-size:60px;\">+</div>","key_press":null,"trial_type":"html-keyboard-response","trial_index":76,"time_elapsed":187067,"internal_node_id":"0.0-8.0-1.17","subject":"00qqp089tz364ge","sona":"7477"},{"trial_type":"turing-test","trial_index":77,"time_elapsed":190387,"internal_node_id":"0.0-8.0-2.17","subject":"00qqp089tz364ge","sona":"7477"},{"rt":637,"stimulus":"<p>Welche Sequenz haben Sie als natürlicher empfunden?</p>","key_press":74,"test_part":"response","test_stimulus":{"position":0,"left":"bvh/pass-bottle-hold-training0-lines.txt","right":"bvh/vr_prediction_models/model(dmp)-dataset(pass-bottle-hold)-npsi(30)-hold(0)/final-lines.txt","att_check":false},"trial_type":"html-keyboard-response","trial_index":78,"time_elapsed":191028,"internal_node_id":"0.0-8.0-3.17","subject":"00qqp089tz364ge","sona":"7477"},{"rt":233,"stimulus":"<p>Bereit?</p>","key_press":32,"trial_type":"html-keyboard-response","trial_index":79,"time_elapsed":191266,"internal_node_id":"0.0-8.0-0.18","subject":"00qqp089tz364ge","sona":"7477"},{"rt":null,"stimulus":"<div style=\"font-size:60px;\">+</div>","key_press":null,"trial_type":"html-keyboard-response","trial_index":80,"time_elapsed":193297,"internal_node_id":"0.0-8.0-1.18","subject":"00qqp089tz364ge","sona":"7477"},{"trial_type":"turing-test","trial_index":81,"time_elapsed":199487,"internal_node_id":"0.0-8.0-2.18","subject":"00qqp089tz364ge","sona":"7477"},{"rt":716,"stimulus":"<p>Welche Sequenz haben Sie als natürlicher empfunden?</p>","key_press":70,"test_part":"response","test_stimulus":{"position":0,"left":"bvh/return-bottle-training1-lines.txt","right":"bvh/vr_prediction_models/model(dmp)-dataset(return-bottle)-npsi(60)-hold(1)/final-lines.txt","att_check":false},"trial_type":"html-keyboard-response","trial_index":82,"time_elapsed":200207,"internal_node_id":"0.0-8.0-3.18","subject":"00qqp089tz364ge","sona":"7477"},{"rt":252,"stimulus":"<p>Bereit?</p>","key_press":32,"trial_type":"html-keyboard-response","trial_index":83,"time_elapsed":200463,"internal_node_id":"0.0-8.0-0.19","subject":"00qqp089tz364ge","sona":"7477"},{"rt":null,"stimulus":"<div style=\"font-size:60px;\">+</div>","key_press":null,"trial_type":"html-keyboard-response","trial_index":84,"time_elapsed":202487,"internal_node_id":"0.0-8.0-1.19","subject":"00qqp089tz364ge","sona":"7477"},{"trial_type":"turing-test","trial_index":85,"time_elapsed":206002,"internal_node_id":"0.0-8.0-2.19","subject":"00qqp089tz364ge","sona":"7477"},{"rt":484,"stimulus":"<p>Welche Sequenz haben Sie als natürlicher empfunden?</p>","key_press":70,"test_part":"response","test_stimulus":{"position":1,"left":"bvh/vr_prediction_models/model(vcgpdm)-dataset(pass-bottle-hold)-mode(ELBO)-parts(3)-dyn(30)-lvm(15)-hold(0)/final-lines.txt","right":"bvh/pass-bottle-hold-training0-lines.txt","att_check":false},"trial_type":"html-keyboard-response","trial_index":86,"time_elapsed":206492,"internal_node_id":"0.0-8.0-3.19","subject":"00qqp089tz364ge","sona":"7477"},{"rt":267,"stimulus":"<p>Bereit?</p>","key_press":32,"trial_type":"html-keyboard-response","trial_index":87,"time_elapsed":206763,"internal_node_id":"0.0-8.0-0.20","subject":"00qqp089tz364ge","sona":"7477"},{"rt":null,"stimulus":"<div style=\"font-size:60px;\">+</div>","key_press":null,"trial_type":"html-keyboard-response","trial_index":88,"time_elapsed":208802,"internal_node_id":"0.0-8.0-1.20","subject":"00qqp089tz364ge","sona":"7477"},{"trial_type":"turing-test","trial_index":89,"time_elapsed":215471,"internal_node_id":"0.0-8.0-2.20","subject":"00qqp089tz364ge","sona":"7477"},{"rt":472,"stimulus":"<p>Welche Sequenz haben Sie als natürlicher empfunden?</p>","key_press":74,"test_part":"response","test_stimulus":{"position":1,"left":"bvh/vr_prediction_models/model(tmp)-dataset(return-bottle)-numprim(5)-hold(2)/final-lines.txt","right":"bvh/return-bottle-training2-lines.txt","att_check":false},"trial_type":"html-keyboard-response","trial_index":90,"time_elapsed":215945,"internal_node_id":"0.0-8.0-3.20","subject":"00qqp089tz364ge","sona":"7477"},{"rt":252,"stimulus":"<p>Bereit?</p>","key_press":32,"trial_type":"html-keyboard-response","trial_index":91,"time_elapsed":216206,"internal_node_id":"0.0-8.0-0.21","subject":"00qqp089tz364ge","sona":"7477"},{"rt":null,"stimulus":"<div style=\"font-size:60px;\">+</div>","key_press":null,"trial_type":"html-keyboard-response","trial_index":92,"time_elapsed":218232,"internal_node_id":"0.0-8.0-1.21","subject":"00qqp089tz364ge","sona":"7477"},{"trial_type":"turing-test","trial_index":93,"time_elapsed":222038,"internal_node_id":"0.0-8.0-2.21","subject":"00qqp089tz364ge","sona":"7477"},{"rt":608,"stimulus":"<p>Welche Sequenz haben Sie als natürlicher empfunden?</p>","key_press":70,"test_part":"response","test_stimulus":{"position":1,"left":"bvh/vr_prediction_models/model(vcgpdm)-dataset(return-bottle-hold)-mode(ELBO)-parts(3)-dyn(15)-lvm(30)-hold(3)/final-lines.txt","right":"bvh/return-bottle-hold-training3-lines.txt","att_check":false},"trial_type":"html-keyboard-response","trial_index":94,"time_elapsed":222651,"internal_node_id":"0.0-8.0-3.21","subject":"00qqp089tz364ge","sona":"7477"},{"rt":252,"stimulus":"<p>Bereit?</p>","key_press":32,"trial_type":"html-keyboard-response","trial_index":95,"time_elapsed":222908,"internal_node_id":"0.0-8.0-0.22","subject":"00qqp089tz364ge","sona":"7477"},{"rt":null,"stimulus":"<div style=\"font-size:60px;\">+</div>","key_press":null,"trial_type":"html-keyboard-response","trial_index":96,"time_elapsed":224939,"internal_node_id":"0.0-8.0-1.22","subject":"00qqp089tz364ge","sona":"7477"},{"trial_type":"turing-test","trial_index":97,"time_elapsed":230799,"internal_node_id":"0.0-8.0-2.22","subject":"00qqp089tz364ge","sona":"7477"},{"rt":1551,"stimulus":"<p>Welche Sequenz haben Sie als natürlicher empfunden?</p>","key_press":74,"test_part":"response","test_stimulus":{"position":0,"left":"bvh/pass-bottle-training4-lines.txt","right":"bvh/vr_prediction_models/model(vcgpdm)-dataset(pass-bottle)-mode(ELBO)-parts(1)-dyn(25)-lvm(35)-hold(4)/final-lines.txt","att_check":false},"trial_type":"html-keyboard-response","trial_index":98,"time_elapsed":232355,"internal_node_id":"0.0-8.0-3.22","subject":"00qqp089tz364ge","sona":"7477"},{"rt":345,"stimulus":"<p>Bereit?</p>","key_press":32,"trial_type":"html-keyboard-response","trial_index":99,"time_elapsed":232705,"internal_node_id":"0.0-8.0-0.23","subject":"00qqp089tz364ge","sona":"7477"},{"rt":null,"stimulus":"<div style=\"font-size:60px;\">+</div>","key_press":null,"trial_type":"html-keyboard-response","trial_index":100,"time_elapsed":234738,"internal_node_id":"0.0-8.0-1.23","subject":"00qqp089tz364ge","sona":"7477"},{"trial_type":"turing-test","trial_index":101,"time_elapsed":240588,"internal_node_id":"0.0-8.0-2.23","subject":"00qqp089tz364ge","sona":"7477"},{"rt":310,"stimulus":"<p>Welche Sequenz haben Sie als natürlicher empfunden?</p>","key_press":70,"test_part":"response","test_stimulus":{"position":0,"left":"bvh/pass-bottle-training4-lines.txt","right":"bvh/vr_prediction_models/model(vcgpdm)-dataset(pass-bottle)-mode(ELBO)-parts(3)-dyn(25)-lvm(15)-hold(4)/final-lines.txt","att_check":false},"trial_type":"html-keyboard-response","trial_index":102,"time_elapsed":240901,"internal_node_id":"0.0-8.0-3.23","subject":"00qqp089tz364ge","sona":"7477"},{"rt":280,"stimulus":"<p>Bereit?</p>","key_press":32,"trial_type":"html-keyboard-response","trial_index":103,"time_elapsed":241183,"internal_node_id":"0.0-8.0-0.24","subject":"00qqp089tz364ge","sona":"7477"},{"rt":null,"stimulus":"<div style=\"font-size:60px;\">+</div>","key_press":null,"trial_type":"html-keyboard-response","trial_index":104,"time_elapsed":243218,"internal_node_id":"0.0-8.0-1.24","subject":"00qqp089tz364ge","sona":"7477"},{"trial_type":"turing-test","trial_index":105,"time_elapsed":247479,"internal_node_id":"0.0-8.0-2.24","subject":"00qqp089tz364ge","sona":"7477"},{"rt":331,"stimulus":"<p>Welche Sequenz haben Sie als natürlicher empfunden?</p>","key_press":74,"test_part":"response","test_stimulus":{"position":0,"left":"bvh/return-bottle-hold-training4-lines.txt","right":"bvh/vr_prediction_models/model(vcgpdm)-dataset(return-bottle-hold)-mode(ELBO)-parts(1)-dyn(30)-lvm(30)-hold(4)/final-lines.txt","att_check":false},"trial_type":"html-keyboard-response","trial_index":106,"time_elapsed":247811,"internal_node_id":"0.0-8.0-3.24","subject":"00qqp089tz364ge","sona":"7477"},{"rt":131,"stimulus":"<p>Bereit?</p>","key_press":32,"trial_type":"html-keyboard-response","trial_index":107,"time_elapsed":247947,"internal_node_id":"0.0-8.0-0.25","subject":"00qqp089tz364ge","sona":"7477"},{"rt":null,"stimulus":"<div style=\"font-size:60px;\">+</div>","key_press":null,"trial_type":"html-keyboard-response","trial_index":108,"time_elapsed":249980,"internal_node_id":"0.0-8.0-1.25","subject":"00qqp089tz364ge","sona":"7477"},{"trial_type":"turing-test","trial_index":109,"time_elapsed":253639,"internal_node_id":"0.0-8.0-2.25","subject":"00qqp089tz364ge","sona":"7477"},{"rt":333,"stimulus":"<p>Welche Sequenz haben Sie als natürlicher empfunden?</p>","key_press":70,"test_part":"response","test_stimulus":{"position":0,"left":"bvh/return-bottle-hold-training3-lines.txt","right":"bvh/vr_prediction_models/model(tmp)-dataset(return-bottle-hold)-numprim(6)-hold(3)/final-lines.txt","att_check":false},"trial_type":"html-keyboard-response","trial_index":110,"time_elapsed":253979,"internal_node_id":"0.0-8.0-3.25","subject":"00qqp089tz364ge","sona":"7477"},{"rt":178,"stimulus":"<p>Bereit?</p>","key_press":32,"trial_type":"html-keyboard-response","trial_index":111,"time_elapsed":254162,"internal_node_id":"0.0-8.0-0.26","subject":"00qqp089tz364ge","sona":"7477"},{"rt":null,"stimulus":"<div style=\"font-size:60px;\">+</div>","key_press":null,"trial_type":"html-keyboard-response","trial_index":112,"time_elapsed":256201,"internal_node_id":"0.0-8.0-1.26","subject":"00qqp089tz364ge","sona":"7477"},{"trial_type":"turing-test","trial_index":113,"time_elapsed":262979,"internal_node_id":"0.0-8.0-2.26","subject":"00qqp089tz364ge","sona":"7477"},{"rt":356,"stimulus":"<p>Welche Sequenz haben Sie als natürlicher empfunden?</p>","key_press":70,"test_part":"response","test_stimulus":{"position":1,"left":"bvh/vr_prediction_models/model(dmp)-dataset(pass-bottle)-npsi(100)-hold(0)/final-lines.txt","right":"bvh/pass-bottle-training0-lines.txt","att_check":false},"trial_type":"html-keyboard-response","trial_index":114,"time_elapsed":263340,"internal_node_id":"0.0-8.0-3.26","subject":"00qqp089tz364ge","sona":"7477"},{"rt":241,"stimulus":"<p>Bereit?</p>","key_press":32,"trial_type":"html-keyboard-response","trial_index":115,"time_elapsed":263586,"internal_node_id":"0.0-8.0-0.27","subject":"00qqp089tz364ge","sona":"7477"},{"rt":null,"stimulus":"<div style=\"font-size:60px;\">+</div>","key_press":null,"trial_type":"html-keyboard-response","trial_index":116,"time_elapsed":265619,"internal_node_id":"0.0-8.0-1.27","subject":"00qqp089tz364ge","sona":"7477"},{"trial_type":"turing-test","trial_index":117,"time_elapsed":269099,"internal_node_id":"0.0-8.0-2.27","subject":"00qqp089tz364ge","sona":"7477"},{"rt":387,"stimulus":"<p>Welche Sequenz haben Sie als natürlicher empfunden?</p>","key_press":74,"test_part":"response","test_stimulus":{"position":0,"left":"bvh/pass-bottle-hold-training0-lines.txt","right":"bvh/vr_prediction_models/model(vcgpdm)-dataset(pass-bottle-hold)-mode(ELBO)-parts(3)-dyn(15)-lvm(30)-hold(0)/final-lines.txt","att_check":false},"trial_type":"html-keyboard-response","trial_index":118,"time_elapsed":269492,"internal_node_id":"0.0-8.0-3.27","subject":"00qqp089tz364ge","sona":"7477"},{"rt":147,"stimulus":"<p>Bereit?</p>","key_press":32,"trial_type":"html-keyboard-response","trial_index":119,"time_elapsed":269642,"internal_node_id":"0.0-8.0-0.28","subject":"00qqp089tz364ge","sona":"7477"},{"rt":null,"stimulus":"<div style=\"font-size:60px;\">+</div>","key_press":null,"trial_type":"html-keyboard-response","trial_index":120,"time_elapsed":271659,"internal_node_id":"0.0-8.0-1.28","subject":"00qqp089tz364ge","sona":"7477"},{"trial_type":"turing-test","trial_index":121,"time_elapsed":278529,"internal_node_id":"0.0-8.0-2.28","subject":"00qqp089tz364ge","sona":"7477"},{"rt":316,"stimulus":"<p>Welche Sequenz haben Sie als natürlicher empfunden?</p>","key_press":74,"test_part":"response","test_stimulus":{"position":1,"left":"bvh/vr_prediction_models/model(vcgpdm)-dataset(pass-bottle)-mode(ELBO)-parts(1)-dyn(30)-lvm(30)-hold(0)/final-lines.txt","right":"bvh/pass-bottle-training0-lines.txt","att_check":false},"trial_type":"html-keyboard-response","trial_index":122,"time_elapsed":278852,"internal_node_id":"0.0-8.0-3.28","subject":"00qqp089tz364ge","sona":"7477"},{"rt":105,"stimulus":"<p>Bereit?</p>","key_press":32,"trial_type":"html-keyboard-response","trial_index":123,"time_elapsed":278961,"internal_node_id":"0.0-8.0-0.29","subject":"00qqp089tz364ge","sona":"7477"},{"rt":null,"stimulus":"<div style=\"font-size:60px;\">+</div>","key_press":null,"trial_type":"html-keyboard-response","trial_index":124,"time_elapsed":280988,"internal_node_id":"0.0-8.0-1.29","subject":"00qqp089tz364ge","sona":"7477"},{"trial_type":"turing-test","trial_index":125,"time_elapsed":286738,"internal_node_id":"0.0-8.0-2.29","subject":"00qqp089tz364ge","sona":"7477"},{"rt":987,"stimulus":"<p>Welche Sequenz haben Sie als natürlicher empfunden?</p>","key_press":74,"test_part":"response","test_stimulus":{"position":0,"left":"bvh/pass-bottle-training4-lines.txt","right":"bvh/vr_prediction_models/model(dmp)-dataset(pass-bottle)-npsi(60)-hold(4)/final-lines.txt","att_check":false},"trial_type":"html-keyboard-response","trial_index":126,"time_elapsed":287732,"internal_node_id":"0.0-8.0-3.29","subject":"00qqp089tz364ge","sona":"7477"},{"rt":249,"stimulus":"<p>Bereit?</p>","key_press":32,"trial_type":"html-keyboard-response","trial_index":127,"time_elapsed":287987,"internal_node_id":"0.0-8.0-0.30","subject":"00qqp089tz364ge","sona":"7477"},{"rt":null,"stimulus":"<div style=\"font-size:60px;\">+</div>","key_press":null,"trial_type":"html-keyboard-response","trial_index":128,"time_elapsed":290018,"internal_node_id":"0.0-8.0-1.30","subject":"00qqp089tz364ge","sona":"7477"},{"trial_type":"turing-test","trial_index":129,"time_elapsed":295640,"internal_node_id":"0.0-8.0-2.30","subject":"00qqp089tz364ge","sona":"7477"},{"rt":425,"stimulus":"<p>Welche Sequenz haben Sie als natürlicher empfunden?</p>","key_press":74,"test_part":"response","test_stimulus":{"position":1,"left":"bvh/vr_prediction_models/model(vcgpdm)-dataset(pass-bottle)-mode(ELBO)-parts(1)-dyn(20)-lvm(20)-hold(1)/final-lines.txt","right":"bvh/pass-bottle-training1-lines.txt","att_check":false},"trial_type":"html-keyboard-response","trial_index":130,"time_elapsed":296070,"internal_node_id":"0.0-8.0-3.30","subject":"00qqp089tz364ge","sona":"7477"},{"rt":133,"stimulus":"<p>Bereit?</p>","key_press":32,"trial_type":"html-keyboard-response","trial_index":131,"time_elapsed":296208,"internal_node_id":"0.0-8.0-0.31","subject":"00qqp089tz364ge","sona":"7477"},{"rt":null,"stimulus":"<div style=\"font-size:60px;\">+</div>","key_press":null,"trial_type":"html-keyboard-response","trial_index":132,"time_elapsed":298223,"internal_node_id":"0.0-8.0-1.31","subject":"00qqp089tz364ge","sona":"7477"},{"trial_type":"turing-test","trial_index":133,"time_elapsed":302766,"internal_node_id":"0.0-8.0-2.31","subject":"00qqp089tz364ge","sona":"7477"},{"rt":984,"stimulus":"<p>Welche Sequenz haben Sie als natürlicher empfunden?</p>","key_press":70,"test_part":"response","test_stimulus":{"position":0,"left":"bvh/pass-bottle-hold-training0-lines.txt","right":"bvh/vr_prediction_models/model(vcgpdm)-dataset(pass-bottle-hold)-mode(ELBO)-parts(3)-dyn(20)-lvm(20)-hold(0)/final-lines.txt","att_check":false},"trial_type":"html-keyboard-response","trial_index":134,"time_elapsed":303756,"internal_node_id":"0.0-8.0-3.31","subject":"00qqp089tz364ge","sona":"7477"},{"rt":256,"stimulus":"<p>Bereit?</p>","key_press":32,"trial_type":"html-keyboard-response","trial_index":135,"time_elapsed":304019,"internal_node_id":"0.0-8.0-0.32","subject":"00qqp089tz364ge","sona":"7477"},{"rt":null,"stimulus":"<div style=\"font-size:60px;\">+</div>","key_press":null,"trial_type":"html-keyboard-response","trial_index":136,"time_elapsed":306041,"internal_node_id":"0.0-8.0-1.32","subject":"00qqp089tz364ge","sona":"7477"},{"trial_type":"turing-test","trial_index":137,"time_elapsed":311989,"internal_node_id":"0.0-8.0-2.32","subject":"00qqp089tz364ge","sona":"7477"},{"rt":413,"stimulus":"<p>Welche Sequenz haben Sie als natürlicher empfunden?</p>","key_press":74,"test_part":"response","test_stimulus":{"position":1,"left":"bvh/vr_prediction_models/model(vcgpdm)-dataset(pass-bottle)-mode(ELBO)-parts(1)-dyn(15)-lvm(35)-hold(4)/final-lines.txt","right":"bvh/pass-bottle-training4-lines.txt","att_check":false},"trial_type":"html-keyboard-response","trial_index":138,"time_elapsed":312408,"internal_node_id":"0.0-8.0-3.32","subject":"00qqp089tz364ge","sona":"7477"},{"rt":169,"stimulus":"<p>Bereit?</p>","key_press":32,"trial_type":"html-keyboard-response","trial_index":139,"time_elapsed":312582,"internal_node_id":"0.0-8.0-0.33","subject":"00qqp089tz364ge","sona":"7477"},{"rt":null,"stimulus":"<div style=\"font-size:60px;\">+</div>","key_press":null,"trial_type":"html-keyboard-response","trial_index":140,"time_elapsed":314601,"internal_node_id":"0.0-8.0-1.33","subject":"00qqp089tz364ge","sona":"7477"},{"trial_type":"turing-test","trial_index":141,"time_elapsed":320790,"internal_node_id":"0.0-8.0-2.33","subject":"00qqp089tz364ge","sona":"7477"},{"rt":568,"stimulus":"<p>Welche Sequenz haben Sie als natürlicher empfunden?</p>","key_press":74,"test_part":"response","test_stimulus":{"position":1,"left":"bvh/vr_prediction_models/model(vcgpdm)-dataset(return-bottle)-mode(ELBO)-parts(3)-dyn(10)-lvm(30)-hold(4)/final-lines.txt","right":"bvh/return-bottle-training4-lines.txt","att_check":false},"trial_type":"html-keyboard-response","trial_index":142,"time_elapsed":321362,"internal_node_id":"0.0-8.0-3.33","subject":"00qqp089tz364ge","sona":"7477"},{"rt":210,"stimulus":"<p>Bereit?</p>","key_press":32,"trial_type":"html-keyboard-response","trial_index":143,"time_elapsed":321577,"internal_node_id":"0.0-8.0-0.34","subject":"00qqp089tz364ge","sona":"7477"},{"rt":null,"stimulus":"<div style=\"font-size:60px;\">+</div>","key_press":null,"trial_type":"html-keyboard-response","trial_index":144,"time_elapsed":323610,"internal_node_id":"0.0-8.0-1.34","subject":"00qqp089tz364ge","sona":"7477"},{"trial_type":"turing-test","trial_index":145,"time_elapsed":329480,"internal_node_id":"0.0-8.0-2.34","subject":"00qqp089tz364ge","sona":"7477"},{"rt":667,"stimulus":"<p>Welche Sequenz haben Sie als natürlicher empfunden?</p>","key_press":70,"test_part":"response","test_stimulus":{"position":1,"left":"bvh/vr_prediction_models/model(tmp)-dataset(pass-bottle)-numprim(3)-hold(3)/final-lines.txt","right":"bvh/pass-bottle-training3-lines.txt","att_check":false},"trial_type":"html-keyboard-response","trial_index":146,"time_elapsed":330154,"internal_node_id":"0.0-8.0-3.34","subject":"00qqp089tz364ge","sona":"7477"},{"rt":242,"stimulus":"<p>Bereit?</p>","key_press":32,"trial_type":"html-keyboard-response","trial_index":147,"time_elapsed":330402,"internal_node_id":"0.0-8.0-0.35","subject":"00qqp089tz364ge","sona":"7477"},{"rt":null,"stimulus":"<div style=\"font-size:60px;\">+</div>","key_press":null,"trial_type":"html-keyboard-response","trial_index":148,"time_elapsed":332439,"internal_node_id":"0.0-8.0-1.35","subject":"00qqp089tz364ge","sona":"7477"},{"trial_type":"turing-test","trial_index":149,"time_elapsed":339320,"internal_node_id":"0.0-8.0-2.35","subject":"00qqp089tz364ge","sona":"7477"},{"rt":463,"stimulus":"<p>Welche Sequenz haben Sie als natürlicher empfunden?</p>","key_press":74,"test_part":"response","test_stimulus":{"position":0,"left":"bvh/return-bottle-training3-lines.txt","right":"bvh/vr_prediction_models/model(vcgpdm)-dataset(return-bottle)-mode(MAP)-parts(1)-hold(3)/final-lines.txt","att_check":false},"trial_type":"html-keyboard-response","trial_index":150,"time_elapsed":339789,"internal_node_id":"0.0-8.0-3.35","subject":"00qqp089tz364ge","sona":"7477"},{"rt":247,"stimulus":"<p>Bereit?</p>","key_press":32,"trial_type":"html-keyboard-response","trial_index":151,"time_elapsed":340042,"internal_node_id":"0.0-8.0-0.36","subject":"00qqp089tz364ge","sona":"7477"},{"rt":null,"stimulus":"<div style=\"font-size:60px;\">+</div>","key_press":null,"trial_type":"html-keyboard-response","trial_index":152,"time_elapsed":342079,"internal_node_id":"0.0-8.0-1.36","subject":"00qqp089tz364ge","sona":"7477"},{"trial_type":"turing-test","trial_index":153,"time_elapsed":345910,"internal_node_id":"0.0-8.0-2.36","subject":"00qqp089tz364ge","sona":"7477"},{"rt":797,"stimulus":"<p>Welche Sequenz haben Sie als natürlicher empfunden?</p>","key_press":70,"test_part":"response","test_stimulus":{"position":1,"left":"bvh/vr_prediction_models/model(vcgpdm)-dataset(pass-bottle-hold)-mode(ELBO)-parts(3)-dyn(20)-lvm(15)-hold(4)/final-lines.txt","right":"bvh/pass-bottle-hold-training4-lines.txt","att_check":false},"trial_type":"html-keyboard-response","trial_index":154,"time_elapsed":346712,"internal_node_id":"0.0-8.0-3.36","subject":"00qqp089tz364ge","sona":"7477"},{"rt":296,"stimulus":"<p>Bereit?</p>","key_press":32,"trial_type":"html-keyboard-response","trial_index":155,"time_elapsed":347014,"internal_node_id":"0.0-8.0-0.37","subject":"00qqp089tz364ge","sona":"7477"},{"rt":null,"stimulus":"<div style=\"font-size:60px;\">+</div>","key_press":null,"trial_type":"html-keyboard-response","trial_index":156,"time_elapsed":349041,"internal_node_id":"0.0-8.0-1.37","subject":"00qqp089tz364ge","sona":"7477"},{"trial_type":"turing-test","trial_index":157,"time_elapsed":352678,"internal_node_id":"0.0-8.0-2.37","subject":"00qqp089tz364ge","sona":"7477"},{"rt":267,"stimulus":"<p>Welche Sequenz haben Sie als natürlicher empfunden?</p>","key_press":70,"test_part":"response","test_stimulus":{"position":0,"left":"bvh/pass-bottle-hold-training2-lines.txt","right":"bvh/vr_prediction_models/model(vcgpdm)-dataset(pass-bottle-hold)-mode(ELBO)-parts(3)-dyn(25)-lvm(30)-hold(2)/final-lines.txt","att_check":false},"trial_type":"html-keyboard-response","trial_index":158,"time_elapsed":352951,"internal_node_id":"0.0-8.0-3.37","subject":"00qqp089tz364ge","sona":"7477"},{"rt":293,"stimulus":"<p>Bereit?</p>","key_press":32,"trial_type":"html-keyboard-response","trial_index":159,"time_elapsed":353248,"internal_node_id":"0.0-8.0-0.38","subject":"00qqp089tz364ge","sona":"7477"},{"rt":null,"stimulus":"<div style=\"font-size:60px;\">+</div>","key_press":null,"trial_type":"html-keyboard-response","trial_index":160,"time_elapsed":355278,"internal_node_id":"0.0-8.0-1.38","subject":"00qqp089tz364ge","sona":"7477"},{"trial_type":"turing-test","trial_index":161,"time_elapsed":361116,"internal_node_id":"0.0-8.0-2.38","subject":"00qqp089tz364ge","sona":"7477"},{"rt":489,"stimulus":"<p>Welche Sequenz haben Sie als natürlicher empfunden?</p>","key_press":74,"test_part":"response","test_stimulus":{"position":0,"left":"bvh/pass-bottle-training4-lines.txt","right":"bvh/vr_prediction_models/model(tmp)-dataset(pass-bottle)-numprim(15)-hold(4)/final-lines.txt","att_check":false},"trial_type":"html-keyboard-response","trial_index":162,"time_elapsed":361612,"internal_node_id":"0.0-8.0-3.38","subject":"00qqp089tz364ge","sona":"7477"},{"rt":216,"stimulus":"<p>Bereit?</p>","key_press":32,"trial_type":"html-keyboard-response","trial_index":163,"time_elapsed":361834,"internal_node_id":"0.0-8.0-0.39","subject":"00qqp089tz364ge","sona":"7477"},{"rt":null,"stimulus":"<div style=\"font-size:60px;\">+</div>","key_press":null,"trial_type":"html-keyboard-response","trial_index":164,"time_elapsed":363866,"internal_node_id":"0.0-8.0-1.39","subject":"00qqp089tz364ge","sona":"7477"},{"trial_type":"turing-test","trial_index":165,"time_elapsed":367146,"internal_node_id":"0.0-8.0-2.39","subject":"00qqp089tz364ge","sona":"7477"},{"rt":626,"stimulus":"<p>Welche Sequenz haben Sie als natürlicher empfunden?</p>","key_press":74,"test_part":"response","test_stimulus":{"position":0,"left":"bvh/pass-bottle-hold-training0-lines.txt","right":"bvh/vr_prediction_models/model(dmp)-dataset(pass-bottle-hold)-npsi(60)-hold(0)/final-lines.txt","att_check":false},"trial_type":"html-keyboard-response","trial_index":166,"time_elapsed":367778,"internal_node_id":"0.0-8.0-3.39","subject":"00qqp089tz364ge","sona":"7477"},{"rt":130,"stimulus":"<p>Bereit?</p>","key_press":32,"trial_type":"html-keyboard-response","trial_index":167,"time_elapsed":367913,"internal_node_id":"0.0-8.0-0.40","subject":"00qqp089tz364ge","sona":"7477"},{"rt":null,"stimulus":"<div style=\"font-size:60px;\">+</div>","key_press":null,"trial_type":"html-keyboard-response","trial_index":168,"time_elapsed":369927,"internal_node_id":"0.0-8.0-1.40","subject":"00qqp089tz364ge","sona":"7477"},{"trial_type":"turing-test","trial_index":169,"time_elapsed":376198,"internal_node_id":"0.0-8.0-2.40","subject":"00qqp089tz364ge","sona":"7477"},{"rt":297,"stimulus":"<p>Welche Sequenz haben Sie als natürlicher empfunden?</p>","key_press":70,"test_part":"response","test_stimulus":{"position":0,"left":"bvh/pass-bottle-training2-lines.txt","right":"bvh/vr_prediction_models/model(vcgpdm)-dataset(pass-bottle)-mode(ELBO)-parts(3)-dyn(10)-lvm(30)-hold(2)/final-lines.txt","att_check":false},"trial_type":"html-keyboard-response","trial_index":170,"time_elapsed":376504,"internal_node_id":"0.0-8.0-3.40","subject":"00qqp089tz364ge","sona":"7477"},{"rt":273,"stimulus":"<p>Bereit?</p>","key_press":32,"trial_type":"html-keyboard-response","trial_index":171,"time_elapsed":376784,"internal_node_id":"0.0-8.0-0.41","subject":"00qqp089tz364ge","sona":"7477"},{"rt":null,"stimulus":"<div style=\"font-size:60px;\">+</div>","key_press":null,"trial_type":"html-keyboard-response","trial_index":172,"time_elapsed":378818,"internal_node_id":"0.0-8.0-1.41","subject":"00qqp089tz364ge","sona":"7477"},{"trial_type":"turing-test","trial_index":173,"time_elapsed":382493,"internal_node_id":"0.0-8.0-2.41","subject":"00qqp089tz364ge","sona":"7477"},{"rt":403,"stimulus":"<p>Welche Sequenz haben Sie als natürlicher empfunden?</p>","key_press":74,"test_part":"response","test_stimulus":{"position":1,"left":"bvh/vr_prediction_models/model(vcgpdm)-dataset(return-bottle-hold)-mode(ELBO)-parts(1)-dyn(35)-lvm(10)-hold(2)/final-lines.txt","right":"bvh/return-bottle-hold-training2-lines.txt","att_check":false},"trial_type":"html-keyboard-response","trial_index":174,"time_elapsed":382902,"internal_node_id":"0.0-8.0-3.41","subject":"00qqp089tz364ge","sona":"7477"},{"rt":286,"stimulus":"<p>Bereit?</p>","key_press":32,"trial_type":"html-keyboard-response","trial_index":175,"time_elapsed":383194,"internal_node_id":"0.0-8.0-0.42","subject":"00qqp089tz364ge","sona":"7477"},{"rt":null,"stimulus":"<div style=\"font-size:60px;\">+</div>","key_press":null,"trial_type":"html-keyboard-response","trial_index":176,"time_elapsed":385233,"internal_node_id":"0.0-8.0-1.42","subject":"00qqp089tz364ge","sona":"7477"},{"trial_type":"turing-test","trial_index":177,"time_elapsed":391914,"internal_node_id":"0.0-8.0-2.42","subject":"00qqp089tz364ge","sona":"7477"},{"rt":222,"stimulus":"<p>Welche Sequenz haben Sie als natürlicher empfunden?</p>","key_press":70,"test_part":"response","test_stimulus":{"position":1,"left":"bvh/vr_prediction_models/model(tmp)-dataset(return-bottle)-numprim(11)-hold(2)/final-lines.txt","right":"bvh/return-bottle-training2-lines.txt","att_check":false},"trial_type":"html-keyboard-response","trial_index":178,"time_elapsed":392143,"internal_node_id":"0.0-8.0-3.42","subject":"00qqp089tz364ge","sona":"7477"},{"rt":196,"stimulus":"<p>Bereit?</p>","key_press":32,"trial_type":"html-keyboard-response","trial_index":179,"time_elapsed":392342,"internal_node_id":"0.0-8.0-0.43","subject":"00qqp089tz364ge","sona":"7477"},{"rt":null,"stimulus":"<div style=\"font-size:60px;\">+</div>","key_press":null,"trial_type":"html-keyboard-response","trial_index":180,"time_elapsed":394372,"internal_node_id":"0.0-8.0-1.43","subject":"00qqp089tz364ge","sona":"7477"},{"trial_type":"turing-test","trial_index":181,"time_elapsed":399742,"internal_node_id":"0.0-8.0-2.43","subject":"00qqp089tz364ge","sona":"7477"},{"rt":490,"stimulus":"<p>Welche Sequenz haben Sie als natürlicher empfunden?</p>","key_press":74,"test_part":"response","test_stimulus":{"position":1,"left":"bvh/vr_prediction_models/model(vcgpdm)-dataset(pass-bottle)-mode(ELBO)-parts(1)-dyn(20)-lvm(20)-hold(1)/final-lines.txt","right":"bvh/pass-bottle-training1-lines.txt","att_check":false},"trial_type":"html-keyboard-response","trial_index":182,"time_elapsed":400237,"internal_node_id":"0.0-8.0-3.43","subject":"00qqp089tz364ge","sona":"7477"},{"rt":526,"stimulus":"<p>Bereit?</p>","key_press":32,"trial_type":"html-keyboard-response","trial_index":183,"time_elapsed":400766,"internal_node_id":"0.0-8.0-0.44","subject":"00qqp089tz364ge","sona":"7477"},{"rt":null,"stimulus":"<div style=\"font-size:60px;\">+</div>","key_press":null,"trial_type":"html-keyboard-response","trial_index":184,"time_elapsed":402793,"internal_node_id":"0.0-8.0-1.44","subject":"00qqp089tz364ge","sona":"7477"},{"trial_type":"turing-test","trial_index":185,"time_elapsed":409210,"internal_node_id":"0.0-8.0-2.44","subject":"00qqp089tz364ge","sona":"7477"},{"rt":527,"stimulus":"<p>Welche Sequenz haben Sie als natürlicher empfunden?</p>","key_press":74,"test_part":"response","test_stimulus":{"position":1,"left":"bvh/vr_prediction_models/model(dmp)-dataset(pass-bottle)-npsi(10)-hold(2)/final-lines.txt","right":"bvh/pass-bottle-training2-lines.txt","att_check":false},"trial_type":"html-keyboard-response","trial_index":186,"time_elapsed":409742,"internal_node_id":"0.0-8.0-3.44","subject":"00qqp089tz364ge","sona":"7477"},{"rt":214877,"stimulus":"<p>Bereit?</p>","key_press":32,"trial_type":"html-keyboard-response","trial_index":187,"time_elapsed":624624,"internal_node_id":"0.0-8.0-0.45","subject":"00qqp089tz364ge","sona":"7477"},{"rt":null,"stimulus":"<div style=\"font-size:60px;\">+</div>","key_press":null,"trial_type":"html-keyboard-response","trial_index":188,"time_elapsed":626657,"internal_node_id":"0.0-8.0-1.45","subject":"00qqp089tz364ge","sona":"7477"},{"trial_type":"turing-test","trial_index":189,"time_elapsed":633863,"internal_node_id":"0.0-8.0-2.45","subject":"00qqp089tz364ge","sona":"7477"},{"rt":193,"stimulus":"<p>Welche Sequenz haben Sie als natürlicher empfunden?</p>","key_press":74,"test_part":"response","test_stimulus":{"position":1,"left":"bvh/vr_prediction_models/model(vcgpdm)-dataset(pass-bottle)-mode(ELBO)-parts(3)-dyn(35)-lvm(20)-hold(0)/final-lines.txt","right":"bvh/pass-bottle-training0-lines.txt","att_check":false},"trial_type":"html-keyboard-response","trial_index":190,"time_elapsed":634062,"internal_node_id":"0.0-8.0-3.45","subject":"00qqp089tz364ge","sona":"7477"},{"rt":926,"stimulus":"<p>Bereit?</p>","key_press":32,"trial_type":"html-keyboard-response","trial_index":191,"time_elapsed":634994,"internal_node_id":"0.0-8.0-0.46","subject":"00qqp089tz364ge","sona":"7477"},{"rt":null,"stimulus":"<div style=\"font-size:60px;\">+</div>","key_press":null,"trial_type":"html-keyboard-response","trial_index":192,"time_elapsed":637034,"internal_node_id":"0.0-8.0-1.46","subject":"00qqp089tz364ge","sona":"7477"},{"trial_type":"turing-test","trial_index":193,"time_elapsed":640624,"internal_node_id":"0.0-8.0-2.46","subject":"00qqp089tz364ge","sona":"7477"},{"rt":434,"stimulus":"<p>Welche Sequenz haben Sie als natürlicher empfunden?</p>","key_press":74,"test_part":"response","test_stimulus":{"position":1,"left":"bvh/vr_prediction_models/model(tmp)-dataset(pass-bottle-hold)-numprim(7)-hold(4)/final-lines.txt","right":"bvh/pass-bottle-hold-training4-lines.txt","att_check":false},"trial_type":"html-keyboard-response","trial_index":194,"time_elapsed":641066,"internal_node_id":"0.0-8.0-3.46","subject":"00qqp089tz364ge","sona":"7477"},{"rt":400,"stimulus":"<p>Bereit?</p>","key_press":32,"trial_type":"html-keyboard-response","trial_index":195,"time_elapsed":641471,"internal_node_id":"0.0-8.0-0.47","subject":"00qqp089tz364ge","sona":"7477"},{"rt":null,"stimulus":"<div style=\"font-size:60px;\">+</div>","key_press":null,"trial_type":"html-keyboard-response","trial_index":196,"time_elapsed":643504,"internal_node_id":"0.0-8.0-1.47","subject":"00qqp089tz364ge","sona":"7477"},{"trial_type":"turing-test","trial_index":197,"time_elapsed":646994,"internal_node_id":"0.0-8.0-2.47","subject":"00qqp089tz364ge","sona":"7477"},{"rt":394,"stimulus":"<p>Welche Sequenz haben Sie als natürlicher empfunden?</p>","key_press":74,"test_part":"response","test_stimulus":{"position":0,"left":"bvh/pass-bottle-hold-training0-lines.txt","right":"bvh/vr_prediction_models/model(dmp)-dataset(pass-bottle-hold)-npsi(30)-hold(0)/final-lines.txt","att_check":true},"trial_type":"html-keyboard-response","trial_index":198,"time_elapsed":647393,"internal_node_id":"0.0-8.0-3.47","subject":"00qqp089tz364ge","sona":"7477"},{"rt":233,"stimulus":"<p>Bereit?</p>","key_press":32,"trial_type":"html-keyboard-response","trial_index":199,"time_elapsed":647630,"internal_node_id":"0.0-8.0-0.48","subject":"00qqp089tz364ge","sona":"7477"},{"rt":null,"stimulus":"<div style=\"font-size:60px;\">+</div>","key_press":null,"trial_type":"html-keyboard-response","trial_index":200,"time_elapsed":649654,"internal_node_id":"0.0-8.0-1.48","subject":"00qqp089tz364ge","sona":"7477"},{"trial_type":"turing-test","trial_index":201,"time_elapsed":653414,"internal_node_id":"0.0-8.0-2.48","subject":"00qqp089tz364ge","sona":"7477"},{"rt":337,"stimulus":"<p>Welche Sequenz haben Sie als natürlicher empfunden?</p>","key_press":70,"test_part":"response","test_stimulus":{"position":0,"left":"bvh/return-bottle-hold-training3-lines.txt","right":"bvh/vr_prediction_models/model(dmp)-dataset(return-bottle-hold)-npsi(30)-hold(3)/final-lines.txt","att_check":true},"trial_type":"html-keyboard-response","trial_index":202,"time_elapsed":653756,"internal_node_id":"0.0-8.0-3.48","subject":"00qqp089tz364ge","sona":"7477"},{"rt":212,"stimulus":"<p>Bereit?</p>","key_press":32,"trial_type":"html-keyboard-response","trial_index":203,"time_elapsed":653971,"internal_node_id":"0.0-8.0-0.49","subject":"00qqp089tz364ge","sona":"7477"},{"rt":null,"stimulus":"<div style=\"font-size:60px;\">+</div>","key_press":null,"trial_type":"html-keyboard-response","trial_index":204,"time_elapsed":655995,"internal_node_id":"0.0-8.0-1.49","subject":"00qqp089tz364ge","sona":"7477"},{"trial_type":"turing-test","trial_index":205,"time_elapsed":661795,"internal_node_id":"0.0-8.0-2.49","subject":"00qqp089tz364ge","sona":"7477"},{"rt":327,"stimulus":"<p>Welche Sequenz haben Sie als natürlicher empfunden?</p>","key_press":70,"test_part":"response","test_stimulus":{"position":0,"left":"bvh/return-bottle-training3-lines.txt","right":"bvh/vr_prediction_models/model(tmp)-dataset(return-bottle)-numprim(5)-hold(3)/final-lines.txt","att_check":false},"trial_type":"html-keyboard-response","trial_index":206,"time_elapsed":662130,"internal_node_id":"0.0-8.0-3.49","subject":"00qqp089tz364ge","sona":"7477"},{"rt":240,"stimulus":"<p>Bereit?</p>","key_press":32,"trial_type":"html-keyboard-response","trial_index":207,"time_elapsed":662375,"internal_node_id":"0.0-8.0-0.50","subject":"00qqp089tz364ge","sona":"7477"},{"rt":null,"stimulus":"<div style=\"font-size:60px;\">+</div>","key_press":null,"trial_type":"html-keyboard-response","trial_index":208,"time_elapsed":664414,"internal_node_id":"0.0-8.0-1.50","subject":"00qqp089tz364ge","sona":"7477"},{"trial_type":"turing-test","trial_index":209,"time_elapsed":668073,"internal_node_id":"0.0-8.0-2.50","subject":"00qqp089tz364ge","sona":"7477"},{"rt":503,"stimulus":"<p>Welche Sequenz haben Sie als natürlicher empfunden?</p>","key_press":70,"test_part":"response","test_stimulus":{"position":1,"left":"bvh/vr_prediction_models/model(dmp)-dataset(pass-bottle-hold)-npsi(30)-hold(3)/final-lines.txt","right":"bvh/pass-bottle-hold-training3-lines.txt","att_check":false},"trial_type":"html-keyboard-response","trial_index":210,"time_elapsed":668584,"internal_node_id":"0.0-8.0-3.50","subject":"00qqp089tz364ge","sona":"7477"},{"rt":569,"stimulus":"<p>Bereit?</p>","key_press":32,"trial_type":"html-keyboard-response","trial_index":211,"time_elapsed":669158,"internal_node_id":"0.0-8.0-0.51","subject":"00qqp089tz364ge","sona":"7477"},{"rt":null,"stimulus":"<div style=\"font-size:60px;\">+</div>","key_press":null,"trial_type":"html-keyboard-response","trial_index":212,"time_elapsed":671194,"internal_node_id":"0.0-8.0-1.51","subject":"00qqp089tz364ge","sona":"7477"},{"trial_type":"turing-test","trial_index":213,"time_elapsed":674697,"internal_node_id":"0.0-8.0-2.51","subject":"00qqp089tz364ge","sona":"7477"},{"rt":891,"stimulus":"<p>Welche Sequenz haben Sie als natürlicher empfunden?</p>","key_press":74,"test_part":"response","test_stimulus":{"position":0,"left":"bvh/pass-bottle-hold-training1-lines.txt","right":"bvh/vr_prediction_models/model(vcgpdm)-dataset(pass-bottle-hold)-mode(ELBO)-parts(1)-dyn(10)-lvm(30)-hold(1)/final-lines.txt","att_check":false},"trial_type":"html-keyboard-response","trial_index":214,"time_elapsed":675595,"internal_node_id":"0.0-8.0-3.51","subject":"00qqp089tz364ge","sona":"7477"},{"rt":338,"stimulus":"<p>Bereit?</p>","key_press":32,"trial_type":"html-keyboard-response","trial_index":215,"time_elapsed":675938,"internal_node_id":"0.0-8.0-0.52","subject":"00qqp089tz364ge","sona":"7477"},{"rt":null,"stimulus":"<div style=\"font-size:60px;\">+</div>","key_press":null,"trial_type":"html-keyboard-response","trial_index":216,"time_elapsed":677968,"internal_node_id":"0.0-8.0-1.52","subject":"00qqp089tz364ge","sona":"7477"},{"trial_type":"turing-test","trial_index":217,"time_elapsed":681789,"internal_node_id":"0.0-8.0-2.52","subject":"00qqp089tz364ge","sona":"7477"},{"rt":245,"stimulus":"<p>Welche Sequenz haben Sie als natürlicher empfunden?</p>","key_press":70,"test_part":"response","test_stimulus":{"position":1,"left":"bvh/vr_prediction_models/model(vcgpdm)-dataset(return-bottle-hold)-mode(ELBO)-parts(3)-dyn(10)-lvm(25)-hold(2)/final-lines.txt","right":"bvh/return-bottle-hold-training2-lines.txt","att_check":false},"trial_type":"html-keyboard-response","trial_index":218,"time_elapsed":682040,"internal_node_id":"0.0-8.0-3.52","subject":"00qqp089tz364ge","sona":"7477"},{"rt":274,"stimulus":"<p>Bereit?</p>","key_press":32,"trial_type":"html-keyboard-response","trial_index":219,"time_elapsed":682319,"internal_node_id":"0.0-8.0-0.53","subject":"00qqp089tz364ge","sona":"7477"},{"rt":null,"stimulus":"<div style=\"font-size:60px;\">+</div>","key_press":null,"trial_type":"html-keyboard-response","trial_index":220,"time_elapsed":684349,"internal_node_id":"0.0-8.0-1.53","subject":"00qqp089tz364ge","sona":"7477"},{"trial_type":"turing-test","trial_index":221,"time_elapsed":687919,"internal_node_id":"0.0-8.0-2.53","subject":"00qqp089tz364ge","sona":"7477"},{"rt":323,"stimulus":"<p>Welche Sequenz haben Sie als natürlicher empfunden?</p>","key_press":74,"test_part":"response","test_stimulus":{"position":1,"left":"bvh/vr_prediction_models/model(tmp)-dataset(pass-bottle-hold)-numprim(10)-hold(3)/final-lines.txt","right":"bvh/pass-bottle-hold-training3-lines.txt","att_check":false},"trial_type":"html-keyboard-response","trial_index":222,"time_elapsed":688248,"internal_node_id":"0.0-8.0-3.53","subject":"00qqp089tz364ge","sona":"7477"},{"rt":249,"stimulus":"<p>Bereit?</p>","key_press":32,"trial_type":"html-keyboard-response","trial_index":223,"time_elapsed":688503,"internal_node_id":"0.0-8.0-0.54","subject":"00qqp089tz364ge","sona":"7477"},{"rt":null,"stimulus":"<div style=\"font-size:60px;\">+</div>","key_press":null,"trial_type":"html-keyboard-response","trial_index":224,"time_elapsed":690519,"internal_node_id":"0.0-8.0-1.54","subject":"00qqp089tz364ge","sona":"7477"},{"trial_type":"turing-test","trial_index":225,"time_elapsed":694018,"internal_node_id":"0.0-8.0-2.54","subject":"00qqp089tz364ge","sona":"7477"},{"rt":279,"stimulus":"<p>Welche Sequenz haben Sie als natürlicher empfunden?</p>","key_press":70,"test_part":"response","test_stimulus":{"position":0,"left":"bvh/return-bottle-hold-training2-lines.txt","right":"bvh/vr_prediction_models/model(tmp)-dataset(return-bottle-hold)-numprim(15)-hold(2)/final-lines.txt","att_check":false},"trial_type":"html-keyboard-response","trial_index":226,"time_elapsed":694304,"internal_node_id":"0.0-8.0-3.54","subject":"00qqp089tz364ge","sona":"7477"},{"rt":246,"stimulus":"<p>Bereit?</p>","key_press":32,"trial_type":"html-keyboard-response","trial_index":227,"time_elapsed":694559,"internal_node_id":"0.0-8.0-0.55","subject":"00qqp089tz364ge","sona":"7477"},{"rt":null,"stimulus":"<div style=\"font-size:60px;\">+</div>","key_press":null,"trial_type":"html-keyboard-response","trial_index":228,"time_elapsed":696590,"internal_node_id":"0.0-8.0-1.55","subject":"00qqp089tz364ge","sona":"7477"},{"trial_type":"turing-test","trial_index":229,"time_elapsed":700351,"internal_node_id":"0.0-8.0-2.55","subject":"00qqp089tz364ge","sona":"7477"},{"rt":555,"stimulus":"<p>Welche Sequenz haben Sie als natürlicher empfunden?</p>","key_press":74,"test_part":"response","test_stimulus":{"position":1,"left":"bvh/vr_prediction_models/model(vcgpdm)-dataset(pass-bottle-hold)-mode(ELBO)-parts(3)-dyn(20)-lvm(35)-hold(2)/final-lines.txt","right":"bvh/pass-bottle-hold-training2-lines.txt","att_check":false},"trial_type":"html-keyboard-response","trial_index":230,"time_elapsed":700914,"internal_node_id":"0.0-8.0-3.55","subject":"00qqp089tz364ge","sona":"7477"},{"rt":170,"stimulus":"<p>Bereit?</p>","key_press":32,"trial_type":"html-keyboard-response","trial_index":231,"time_elapsed":701088,"internal_node_id":"0.0-8.0-0.56","subject":"00qqp089tz364ge","sona":"7477"},{"rt":null,"stimulus":"<div style=\"font-size:60px;\">+</div>","key_press":null,"trial_type":"html-keyboard-response","trial_index":232,"time_elapsed":703121,"internal_node_id":"0.0-8.0-1.56","subject":"00qqp089tz364ge","sona":"7477"},{"trial_type":"turing-test","trial_index":233,"time_elapsed":708474,"internal_node_id":"0.0-8.0-2.56","subject":"00qqp089tz364ge","sona":"7477"},{"rt":379,"stimulus":"<p>Welche Sequenz haben Sie als natürlicher empfunden?</p>","key_press":74,"test_part":"response","test_stimulus":{"position":1,"left":"bvh/vr_prediction_models/model(vcgpdm)-dataset(return-bottle-hold)-mode(ELBO)-parts(3)-dyn(20)-lvm(20)-hold(0)/final-lines.txt","right":"bvh/return-bottle-hold-training0-lines.txt","att_check":false},"trial_type":"html-keyboard-response","trial_index":234,"time_elapsed":708860,"internal_node_id":"0.0-8.0-3.56","subject":"00qqp089tz364ge","sona":"7477"},{"rt":228,"stimulus":"<p>Bereit?</p>","key_press":32,"trial_type":"html-keyboard-response","trial_index":235,"time_elapsed":709096,"internal_node_id":"0.0-8.0-0.57","subject":"00qqp089tz364ge","sona":"7477"},{"rt":null,"stimulus":"<div style=\"font-size:60px;\">+</div>","key_press":null,"trial_type":"html-keyboard-response","trial_index":236,"time_elapsed":711134,"internal_node_id":"0.0-8.0-1.57","subject":"00qqp089tz364ge","sona":"7477"},{"trial_type":"turing-test","trial_index":237,"time_elapsed":716664,"internal_node_id":"0.0-8.0-2.57","subject":"00qqp089tz364ge","sona":"7477"},{"rt":290,"stimulus":"<p>Welche Sequenz haben Sie als natürlicher empfunden?</p>","key_press":70,"test_part":"response","test_stimulus":{"position":0,"left":"bvh/pass-bottle-training1-lines.txt","right":"bvh/vr_prediction_models/model(tmp)-dataset(pass-bottle)-numprim(11)-hold(1)/final-lines.txt","att_check":false},"trial_type":"html-keyboard-response","trial_index":238,"time_elapsed":716963,"internal_node_id":"0.0-8.0-3.57","subject":"00qqp089tz364ge","sona":"7477"},{"rt":256,"stimulus":"<p>Bereit?</p>","key_press":32,"trial_type":"html-keyboard-response","trial_index":239,"time_elapsed":717226,"internal_node_id":"0.0-8.0-0.58","subject":"00qqp089tz364ge","sona":"7477"},{"rt":null,"stimulus":"<div style=\"font-size:60px;\">+</div>","key_press":null,"trial_type":"html-keyboard-response","trial_index":240,"time_elapsed":719263,"internal_node_id":"0.0-8.0-1.58","subject":"00qqp089tz364ge","sona":"7477"},{"trial_type":"turing-test","trial_index":241,"time_elapsed":724915,"internal_node_id":"0.0-8.0-2.58","subject":"00qqp089tz364ge","sona":"7477"},{"rt":665,"stimulus":"<p>Welche Sequenz haben Sie als natürlicher empfunden?</p>","key_press":70,"test_part":"response","test_stimulus":{"position":0,"left":"bvh/return-bottle-hold-training0-lines.txt","right":"bvh/vr_prediction_models/model(dmp)-dataset(return-bottle-hold)-npsi(20)-hold(0)/final-lines.txt","att_check":false},"trial_type":"html-keyboard-response","trial_index":242,"time_elapsed":725589,"internal_node_id":"0.0-8.0-3.58","subject":"00qqp089tz364ge","sona":"7477"},{"rt":344,"stimulus":"<p>Bereit?</p>","key_press":32,"trial_type":"html-keyboard-response","trial_index":243,"time_elapsed":725940,"internal_node_id":"0.0-8.0-0.59","subject":"00qqp089tz364ge","sona":"7477"},{"rt":null,"stimulus":"<div style=\"font-size:60px;\">+</div>","key_press":null,"trial_type":"html-keyboard-response","trial_index":244,"time_elapsed":727976,"internal_node_id":"0.0-8.0-1.59","subject":"00qqp089tz364ge","sona":"7477"},{"trial_type":"turing-test","trial_index":245,"time_elapsed":733841,"internal_node_id":"0.0-8.0-2.59","subject":"00qqp089tz364ge","sona":"7477"},{"rt":676,"stimulus":"<p>Welche Sequenz haben Sie als natürlicher empfunden?</p>","key_press":74,"test_part":"response","test_stimulus":{"position":1,"left":"bvh/vr_prediction_models/model(tmp)-dataset(return-bottle)-numprim(9)-hold(4)/final-lines.txt","right":"bvh/return-bottle-training4-lines.txt","att_check":false},"trial_type":"html-keyboard-response","trial_index":246,"time_elapsed":734525,"internal_node_id":"0.0-8.0-3.59","subject":"00qqp089tz364ge","sona":"7477"},{"rt":249,"stimulus":"<p>Bereit?</p>","key_press":32,"trial_type":"html-keyboard-response","trial_index":247,"time_elapsed":734779,"internal_node_id":"0.0-8.0-0.60","subject":"00qqp089tz364ge","sona":"7477"},{"rt":null,"stimulus":"<div style=\"font-size:60px;\">+</div>","key_press":null,"trial_type":"html-keyboard-response","trial_index":248,"time_elapsed":736804,"internal_node_id":"0.0-8.0-1.60","subject":"00qqp089tz364ge","sona":"7477"},{"trial_type":"turing-test","trial_index":249,"time_elapsed":740286,"internal_node_id":"0.0-8.0-2.60","subject":"00qqp089tz364ge","sona":"7477"},{"rt":968,"stimulus":"<p>Welche Sequenz haben Sie als natürlicher empfunden?</p>","key_press":70,"test_part":"response","test_stimulus":{"position":1,"left":"bvh/vr_prediction_models/model(vcgpdm)-dataset(pass-bottle-hold)-mode(ELBO)-parts(1)-dyn(30)-lvm(30)-hold(1)/final-lines.txt","right":"bvh/pass-bottle-hold-training1-lines.txt","att_check":false},"trial_type":"html-keyboard-response","trial_index":250,"time_elapsed":741263,"internal_node_id":"0.0-8.0-3.60","subject":"00qqp089tz364ge","sona":"7477"},{"rt":279,"stimulus":"<p>Bereit?</p>","key_press":32,"trial_type":"html-keyboard-response","trial_index":251,"time_elapsed":741550,"internal_node_id":"0.0-8.0-0.61","subject":"00qqp089tz364ge","sona":"7477"},{"rt":null,"stimulus":"<div style=\"font-size:60px;\">+</div>","key_press":null,"trial_type":"html-keyboard-response","trial_index":252,"time_elapsed":743588,"internal_node_id":"0.0-8.0-1.61","subject":"00qqp089tz364ge","sona":"7477"},{"trial_type":"turing-test","trial_index":253,"time_elapsed":749250,"internal_node_id":"0.0-8.0-2.61","subject":"00qqp089tz364ge","sona":"7477"},{"rt":385,"stimulus":"<p>Welche Sequenz haben Sie als natürlicher empfunden?</p>","key_press":74,"test_part":"response","test_stimulus":{"position":1,"left":"bvh/vr_prediction_models/model(vcgpdm)-dataset(return-bottle)-mode(ELBO)-parts(3)-dyn(10)-lvm(10)-hold(0)/final-lines.txt","right":"bvh/return-bottle-training0-lines.txt","att_check":false},"trial_type":"html-keyboard-response","trial_index":254,"time_elapsed":749647,"internal_node_id":"0.0-8.0-3.61","subject":"00qqp089tz364ge","sona":"7477"},{"rt":206,"stimulus":"<p>Bereit?</p>","key_press":32,"trial_type":"html-keyboard-response","trial_index":255,"time_elapsed":749861,"internal_node_id":"0.0-8.0-0.62","subject":"00qqp089tz364ge","sona":"7477"},{"rt":null,"stimulus":"<div style=\"font-size:60px;\">+</div>","key_press":null,"trial_type":"html-keyboard-response","trial_index":256,"time_elapsed":751891,"internal_node_id":"0.0-8.0-1.62","subject":"00qqp089tz364ge","sona":"7477"},{"trial_type":"turing-test","trial_index":257,"time_elapsed":755231,"internal_node_id":"0.0-8.0-2.62","subject":"00qqp089tz364ge","sona":"7477"},{"rt":549,"stimulus":"<p>Welche Sequenz haben Sie als natürlicher empfunden?</p>","key_press":70,"test_part":"response","test_stimulus":{"position":1,"left":"bvh/vr_prediction_models/model(tmp)-dataset(pass-bottle-hold)-numprim(6)-hold(1)/final-lines.txt","right":"bvh/pass-bottle-hold-training1-lines.txt","att_check":false},"trial_type":"html-keyboard-response","trial_index":258,"time_elapsed":755789,"internal_node_id":"0.0-8.0-3.62","subject":"00qqp089tz364ge","sona":"7477"},{"rt":233,"stimulus":"<p>Bereit?</p>","key_press":32,"trial_type":"html-keyboard-response","trial_index":259,"time_elapsed":756027,"internal_node_id":"0.0-8.0-0.63","subject":"00qqp089tz364ge","sona":"7477"},{"rt":null,"stimulus":"<div style=\"font-size:60px;\">+</div>","key_press":null,"trial_type":"html-keyboard-response","trial_index":260,"time_elapsed":758061,"internal_node_id":"0.0-8.0-1.63","subject":"00qqp089tz364ge","sona":"7477"},{"trial_type":"turing-test","trial_index":261,"time_elapsed":761989,"internal_node_id":"0.0-8.0-2.63","subject":"00qqp089tz364ge","sona":"7477"},{"rt":292,"stimulus":"<p>Welche Sequenz haben Sie als natürlicher empfunden?</p>","key_press":70,"test_part":"response","test_stimulus":{"position":0,"left":"bvh/return-bottle-hold-training4-lines.txt","right":"bvh/vr_prediction_models/model(vcgpdm)-dataset(return-bottle-hold)-mode(ELBO)-parts(3)-dyn(20)-lvm(35)-hold(4)/final-lines.txt","att_check":false},"trial_type":"html-keyboard-response","trial_index":262,"time_elapsed":762288,"internal_node_id":"0.0-8.0-3.63","subject":"00qqp089tz364ge","sona":"7477"},{"rt":264,"stimulus":"<p>Bereit?</p>","key_press":32,"trial_type":"html-keyboard-response","trial_index":263,"time_elapsed":762560,"internal_node_id":"0.0-8.0-0.64","subject":"00qqp089tz364ge","sona":"7477"},{"rt":null,"stimulus":"<div style=\"font-size:60px;\">+</div>","key_press":null,"trial_type":"html-keyboard-response","trial_index":264,"time_elapsed":764588,"internal_node_id":"0.0-8.0-1.64","subject":"00qqp089tz364ge","sona":"7477"},{"trial_type":"turing-test","trial_index":265,"time_elapsed":768374,"internal_node_id":"0.0-8.0-2.64","subject":"00qqp089tz364ge","sona":"7477"},{"rt":393,"stimulus":"<p>Welche Sequenz haben Sie als natürlicher empfunden?</p>","key_press":74,"test_part":"response","test_stimulus":{"position":1,"left":"bvh/vr_prediction_models/model(vcgpdm)-dataset(pass-bottle-hold)-mode(ELBO)-parts(3)-dyn(20)-lvm(15)-hold(3)/final-lines.txt","right":"bvh/pass-bottle-hold-training3-lines.txt","att_check":false},"trial_type":"html-keyboard-response","trial_index":266,"time_elapsed":768775,"internal_node_id":"0.0-8.0-3.64","subject":"00qqp089tz364ge","sona":"7477"},{"rt":168,"stimulus":"<p>Bereit?</p>","key_press":32,"trial_type":"html-keyboard-response","trial_index":267,"time_elapsed":768949,"internal_node_id":"0.0-8.0-0.65","subject":"00qqp089tz364ge","sona":"7477"},{"rt":null,"stimulus":"<div style=\"font-size:60px;\">+</div>","key_press":null,"trial_type":"html-keyboard-response","trial_index":268,"time_elapsed":770974,"internal_node_id":"0.0-8.0-1.65","subject":"00qqp089tz364ge","sona":"7477"},{"trial_type":"turing-test","trial_index":269,"time_elapsed":774859,"internal_node_id":"0.0-8.0-2.65","subject":"00qqp089tz364ge","sona":"7477"},{"rt":298,"stimulus":"<p>Welche Sequenz haben Sie als natürlicher empfunden?</p>","key_press":70,"test_part":"response","test_stimulus":{"position":0,"left":"bvh/pass-bottle-hold-training3-lines.txt","right":"bvh/vr_prediction_models/model(vcgpdm)-dataset(pass-bottle-hold)-mode(ELBO)-parts(1)-dyn(20)-lvm(30)-hold(3)/final-lines.txt","att_check":false},"trial_type":"html-keyboard-response","trial_index":270,"time_elapsed":775165,"internal_node_id":"0.0-8.0-3.65","subject":"00qqp089tz364ge","sona":"7477"},{"rt":248,"stimulus":"<p>Bereit?</p>","key_press":32,"trial_type":"html-keyboard-response","trial_index":271,"time_elapsed":775421,"internal_node_id":"0.0-8.0-0.66","subject":"00qqp089tz364ge","sona":"7477"},{"rt":null,"stimulus":"<div style=\"font-size:60px;\">+</div>","key_press":null,"trial_type":"html-keyboard-response","trial_index":272,"time_elapsed":777459,"internal_node_id":"0.0-8.0-1.66","subject":"00qqp089tz364ge","sona":"7477"},{"trial_type":"turing-test","trial_index":273,"time_elapsed":782791,"internal_node_id":"0.0-8.0-2.66","subject":"00qqp089tz364ge","sona":"7477"},{"rt":548,"stimulus":"<p>Welche Sequenz haben Sie als natürlicher empfunden?</p>","key_press":70,"test_part":"response","test_stimulus":{"position":1,"left":"bvh/vr_prediction_models/model(vcgpdm)-dataset(return-bottle-hold)-mode(ELBO)-parts(1)-dyn(10)-lvm(5)-hold(0)/final-lines.txt","right":"bvh/return-bottle-hold-training0-lines.txt","att_check":false},"trial_type":"html-keyboard-response","trial_index":274,"time_elapsed":783347,"internal_node_id":"0.0-8.0-3.66","subject":"00qqp089tz364ge","sona":"7477"},{"rt":235,"stimulus":"<p>Bereit?</p>","key_press":32,"trial_type":"html-keyboard-response","trial_index":275,"time_elapsed":783585,"internal_node_id":"0.0-8.0-0.67","subject":"00qqp089tz364ge","sona":"7477"},{"rt":null,"stimulus":"<div style=\"font-size:60px;\">+</div>","key_press":null,"trial_type":"html-keyboard-response","trial_index":276,"time_elapsed":785602,"internal_node_id":"0.0-8.0-1.67","subject":"00qqp089tz364ge","sona":"7477"},{"trial_type":"turing-test","trial_index":277,"time_elapsed":789052,"internal_node_id":"0.0-8.0-2.67","subject":"00qqp089tz364ge","sona":"7477"},{"rt":266,"stimulus":"<p>Welche Sequenz haben Sie als natürlicher empfunden?</p>","key_press":74,"test_part":"response","test_stimulus":{"position":0,"left":"bvh/pass-bottle-hold-training2-lines.txt","right":"bvh/vr_prediction_models/model(tmp)-dataset(pass-bottle-hold)-numprim(3)-hold(2)/final-lines.txt","att_check":false},"trial_type":"html-keyboard-response","trial_index":278,"time_elapsed":789324,"internal_node_id":"0.0-8.0-3.67","subject":"00qqp089tz364ge","sona":"7477"},{"rt":198,"stimulus":"<p>Bereit?</p>","key_press":32,"trial_type":"html-keyboard-response","trial_index":279,"time_elapsed":789524,"internal_node_id":"0.0-8.0-0.68","subject":"00qqp089tz364ge","sona":"7477"},{"rt":null,"stimulus":"<div style=\"font-size:60px;\">+</div>","key_press":null,"trial_type":"html-keyboard-response","trial_index":280,"time_elapsed":791552,"internal_node_id":"0.0-8.0-1.68","subject":"00qqp089tz364ge","sona":"7477"},{"trial_type":"turing-test","trial_index":281,"time_elapsed":794952,"internal_node_id":"0.0-8.0-2.68","subject":"00qqp089tz364ge","sona":"7477"},{"rt":333,"stimulus":"<p>Welche Sequenz haben Sie als natürlicher empfunden?</p>","key_press":70,"test_part":"response","test_stimulus":{"position":1,"left":"bvh/vr_prediction_models/model(tmp)-dataset(return-bottle-hold)-numprim(15)-hold(2)/final-lines.txt","right":"bvh/return-bottle-hold-training2-lines.txt","att_check":false},"trial_type":"html-keyboard-response","trial_index":282,"time_elapsed":795294,"internal_node_id":"0.0-8.0-3.68","subject":"00qqp089tz364ge","sona":"7477"},{"rt":349,"stimulus":"<p>Bereit?</p>","key_press":32,"trial_type":"html-keyboard-response","trial_index":283,"time_elapsed":795653,"internal_node_id":"0.0-8.0-0.69","subject":"00qqp089tz364ge","sona":"7477"},{"rt":null,"stimulus":"<div style=\"font-size:60px;\">+</div>","key_press":null,"trial_type":"html-keyboard-response","trial_index":284,"time_elapsed":797682,"internal_node_id":"0.0-8.0-1.69","subject":"00qqp089tz364ge","sona":"7477"},{"trial_type":"turing-test","trial_index":285,"time_elapsed":803841,"internal_node_id":"0.0-8.0-2.69","subject":"00qqp089tz364ge","sona":"7477"},{"rt":254,"stimulus":"<p>Welche Sequenz haben Sie als natürlicher empfunden?</p>","key_press":70,"test_part":"response","test_stimulus":{"position":0,"left":"bvh/pass-bottle-training2-lines.txt","right":"bvh/vr_prediction_models/model(tmp)-dataset(pass-bottle)-numprim(7)-hold(2)/final-lines.txt","att_check":false},"trial_type":"html-keyboard-response","trial_index":286,"time_elapsed":804106,"internal_node_id":"0.0-8.0-3.69","subject":"00qqp089tz364ge","sona":"7477"},{"rt":241,"stimulus":"<p>Bereit?</p>","key_press":32,"trial_type":"html-keyboard-response","trial_index":287,"time_elapsed":804354,"internal_node_id":"0.0-8.0-0.70","subject":"00qqp089tz364ge","sona":"7477"},{"rt":null,"stimulus":"<div style=\"font-size:60px;\">+</div>","key_press":null,"trial_type":"html-keyboard-response","trial_index":288,"time_elapsed":806391,"internal_node_id":"0.0-8.0-1.70","subject":"00qqp089tz364ge","sona":"7477"},{"trial_type":"turing-test","trial_index":289,"time_elapsed":810068,"internal_node_id":"0.0-8.0-2.70","subject":"00qqp089tz364ge","sona":"7477"},{"rt":326,"stimulus":"<p>Welche Sequenz haben Sie als natürlicher empfunden?</p>","key_press":74,"test_part":"response","test_stimulus":{"position":1,"left":"bvh/vr_prediction_models/model(vcgpdm)-dataset(pass-bottle-hold)-mode(ELBO)-parts(1)-dyn(30)-lvm(35)-hold(0)/final-lines.txt","right":"bvh/pass-bottle-hold-training0-lines.txt","att_check":false},"trial_type":"html-keyboard-response","trial_index":290,"time_elapsed":810402,"internal_node_id":"0.0-8.0-3.70","subject":"00qqp089tz364ge","sona":"7477"},{"rt":177,"stimulus":"<p>Bereit?</p>","key_press":32,"trial_type":"html-keyboard-response","trial_index":291,"time_elapsed":810586,"internal_node_id":"0.0-8.0-0.71","subject":"00qqp089tz364ge","sona":"7477"},{"rt":null,"stimulus":"<div style=\"font-size:60px;\">+</div>","key_press":null,"trial_type":"html-keyboard-response","trial_index":292,"time_elapsed":812596,"internal_node_id":"0.0-8.0-1.71","subject":"00qqp089tz364ge","sona":"7477"},{"trial_type":"turing-test","trial_index":293,"time_elapsed":818456,"internal_node_id":"0.0-8.0-2.71","subject":"00qqp089tz364ge","sona":"7477"},{"rt":359,"stimulus":"<p>Welche Sequenz haben Sie als natürlicher empfunden?</p>","key_press":70,"test_part":"response","test_stimulus":{"position":0,"left":"bvh/return-bottle-hold-training0-lines.txt","right":"bvh/vr_prediction_models/model(vcgpdm)-dataset(return-bottle-hold)-mode(ELBO)-parts(1)-dyn(10)-lvm(30)-hold(0)/final-lines.txt","att_check":false},"trial_type":"html-keyboard-response","trial_index":294,"time_elapsed":818824,"internal_node_id":"0.0-8.0-3.71","subject":"00qqp089tz364ge","sona":"7477"},{"rt":264,"stimulus":"<p>Bereit?</p>","key_press":32,"trial_type":"html-keyboard-response","trial_index":295,"time_elapsed":819095,"internal_node_id":"0.0-8.0-0.72","subject":"00qqp089tz364ge","sona":"7477"},{"rt":null,"stimulus":"<div style=\"font-size:60px;\">+</div>","key_press":null,"trial_type":"html-keyboard-response","trial_index":296,"time_elapsed":821096,"internal_node_id":"0.0-8.0-1.72","subject":"00qqp089tz364ge","sona":"7477"},{"trial_type":"turing-test","trial_index":297,"time_elapsed":826658,"internal_node_id":"0.0-8.0-2.72","subject":"00qqp089tz364ge","sona":"7477"},{"rt":570,"stimulus":"<p>Welche Sequenz haben Sie als natürlicher empfunden?</p>","key_press":74,"test_part":"response","test_stimulus":{"position":1,"left":"bvh/vr_prediction_models/model(vcgpdm)-dataset(return-bottle)-mode(ELBO)-parts(3)-dyn(10)-lvm(30)-hold(0)/final-lines.txt","right":"bvh/return-bottle-training0-lines.txt","att_check":false},"trial_type":"html-keyboard-response","trial_index":298,"time_elapsed":827238,"internal_node_id":"0.0-8.0-3.72","subject":"00qqp089tz364ge","sona":"7477"},{"rt":224,"stimulus":"<p>Bereit?</p>","key_press":32,"trial_type":"html-keyboard-response","trial_index":299,"time_elapsed":827469,"internal_node_id":"0.0-8.0-0.73","subject":"00qqp089tz364ge","sona":"7477"},{"rt":null,"stimulus":"<div style=\"font-size:60px;\">+</div>","key_press":null,"trial_type":"html-keyboard-response","trial_index":300,"time_elapsed":829498,"internal_node_id":"0.0-8.0-1.73","subject":"00qqp089tz364ge","sona":"7477"},{"trial_type":"turing-test","trial_index":301,"time_elapsed":835806,"internal_node_id":"0.0-8.0-2.73","subject":"00qqp089tz364ge","sona":"7477"},{"rt":321,"stimulus":"<p>Welche Sequenz haben Sie als natürlicher empfunden?</p>","key_press":70,"test_part":"response","test_stimulus":{"position":0,"left":"bvh/return-bottle-training4-lines.txt","right":"bvh/vr_prediction_models/model(vcgpdm)-dataset(return-bottle)-mode(ELBO)-parts(1)-dyn(30)-lvm(35)-hold(4)/final-lines.txt","att_check":false},"trial_type":"html-keyboard-response","trial_index":302,"time_elapsed":836137,"internal_node_id":"0.0-8.0-3.73","subject":"00qqp089tz364ge","sona":"7477"},{"rt":160,"stimulus":"<p>Bereit?</p>","key_press":32,"trial_type":"html-keyboard-response","trial_index":303,"time_elapsed":836304,"internal_node_id":"0.0-8.0-0.74","subject":"00qqp089tz364ge","sona":"7477"},{"rt":null,"stimulus":"<div style=\"font-size:60px;\">+</div>","key_press":null,"trial_type":"html-keyboard-response","trial_index":304,"time_elapsed":838327,"internal_node_id":"0.0-8.0-1.74","subject":"00qqp089tz364ge","sona":"7477"},{"trial_type":"turing-test","trial_index":305,"time_elapsed":842499,"internal_node_id":"0.0-8.0-2.74","subject":"00qqp089tz364ge","sona":"7477"},{"rt":280,"stimulus":"<p>Welche Sequenz haben Sie als natürlicher empfunden?</p>","key_press":74,"test_part":"response","test_stimulus":{"position":0,"left":"bvh/pass-bottle-hold-training3-lines.txt","right":"bvh/vr_prediction_models/model(dmp)-dataset(pass-bottle-hold)-npsi(50)-hold(3)/final-lines.txt","att_check":false},"trial_type":"html-keyboard-response","trial_index":306,"time_elapsed":842789,"internal_node_id":"0.0-8.0-3.74","subject":"00qqp089tz364ge","sona":"7477"},{"rt":186,"stimulus":"<p>Bereit?</p>","key_press":32,"trial_type":"html-keyboard-response","trial_index":307,"time_elapsed":842982,"internal_node_id":"0.0-8.0-0.75","subject":"00qqp089tz364ge","sona":"7477"},{"rt":null,"stimulus":"<div style=\"font-size:60px;\">+</div>","key_press":null,"trial_type":"html-keyboard-response","trial_index":308,"time_elapsed":845010,"internal_node_id":"0.0-8.0-1.75","subject":"00qqp089tz364ge","sona":"7477"},{"trial_type":"turing-test","trial_index":309,"time_elapsed":850814,"internal_node_id":"0.0-8.0-2.75","subject":"00qqp089tz364ge","sona":"7477"},{"rt":275,"stimulus":"<p>Welche Sequenz haben Sie als natürlicher empfunden?</p>","key_press":74,"test_part":"response","test_stimulus":{"position":1,"left":"bvh/vr_prediction_models/model(vcgpdm)-dataset(pass-bottle)-mode(ELBO)-parts(1)-dyn(30)-lvm(35)-hold(1)/final-lines.txt","right":"bvh/pass-bottle-training1-lines.txt","att_check":false},"trial_type":"html-keyboard-response","trial_index":310,"time_elapsed":851097,"internal_node_id":"0.0-8.0-3.75","subject":"00qqp089tz364ge","sona":"7477"},{"rt":188,"stimulus":"<p>Bereit?</p>","key_press":32,"trial_type":"html-keyboard-response","trial_index":311,"time_elapsed":851296,"internal_node_id":"0.0-8.0-0.76","subject":"00qqp089tz364ge","sona":"7477"},{"rt":null,"stimulus":"<div style=\"font-size:60px;\">+</div>","key_press":null,"trial_type":"html-keyboard-response","trial_index":312,"time_elapsed":853325,"internal_node_id":"0.0-8.0-1.76","subject":"00qqp089tz364ge","sona":"7477"},{"trial_type":"turing-test","trial_index":313,"time_elapsed":859105,"internal_node_id":"0.0-8.0-2.76","subject":"00qqp089tz364ge","sona":"7477"},{"rt":835,"stimulus":"<p>Welche Sequenz haben Sie als natürlicher empfunden?</p>","key_press":74,"test_part":"response","test_stimulus":{"position":0,"left":"bvh/return-bottle-training3-lines.txt","right":"bvh/vr_prediction_models/model(dmp)-dataset(return-bottle)-npsi(10)-hold(3)/final-lines.txt","att_check":true},"trial_type":"html-keyboard-response","trial_index":314,"time_elapsed":859948,"internal_node_id":"0.0-8.0-3.76","subject":"00qqp089tz364ge","sona":"7477"},{"rt":167,"stimulus":"<p>Bereit?</p>","key_press":32,"trial_type":"html-keyboard-response","trial_index":315,"time_elapsed":860121,"internal_node_id":"0.0-8.0-0.77","subject":"00qqp089tz364ge","sona":"7477"},{"rt":null,"stimulus":"<div style=\"font-size:60px;\">+</div>","key_press":null,"trial_type":"html-keyboard-response","trial_index":316,"time_elapsed":862145,"internal_node_id":"0.0-8.0-1.77","subject":"00qqp089tz364ge","sona":"7477"},{"trial_type":"turing-test","trial_index":317,"time_elapsed":865834,"internal_node_id":"0.0-8.0-2.77","subject":"00qqp089tz364ge","sona":"7477"},{"rt":311,"stimulus":"<p>Welche Sequenz haben Sie als natürlicher empfunden?</p>","key_press":70,"test_part":"response","test_stimulus":{"position":0,"left":"bvh/pass-bottle-hold-training4-lines.txt","right":"bvh/vr_prediction_models/model(tmp)-dataset(pass-bottle-hold)-numprim(8)-hold(4)/final-lines.txt","att_check":false},"trial_type":"html-keyboard-response","trial_index":318,"time_elapsed":866153,"internal_node_id":"0.0-8.0-3.77","subject":"00qqp089tz364ge","sona":"7477"},{"rt":216,"stimulus":"<p>Bereit?</p>","key_press":32,"trial_type":"html-keyboard-response","trial_index":319,"time_elapsed":866377,"internal_node_id":"0.0-8.0-0.78","subject":"00qqp089tz364ge","sona":"7477"},{"rt":null,"stimulus":"<div style=\"font-size:60px;\">+</div>","key_press":null,"trial_type":"html-keyboard-response","trial_index":320,"time_elapsed":868410,"internal_node_id":"0.0-8.0-1.78","subject":"00qqp089tz364ge","sona":"7477"},{"trial_type":"turing-test","trial_index":321,"time_elapsed":872359,"internal_node_id":"0.0-8.0-2.78","subject":"00qqp089tz364ge","sona":"7477"},{"rt":473,"stimulus":"<p>Welche Sequenz haben Sie als natürlicher empfunden?</p>","key_press":74,"test_part":"response","test_stimulus":{"position":0,"left":"bvh/return-bottle-hold-training2-lines.txt","right":"bvh/vr_prediction_models/model(vcgpdm)-dataset(return-bottle-hold)-mode(MAP)-parts(3)-hold(2)/final-lines.txt","att_check":false},"trial_type":"html-keyboard-response","trial_index":322,"time_elapsed":872842,"internal_node_id":"0.0-8.0-3.78","subject":"00qqp089tz364ge","sona":"7477"},{"rt":183,"stimulus":"<p>Bereit?</p>","key_press":32,"trial_type":"html-keyboard-response","trial_index":323,"time_elapsed":873032,"internal_node_id":"0.0-8.0-0.79","subject":"00qqp089tz364ge","sona":"7477"},{"rt":null,"stimulus":"<div style=\"font-size:60px;\">+</div>","key_press":null,"trial_type":"html-keyboard-response","trial_index":324,"time_elapsed":875050,"internal_node_id":"0.0-8.0-1.79","subject":"00qqp089tz364ge","sona":"7477"},{"trial_type":"turing-test","trial_index":325,"time_elapsed":878570,"internal_node_id":"0.0-8.0-2.79","subject":"00qqp089tz364ge","sona":"7477"},{"rt":358,"stimulus":"<p>Welche Sequenz haben Sie als natürlicher empfunden?</p>","key_press":70,"test_part":"response","test_stimulus":{"position":0,"left":"bvh/return-bottle-hold-training2-lines.txt","right":"bvh/vr_prediction_models/model(tmp)-dataset(return-bottle-hold)-numprim(3)-hold(2)/final-lines.txt","att_check":false},"trial_type":"html-keyboard-response","trial_index":326,"time_elapsed":878937,"internal_node_id":"0.0-8.0-3.79","subject":"00qqp089tz364ge","sona":"7477"},{"rt":11939,"responses":"{\"age\":\" 31\",\"gender\":\"männlich\"}","trial_type":"survey-text","trial_index":327,"time_elapsed":891083,"internal_node_id":"0.0-10.0-0.0","subject":"00qqp089tz364ge","sona":"7477"},{"rt":84991,"responses":"{\"area\":\"Wirbelsäule und Beine in Kombination mit den Armbewegungen\",\"Q1\":\"Steifheit der Bewegungen\",\"Q2\":\"Nicht flüssige Bewegungen der Arme und das Zusammenspiel von Rumpf und Knie bzw. Beine bei der Bewegung\"}","trial_type":"survey-text","trial_index":328,"time_elapsed":976089,"internal_node_id":"0.0-10.0-1.0","subject":"00qqp089tz364ge","sona":"7477"}]