[{"rt":3584.000000000001,"stimulus":"<p>Welcome!<br> Please choose your language to start the experiment in the chosen language.</p><p>Willkommen!<br> Bitte wählen Sie eine Sprache, um das Experiment in der ausgewählten Sprache zu starten</p>","button_pressed":"1","trial_type":"html-button-response","trial_index":0,"time_elapsed":3593,"internal_node_id":"0.0-0.0","subject":"dqxh9cq81vv3scv","sona":"5290"},{"view_history":"[{\"page_index\":0,\"viewing_time\":4808},{\"page_index\":1,\"viewing_time\":3056},{\"page_index\":2,\"viewing_time\":10702},{\"page_index\":3,\"viewing_time\":5560},{\"page_index\":4,\"viewing_time\":3077.0000000000036}]","rt":27204,"trial_type":"instructions","trial_index":1,"time_elapsed":30798,"internal_node_id":"0.0-1.0-0.0","subject":"dqxh9cq81vv3scv","sona":"5290"},{"rt":1890,"stimulus":"<p>Bereit?</p>","key_press":32,"trial_type":"html-keyboard-response","trial_index":2,"time_elapsed":32689,"internal_node_id":"0.0-3.0","subject":"dqxh9cq81vv3scv","sona":"5290"},{"rt":null,"stimulus":"<div style=\"font-size:60px;\">+</div>","key_press":null,"trial_type":"html-keyboard-response","trial_index":3,"time_elapsed":34691,"internal_node_id":"0.0-4.0","subject":"dqxh9cq81vv3scv","sona":"5290"},{"trial_type":"training","trial_index":4,"time_elapsed":38009,"internal_node_id":"0.0-5.0","subject":"dqxh9cq81vv3scv","sona":"5290"},{"rt":491,"stimulus":"<p>Welche Sequenz haben Sie als natürlicher empfunden?</p>","key_press":70,"trial_type":"html-keyboard-response","trial_index":5,"time_elapsed":38503,"internal_node_id":"0.0-6.0","subject":"dqxh9cq81vv3scv","sona":"5290"},{"rt":5089,"stimulus":"<p>Das Experiment startet nun.</p><p><small>Bitte drücken Sie den Knopf, wenn Sie bereit sind.</small></p>","button_pressed":"0","trial_type":"html-button-response","trial_index":6,"time_elapsed":43593,"internal_node_id":"0.0-7.0","subject":"dqxh9cq81vv3scv","sona":"5290"},{"rt":2071.0000000000073,"stimulus":"<p>Bereit?</p>","key_press":32,"trial_type":"html-keyboard-response","trial_index":7,"time_elapsed":45665,"internal_node_id":"0.0-8.0-0.0","subject":"dqxh9cq81vv3scv","sona":"5290"},{"rt":null,"stimulus":"<div style=\"font-size:60px;\">+</div>","key_press":null,"trial_type":"html-keyboard-response","trial_index":8,"time_elapsed":47668,"internal_node_id":"0.0-8.0-1.0","subject":"dqxh9cq81vv3scv","sona":"5290"},{"trial_type":"turing-test","trial_index":9,"time_elapsed":52884,"internal_node_id":"0.0-8.0-2.0","subject":"dqxh9cq81vv3scv","sona":"5290"},{"rt":412,"stimulus":"<p>Welche Sequenz haben Sie als natürlicher empfunden?</p>","key_press":74,"test_part":"response","test_stimulus":{"position":1,"left":"bvh/vr_prediction_models/model(vcgpdm)-dataset(return-bottle-hold)-mode(ELBO)-parts(1)-dyn(10)-lvm(5)-hold(0)/final-lines.txt","right":"bvh/return-bottle-hold-training0-lines.txt","att_check":false},"trial_type":"html-keyboard-response","trial_index":10,"time_elapsed":53298,"internal_node_id":"0.0-8.0-3.0","subject":"dqxh9cq81vv3scv","sona":"5290"},{"rt":6940.999999999993,"stimulus":"<p>Bereit?</p>","key_press":32,"trial_type":"html-keyboard-response","trial_index":11,"time_elapsed":60240,"internal_node_id":"0.0-8.0-0.1","subject":"dqxh9cq81vv3scv","sona":"5290"},{"rt":null,"stimulus":"<div style=\"font-size:60px;\">+</div>","key_press":null,"trial_type":"html-keyboard-response","trial_index":12,"time_elapsed":62242,"internal_node_id":"0.0-8.0-1.1","subject":"dqxh9cq81vv3scv","sona":"5290"},{"trial_type":"turing-test","trial_index":13,"time_elapsed":68064,"internal_node_id":"0.0-8.0-2.1","subject":"dqxh9cq81vv3scv","sona":"5290"},{"rt":385,"stimulus":"<p>Welche Sequenz haben Sie als natürlicher empfunden?</p>","key_press":74,"test_part":"response","test_stimulus":{"position":1,"left":"bvh/vr_prediction_models/model(tmp)-dataset(pass-bottle)-numprim(6)-hold(3)/final-lines.txt","right":"bvh/pass-bottle-training3-lines.txt","att_check":false},"trial_type":"html-keyboard-response","trial_index":14,"time_elapsed":68452,"internal_node_id":"0.0-8.0-3.1","subject":"dqxh9cq81vv3scv","sona":"5290"},{"rt":665,"stimulus":"<p>Bereit?</p>","key_press":32,"trial_type":"html-keyboard-response","trial_index":15,"time_elapsed":69118,"internal_node_id":"0.0-8.0-0.2","subject":"dqxh9cq81vv3scv","sona":"5290"},{"rt":null,"stimulus":"<div style=\"font-size:60px;\">+</div>","key_press":null,"trial_type":"html-keyboard-response","trial_index":16,"time_elapsed":71122,"internal_node_id":"0.0-8.0-1.2","subject":"dqxh9cq81vv3scv","sona":"5290"},{"trial_type":"turing-test","trial_index":17,"time_elapsed":74747,"internal_node_id":"0.0-8.0-2.2","subject":"dqxh9cq81vv3scv","sona":"5290"},{"rt":753,"stimulus":"<p>Welche Sequenz haben Sie als natürlicher empfunden?</p>","key_press":70,"test_part":"response","test_stimulus":{"position":1,"left":"bvh/vr_prediction_models/model(vcgpdm)-dataset(pass-bottle-hold)-mode(ELBO)-parts(1)-dyn(10)-lvm(5)-hold(3)/final-lines.txt","right":"bvh/pass-bottle-hold-training3-lines.txt","att_check":false},"trial_type":"html-keyboard-response","trial_index":18,"time_elapsed":75502,"internal_node_id":"0.0-8.0-3.2","subject":"dqxh9cq81vv3scv","sona":"5290"},{"rt":567,"stimulus":"<p>Bereit?</p>","key_press":32,"trial_type":"html-keyboard-response","trial_index":19,"time_elapsed":76071,"internal_node_id":"0.0-8.0-0.3","subject":"dqxh9cq81vv3scv","sona":"5290"},{"rt":null,"stimulus":"<div style=\"font-size:60px;\">+</div>","key_press":null,"trial_type":"html-keyboard-response","trial_index":20,"time_elapsed":78074,"internal_node_id":"0.0-8.0-1.3","subject":"dqxh9cq81vv3scv","sona":"5290"},{"trial_type":"turing-test","trial_index":21,"time_elapsed":83973,"internal_node_id":"0.0-8.0-2.3","subject":"dqxh9cq81vv3scv","sona":"5290"},{"rt":278,"stimulus":"<p>Welche Sequenz haben Sie als natürlicher empfunden?</p>","key_press":74,"test_part":"response","test_stimulus":{"position":1,"left":"bvh/vr_prediction_models/model(vcgpdm)-dataset(pass-bottle)-mode(ELBO)-parts(1)-dyn(35)-lvm(10)-hold(4)/final-lines.txt","right":"bvh/pass-bottle-training4-lines.txt","att_check":false},"trial_type":"html-keyboard-response","trial_index":22,"time_elapsed":84254,"internal_node_id":"0.0-8.0-3.3","subject":"dqxh9cq81vv3scv","sona":"5290"},{"rt":387,"stimulus":"<p>Bereit?</p>","key_press":32,"trial_type":"html-keyboard-response","trial_index":23,"time_elapsed":84642,"internal_node_id":"0.0-8.0-0.4","subject":"dqxh9cq81vv3scv","sona":"5290"},{"rt":null,"stimulus":"<div style=\"font-size:60px;\">+</div>","key_press":null,"trial_type":"html-keyboard-response","trial_index":24,"time_elapsed":86645,"internal_node_id":"0.0-8.0-1.4","subject":"dqxh9cq81vv3scv","sona":"5290"},{"trial_type":"turing-test","trial_index":25,"time_elapsed":92725,"internal_node_id":"0.0-8.0-2.4","subject":"dqxh9cq81vv3scv","sona":"5290"},{"rt":653,"stimulus":"<p>Welche Sequenz haben Sie als natürlicher empfunden?</p>","key_press":74,"test_part":"response","test_stimulus":{"position":1,"left":"bvh/vr_prediction_models/model(dmp)-dataset(pass-bottle)-npsi(10)-hold(2)/final-lines.txt","right":"bvh/pass-bottle-training2-lines.txt","att_check":true},"trial_type":"html-keyboard-response","trial_index":26,"time_elapsed":93379,"internal_node_id":"0.0-8.0-3.4","subject":"dqxh9cq81vv3scv","sona":"5290"},{"rt":468.99999999998545,"stimulus":"<p>Bereit?</p>","key_press":32,"trial_type":"html-keyboard-response","trial_index":27,"time_elapsed":93849,"internal_node_id":"0.0-8.0-0.5","subject":"dqxh9cq81vv3scv","sona":"5290"},{"rt":null,"stimulus":"<div style=\"font-size:60px;\">+</div>","key_press":null,"trial_type":"html-keyboard-response","trial_index":28,"time_elapsed":95852,"internal_node_id":"0.0-8.0-1.5","subject":"dqxh9cq81vv3scv","sona":"5290"},{"trial_type":"turing-test","trial_index":29,"time_elapsed":101577,"internal_node_id":"0.0-8.0-2.5","subject":"dqxh9cq81vv3scv","sona":"5290"},{"rt":391,"stimulus":"<p>Welche Sequenz haben Sie als natürlicher empfunden?</p>","key_press":74,"test_part":"response","test_stimulus":{"position":1,"left":"bvh/vr_prediction_models/model(dmp)-dataset(pass-bottle)-npsi(20)-hold(3)/final-lines.txt","right":"bvh/pass-bottle-training3-lines.txt","att_check":false},"trial_type":"html-keyboard-response","trial_index":30,"time_elapsed":101970,"internal_node_id":"0.0-8.0-3.5","subject":"dqxh9cq81vv3scv","sona":"5290"},{"rt":513,"stimulus":"<p>Bereit?</p>","key_press":32,"trial_type":"html-keyboard-response","trial_index":31,"time_elapsed":102485,"internal_node_id":"0.0-8.0-0.6","subject":"dqxh9cq81vv3scv","sona":"5290"},{"rt":null,"stimulus":"<div style=\"font-size:60px;\">+</div>","key_press":null,"trial_type":"html-keyboard-response","trial_index":32,"time_elapsed":104487,"internal_node_id":"0.0-8.0-1.6","subject":"dqxh9cq81vv3scv","sona":"5290"},{"trial_type":"turing-test","trial_index":33,"time_elapsed":110228,"internal_node_id":"0.0-8.0-2.6","subject":"dqxh9cq81vv3scv","sona":"5290"},{"rt":479,"stimulus":"<p>Welche Sequenz haben Sie als natürlicher empfunden?</p>","key_press":74,"test_part":"response","test_stimulus":{"position":1,"left":"bvh/vr_prediction_models/model(dmp)-dataset(pass-bottle)-npsi(30)-hold(3)/final-lines.txt","right":"bvh/pass-bottle-training3-lines.txt","att_check":false},"trial_type":"html-keyboard-response","trial_index":34,"time_elapsed":110709,"internal_node_id":"0.0-8.0-3.6","subject":"dqxh9cq81vv3scv","sona":"5290"},{"rt":383,"stimulus":"<p>Bereit?</p>","key_press":32,"trial_type":"html-keyboard-response","trial_index":35,"time_elapsed":111094,"internal_node_id":"0.0-8.0-0.7","subject":"dqxh9cq81vv3scv","sona":"5290"},{"rt":null,"stimulus":"<div style=\"font-size:60px;\">+</div>","key_press":null,"trial_type":"html-keyboard-response","trial_index":36,"time_elapsed":113096,"internal_node_id":"0.0-8.0-1.7","subject":"dqxh9cq81vv3scv","sona":"5290"},{"trial_type":"turing-test","trial_index":37,"time_elapsed":116789,"internal_node_id":"0.0-8.0-2.7","subject":"dqxh9cq81vv3scv","sona":"5290"},{"rt":396,"stimulus":"<p>Welche Sequenz haben Sie als natürlicher empfunden?</p>","key_press":70,"test_part":"response","test_stimulus":{"position":1,"left":"bvh/vr_prediction_models/model(vcgpdm)-dataset(return-bottle-hold)-mode(ELBO)-parts(1)-dyn(20)-lvm(5)-hold(3)/final-lines.txt","right":"bvh/return-bottle-hold-training3-lines.txt","att_check":false},"trial_type":"html-keyboard-response","trial_index":38,"time_elapsed":117188,"internal_node_id":"0.0-8.0-3.7","subject":"dqxh9cq81vv3scv","sona":"5290"},{"rt":411,"stimulus":"<p>Bereit?</p>","key_press":32,"trial_type":"html-keyboard-response","trial_index":39,"time_elapsed":117601,"internal_node_id":"0.0-8.0-0.8","subject":"dqxh9cq81vv3scv","sona":"5290"},{"rt":null,"stimulus":"<div style=\"font-size:60px;\">+</div>","key_press":null,"trial_type":"html-keyboard-response","trial_index":40,"time_elapsed":119605,"internal_node_id":"0.0-8.0-1.8","subject":"dqxh9cq81vv3scv","sona":"5290"},{"trial_type":"turing-test","trial_index":41,"time_elapsed":125354,"internal_node_id":"0.0-8.0-2.8","subject":"dqxh9cq81vv3scv","sona":"5290"},{"rt":787,"stimulus":"<p>Welche Sequenz haben Sie als natürlicher empfunden?</p>","key_press":74,"test_part":"response","test_stimulus":{"position":0,"left":"bvh/pass-bottle-training3-lines.txt","right":"bvh/vr_prediction_models/model(dmp)-dataset(pass-bottle)-npsi(80)-hold(3)/final-lines.txt","att_check":false},"trial_type":"html-keyboard-response","trial_index":42,"time_elapsed":126143,"internal_node_id":"0.0-8.0-3.8","subject":"dqxh9cq81vv3scv","sona":"5290"},{"rt":967.0000000000146,"stimulus":"<p>Bereit?</p>","key_press":32,"trial_type":"html-keyboard-response","trial_index":43,"time_elapsed":127111,"internal_node_id":"0.0-8.0-0.9","subject":"dqxh9cq81vv3scv","sona":"5290"},{"rt":null,"stimulus":"<div style=\"font-size:60px;\">+</div>","key_press":null,"trial_type":"html-keyboard-response","trial_index":44,"time_elapsed":129114,"internal_node_id":"0.0-8.0-1.9","subject":"dqxh9cq81vv3scv","sona":"5290"},{"trial_type":"turing-test","trial_index":45,"time_elapsed":134851,"internal_node_id":"0.0-8.0-2.9","subject":"dqxh9cq81vv3scv","sona":"5290"},{"rt":605,"stimulus":"<p>Welche Sequenz haben Sie als natürlicher empfunden?</p>","key_press":74,"test_part":"response","test_stimulus":{"position":1,"left":"bvh/vr_prediction_models/model(vcgpdm)-dataset(pass-bottle)-mode(MAP)-parts(1)-hold(4)/final-lines.txt","right":"bvh/pass-bottle-training4-lines.txt","att_check":false},"trial_type":"html-keyboard-response","trial_index":46,"time_elapsed":135459,"internal_node_id":"0.0-8.0-3.9","subject":"dqxh9cq81vv3scv","sona":"5290"},{"rt":414,"stimulus":"<p>Bereit?</p>","key_press":32,"trial_type":"html-keyboard-response","trial_index":47,"time_elapsed":135874,"internal_node_id":"0.0-8.0-0.10","subject":"dqxh9cq81vv3scv","sona":"5290"},{"rt":null,"stimulus":"<div style=\"font-size:60px;\">+</div>","key_press":null,"trial_type":"html-keyboard-response","trial_index":48,"time_elapsed":137876,"internal_node_id":"0.0-8.0-1.10","subject":"dqxh9cq81vv3scv","sona":"5290"},{"trial_type":"turing-test","trial_index":49,"time_elapsed":143943,"internal_node_id":"0.0-8.0-2.10","subject":"dqxh9cq81vv3scv","sona":"5290"},{"rt":697,"stimulus":"<p>Welche Sequenz haben Sie als natürlicher empfunden?</p>","key_press":74,"test_part":"response","test_stimulus":{"position":1,"left":"bvh/vr_prediction_models/model(vcgpdm)-dataset(pass-bottle)-mode(ELBO)-parts(3)-dyn(10)-lvm(30)-hold(2)/final-lines.txt","right":"bvh/pass-bottle-training2-lines.txt","att_check":false},"trial_type":"html-keyboard-response","trial_index":50,"time_elapsed":144644,"internal_node_id":"0.0-8.0-3.10","subject":"dqxh9cq81vv3scv","sona":"5290"},{"rt":473,"stimulus":"<p>Bereit?</p>","key_press":32,"trial_type":"html-keyboard-response","trial_index":51,"time_elapsed":145118,"internal_node_id":"0.0-8.0-0.11","subject":"dqxh9cq81vv3scv","sona":"5290"},{"rt":null,"stimulus":"<div style=\"font-size:60px;\">+</div>","key_press":null,"trial_type":"html-keyboard-response","trial_index":52,"time_elapsed":147121,"internal_node_id":"0.0-8.0-1.11","subject":"dqxh9cq81vv3scv","sona":"5290"},{"trial_type":"turing-test","trial_index":53,"time_elapsed":153181,"internal_node_id":"0.0-8.0-2.11","subject":"dqxh9cq81vv3scv","sona":"5290"}]