[{"rt":4457.919999957085,"stimulus":"<p>Welcome!<br> Please choose your language to start the experiment in the chosen language.</p><p>Willkommen!<br> Bitte wählen Sie eine Sprache, um das Experiment in der ausgewählten Sprache zu starten</p>","button_pressed":"1","trial_type":"html-button-response","trial_index":0,"time_elapsed":4482,"internal_node_id":"0.0-0.0","subject":"4tf2eg54hcrzemg","sona":"8794"},{"view_history":"[{\"page_index\":0,\"viewing_time\":8918.115000007674},{\"page_index\":1,\"viewing_time\":4943.209999939427},{\"page_index\":2,\"viewing_time\":6399.910000036471},{\"page_index\":3,\"viewing_time\":5503.689999924973},{\"page_index\":4,\"viewing_time\":5584.660000051372}]","rt":31350.619999924675,"trial_type":"instructions","trial_index":1,"time_elapsed":35834,"internal_node_id":"0.0-1.0-0.0","subject":"4tf2eg54hcrzemg","sona":"8794"},{"rt":2905.7899999897927,"stimulus":"<p>Bereit?</p>","key_press":32,"trial_type":"html-keyboard-response","trial_index":2,"time_elapsed":38743,"internal_node_id":"0.0-3.0","subject":"4tf2eg54hcrzemg","sona":"8794"},{"rt":null,"stimulus":"<div style=\"font-size:60px;\">+</div>","key_press":null,"trial_type":"html-keyboard-response","trial_index":3,"time_elapsed":40753,"internal_node_id":"0.0-4.0","subject":"4tf2eg54hcrzemg","sona":"8794"},{"trial_type":"training","trial_index":4,"time_elapsed":44203,"internal_node_id":"0.0-5.0","subject":"4tf2eg54hcrzemg","sona":"8794"},{"rt":3058.9799999725074,"stimulus":"<p>Welche Sequenz haben Sie als natürlicher empfunden?</p>","key_press":70,"trial_type":"html-keyboard-response","trial_index":5,"time_elapsed":47265,"internal_node_id":"0.0-6.0","subject":"4tf2eg54hcrzemg","sona":"8794"},{"rt":10878.765000030398,"stimulus":"<p>Das Experiment startet nun.</p><p><small>Bitte drücken Sie den Knopf, wenn Sie bereit sind.</small></p>","button_pressed":"0","trial_type":"html-button-response","trial_index":6,"time_elapsed":58146,"internal_node_id":"0.0-7.0","subject":"4tf2eg54hcrzemg","sona":"8794"},{"rt":1882.975000073202,"stimulus":"<p>Bereit?</p>","key_press":32,"trial_type":"html-keyboard-response","trial_index":7,"time_elapsed":60032,"internal_node_id":"0.0-8.0-0.0","subject":"4tf2eg54hcrzemg","sona":"8794"},{"rt":null,"stimulus":"<div style=\"font-size:60px;\">+</div>","key_press":null,"trial_type":"html-keyboard-response","trial_index":8,"time_elapsed":62036,"internal_node_id":"0.0-8.0-1.0","subject":"4tf2eg54hcrzemg","sona":"8794"},{"trial_type":"turing-test","trial_index":9,"time_elapsed":66881,"internal_node_id":"0.0-8.0-2.0","subject":"4tf2eg54hcrzemg","sona":"8794"},{"rt":1114.6849999204278,"stimulus":"<p>Welche Sequenz haben Sie als natürlicher empfunden?</p>","key_press":74,"test_part":"response","test_stimulus":{"position":1,"left":"bvh/vr_prediction_models/model(vcgpdm)-dataset(pass-bottle-hold)-mode(ELBO)-parts(3)-dyn(25)-lvm(15)-hold(3)/final-lines.txt","right":"bvh/pass-bottle-hold-training3-lines.txt","att_check":false},"trial_type":"html-keyboard-response","trial_index":10,"time_elapsed":68002,"internal_node_id":"0.0-8.0-3.0","subject":"4tf2eg54hcrzemg","sona":"8794"},{"rt":1205.5600000312552,"stimulus":"<p>Bereit?</p>","key_press":32,"trial_type":"html-keyboard-response","trial_index":11,"time_elapsed":69212,"internal_node_id":"0.0-8.0-0.1","subject":"4tf2eg54hcrzemg","sona":"8794"},{"rt":null,"stimulus":"<div style=\"font-size:60px;\">+</div>","key_press":null,"trial_type":"html-keyboard-response","trial_index":12,"time_elapsed":71216,"internal_node_id":"0.0-8.0-1.1","subject":"4tf2eg54hcrzemg","sona":"8794"},{"trial_type":"turing-test","trial_index":13,"time_elapsed":77309,"internal_node_id":"0.0-8.0-2.1","subject":"4tf2eg54hcrzemg","sona":"8794"},{"rt":2340.499999932945,"stimulus":"<p>Welche Sequenz haben Sie als natürlicher empfunden?</p>","key_press":70,"test_part":"response","test_stimulus":{"position":0,"left":"bvh/pass-bottle-training3-lines.txt","right":"bvh/vr_prediction_models/model(vcgpdm)-dataset(pass-bottle)-mode(ELBO)-parts(1)-dyn(30)-lvm(30)-hold(3)/final-lines.txt","att_check":false},"trial_type":"html-keyboard-response","trial_index":14,"time_elapsed":79655,"internal_node_id":"0.0-8.0-3.1","subject":"4tf2eg54hcrzemg","sona":"8794"},{"rt":904.0800000075251,"stimulus":"<p>Bereit?</p>","key_press":32,"trial_type":"html-keyboard-response","trial_index":15,"time_elapsed":80563,"internal_node_id":"0.0-8.0-0.2","subject":"4tf2eg54hcrzemg","sona":"8794"},{"rt":null,"stimulus":"<div style=\"font-size:60px;\">+</div>","key_press":null,"trial_type":"html-keyboard-response","trial_index":16,"time_elapsed":82566,"internal_node_id":"0.0-8.0-1.2","subject":"4tf2eg54hcrzemg","sona":"8794"},{"trial_type":"turing-test","trial_index":17,"time_elapsed":86165,"internal_node_id":"0.0-8.0-2.2","subject":"4tf2eg54hcrzemg","sona":"8794"},{"rt":1071.9800000078976,"stimulus":"<p>Welche Sequenz haben Sie als natürlicher empfunden?</p>","key_press":74,"test_part":"response","test_stimulus":{"position":1,"left":"bvh/vr_prediction_models/model(vcgpdm)-dataset(pass-bottle-hold)-mode(ELBO)-parts(3)-dyn(30)-lvm(15)-hold(0)/final-lines.txt","right":"bvh/pass-bottle-hold-training0-lines.txt","att_check":false},"trial_type":"html-keyboard-response","trial_index":18,"time_elapsed":87243,"internal_node_id":"0.0-8.0-3.2","subject":"4tf2eg54hcrzemg","sona":"8794"},{"rt":986.2200000789016,"stimulus":"<p>Bereit?</p>","key_press":32,"trial_type":"html-keyboard-response","trial_index":19,"time_elapsed":88233,"internal_node_id":"0.0-8.0-0.3","subject":"4tf2eg54hcrzemg","sona":"8794"},{"rt":null,"stimulus":"<div style=\"font-size:60px;\">+</div>","key_press":null,"trial_type":"html-keyboard-response","trial_index":20,"time_elapsed":90235,"internal_node_id":"0.0-8.0-1.3","subject":"4tf2eg54hcrzemg","sona":"8794"},{"trial_type":"turing-test","trial_index":21,"time_elapsed":94084,"internal_node_id":"0.0-8.0-2.3","subject":"4tf2eg54hcrzemg","sona":"8794"},{"rt":925.9200000669807,"stimulus":"<p>Welche Sequenz haben Sie als natürlicher empfunden?</p>","key_press":74,"test_part":"response","test_stimulus":{"position":1,"left":"bvh/vr_prediction_models/model(dmp)-dataset(return-bottle-hold)-npsi(90)-hold(4)/final-lines.txt","right":"bvh/return-bottle-hold-training4-lines.txt","att_check":false},"trial_type":"html-keyboard-response","trial_index":22,"time_elapsed":95015,"internal_node_id":"0.0-8.0-3.3","subject":"4tf2eg54hcrzemg","sona":"8794"},{"rt":713.190000038594,"stimulus":"<p>Bereit?</p>","key_press":32,"trial_type":"html-keyboard-response","trial_index":23,"time_elapsed":95732,"internal_node_id":"0.0-8.0-0.4","subject":"4tf2eg54hcrzemg","sona":"8794"},{"rt":null,"stimulus":"<div style=\"font-size:60px;\">+</div>","key_press":null,"trial_type":"html-keyboard-response","trial_index":24,"time_elapsed":97736,"internal_node_id":"0.0-8.0-1.4","subject":"4tf2eg54hcrzemg","sona":"8794"},{"trial_type":"turing-test","trial_index":25,"time_elapsed":101464,"internal_node_id":"0.0-8.0-2.4","subject":"4tf2eg54hcrzemg","sona":"8794"},{"rt":1005.2000000141561,"stimulus":"<p>Welche Sequenz haben Sie als natürlicher empfunden?</p>","key_press":74,"test_part":"response","test_stimulus":{"position":0,"left":"bvh/return-bottle-hold-training4-lines.txt","right":"bvh/vr_prediction_models/model(dmp)-dataset(return-bottle-hold)-npsi(40)-hold(4)/final-lines.txt","att_check":false},"trial_type":"html-keyboard-response","trial_index":26,"time_elapsed":102473,"internal_node_id":"0.0-8.0-3.4","subject":"4tf2eg54hcrzemg","sona":"8794"},{"rt":755.3749999497086,"stimulus":"<p>Bereit?</p>","key_press":32,"trial_type":"html-keyboard-response","trial_index":27,"time_elapsed":103233,"internal_node_id":"0.0-8.0-0.5","subject":"4tf2eg54hcrzemg","sona":"8794"},{"rt":null,"stimulus":"<div style=\"font-size:60px;\">+</div>","key_press":null,"trial_type":"html-keyboard-response","trial_index":28,"time_elapsed":105236,"internal_node_id":"0.0-8.0-1.5","subject":"4tf2eg54hcrzemg","sona":"8794"},{"trial_type":"turing-test","trial_index":29,"time_elapsed":111160,"internal_node_id":"0.0-8.0-2.5","subject":"4tf2eg54hcrzemg","sona":"8794"},{"rt":619.8050000239164,"stimulus":"<p>Welche Sequenz haben Sie als natürlicher empfunden?</p>","key_press":74,"test_part":"response","test_stimulus":{"position":0,"left":"bvh/pass-bottle-training4-lines.txt","right":"bvh/vr_prediction_models/model(tmp)-dataset(pass-bottle)-numprim(12)-hold(4)/final-lines.txt","att_check":false},"trial_type":"html-keyboard-response","trial_index":30,"time_elapsed":111785,"internal_node_id":"0.0-8.0-3.5","subject":"4tf2eg54hcrzemg","sona":"8794"},{"rt":2093.059999984689,"stimulus":"<p>Bereit?</p>","key_press":32,"trial_type":"html-keyboard-response","trial_index":31,"time_elapsed":113883,"internal_node_id":"0.0-8.0-0.6","subject":"4tf2eg54hcrzemg","sona":"8794"},{"rt":null,"stimulus":"<div style=\"font-size:60px;\">+</div>","key_press":null,"trial_type":"html-keyboard-response","trial_index":32,"time_elapsed":115886,"internal_node_id":"0.0-8.0-1.6","subject":"4tf2eg54hcrzemg","sona":"8794"},{"trial_type":"turing-test","trial_index":33,"time_elapsed":122472,"internal_node_id":"0.0-8.0-2.6","subject":"4tf2eg54hcrzemg","sona":"8794"},{"rt":827.6899999473244,"stimulus":"<p>Welche Sequenz haben Sie als natürlicher empfunden?</p>","key_press":74,"test_part":"response","test_stimulus":{"position":1,"left":"bvh/vr_prediction_models/model(vcgpdm)-dataset(pass-bottle)-mode(ELBO)-parts(3)-dyn(20)-lvm(15)-hold(3)/final-lines.txt","right":"bvh/pass-bottle-training3-lines.txt","att_check":false},"trial_type":"html-keyboard-response","trial_index":34,"time_elapsed":123306,"internal_node_id":"0.0-8.0-3.6","subject":"4tf2eg54hcrzemg","sona":"8794"},{"rt":932.9549999674782,"stimulus":"<p>Bereit?</p>","key_press":32,"trial_type":"html-keyboard-response","trial_index":35,"time_elapsed":124243,"internal_node_id":"0.0-8.0-0.7","subject":"4tf2eg54hcrzemg","sona":"8794"},{"rt":null,"stimulus":"<div style=\"font-size:60px;\">+</div>","key_press":null,"trial_type":"html-keyboard-response","trial_index":36,"time_elapsed":126245,"internal_node_id":"0.0-8.0-1.7","subject":"4tf2eg54hcrzemg","sona":"8794"},{"trial_type":"turing-test","trial_index":37,"time_elapsed":132430,"internal_node_id":"0.0-8.0-2.7","subject":"4tf2eg54hcrzemg","sona":"8794"},{"rt":657.729999977164,"stimulus":"<p>Welche Sequenz haben Sie als natürlicher empfunden?</p>","key_press":70,"test_part":"response","test_stimulus":{"position":0,"left":"bvh/pass-bottle-training4-lines.txt","right":"bvh/vr_prediction_models/model(vcgpdm)-dataset(pass-bottle)-mode(ELBO)-parts(3)-dyn(20)-lvm(35)-hold(4)/final-lines.txt","att_check":false},"trial_type":"html-keyboard-response","trial_index":38,"time_elapsed":133094,"internal_node_id":"0.0-8.0-3.7","subject":"4tf2eg54hcrzemg","sona":"8794"},{"rt":1307.6499999733642,"stimulus":"<p>Bereit?</p>","key_press":32,"trial_type":"html-keyboard-response","trial_index":39,"time_elapsed":134407,"internal_node_id":"0.0-8.0-0.8","subject":"4tf2eg54hcrzemg","sona":"8794"},{"rt":null,"stimulus":"<div style=\"font-size:60px;\">+</div>","key_press":null,"trial_type":"html-keyboard-response","trial_index":40,"time_elapsed":136409,"internal_node_id":"0.0-8.0-1.8","subject":"4tf2eg54hcrzemg","sona":"8794"},{"trial_type":"turing-test","trial_index":41,"time_elapsed":142843,"internal_node_id":"0.0-8.0-2.8","subject":"4tf2eg54hcrzemg","sona":"8794"},{"rt":1577.3649999173358,"stimulus":"<p>Welche Sequenz haben Sie als natürlicher empfunden?</p>","key_press":74,"test_part":"response","test_stimulus":{"position":1,"left":"bvh/vr_prediction_models/model(vcgpdm)-dataset(return-bottle)-mode(ELBO)-parts(1)-dyn(20)-lvm(5)-hold(1)/final-lines.txt","right":"bvh/return-bottle-training1-lines.txt","att_check":false},"trial_type":"html-keyboard-response","trial_index":42,"time_elapsed":144427,"internal_node_id":"0.0-8.0-3.8","subject":"4tf2eg54hcrzemg","sona":"8794"},{"rt":733.089999994263,"stimulus":"<p>Bereit?</p>","key_press":32,"trial_type":"html-keyboard-response","trial_index":43,"time_elapsed":145164,"internal_node_id":"0.0-8.0-0.9","subject":"4tf2eg54hcrzemg","sona":"8794"},{"rt":null,"stimulus":"<div style=\"font-size:60px;\">+</div>","key_press":null,"trial_type":"html-keyboard-response","trial_index":44,"time_elapsed":147168,"internal_node_id":"0.0-8.0-1.9","subject":"4tf2eg54hcrzemg","sona":"8794"},{"trial_type":"turing-test","trial_index":45,"time_elapsed":153158,"internal_node_id":"0.0-8.0-2.9","subject":"4tf2eg54hcrzemg","sona":"8794"},{"rt":679.1250000242144,"stimulus":"<p>Welche Sequenz haben Sie als natürlicher empfunden?</p>","key_press":74,"test_part":"response","test_stimulus":{"position":0,"left":"bvh/return-bottle-training4-lines.txt","right":"bvh/vr_prediction_models/model(tmp)-dataset(return-bottle)-numprim(4)-hold(4)/final-lines.txt","att_check":false},"trial_type":"html-keyboard-response","trial_index":46,"time_elapsed":153844,"internal_node_id":"0.0-8.0-3.9","subject":"4tf2eg54hcrzemg","sona":"8794"},{"rt":2237.1099999872968,"stimulus":"<p>Bereit?</p>","key_press":32,"trial_type":"html-keyboard-response","trial_index":47,"time_elapsed":156086,"internal_node_id":"0.0-8.0-0.10","subject":"4tf2eg54hcrzemg","sona":"8794"},{"rt":null,"stimulus":"<div style=\"font-size:60px;\">+</div>","key_press":null,"trial_type":"html-keyboard-response","trial_index":48,"time_elapsed":158089,"internal_node_id":"0.0-8.0-1.10","subject":"4tf2eg54hcrzemg","sona":"8794"},{"trial_type":"turing-test","trial_index":49,"time_elapsed":181146,"internal_node_id":"0.0-8.0-2.10","subject":"4tf2eg54hcrzemg","sona":"8794"},{"rt":2214.070000103675,"stimulus":"<p>Welche Sequenz haben Sie als natürlicher empfunden?</p>","key_press":74,"test_part":"response","test_stimulus":{"position":1,"left":"bvh/vr_prediction_models/model(dmp)-dataset(pass-bottle-hold)-npsi(90)-hold(0)/final-lines.txt","right":"bvh/pass-bottle-hold-training0-lines.txt","att_check":true},"trial_type":"html-keyboard-response","trial_index":50,"time_elapsed":183367,"internal_node_id":"0.0-8.0-3.10","subject":"4tf2eg54hcrzemg","sona":"8794"},{"rt":852.5199999567121,"stimulus":"<p>Bereit?</p>","key_press":32,"trial_type":"html-keyboard-response","trial_index":51,"time_elapsed":184224,"internal_node_id":"0.0-8.0-0.11","subject":"4tf2eg54hcrzemg","sona":"8794"},{"rt":null,"stimulus":"<div style=\"font-size:60px;\">+</div>","key_press":null,"trial_type":"html-keyboard-response","trial_index":52,"time_elapsed":186228,"internal_node_id":"0.0-8.0-1.11","subject":"4tf2eg54hcrzemg","sona":"8794"},{"trial_type":"turing-test","trial_index":53,"time_elapsed":191740,"internal_node_id":"0.0-8.0-2.11","subject":"4tf2eg54hcrzemg","sona":"8794"},{"rt":829.0049999486655,"stimulus":"<p>Welche Sequenz haben Sie als natürlicher empfunden?</p>","key_press":70,"test_part":"response","test_stimulus":{"position":1,"left":"bvh/vr_prediction_models/model(vcgpdm)-dataset(return-bottle-hold)-mode(ELBO)-parts(1)-dyn(20)-lvm(5)-hold(0)/final-lines.txt","right":"bvh/return-bottle-hold-training0-lines.txt","att_check":false},"trial_type":"html-keyboard-response","trial_index":54,"time_elapsed":192575,"internal_node_id":"0.0-8.0-3.11","subject":"4tf2eg54hcrzemg","sona":"8794"},{"rt":1947.7099999785423,"stimulus":"<p>Bereit?</p>","key_press":32,"trial_type":"html-keyboard-response","trial_index":55,"time_elapsed":194528,"internal_node_id":"0.0-8.0-0.12","subject":"4tf2eg54hcrzemg","sona":"8794"},{"rt":null,"stimulus":"<div style=\"font-size:60px;\">+</div>","key_press":null,"trial_type":"html-keyboard-response","trial_index":56,"time_elapsed":196532,"internal_node_id":"0.0-8.0-1.12","subject":"4tf2eg54hcrzemg","sona":"8794"},{"trial_type":"turing-test","trial_index":57,"time_elapsed":203899,"internal_node_id":"0.0-8.0-2.12","subject":"4tf2eg54hcrzemg","sona":"8794"},{"rt":742.9649999830872,"stimulus":"<p>Welche Sequenz haben Sie als natürlicher empfunden?</p>","key_press":74,"test_part":"response","test_stimulus":{"position":0,"left":"bvh/pass-bottle-training4-lines.txt","right":"bvh/vr_prediction_models/model(vcgpdm)-dataset(pass-bottle)-mode(ELBO)-parts(1)-dyn(20)-lvm(5)-hold(4)/final-lines.txt","att_check":false},"trial_type":"html-keyboard-response","trial_index":58,"time_elapsed":204648,"internal_node_id":"0.0-8.0-3.12","subject":"4tf2eg54hcrzemg","sona":"8794"},{"rt":2082.219999982044,"stimulus":"<p>Bereit?</p>","key_press":32,"trial_type":"html-keyboard-response","trial_index":59,"time_elapsed":206735,"internal_node_id":"0.0-8.0-0.13","subject":"4tf2eg54hcrzemg","sona":"8794"},{"rt":null,"stimulus":"<div style=\"font-size:60px;\">+</div>","key_press":null,"trial_type":"html-keyboard-response","trial_index":60,"time_elapsed":208755,"internal_node_id":"0.0-8.0-1.13","subject":"4tf2eg54hcrzemg","sona":"8794"},{"trial_type":"turing-test","trial_index":61,"time_elapsed":219373,"internal_node_id":"0.0-8.0-2.13","subject":"4tf2eg54hcrzemg","sona":"8794"},{"rt":597.8749999776483,"stimulus":"<p>Welche Sequenz haben Sie als natürlicher empfunden?</p>","key_press":74,"test_part":"response","test_stimulus":{"position":0,"left":"bvh/pass-bottle-training0-lines.txt","right":"bvh/vr_prediction_models/model(vcgpdm)-dataset(pass-bottle)-mode(ELBO)-parts(1)-dyn(30)-lvm(35)-hold(0)/final-lines.txt","att_check":false},"trial_type":"html-keyboard-response","trial_index":62,"time_elapsed":219977,"internal_node_id":"0.0-8.0-3.13","subject":"4tf2eg54hcrzemg","sona":"8794"},{"rt":939.9799999082461,"stimulus":"<p>Bereit?</p>","key_press":32,"trial_type":"html-keyboard-response","trial_index":63,"time_elapsed":220925,"internal_node_id":"0.0-8.0-0.14","subject":"4tf2eg54hcrzemg","sona":"8794"},{"rt":null,"stimulus":"<div style=\"font-size:60px;\">+</div>","key_press":null,"trial_type":"html-keyboard-response","trial_index":64,"time_elapsed":222930,"internal_node_id":"0.0-8.0-1.14","subject":"4tf2eg54hcrzemg","sona":"8794"},{"trial_type":"turing-test","trial_index":65,"time_elapsed":229673,"internal_node_id":"0.0-8.0-2.14","subject":"4tf2eg54hcrzemg","sona":"8794"},{"rt":563.7550000101328,"stimulus":"<p>Welche Sequenz haben Sie als natürlicher empfunden?</p>","key_press":74,"test_part":"response","test_stimulus":{"position":0,"left":"bvh/pass-bottle-training2-lines.txt","right":"bvh/vr_prediction_models/model(tmp)-dataset(pass-bottle)-numprim(15)-hold(2)/final-lines.txt","att_check":false},"trial_type":"html-keyboard-response","trial_index":66,"time_elapsed":230248,"internal_node_id":"0.0-8.0-3.14","subject":"4tf2eg54hcrzemg","sona":"8794"},{"rt":822.1050000283867,"stimulus":"<p>Bereit?</p>","key_press":32,"trial_type":"html-keyboard-response","trial_index":67,"time_elapsed":231075,"internal_node_id":"0.0-8.0-0.15","subject":"4tf2eg54hcrzemg","sona":"8794"},{"rt":null,"stimulus":"<div style=\"font-size:60px;\">+</div>","key_press":null,"trial_type":"html-keyboard-response","trial_index":68,"time_elapsed":233079,"internal_node_id":"0.0-8.0-1.15","subject":"4tf2eg54hcrzemg","sona":"8794"},{"trial_type":"turing-test","trial_index":69,"time_elapsed":240314,"internal_node_id":"0.0-8.0-2.15","subject":"4tf2eg54hcrzemg","sona":"8794"},{"rt":702.0650000777096,"stimulus":"<p>Welche Sequenz haben Sie als natürlicher empfunden?</p>","key_press":74,"test_part":"response","test_stimulus":{"position":1,"left":"bvh/vr_prediction_models/model(vcgpdm)-dataset(return-bottle)-mode(ELBO)-parts(3)-dyn(10)-lvm(25)-hold(2)/final-lines.txt","right":"bvh/return-bottle-training2-lines.txt","att_check":false},"trial_type":"html-keyboard-response","trial_index":70,"time_elapsed":241028,"internal_node_id":"0.0-8.0-3.15","subject":"4tf2eg54hcrzemg","sona":"8794"},{"rt":1152.7700000442564,"stimulus":"<p>Bereit?</p>","key_press":32,"trial_type":"html-keyboard-response","trial_index":71,"time_elapsed":242185,"internal_node_id":"0.0-8.0-0.16","subject":"4tf2eg54hcrzemg","sona":"8794"},{"rt":null,"stimulus":"<div style=\"font-size:60px;\">+</div>","key_press":null,"trial_type":"html-keyboard-response","trial_index":72,"time_elapsed":244188,"internal_node_id":"0.0-8.0-1.16","subject":"4tf2eg54hcrzemg","sona":"8794"},{"trial_type":"turing-test","trial_index":73,"time_elapsed":250637,"internal_node_id":"0.0-8.0-2.16","subject":"4tf2eg54hcrzemg","sona":"8794"},{"rt":1484.154999954626,"stimulus":"<p>Welche Sequenz haben Sie als natürlicher empfunden?</p>","key_press":74,"test_part":"response","test_stimulus":{"position":1,"left":"bvh/vr_prediction_models/model(vcgpdm)-dataset(pass-bottle)-mode(ELBO)-parts(3)-dyn(25)-lvm(25)-hold(1)/final-lines.txt","right":"bvh/pass-bottle-training1-lines.txt","att_check":false},"trial_type":"html-keyboard-response","trial_index":74,"time_elapsed":252128,"internal_node_id":"0.0-8.0-3.16","subject":"4tf2eg54hcrzemg","sona":"8794"},{"rt":772.6849999744445,"stimulus":"<p>Bereit?</p>","key_press":32,"trial_type":"html-keyboard-response","trial_index":75,"time_elapsed":252906,"internal_node_id":"0.0-8.0-0.17","subject":"4tf2eg54hcrzemg","sona":"8794"},{"rt":null,"stimulus":"<div style=\"font-size:60px;\">+</div>","key_press":null,"trial_type":"html-keyboard-response","trial_index":76,"time_elapsed":254910,"internal_node_id":"0.0-8.0-1.17","subject":"4tf2eg54hcrzemg","sona":"8794"},{"trial_type":"turing-test","trial_index":77,"time_elapsed":260768,"internal_node_id":"0.0-8.0-2.17","subject":"4tf2eg54hcrzemg","sona":"8794"},{"rt":231.34000005666167,"stimulus":"<p>Welche Sequenz haben Sie als natürlicher empfunden?</p>","key_press":74,"test_part":"response","test_stimulus":{"position":0,"left":"bvh/pass-bottle-training4-lines.txt","right":"bvh/vr_prediction_models/model(tmp)-dataset(pass-bottle)-numprim(8)-hold(4)/final-lines.txt","att_check":false},"trial_type":"html-keyboard-response","trial_index":78,"time_elapsed":261006,"internal_node_id":"0.0-8.0-3.17","subject":"4tf2eg54hcrzemg","sona":"8794"},{"rt":2777.3550000274554,"stimulus":"<p>Bereit?</p>","key_press":32,"trial_type":"html-keyboard-response","trial_index":79,"time_elapsed":263788,"internal_node_id":"0.0-8.0-0.18","subject":"4tf2eg54hcrzemg","sona":"8794"},{"rt":null,"stimulus":"<div style=\"font-size:60px;\">+</div>","key_press":null,"trial_type":"html-keyboard-response","trial_index":80,"time_elapsed":265792,"internal_node_id":"0.0-8.0-1.18","subject":"4tf2eg54hcrzemg","sona":"8794"},{"trial_type":"turing-test","trial_index":81,"time_elapsed":270122,"internal_node_id":"0.0-8.0-2.18","subject":"4tf2eg54hcrzemg","sona":"8794"},{"rt":1055.4049999918789,"stimulus":"<p>Welche Sequenz haben Sie als natürlicher empfunden?</p>","key_press":70,"test_part":"response","test_stimulus":{"position":0,"left":"bvh/pass-bottle-hold-training4-lines.txt","right":"bvh/vr_prediction_models/model(vcgpdm)-dataset(pass-bottle-hold)-mode(ELBO)-parts(1)-dyn(10)-lvm(5)-hold(4)/final-lines.txt","att_check":false},"trial_type":"html-keyboard-response","trial_index":82,"time_elapsed":271185,"internal_node_id":"0.0-8.0-3.18","subject":"4tf2eg54hcrzemg","sona":"8794"},{"rt":1799.2200000444427,"stimulus":"<p>Bereit?</p>","key_press":32,"trial_type":"html-keyboard-response","trial_index":83,"time_elapsed":272986,"internal_node_id":"0.0-8.0-0.19","subject":"4tf2eg54hcrzemg","sona":"8794"},{"rt":null,"stimulus":"<div style=\"font-size:60px;\">+</div>","key_press":null,"trial_type":"html-keyboard-response","trial_index":84,"time_elapsed":274990,"internal_node_id":"0.0-8.0-1.19","subject":"4tf2eg54hcrzemg","sona":"8794"},{"trial_type":"turing-test","trial_index":85,"time_elapsed":299204,"internal_node_id":"0.0-8.0-2.19","subject":"4tf2eg54hcrzemg","sona":"8794"},{"rt":2449.0249999798834,"stimulus":"<p>Welche Sequenz haben Sie als natürlicher empfunden?</p>","key_press":74,"test_part":"response","test_stimulus":{"position":0,"left":"bvh/pass-bottle-training0-lines.txt","right":"bvh/vr_prediction_models/model(vcgpdm)-dataset(pass-bottle)-mode(ELBO)-parts(3)-dyn(25)-lvm(15)-hold(0)/final-lines.txt","att_check":false},"trial_type":"html-keyboard-response","trial_index":86,"time_elapsed":301655,"internal_node_id":"0.0-8.0-3.19","subject":"4tf2eg54hcrzemg","sona":"8794"},{"rt":876.700000022538,"stimulus":"<p>Bereit?</p>","key_press":32,"trial_type":"html-keyboard-response","trial_index":87,"time_elapsed":302535,"internal_node_id":"0.0-8.0-0.20","subject":"4tf2eg54hcrzemg","sona":"8794"},{"rt":null,"stimulus":"<div style=\"font-size:60px;\">+</div>","key_press":null,"trial_type":"html-keyboard-response","trial_index":88,"time_elapsed":304537,"internal_node_id":"0.0-8.0-1.20","subject":"4tf2eg54hcrzemg","sona":"8794"},{"trial_type":"turing-test","trial_index":89,"time_elapsed":308686,"internal_node_id":"0.0-8.0-2.20","subject":"4tf2eg54hcrzemg","sona":"8794"},{"rt":465.7549998955801,"stimulus":"<p>Welche Sequenz haben Sie als natürlicher empfunden?</p>","key_press":74,"test_part":"response","test_stimulus":{"position":0,"left":"bvh/pass-bottle-hold-training0-lines.txt","right":"bvh/vr_prediction_models/model(vcgpdm)-dataset(pass-bottle-hold)-mode(ELBO)-parts(3)-dyn(25)-lvm(15)-hold(0)/final-lines.txt","att_check":false},"trial_type":"html-keyboard-response","trial_index":90,"time_elapsed":309154,"internal_node_id":"0.0-8.0-3.20","subject":"4tf2eg54hcrzemg","sona":"8794"},{"rt":288.43999991659075,"stimulus":"<p>Bereit?</p>","key_press":32,"trial_type":"html-keyboard-response","trial_index":91,"time_elapsed":309445,"internal_node_id":"0.0-8.0-0.21","subject":"4tf2eg54hcrzemg","sona":"8794"},{"rt":null,"stimulus":"<div style=\"font-size:60px;\">+</div>","key_press":null,"trial_type":"html-keyboard-response","trial_index":92,"time_elapsed":311458,"internal_node_id":"0.0-8.0-1.21","subject":"4tf2eg54hcrzemg","sona":"8794"},{"trial_type":"turing-test","trial_index":93,"time_elapsed":317709,"internal_node_id":"0.0-8.0-2.21","subject":"4tf2eg54hcrzemg","sona":"8794"},{"rt":484.27000001538545,"stimulus":"<p>Welche Sequenz haben Sie als natürlicher empfunden?</p>","key_press":74,"test_part":"response","test_stimulus":{"position":1,"left":"bvh/vr_prediction_models/model(vcgpdm)-dataset(return-bottle)-mode(ELBO)-parts(1)-dyn(15)-lvm(35)-hold(3)/final-lines.txt","right":"bvh/return-bottle-training3-lines.txt","att_check":false},"trial_type":"html-keyboard-response","trial_index":94,"time_elapsed":318197,"internal_node_id":"0.0-8.0-3.21","subject":"4tf2eg54hcrzemg","sona":"8794"},{"rt":217.3199999378994,"stimulus":"<p>Bereit?</p>","key_press":32,"trial_type":"html-keyboard-response","trial_index":95,"time_elapsed":318416,"internal_node_id":"0.0-8.0-0.22","subject":"4tf2eg54hcrzemg","sona":"8794"},{"rt":null,"stimulus":"<div style=\"font-size:60px;\">+</div>","key_press":null,"trial_type":"html-keyboard-response","trial_index":96,"time_elapsed":320419,"internal_node_id":"0.0-8.0-1.22","subject":"4tf2eg54hcrzemg","sona":"8794"},{"trial_type":"turing-test","trial_index":97,"time_elapsed":324168,"internal_node_id":"0.0-8.0-2.22","subject":"4tf2eg54hcrzemg","sona":"8794"},{"rt":956.609999993816,"stimulus":"<p>Welche Sequenz haben Sie als natürlicher empfunden?</p>","key_press":70,"test_part":"response","test_stimulus":{"position":0,"left":"bvh/pass-bottle-hold-training1-lines.txt","right":"bvh/vr_prediction_models/model(vcgpdm)-dataset(pass-bottle-hold)-mode(ELBO)-parts(3)-dyn(20)-lvm(15)-hold(1)/final-lines.txt","att_check":false},"trial_type":"html-keyboard-response","trial_index":98,"time_elapsed":325126,"internal_node_id":"0.0-8.0-3.22","subject":"4tf2eg54hcrzemg","sona":"8794"},{"rt":248.0399999767542,"stimulus":"<p>Bereit?</p>","key_press":32,"trial_type":"html-keyboard-response","trial_index":99,"time_elapsed":325376,"internal_node_id":"0.0-8.0-0.23","subject":"4tf2eg54hcrzemg","sona":"8794"},{"rt":null,"stimulus":"<div style=\"font-size:60px;\">+</div>","key_press":null,"trial_type":"html-keyboard-response","trial_index":100,"time_elapsed":327380,"internal_node_id":"0.0-8.0-1.23","subject":"4tf2eg54hcrzemg","sona":"8794"},{"trial_type":"turing-test","trial_index":101,"time_elapsed":331789,"internal_node_id":"0.0-8.0-2.23","subject":"4tf2eg54hcrzemg","sona":"8794"},{"rt":1035.4649999644607,"stimulus":"<p>Welche Sequenz haben Sie als natürlicher empfunden?</p>","key_press":70,"test_part":"response","test_stimulus":{"position":0,"left":"bvh/return-bottle-hold-training3-lines.txt","right":"bvh/vr_prediction_models/model(dmp)-dataset(return-bottle-hold)-npsi(50)-hold(3)/final-lines.txt","att_check":false},"trial_type":"html-keyboard-response","trial_index":102,"time_elapsed":332827,"internal_node_id":"0.0-8.0-3.23","subject":"4tf2eg54hcrzemg","sona":"8794"},{"rt":328.0099999392405,"stimulus":"<p>Bereit?</p>","key_press":32,"trial_type":"html-keyboard-response","trial_index":103,"time_elapsed":333156,"internal_node_id":"0.0-8.0-0.24","subject":"4tf2eg54hcrzemg","sona":"8794"},{"rt":null,"stimulus":"<div style=\"font-size:60px;\">+</div>","key_press":null,"trial_type":"html-keyboard-response","trial_index":104,"time_elapsed":335166,"internal_node_id":"0.0-8.0-1.24","subject":"4tf2eg54hcrzemg","sona":"8794"},{"trial_type":"turing-test","trial_index":105,"time_elapsed":338840,"internal_node_id":"0.0-8.0-2.24","subject":"4tf2eg54hcrzemg","sona":"8794"},{"rt":523.2299999333918,"stimulus":"<p>Welche Sequenz haben Sie als natürlicher empfunden?</p>","key_press":70,"test_part":"response","test_stimulus":{"position":0,"left":"bvh/pass-bottle-hold-training4-lines.txt","right":"bvh/vr_prediction_models/model(tmp)-dataset(pass-bottle-hold)-numprim(15)-hold(4)/final-lines.txt","att_check":false},"trial_type":"html-keyboard-response","trial_index":106,"time_elapsed":339365,"internal_node_id":"0.0-8.0-3.24","subject":"4tf2eg54hcrzemg","sona":"8794"},{"rt":248.6600000411272,"stimulus":"<p>Bereit?</p>","key_press":32,"trial_type":"html-keyboard-response","trial_index":107,"time_elapsed":339616,"internal_node_id":"0.0-8.0-0.25","subject":"4tf2eg54hcrzemg","sona":"8794"},{"rt":null,"stimulus":"<div style=\"font-size:60px;\">+</div>","key_press":null,"trial_type":"html-keyboard-response","trial_index":108,"time_elapsed":341620,"internal_node_id":"0.0-8.0-1.25","subject":"4tf2eg54hcrzemg","sona":"8794"},{"trial_type":"turing-test","trial_index":109,"time_elapsed":345154,"internal_node_id":"0.0-8.0-2.25","subject":"4tf2eg54hcrzemg","sona":"8794"},{"rt":449.54499998129904,"stimulus":"<p>Welche Sequenz haben Sie als natürlicher empfunden?</p>","key_press":74,"test_part":"response","test_stimulus":{"position":0,"left":"bvh/return-bottle-hold-training2-lines.txt","right":"bvh/vr_prediction_models/model(tmp)-dataset(return-bottle-hold)-numprim(14)-hold(2)/final-lines.txt","att_check":false},"trial_type":"html-keyboard-response","trial_index":110,"time_elapsed":345606,"internal_node_id":"0.0-8.0-3.25","subject":"4tf2eg54hcrzemg","sona":"8794"},{"rt":186.99000007472932,"stimulus":"<p>Bereit?</p>","key_press":32,"trial_type":"html-keyboard-response","trial_index":111,"time_elapsed":345797,"internal_node_id":"0.0-8.0-0.26","subject":"4tf2eg54hcrzemg","sona":"8794"},{"rt":null,"stimulus":"<div style=\"font-size:60px;\">+</div>","key_press":null,"trial_type":"html-keyboard-response","trial_index":112,"time_elapsed":347799,"internal_node_id":"0.0-8.0-1.26","subject":"4tf2eg54hcrzemg","sona":"8794"},{"trial_type":"turing-test","trial_index":113,"time_elapsed":354767,"internal_node_id":"0.0-8.0-2.26","subject":"4tf2eg54hcrzemg","sona":"8794"},{"rt":2406.16500005126,"stimulus":"<p>Welche Sequenz haben Sie als natürlicher empfunden?</p>","key_press":74,"test_part":"response","test_stimulus":{"position":1,"left":"bvh/vr_prediction_models/model(vcgpdm)-dataset(pass-bottle)-mode(MAP)-parts(1)-hold(3)/final-lines.txt","right":"bvh/pass-bottle-training3-lines.txt","att_check":false},"trial_type":"html-keyboard-response","trial_index":114,"time_elapsed":357176,"internal_node_id":"0.0-8.0-3.26","subject":"4tf2eg54hcrzemg","sona":"8794"},{"rt":6687.825000029989,"stimulus":"<p>Bereit?</p>","key_press":32,"trial_type":"html-keyboard-response","trial_index":115,"time_elapsed":363865,"internal_node_id":"0.0-8.0-0.27","subject":"4tf2eg54hcrzemg","sona":"8794"},{"rt":null,"stimulus":"<div style=\"font-size:60px;\">+</div>","key_press":null,"trial_type":"html-keyboard-response","trial_index":116,"time_elapsed":365867,"internal_node_id":"0.0-8.0-1.27","subject":"4tf2eg54hcrzemg","sona":"8794"},{"trial_type":"turing-test","trial_index":117,"time_elapsed":374204,"internal_node_id":"0.0-8.0-2.27","subject":"4tf2eg54hcrzemg","sona":"8794"},{"rt":949.2549999849871,"stimulus":"<p>Welche Sequenz haben Sie als natürlicher empfunden?</p>","key_press":70,"test_part":"response","test_stimulus":{"position":0,"left":"bvh/pass-bottle-training0-lines.txt","right":"bvh/vr_prediction_models/model(vcgpdm)-dataset(pass-bottle)-mode(ELBO)-parts(3)-dyn(25)-lvm(25)-hold(0)/final-lines.txt","att_check":false},"trial_type":"html-keyboard-response","trial_index":118,"time_elapsed":375156,"internal_node_id":"0.0-8.0-3.27","subject":"4tf2eg54hcrzemg","sona":"8794"},{"rt":1064.5950000034645,"stimulus":"<p>Bereit?</p>","key_press":32,"trial_type":"html-keyboard-response","trial_index":119,"time_elapsed":376225,"internal_node_id":"0.0-8.0-0.28","subject":"4tf2eg54hcrzemg","sona":"8794"},{"rt":null,"stimulus":"<div style=\"font-size:60px;\">+</div>","key_press":null,"trial_type":"html-keyboard-response","trial_index":120,"time_elapsed":378227,"internal_node_id":"0.0-8.0-1.28","subject":"4tf2eg54hcrzemg","sona":"8794"},{"trial_type":"turing-test","trial_index":121,"time_elapsed":381744,"internal_node_id":"0.0-8.0-2.28","subject":"4tf2eg54hcrzemg","sona":"8794"},{"rt":1059.4600000185892,"stimulus":"<p>Welche Sequenz haben Sie als natürlicher empfunden?</p>","key_press":70,"test_part":"response","test_stimulus":{"position":1,"left":"bvh/vr_prediction_models/model(tmp)-dataset(return-bottle-hold)-numprim(10)-hold(2)/final-lines.txt","right":"bvh/return-bottle-hold-training2-lines.txt","att_check":false},"trial_type":"html-keyboard-response","trial_index":122,"time_elapsed":382806,"internal_node_id":"0.0-8.0-3.28","subject":"4tf2eg54hcrzemg","sona":"8794"},{"rt":478.0699999537319,"stimulus":"<p>Bereit?</p>","key_press":32,"trial_type":"html-keyboard-response","trial_index":123,"time_elapsed":383286,"internal_node_id":"0.0-8.0-0.29","subject":"4tf2eg54hcrzemg","sona":"8794"},{"rt":null,"stimulus":"<div style=\"font-size:60px;\">+</div>","key_press":null,"trial_type":"html-keyboard-response","trial_index":124,"time_elapsed":385288,"internal_node_id":"0.0-8.0-1.29","subject":"4tf2eg54hcrzemg","sona":"8794"},{"trial_type":"turing-test","trial_index":125,"time_elapsed":392739,"internal_node_id":"0.0-8.0-2.29","subject":"4tf2eg54hcrzemg","sona":"8794"},{"rt":1135.454999981448,"stimulus":"<p>Welche Sequenz haben Sie als natürlicher empfunden?</p>","key_press":74,"test_part":"response","test_stimulus":{"position":0,"left":"bvh/return-bottle-training2-lines.txt","right":"bvh/vr_prediction_models/model(vcgpdm)-dataset(return-bottle)-mode(ELBO)-parts(1)-dyn(35)-lvm(10)-hold(2)/final-lines.txt","att_check":false},"trial_type":"html-keyboard-response","trial_index":126,"time_elapsed":393876,"internal_node_id":"0.0-8.0-3.29","subject":"4tf2eg54hcrzemg","sona":"8794"},{"rt":647.5700000301003,"stimulus":"<p>Bereit?</p>","key_press":32,"trial_type":"html-keyboard-response","trial_index":127,"time_elapsed":394526,"internal_node_id":"0.0-8.0-0.30","subject":"4tf2eg54hcrzemg","sona":"8794"},{"rt":null,"stimulus":"<div style=\"font-size:60px;\">+</div>","key_press":null,"trial_type":"html-keyboard-response","trial_index":128,"time_elapsed":396528,"internal_node_id":"0.0-8.0-1.30","subject":"4tf2eg54hcrzemg","sona":"8794"},{"trial_type":"turing-test","trial_index":129,"time_elapsed":403179,"internal_node_id":"0.0-8.0-2.30","subject":"4tf2eg54hcrzemg","sona":"8794"},{"rt":2955.364999943413,"stimulus":"<p>Welche Sequenz haben Sie als natürlicher empfunden?</p>","key_press":74,"test_part":"response","test_stimulus":{"position":0,"left":"bvh/pass-bottle-training0-lines.txt","right":"bvh/vr_prediction_models/model(vcgpdm)-dataset(pass-bottle)-mode(ELBO)-parts(3)-dyn(25)-lvm(15)-hold(0)/final-lines.txt","att_check":false},"trial_type":"html-keyboard-response","trial_index":130,"time_elapsed":406137,"internal_node_id":"0.0-8.0-3.30","subject":"4tf2eg54hcrzemg","sona":"8794"},{"rt":1046.665000030771,"stimulus":"<p>Bereit?</p>","key_press":32,"trial_type":"html-keyboard-response","trial_index":131,"time_elapsed":407186,"internal_node_id":"0.0-8.0-0.31","subject":"4tf2eg54hcrzemg","sona":"8794"},{"rt":null,"stimulus":"<div style=\"font-size:60px;\">+</div>","key_press":null,"trial_type":"html-keyboard-response","trial_index":132,"time_elapsed":409198,"internal_node_id":"0.0-8.0-1.31","subject":"4tf2eg54hcrzemg","sona":"8794"},{"trial_type":"turing-test","trial_index":133,"time_elapsed":416589,"internal_node_id":"0.0-8.0-2.31","subject":"4tf2eg54hcrzemg","sona":"8794"},{"rt":824.5750000933185,"stimulus":"<p>Welche Sequenz haben Sie als natürlicher empfunden?</p>","key_press":74,"test_part":"response","test_stimulus":{"position":1,"left":"bvh/vr_prediction_models/model(vcgpdm)-dataset(return-bottle)-mode(ELBO)-parts(1)-dyn(15)-lvm(35)-hold(2)/final-lines.txt","right":"bvh/return-bottle-training2-lines.txt","att_check":false},"trial_type":"html-keyboard-response","trial_index":134,"time_elapsed":417417,"internal_node_id":"0.0-8.0-3.31","subject":"4tf2eg54hcrzemg","sona":"8794"},{"rt":307.39500001072884,"stimulus":"<p>Bereit?</p>","key_press":32,"trial_type":"html-keyboard-response","trial_index":135,"time_elapsed":417726,"internal_node_id":"0.0-8.0-0.32","subject":"4tf2eg54hcrzemg","sona":"8794"},{"rt":null,"stimulus":"<div style=\"font-size:60px;\">+</div>","key_press":null,"trial_type":"html-keyboard-response","trial_index":136,"time_elapsed":419728,"internal_node_id":"0.0-8.0-1.32","subject":"4tf2eg54hcrzemg","sona":"8794"},{"trial_type":"turing-test","trial_index":137,"time_elapsed":426555,"internal_node_id":"0.0-8.0-2.32","subject":"4tf2eg54hcrzemg","sona":"8794"},{"rt":408.3749999990687,"stimulus":"<p>Welche Sequenz haben Sie als natürlicher empfunden?</p>","key_press":70,"test_part":"response","test_stimulus":{"position":0,"left":"bvh/pass-bottle-training0-lines.txt","right":"bvh/vr_prediction_models/model(tmp)-dataset(pass-bottle)-numprim(6)-hold(0)/final-lines.txt","att_check":false},"trial_type":"html-keyboard-response","trial_index":138,"time_elapsed":426966,"internal_node_id":"0.0-8.0-3.32","subject":"4tf2eg54hcrzemg","sona":"8794"},{"rt":338.29500002320856,"stimulus":"<p>Bereit?</p>","key_press":32,"trial_type":"html-keyboard-response","trial_index":139,"time_elapsed":427306,"internal_node_id":"0.0-8.0-0.33","subject":"4tf2eg54hcrzemg","sona":"8794"},{"rt":null,"stimulus":"<div style=\"font-size:60px;\">+</div>","key_press":null,"trial_type":"html-keyboard-response","trial_index":140,"time_elapsed":429309,"internal_node_id":"0.0-8.0-1.33","subject":"4tf2eg54hcrzemg","sona":"8794"},{"trial_type":"turing-test","trial_index":141,"time_elapsed":436085,"internal_node_id":"0.0-8.0-2.33","subject":"4tf2eg54hcrzemg","sona":"8794"},{"rt":999.0099999122322,"stimulus":"<p>Welche Sequenz haben Sie als natürlicher empfunden?</p>","key_press":74,"test_part":"response","test_stimulus":{"position":1,"left":"bvh/vr_prediction_models/model(vcgpdm)-dataset(pass-bottle)-mode(ELBO)-parts(1)-dyn(30)-lvm(30)-hold(2)/final-lines.txt","right":"bvh/pass-bottle-training2-lines.txt","att_check":false},"trial_type":"html-keyboard-response","trial_index":142,"time_elapsed":437087,"internal_node_id":"0.0-8.0-3.33","subject":"4tf2eg54hcrzemg","sona":"8794"},{"rt":306.6450000042096,"stimulus":"<p>Bereit?</p>","key_press":32,"trial_type":"html-keyboard-response","trial_index":143,"time_elapsed":437396,"internal_node_id":"0.0-8.0-0.34","subject":"4tf2eg54hcrzemg","sona":"8794"},{"rt":null,"stimulus":"<div style=\"font-size:60px;\">+</div>","key_press":null,"trial_type":"html-keyboard-response","trial_index":144,"time_elapsed":439399,"internal_node_id":"0.0-8.0-1.34","subject":"4tf2eg54hcrzemg","sona":"8794"},{"trial_type":"turing-test","trial_index":145,"time_elapsed":450444,"internal_node_id":"0.0-8.0-2.34","subject":"4tf2eg54hcrzemg","sona":"8794"},{"rt":3011.0700000077486,"stimulus":"<p>Welche Sequenz haben Sie als natürlicher empfunden?</p>","key_press":74,"test_part":"response","test_stimulus":{"position":0,"left":"bvh/pass-bottle-training0-lines.txt","right":"bvh/vr_prediction_models/model(vcgpdm)-dataset(pass-bottle)-mode(ELBO)-parts(3)-dyn(20)-lvm(15)-hold(0)/final-lines.txt","att_check":false},"trial_type":"html-keyboard-response","trial_index":146,"time_elapsed":453458,"internal_node_id":"0.0-8.0-3.34","subject":"4tf2eg54hcrzemg","sona":"8794"},{"rt":696.8199999537319,"stimulus":"<p>Bereit?</p>","key_press":32,"trial_type":"html-keyboard-response","trial_index":147,"time_elapsed":454157,"internal_node_id":"0.0-8.0-0.35","subject":"4tf2eg54hcrzemg","sona":"8794"},{"rt":null,"stimulus":"<div style=\"font-size:60px;\">+</div>","key_press":null,"trial_type":"html-keyboard-response","trial_index":148,"time_elapsed":456160,"internal_node_id":"0.0-8.0-1.35","subject":"4tf2eg54hcrzemg","sona":"8794"},{"trial_type":"turing-test","trial_index":149,"time_elapsed":462276,"internal_node_id":"0.0-8.0-2.35","subject":"4tf2eg54hcrzemg","sona":"8794"},{"rt":2488.71499998495,"stimulus":"<p>Welche Sequenz haben Sie als natürlicher empfunden?</p>","key_press":74,"test_part":"response","test_stimulus":{"position":1,"left":"bvh/vr_prediction_models/model(tmp)-dataset(pass-bottle)-numprim(8)-hold(3)/final-lines.txt","right":"bvh/pass-bottle-training3-lines.txt","att_check":false},"trial_type":"html-keyboard-response","trial_index":150,"time_elapsed":464768,"internal_node_id":"0.0-8.0-3.35","subject":"4tf2eg54hcrzemg","sona":"8794"},{"rt":277.11500006262213,"stimulus":"<p>Bereit?</p>","key_press":32,"trial_type":"html-keyboard-response","trial_index":151,"time_elapsed":465047,"internal_node_id":"0.0-8.0-0.36","subject":"4tf2eg54hcrzemg","sona":"8794"},{"rt":null,"stimulus":"<div style=\"font-size:60px;\">+</div>","key_press":null,"trial_type":"html-keyboard-response","trial_index":152,"time_elapsed":467049,"internal_node_id":"0.0-8.0-1.36","subject":"4tf2eg54hcrzemg","sona":"8794"},{"trial_type":"turing-test","trial_index":153,"time_elapsed":473549,"internal_node_id":"0.0-8.0-2.36","subject":"4tf2eg54hcrzemg","sona":"8794"},{"rt":1205.7300000451505,"stimulus":"<p>Welche Sequenz haben Sie als natürlicher empfunden?</p>","key_press":74,"test_part":"response","test_stimulus":{"position":1,"left":"bvh/vr_prediction_models/model(vcgpdm)-dataset(pass-bottle)-mode(ELBO)-parts(3)-dyn(30)-lvm(15)-hold(3)/final-lines.txt","right":"bvh/pass-bottle-training3-lines.txt","att_check":false},"trial_type":"html-keyboard-response","trial_index":154,"time_elapsed":474757,"internal_node_id":"0.0-8.0-3.36","subject":"4tf2eg54hcrzemg","sona":"8794"},{"rt":728.0050000408664,"stimulus":"<p>Bereit?</p>","key_press":32,"trial_type":"html-keyboard-response","trial_index":155,"time_elapsed":475487,"internal_node_id":"0.0-8.0-0.37","subject":"4tf2eg54hcrzemg","sona":"8794"},{"rt":null,"stimulus":"<div style=\"font-size:60px;\">+</div>","key_press":null,"trial_type":"html-keyboard-response","trial_index":156,"time_elapsed":477490,"internal_node_id":"0.0-8.0-1.37","subject":"4tf2eg54hcrzemg","sona":"8794"},{"trial_type":"turing-test","trial_index":157,"time_elapsed":483745,"internal_node_id":"0.0-8.0-2.37","subject":"4tf2eg54hcrzemg","sona":"8794"},{"rt":1169.8649999452755,"stimulus":"<p>Welche Sequenz haben Sie als natürlicher empfunden?</p>","key_press":74,"test_part":"response","test_stimulus":{"position":1,"left":"bvh/vr_prediction_models/model(dmp)-dataset(return-bottle)-npsi(50)-hold(1)/final-lines.txt","right":"bvh/return-bottle-training1-lines.txt","att_check":false},"trial_type":"html-keyboard-response","trial_index":158,"time_elapsed":484917,"internal_node_id":"0.0-8.0-3.37","subject":"4tf2eg54hcrzemg","sona":"8794"},{"rt":187.53999995533377,"stimulus":"<p>Bereit?</p>","key_press":32,"trial_type":"html-keyboard-response","trial_index":159,"time_elapsed":485107,"internal_node_id":"0.0-8.0-0.38","subject":"4tf2eg54hcrzemg","sona":"8794"},{"rt":null,"stimulus":"<div style=\"font-size:60px;\">+</div>","key_press":null,"trial_type":"html-keyboard-response","trial_index":160,"time_elapsed":487109,"internal_node_id":"0.0-8.0-1.38","subject":"4tf2eg54hcrzemg","sona":"8794"},{"trial_type":"turing-test","trial_index":161,"time_elapsed":491366,"internal_node_id":"0.0-8.0-2.38","subject":"4tf2eg54hcrzemg","sona":"8794"},{"rt":1119.2850000225008,"stimulus":"<p>Welche Sequenz haben Sie als natürlicher empfunden?</p>","key_press":74,"test_part":"response","test_stimulus":{"position":1,"left":"bvh/vr_prediction_models/model(vcgpdm)-dataset(pass-bottle-hold)-mode(ELBO)-parts(3)-dyn(25)-lvm(25)-hold(4)/final-lines.txt","right":"bvh/pass-bottle-hold-training4-lines.txt","att_check":false},"trial_type":"html-keyboard-response","trial_index":162,"time_elapsed":492488,"internal_node_id":"0.0-8.0-3.38","subject":"4tf2eg54hcrzemg","sona":"8794"},{"rt":186.8700000923127,"stimulus":"<p>Bereit?</p>","key_press":32,"trial_type":"html-keyboard-response","trial_index":163,"time_elapsed":492678,"internal_node_id":"0.0-8.0-0.39","subject":"4tf2eg54hcrzemg","sona":"8794"},{"rt":null,"stimulus":"<div style=\"font-size:60px;\">+</div>","key_press":null,"trial_type":"html-keyboard-response","trial_index":164,"time_elapsed":494681,"internal_node_id":"0.0-8.0-1.39","subject":"4tf2eg54hcrzemg","sona":"8794"},{"trial_type":"turing-test","trial_index":165,"time_elapsed":498644,"internal_node_id":"0.0-8.0-2.39","subject":"4tf2eg54hcrzemg","sona":"8794"},{"rt":440.9900000318885,"stimulus":"<p>Welche Sequenz haben Sie als natürlicher empfunden?</p>","key_press":70,"test_part":"response","test_stimulus":{"position":0,"left":"bvh/pass-bottle-hold-training4-lines.txt","right":"bvh/vr_prediction_models/model(vcgpdm)-dataset(pass-bottle-hold)-mode(ELBO)-parts(1)-dyn(10)-lvm(25)-hold(4)/final-lines.txt","att_check":false},"trial_type":"html-keyboard-response","trial_index":166,"time_elapsed":499088,"internal_node_id":"0.0-8.0-3.39","subject":"4tf2eg54hcrzemg","sona":"8794"},{"rt":337.9900000290945,"stimulus":"<p>Bereit?</p>","key_press":32,"trial_type":"html-keyboard-response","trial_index":167,"time_elapsed":499428,"internal_node_id":"0.0-8.0-0.40","subject":"4tf2eg54hcrzemg","sona":"8794"},{"rt":null,"stimulus":"<div style=\"font-size:60px;\">+</div>","key_press":null,"trial_type":"html-keyboard-response","trial_index":168,"time_elapsed":501430,"internal_node_id":"0.0-8.0-1.40","subject":"4tf2eg54hcrzemg","sona":"8794"},{"trial_type":"turing-test","trial_index":169,"time_elapsed":505065,"internal_node_id":"0.0-8.0-2.40","subject":"4tf2eg54hcrzemg","sona":"8794"},{"rt":670.3200000338256,"stimulus":"<p>Welche Sequenz haben Sie als natürlicher empfunden?</p>","key_press":74,"test_part":"response","test_stimulus":{"position":1,"left":"bvh/vr_prediction_models/model(tmp)-dataset(return-bottle-hold)-numprim(7)-hold(3)/final-lines.txt","right":"bvh/return-bottle-hold-training3-lines.txt","att_check":false},"trial_type":"html-keyboard-response","trial_index":170,"time_elapsed":505738,"internal_node_id":"0.0-8.0-3.40","subject":"4tf2eg54hcrzemg","sona":"8794"},{"rt":147.24500000011176,"stimulus":"<p>Bereit?</p>","key_press":32,"trial_type":"html-keyboard-response","trial_index":171,"time_elapsed":505888,"internal_node_id":"0.0-8.0-0.41","subject":"4tf2eg54hcrzemg","sona":"8794"},{"rt":null,"stimulus":"<div style=\"font-size:60px;\">+</div>","key_press":null,"trial_type":"html-keyboard-response","trial_index":172,"time_elapsed":507891,"internal_node_id":"0.0-8.0-1.41","subject":"4tf2eg54hcrzemg","sona":"8794"},{"trial_type":"turing-test","trial_index":173,"time_elapsed":513903,"internal_node_id":"0.0-8.0-2.41","subject":"4tf2eg54hcrzemg","sona":"8794"},{"rt":1803.2299999613315,"stimulus":"<p>Welche Sequenz haben Sie als natürlicher empfunden?</p>","key_press":70,"test_part":"response","test_stimulus":{"position":0,"left":"bvh/return-bottle-training0-lines.txt","right":"bvh/vr_prediction_models/model(vcgpdm)-dataset(return-bottle)-mode(MAP)-parts(1)-hold(0)/final-lines.txt","att_check":false},"trial_type":"html-keyboard-response","trial_index":174,"time_elapsed":515709,"internal_node_id":"0.0-8.0-3.41","subject":"4tf2eg54hcrzemg","sona":"8794"},{"rt":457.54000009037554,"stimulus":"<p>Bereit?</p>","key_press":32,"trial_type":"html-keyboard-response","trial_index":175,"time_elapsed":516169,"internal_node_id":"0.0-8.0-0.42","subject":"4tf2eg54hcrzemg","sona":"8794"},{"rt":null,"stimulus":"<div style=\"font-size:60px;\">+</div>","key_press":null,"trial_type":"html-keyboard-response","trial_index":176,"time_elapsed":518172,"internal_node_id":"0.0-8.0-1.42","subject":"4tf2eg54hcrzemg","sona":"8794"},{"trial_type":"turing-test","trial_index":177,"time_elapsed":522035,"internal_node_id":"0.0-8.0-2.42","subject":"4tf2eg54hcrzemg","sona":"8794"},{"rt":1320.5300000263378,"stimulus":"<p>Welche Sequenz haben Sie als natürlicher empfunden?</p>","key_press":70,"test_part":"response","test_stimulus":{"position":0,"left":"bvh/return-bottle-hold-training2-lines.txt","right":"bvh/vr_prediction_models/model(vcgpdm)-dataset(return-bottle-hold)-mode(ELBO)-parts(1)-dyn(30)-lvm(30)-hold(2)/final-lines.txt","att_check":false},"trial_type":"html-keyboard-response","trial_index":178,"time_elapsed":523358,"internal_node_id":"0.0-8.0-3.42","subject":"4tf2eg54hcrzemg","sona":"8794"},{"rt":717.5399999832734,"stimulus":"<p>Bereit?</p>","key_press":32,"trial_type":"html-keyboard-response","trial_index":179,"time_elapsed":524078,"internal_node_id":"0.0-8.0-0.43","subject":"4tf2eg54hcrzemg","sona":"8794"},{"rt":null,"stimulus":"<div style=\"font-size:60px;\">+</div>","key_press":null,"trial_type":"html-keyboard-response","trial_index":180,"time_elapsed":526081,"internal_node_id":"0.0-8.0-1.43","subject":"4tf2eg54hcrzemg","sona":"8794"},{"trial_type":"turing-test","trial_index":181,"time_elapsed":529738,"internal_node_id":"0.0-8.0-2.43","subject":"4tf2eg54hcrzemg","sona":"8794"},{"rt":1139.2650000052527,"stimulus":"<p>Welche Sequenz haben Sie als natürlicher empfunden?</p>","key_press":74,"test_part":"response","test_stimulus":{"position":1,"left":"bvh/vr_prediction_models/model(dmp)-dataset(pass-bottle-hold)-npsi(40)-hold(4)/final-lines.txt","right":"bvh/pass-bottle-hold-training4-lines.txt","att_check":false},"trial_type":"html-keyboard-response","trial_index":182,"time_elapsed":530880,"internal_node_id":"0.0-8.0-3.43","subject":"4tf2eg54hcrzemg","sona":"8794"},{"rt":486.4349999697879,"stimulus":"<p>Bereit?</p>","key_press":32,"trial_type":"html-keyboard-response","trial_index":183,"time_elapsed":531368,"internal_node_id":"0.0-8.0-0.44","subject":"4tf2eg54hcrzemg","sona":"8794"},{"rt":null,"stimulus":"<div style=\"font-size:60px;\">+</div>","key_press":null,"trial_type":"html-keyboard-response","trial_index":184,"time_elapsed":533371,"internal_node_id":"0.0-8.0-1.44","subject":"4tf2eg54hcrzemg","sona":"8794"},{"trial_type":"turing-test","trial_index":185,"time_elapsed":540113,"internal_node_id":"0.0-8.0-2.44","subject":"4tf2eg54hcrzemg","sona":"8794"},{"rt":1143.0799999507144,"stimulus":"<p>Welche Sequenz haben Sie als natürlicher empfunden?</p>","key_press":70,"test_part":"response","test_stimulus":{"position":0,"left":"bvh/return-bottle-training2-lines.txt","right":"bvh/vr_prediction_models/model(tmp)-dataset(return-bottle)-numprim(13)-hold(2)/final-lines.txt","att_check":false},"trial_type":"html-keyboard-response","trial_index":186,"time_elapsed":541259,"internal_node_id":"0.0-8.0-3.44","subject":"4tf2eg54hcrzemg","sona":"8794"},{"rt":735.1799999596551,"stimulus":"<p>Bereit?</p>","key_press":32,"trial_type":"html-keyboard-response","trial_index":187,"time_elapsed":541999,"internal_node_id":"0.0-8.0-0.45","subject":"4tf2eg54hcrzemg","sona":"8794"},{"rt":null,"stimulus":"<div style=\"font-size:60px;\">+</div>","key_press":null,"trial_type":"html-keyboard-response","trial_index":188,"time_elapsed":544001,"internal_node_id":"0.0-8.0-1.45","subject":"4tf2eg54hcrzemg","sona":"8794"},{"trial_type":"turing-test","trial_index":189,"time_elapsed":549821,"internal_node_id":"0.0-8.0-2.45","subject":"4tf2eg54hcrzemg","sona":"8794"},{"rt":1642.935000010766,"stimulus":"<p>Welche Sequenz haben Sie als natürlicher empfunden?</p>","key_press":70,"test_part":"response","test_stimulus":{"position":0,"left":"bvh/return-bottle-training4-lines.txt","right":"bvh/vr_prediction_models/model(dmp)-dataset(return-bottle)-npsi(70)-hold(4)/final-lines.txt","att_check":false},"trial_type":"html-keyboard-response","trial_index":190,"time_elapsed":551468,"internal_node_id":"0.0-8.0-3.45","subject":"4tf2eg54hcrzemg","sona":"8794"},{"rt":626.9999999785796,"stimulus":"<p>Bereit?</p>","key_press":32,"trial_type":"html-keyboard-response","trial_index":191,"time_elapsed":552098,"internal_node_id":"0.0-8.0-0.46","subject":"4tf2eg54hcrzemg","sona":"8794"},{"rt":null,"stimulus":"<div style=\"font-size:60px;\">+</div>","key_press":null,"trial_type":"html-keyboard-response","trial_index":192,"time_elapsed":554100,"internal_node_id":"0.0-8.0-1.46","subject":"4tf2eg54hcrzemg","sona":"8794"},{"trial_type":"turing-test","trial_index":193,"time_elapsed":560438,"internal_node_id":"0.0-8.0-2.46","subject":"4tf2eg54hcrzemg","sona":"8794"},{"rt":497.40999995265156,"stimulus":"<p>Welche Sequenz haben Sie als natürlicher empfunden?</p>","key_press":70,"test_part":"response","test_stimulus":{"position":0,"left":"bvh/pass-bottle-training4-lines.txt","right":"bvh/vr_prediction_models/model(tmp)-dataset(pass-bottle)-numprim(13)-hold(4)/final-lines.txt","att_check":false},"trial_type":"html-keyboard-response","trial_index":194,"time_elapsed":560938,"internal_node_id":"0.0-8.0-3.46","subject":"4tf2eg54hcrzemg","sona":"8794"},{"rt":247.18000006396323,"stimulus":"<p>Bereit?</p>","key_press":32,"trial_type":"html-keyboard-response","trial_index":195,"time_elapsed":561188,"internal_node_id":"0.0-8.0-0.47","subject":"4tf2eg54hcrzemg","sona":"8794"},{"rt":null,"stimulus":"<div style=\"font-size:60px;\">+</div>","key_press":null,"trial_type":"html-keyboard-response","trial_index":196,"time_elapsed":563192,"internal_node_id":"0.0-8.0-1.47","subject":"4tf2eg54hcrzemg","sona":"8794"},{"trial_type":"turing-test","trial_index":197,"time_elapsed":570219,"internal_node_id":"0.0-8.0-2.47","subject":"4tf2eg54hcrzemg","sona":"8794"},{"rt":476.75999999046326,"stimulus":"<p>Welche Sequenz haben Sie als natürlicher empfunden?</p>","key_press":70,"test_part":"response","test_stimulus":{"position":0,"left":"bvh/pass-bottle-training2-lines.txt","right":"bvh/vr_prediction_models/model(vcgpdm)-dataset(pass-bottle)-mode(ELBO)-parts(1)-dyn(25)-lvm(35)-hold(2)/final-lines.txt","att_check":false},"trial_type":"html-keyboard-response","trial_index":198,"time_elapsed":570699,"internal_node_id":"0.0-8.0-3.47","subject":"4tf2eg54hcrzemg","sona":"8794"},{"rt":195.04999998025596,"stimulus":"<p>Bereit?</p>","key_press":32,"trial_type":"html-keyboard-response","trial_index":199,"time_elapsed":570898,"internal_node_id":"0.0-8.0-0.48","subject":"4tf2eg54hcrzemg","sona":"8794"},{"rt":null,"stimulus":"<div style=\"font-size:60px;\">+</div>","key_press":null,"trial_type":"html-keyboard-response","trial_index":200,"time_elapsed":572902,"internal_node_id":"0.0-8.0-1.48","subject":"4tf2eg54hcrzemg","sona":"8794"},{"trial_type":"turing-test","trial_index":201,"time_elapsed":579910,"internal_node_id":"0.0-8.0-2.48","subject":"4tf2eg54hcrzemg","sona":"8794"},{"rt":624.3700000923127,"stimulus":"<p>Welche Sequenz haben Sie als natürlicher empfunden?</p>","key_press":70,"test_part":"response","test_stimulus":{"position":0,"left":"bvh/pass-bottle-training2-lines.txt","right":"bvh/vr_prediction_models/model(vcgpdm)-dataset(pass-bottle)-mode(ELBO)-parts(3)-dyn(25)-lvm(25)-hold(2)/final-lines.txt","att_check":false},"trial_type":"html-keyboard-response","trial_index":202,"time_elapsed":580539,"internal_node_id":"0.0-8.0-3.48","subject":"4tf2eg54hcrzemg","sona":"8794"},{"rt":248.12000000383705,"stimulus":"<p>Bereit?</p>","key_press":32,"trial_type":"html-keyboard-response","trial_index":203,"time_elapsed":580790,"internal_node_id":"0.0-8.0-0.49","subject":"4tf2eg54hcrzemg","sona":"8794"},{"rt":null,"stimulus":"<div style=\"font-size:60px;\">+</div>","key_press":null,"trial_type":"html-keyboard-response","trial_index":204,"time_elapsed":582791,"internal_node_id":"0.0-8.0-1.49","subject":"4tf2eg54hcrzemg","sona":"8794"},{"trial_type":"turing-test","trial_index":205,"time_elapsed":586152,"internal_node_id":"0.0-8.0-2.49","subject":"4tf2eg54hcrzemg","sona":"8794"},{"rt":433.32499999087304,"stimulus":"<p>Welche Sequenz haben Sie als natürlicher empfunden?</p>","key_press":70,"test_part":"response","test_stimulus":{"position":1,"left":"bvh/vr_prediction_models/model(tmp)-dataset(pass-bottle-hold)-numprim(14)-hold(0)/final-lines.txt","right":"bvh/pass-bottle-hold-training0-lines.txt","att_check":false},"trial_type":"html-keyboard-response","trial_index":206,"time_elapsed":586589,"internal_node_id":"0.0-8.0-3.49","subject":"4tf2eg54hcrzemg","sona":"8794"},{"rt":277.1550000179559,"stimulus":"<p>Bereit?</p>","key_press":32,"trial_type":"html-keyboard-response","trial_index":207,"time_elapsed":586869,"internal_node_id":"0.0-8.0-0.50","subject":"4tf2eg54hcrzemg","sona":"8794"},{"rt":null,"stimulus":"<div style=\"font-size:60px;\">+</div>","key_press":null,"trial_type":"html-keyboard-response","trial_index":208,"time_elapsed":588871,"internal_node_id":"0.0-8.0-1.50","subject":"4tf2eg54hcrzemg","sona":"8794"},{"trial_type":"turing-test","trial_index":209,"time_elapsed":594440,"internal_node_id":"0.0-8.0-2.50","subject":"4tf2eg54hcrzemg","sona":"8794"},{"rt":1027.5050000054762,"stimulus":"<p>Welche Sequenz haben Sie als natürlicher empfunden?</p>","key_press":70,"test_part":"response","test_stimulus":{"position":1,"left":"bvh/vr_prediction_models/model(tmp)-dataset(pass-bottle)-numprim(5)-hold(1)/final-lines.txt","right":"bvh/pass-bottle-training1-lines.txt","att_check":false},"trial_type":"html-keyboard-response","trial_index":210,"time_elapsed":595470,"internal_node_id":"0.0-8.0-3.50","subject":"4tf2eg54hcrzemg","sona":"8794"},{"rt":145.17499995417893,"stimulus":"<p>Bereit?</p>","key_press":32,"trial_type":"html-keyboard-response","trial_index":211,"time_elapsed":595619,"internal_node_id":"0.0-8.0-0.51","subject":"4tf2eg54hcrzemg","sona":"8794"},{"rt":null,"stimulus":"<div style=\"font-size:60px;\">+</div>","key_press":null,"trial_type":"html-keyboard-response","trial_index":212,"time_elapsed":597621,"internal_node_id":"0.0-8.0-1.51","subject":"4tf2eg54hcrzemg","sona":"8794"},{"trial_type":"turing-test","trial_index":213,"time_elapsed":603776,"internal_node_id":"0.0-8.0-2.51","subject":"4tf2eg54hcrzemg","sona":"8794"},{"rt":970.1699999859557,"stimulus":"<p>Welche Sequenz haben Sie als natürlicher empfunden?</p>","key_press":70,"test_part":"response","test_stimulus":{"position":0,"left":"bvh/return-bottle-training3-lines.txt","right":"bvh/vr_prediction_models/model(vcgpdm)-dataset(return-bottle)-mode(ELBO)-parts(3)-dyn(35)-lvm(20)-hold(3)/final-lines.txt","att_check":false},"trial_type":"html-keyboard-response","trial_index":214,"time_elapsed":604750,"internal_node_id":"0.0-8.0-3.51","subject":"4tf2eg54hcrzemg","sona":"8794"},{"rt":137.48999999370426,"stimulus":"<p>Bereit?</p>","key_press":32,"trial_type":"html-keyboard-response","trial_index":215,"time_elapsed":604890,"internal_node_id":"0.0-8.0-0.52","subject":"4tf2eg54hcrzemg","sona":"8794"},{"rt":null,"stimulus":"<div style=\"font-size:60px;\">+</div>","key_press":null,"trial_type":"html-keyboard-response","trial_index":216,"time_elapsed":606892,"internal_node_id":"0.0-8.0-1.52","subject":"4tf2eg54hcrzemg","sona":"8794"},{"trial_type":"turing-test","trial_index":217,"time_elapsed":610769,"internal_node_id":"0.0-8.0-2.52","subject":"4tf2eg54hcrzemg","sona":"8794"},{"rt":1668.9949999563396,"stimulus":"<p>Welche Sequenz haben Sie als natürlicher empfunden?</p>","key_press":74,"test_part":"response","test_stimulus":{"position":0,"left":"bvh/pass-bottle-hold-training3-lines.txt","right":"bvh/vr_prediction_models/model(dmp)-dataset(pass-bottle-hold)-npsi(20)-hold(3)/final-lines.txt","att_check":false},"trial_type":"html-keyboard-response","trial_index":218,"time_elapsed":612440,"internal_node_id":"0.0-8.0-3.52","subject":"4tf2eg54hcrzemg","sona":"8794"},{"rt":154.9949999898672,"stimulus":"<p>Bereit?</p>","key_press":32,"trial_type":"html-keyboard-response","trial_index":219,"time_elapsed":612600,"internal_node_id":"0.0-8.0-0.53","subject":"4tf2eg54hcrzemg","sona":"8794"},{"rt":null,"stimulus":"<div style=\"font-size:60px;\">+</div>","key_press":null,"trial_type":"html-keyboard-response","trial_index":220,"time_elapsed":614610,"internal_node_id":"0.0-8.0-1.53","subject":"4tf2eg54hcrzemg","sona":"8794"},{"trial_type":"turing-test","trial_index":221,"time_elapsed":620412,"internal_node_id":"0.0-8.0-2.53","subject":"4tf2eg54hcrzemg","sona":"8794"},{"rt":1402.8249999973923,"stimulus":"<p>Welche Sequenz haben Sie als natürlicher empfunden?</p>","key_press":74,"test_part":"response","test_stimulus":{"position":0,"left":"bvh/return-bottle-training4-lines.txt","right":"bvh/vr_prediction_models/model(tmp)-dataset(return-bottle)-numprim(6)-hold(4)/final-lines.txt","att_check":false},"trial_type":"html-keyboard-response","trial_index":222,"time_elapsed":621819,"internal_node_id":"0.0-8.0-3.53","subject":"4tf2eg54hcrzemg","sona":"8794"},{"rt":157.3799999896437,"stimulus":"<p>Bereit?</p>","key_press":32,"trial_type":"html-keyboard-response","trial_index":223,"time_elapsed":621979,"internal_node_id":"0.0-8.0-0.54","subject":"4tf2eg54hcrzemg","sona":"8794"},{"rt":null,"stimulus":"<div style=\"font-size:60px;\">+</div>","key_press":null,"trial_type":"html-keyboard-response","trial_index":224,"time_elapsed":623982,"internal_node_id":"0.0-8.0-1.54","subject":"4tf2eg54hcrzemg","sona":"8794"},{"trial_type":"turing-test","trial_index":225,"time_elapsed":631636,"internal_node_id":"0.0-8.0-2.54","subject":"4tf2eg54hcrzemg","sona":"8794"},{"rt":571.4800000423566,"stimulus":"<p>Welche Sequenz haben Sie als natürlicher empfunden?</p>","key_press":70,"test_part":"response","test_stimulus":{"position":0,"left":"bvh/return-bottle-training1-lines.txt","right":"bvh/vr_prediction_models/model(vcgpdm)-dataset(return-bottle)-mode(ELBO)-parts(3)-dyn(10)-lvm(25)-hold(1)/final-lines.txt","att_check":false},"trial_type":"html-keyboard-response","trial_index":226,"time_elapsed":632210,"internal_node_id":"0.0-8.0-3.54","subject":"4tf2eg54hcrzemg","sona":"8794"},{"rt":196.72500004526228,"stimulus":"<p>Bereit?</p>","key_press":32,"trial_type":"html-keyboard-response","trial_index":227,"time_elapsed":632410,"internal_node_id":"0.0-8.0-0.55","subject":"4tf2eg54hcrzemg","sona":"8794"},{"rt":null,"stimulus":"<div style=\"font-size:60px;\">+</div>","key_press":null,"trial_type":"html-keyboard-response","trial_index":228,"time_elapsed":634414,"internal_node_id":"0.0-8.0-1.55","subject":"4tf2eg54hcrzemg","sona":"8794"},{"trial_type":"turing-test","trial_index":229,"time_elapsed":641728,"internal_node_id":"0.0-8.0-2.55","subject":"4tf2eg54hcrzemg","sona":"8794"},{"rt":108.81000000517815,"stimulus":"<p>Welche Sequenz haben Sie als natürlicher empfunden?</p>","key_press":74,"test_part":"response","test_stimulus":{"position":0,"left":"bvh/return-bottle-training1-lines.txt","right":"bvh/vr_prediction_models/model(vcgpdm)-dataset(return-bottle)-mode(ELBO)-parts(1)-dyn(10)-lvm(5)-hold(1)/final-lines.txt","att_check":false},"trial_type":"html-keyboard-response","trial_index":230,"time_elapsed":641841,"internal_node_id":"0.0-8.0-3.55","subject":"4tf2eg54hcrzemg","sona":"8794"},{"rt":567.1950000105426,"stimulus":"<p>Bereit?</p>","key_press":32,"trial_type":"html-keyboard-response","trial_index":231,"time_elapsed":642410,"internal_node_id":"0.0-8.0-0.56","subject":"4tf2eg54hcrzemg","sona":"8794"},{"rt":null,"stimulus":"<div style=\"font-size:60px;\">+</div>","key_press":null,"trial_type":"html-keyboard-response","trial_index":232,"time_elapsed":644413,"internal_node_id":"0.0-8.0-1.56","subject":"4tf2eg54hcrzemg","sona":"8794"},{"trial_type":"turing-test","trial_index":233,"time_elapsed":652043,"internal_node_id":"0.0-8.0-2.56","subject":"4tf2eg54hcrzemg","sona":"8794"},{"rt":634.9400000181049,"stimulus":"<p>Welche Sequenz haben Sie als natürlicher empfunden?</p>","key_press":74,"test_part":"response","test_stimulus":{"position":1,"left":"bvh/vr_prediction_models/model(vcgpdm)-dataset(pass-bottle)-mode(ELBO)-parts(1)-dyn(30)-lvm(20)-hold(0)/final-lines.txt","right":"bvh/pass-bottle-training0-lines.txt","att_check":false},"trial_type":"html-keyboard-response","trial_index":234,"time_elapsed":652681,"internal_node_id":"0.0-8.0-3.56","subject":"4tf2eg54hcrzemg","sona":"8794"},{"rt":184.96500002220273,"stimulus":"<p>Bereit?</p>","key_press":32,"trial_type":"html-keyboard-response","trial_index":235,"time_elapsed":652871,"internal_node_id":"0.0-8.0-0.57","subject":"4tf2eg54hcrzemg","sona":"8794"},{"rt":null,"stimulus":"<div style=\"font-size:60px;\">+</div>","key_press":null,"trial_type":"html-keyboard-response","trial_index":236,"time_elapsed":654873,"internal_node_id":"0.0-8.0-1.57","subject":"4tf2eg54hcrzemg","sona":"8794"},{"trial_type":"turing-test","trial_index":237,"time_elapsed":661281,"internal_node_id":"0.0-8.0-2.57","subject":"4tf2eg54hcrzemg","sona":"8794"},{"rt":533.299999893643,"stimulus":"<p>Welche Sequenz haben Sie als natürlicher empfunden?</p>","key_press":74,"test_part":"response","test_stimulus":{"position":0,"left":"bvh/return-bottle-training1-lines.txt","right":"bvh/vr_prediction_models/model(vcgpdm)-dataset(return-bottle)-mode(MAP)-parts(3)-hold(1)/final-lines.txt","att_check":false},"trial_type":"html-keyboard-response","trial_index":238,"time_elapsed":661821,"internal_node_id":"0.0-8.0-3.57","subject":"4tf2eg54hcrzemg","sona":"8794"},{"rt":166.74000001512468,"stimulus":"<p>Bereit?</p>","key_press":32,"trial_type":"html-keyboard-response","trial_index":239,"time_elapsed":661991,"internal_node_id":"0.0-8.0-0.58","subject":"4tf2eg54hcrzemg","sona":"8794"},{"rt":null,"stimulus":"<div style=\"font-size:60px;\">+</div>","key_press":null,"trial_type":"html-keyboard-response","trial_index":240,"time_elapsed":663995,"internal_node_id":"0.0-8.0-1.58","subject":"4tf2eg54hcrzemg","sona":"8794"},{"trial_type":"turing-test","trial_index":241,"time_elapsed":669532,"internal_node_id":"0.0-8.0-2.58","subject":"4tf2eg54hcrzemg","sona":"8794"},{"rt":1716.0949999233708,"stimulus":"<p>Welche Sequenz haben Sie als natürlicher empfunden?</p>","key_press":70,"test_part":"response","test_stimulus":{"position":0,"left":"bvh/pass-bottle-hold-training3-lines.txt","right":"bvh/vr_prediction_models/model(vcgpdm)-dataset(pass-bottle-hold)-mode(ELBO)-parts(1)-dyn(25)-lvm(35)-hold(3)/final-lines.txt","att_check":false},"trial_type":"html-keyboard-response","trial_index":242,"time_elapsed":671251,"internal_node_id":"0.0-8.0-3.58","subject":"4tf2eg54hcrzemg","sona":"8794"},{"rt":394.87499999813735,"stimulus":"<p>Bereit?</p>","key_press":32,"trial_type":"html-keyboard-response","trial_index":243,"time_elapsed":671650,"internal_node_id":"0.0-8.0-0.59","subject":"4tf2eg54hcrzemg","sona":"8794"},{"rt":null,"stimulus":"<div style=\"font-size:60px;\">+</div>","key_press":null,"trial_type":"html-keyboard-response","trial_index":244,"time_elapsed":673652,"internal_node_id":"0.0-8.0-1.59","subject":"4tf2eg54hcrzemg","sona":"8794"},{"trial_type":"turing-test","trial_index":245,"time_elapsed":677803,"internal_node_id":"0.0-8.0-2.59","subject":"4tf2eg54hcrzemg","sona":"8794"},{"rt":1404.2800000170246,"stimulus":"<p>Welche Sequenz haben Sie als natürlicher empfunden?</p>","key_press":70,"test_part":"response","test_stimulus":{"position":0,"left":"bvh/return-bottle-hold-training4-lines.txt","right":"bvh/vr_prediction_models/model(vcgpdm)-dataset(return-bottle-hold)-mode(ELBO)-parts(1)-dyn(10)-lvm(5)-hold(4)/final-lines.txt","att_check":false},"trial_type":"html-keyboard-response","trial_index":246,"time_elapsed":679211,"internal_node_id":"0.0-8.0-3.59","subject":"4tf2eg54hcrzemg","sona":"8794"},{"rt":175.4499999806285,"stimulus":"<p>Bereit?</p>","key_press":32,"trial_type":"html-keyboard-response","trial_index":247,"time_elapsed":679390,"internal_node_id":"0.0-8.0-0.60","subject":"4tf2eg54hcrzemg","sona":"8794"},{"rt":null,"stimulus":"<div style=\"font-size:60px;\">+</div>","key_press":null,"trial_type":"html-keyboard-response","trial_index":248,"time_elapsed":681392,"internal_node_id":"0.0-8.0-1.60","subject":"4tf2eg54hcrzemg","sona":"8794"},{"trial_type":"turing-test","trial_index":249,"time_elapsed":685579,"internal_node_id":"0.0-8.0-2.60","subject":"4tf2eg54hcrzemg","sona":"8794"},{"rt":847.429999965243,"stimulus":"<p>Welche Sequenz haben Sie als natürlicher empfunden?</p>","key_press":70,"test_part":"response","test_stimulus":{"position":0,"left":"bvh/pass-bottle-hold-training0-lines.txt","right":"bvh/vr_prediction_models/model(vcgpdm)-dataset(pass-bottle-hold)-mode(ELBO)-parts(1)-dyn(35)-lvm(10)-hold(0)/final-lines.txt","att_check":false},"trial_type":"html-keyboard-response","trial_index":250,"time_elapsed":686431,"internal_node_id":"0.0-8.0-3.60","subject":"4tf2eg54hcrzemg","sona":"8794"},{"rt":196.3650000980124,"stimulus":"<p>Bereit?</p>","key_press":32,"trial_type":"html-keyboard-response","trial_index":251,"time_elapsed":686630,"internal_node_id":"0.0-8.0-0.61","subject":"4tf2eg54hcrzemg","sona":"8794"},{"rt":null,"stimulus":"<div style=\"font-size:60px;\">+</div>","key_press":null,"trial_type":"html-keyboard-response","trial_index":252,"time_elapsed":688633,"internal_node_id":"0.0-8.0-1.61","subject":"4tf2eg54hcrzemg","sona":"8794"},{"trial_type":"turing-test","trial_index":253,"time_elapsed":694986,"internal_node_id":"0.0-8.0-2.61","subject":"4tf2eg54hcrzemg","sona":"8794"},{"rt":519.109999993816,"stimulus":"<p>Welche Sequenz haben Sie als natürlicher empfunden?</p>","key_press":70,"test_part":"response","test_stimulus":{"position":0,"left":"bvh/pass-bottle-training4-lines.txt","right":"bvh/vr_prediction_models/model(vcgpdm)-dataset(pass-bottle)-mode(ELBO)-parts(3)-dyn(25)-lvm(15)-hold(4)/final-lines.txt","att_check":false},"trial_type":"html-keyboard-response","trial_index":254,"time_elapsed":695510,"internal_node_id":"0.0-8.0-3.61","subject":"4tf2eg54hcrzemg","sona":"8794"},{"rt":156.63999994285405,"stimulus":"<p>Bereit?</p>","key_press":32,"trial_type":"html-keyboard-response","trial_index":255,"time_elapsed":695670,"internal_node_id":"0.0-8.0-0.62","subject":"4tf2eg54hcrzemg","sona":"8794"},{"rt":null,"stimulus":"<div style=\"font-size:60px;\">+</div>","key_press":null,"trial_type":"html-keyboard-response","trial_index":256,"time_elapsed":697672,"internal_node_id":"0.0-8.0-1.62","subject":"4tf2eg54hcrzemg","sona":"8794"},{"trial_type":"turing-test","trial_index":257,"time_elapsed":701120,"internal_node_id":"0.0-8.0-2.62","subject":"4tf2eg54hcrzemg","sona":"8794"},{"rt":1076.7500000074506,"stimulus":"<p>Welche Sequenz haben Sie als natürlicher empfunden?</p>","key_press":70,"test_part":"response","test_stimulus":{"position":1,"left":"bvh/vr_prediction_models/model(tmp)-dataset(return-bottle-hold)-numprim(12)-hold(1)/final-lines.txt","right":"bvh/return-bottle-hold-training1-lines.txt","att_check":false},"trial_type":"html-keyboard-response","trial_index":258,"time_elapsed":702201,"internal_node_id":"0.0-8.0-3.62","subject":"4tf2eg54hcrzemg","sona":"8794"},{"rt":115.09500001557171,"stimulus":"<p>Bereit?</p>","key_press":32,"trial_type":"html-keyboard-response","trial_index":259,"time_elapsed":702320,"internal_node_id":"0.0-8.0-0.63","subject":"4tf2eg54hcrzemg","sona":"8794"},{"rt":null,"stimulus":"<div style=\"font-size:60px;\">+</div>","key_press":null,"trial_type":"html-keyboard-response","trial_index":260,"time_elapsed":704322,"internal_node_id":"0.0-8.0-1.63","subject":"4tf2eg54hcrzemg","sona":"8794"},{"trial_type":"turing-test","trial_index":261,"time_elapsed":709435,"internal_node_id":"0.0-8.0-2.63","subject":"4tf2eg54hcrzemg","sona":"8794"},{"rt":1423.285000026226,"stimulus":"<p>Welche Sequenz haben Sie als natürlicher empfunden?</p>","key_press":74,"test_part":"response","test_stimulus":{"position":1,"left":"bvh/vr_prediction_models/model(vcgpdm)-dataset(pass-bottle-hold)-mode(ELBO)-parts(1)-dyn(5)-lvm(5)-hold(0)/final-lines.txt","right":"bvh/pass-bottle-hold-training0-lines.txt","att_check":false},"trial_type":"html-keyboard-response","trial_index":262,"time_elapsed":710861,"internal_node_id":"0.0-8.0-3.63","subject":"4tf2eg54hcrzemg","sona":"8794"},{"rt":196.95999997202307,"stimulus":"<p>Bereit?</p>","key_press":32,"trial_type":"html-keyboard-response","trial_index":263,"time_elapsed":711061,"internal_node_id":"0.0-8.0-0.64","subject":"4tf2eg54hcrzemg","sona":"8794"},{"rt":null,"stimulus":"<div style=\"font-size:60px;\">+</div>","key_press":null,"trial_type":"html-keyboard-response","trial_index":264,"time_elapsed":713065,"internal_node_id":"0.0-8.0-1.64","subject":"4tf2eg54hcrzemg","sona":"8794"},{"trial_type":"turing-test","trial_index":265,"time_elapsed":719099,"internal_node_id":"0.0-8.0-2.64","subject":"4tf2eg54hcrzemg","sona":"8794"},{"rt":1517.314999946393,"stimulus":"<p>Welche Sequenz haben Sie als natürlicher empfunden?</p>","key_press":74,"test_part":"response","test_stimulus":{"position":1,"left":"bvh/vr_prediction_models/model(dmp)-dataset(pass-bottle)-npsi(30)-hold(3)/final-lines.txt","right":"bvh/pass-bottle-training3-lines.txt","att_check":false},"trial_type":"html-keyboard-response","trial_index":266,"time_elapsed":720622,"internal_node_id":"0.0-8.0-3.64","subject":"4tf2eg54hcrzemg","sona":"8794"},{"rt":826.1750000528991,"stimulus":"<p>Bereit?</p>","key_press":32,"trial_type":"html-keyboard-response","trial_index":267,"time_elapsed":721451,"internal_node_id":"0.0-8.0-0.65","subject":"4tf2eg54hcrzemg","sona":"8794"},{"rt":null,"stimulus":"<div style=\"font-size:60px;\">+</div>","key_press":null,"trial_type":"html-keyboard-response","trial_index":268,"time_elapsed":723456,"internal_node_id":"0.0-8.0-1.65","subject":"4tf2eg54hcrzemg","sona":"8794"},{"trial_type":"turing-test","trial_index":269,"time_elapsed":729628,"internal_node_id":"0.0-8.0-2.65","subject":"4tf2eg54hcrzemg","sona":"8794"},{"rt":750.9149999823421,"stimulus":"<p>Welche Sequenz haben Sie als natürlicher empfunden?</p>","key_press":74,"test_part":"response","test_stimulus":{"position":0,"left":"bvh/pass-bottle-training4-lines.txt","right":"bvh/vr_prediction_models/model(vcgpdm)-dataset(pass-bottle)-mode(ELBO)-parts(1)-dyn(10)-lvm(25)-hold(4)/final-lines.txt","att_check":false},"trial_type":"html-keyboard-response","trial_index":270,"time_elapsed":730382,"internal_node_id":"0.0-8.0-3.65","subject":"4tf2eg54hcrzemg","sona":"8794"},{"rt":147.38500001840293,"stimulus":"<p>Bereit?</p>","key_press":32,"trial_type":"html-keyboard-response","trial_index":271,"time_elapsed":730532,"internal_node_id":"0.0-8.0-0.66","subject":"4tf2eg54hcrzemg","sona":"8794"},{"rt":null,"stimulus":"<div style=\"font-size:60px;\">+</div>","key_press":null,"trial_type":"html-keyboard-response","trial_index":272,"time_elapsed":732535,"internal_node_id":"0.0-8.0-1.66","subject":"4tf2eg54hcrzemg","sona":"8794"},{"trial_type":"turing-test","trial_index":273,"time_elapsed":738430,"internal_node_id":"0.0-8.0-2.66","subject":"4tf2eg54hcrzemg","sona":"8794"},{"rt":478.3999999053776,"stimulus":"<p>Welche Sequenz haben Sie als natürlicher empfunden?</p>","key_press":74,"test_part":"response","test_stimulus":{"position":1,"left":"bvh/vr_prediction_models/model(dmp)-dataset(pass-bottle)-npsi(90)-hold(3)/final-lines.txt","right":"bvh/pass-bottle-training3-lines.txt","att_check":true},"trial_type":"html-keyboard-response","trial_index":274,"time_elapsed":738913,"internal_node_id":"0.0-8.0-3.66","subject":"4tf2eg54hcrzemg","sona":"8794"},{"rt":136.31000008899719,"stimulus":"<p>Bereit?</p>","key_press":32,"trial_type":"html-keyboard-response","trial_index":275,"time_elapsed":739052,"internal_node_id":"0.0-8.0-0.67","subject":"4tf2eg54hcrzemg","sona":"8794"},{"rt":null,"stimulus":"<div style=\"font-size:60px;\">+</div>","key_press":null,"trial_type":"html-keyboard-response","trial_index":276,"time_elapsed":741055,"internal_node_id":"0.0-8.0-1.67","subject":"4tf2eg54hcrzemg","sona":"8794"},{"trial_type":"turing-test","trial_index":277,"time_elapsed":746550,"internal_node_id":"0.0-8.0-2.67","subject":"4tf2eg54hcrzemg","sona":"8794"},{"rt":398.3050000388175,"stimulus":"<p>Welche Sequenz haben Sie als natürlicher empfunden?</p>","key_press":70,"test_part":"response","test_stimulus":{"position":0,"left":"bvh/return-bottle-hold-training0-lines.txt","right":"bvh/vr_prediction_models/model(vcgpdm)-dataset(return-bottle-hold)-mode(ELBO)-parts(3)-dyn(25)-lvm(15)-hold(0)/final-lines.txt","att_check":false},"trial_type":"html-keyboard-response","trial_index":278,"time_elapsed":746952,"internal_node_id":"0.0-8.0-3.67","subject":"4tf2eg54hcrzemg","sona":"8794"},{"rt":327.35999999567866,"stimulus":"<p>Bereit?</p>","key_press":32,"trial_type":"html-keyboard-response","trial_index":279,"time_elapsed":747282,"internal_node_id":"0.0-8.0-0.68","subject":"4tf2eg54hcrzemg","sona":"8794"},{"rt":null,"stimulus":"<div style=\"font-size:60px;\">+</div>","key_press":null,"trial_type":"html-keyboard-response","trial_index":280,"time_elapsed":749288,"internal_node_id":"0.0-8.0-1.68","subject":"4tf2eg54hcrzemg","sona":"8794"},{"trial_type":"turing-test","trial_index":281,"time_elapsed":755066,"internal_node_id":"0.0-8.0-2.68","subject":"4tf2eg54hcrzemg","sona":"8794"},{"rt":391.34000008925796,"stimulus":"<p>Welche Sequenz haben Sie als natürlicher empfunden?</p>","key_press":74,"test_part":"response","test_stimulus":{"position":1,"left":"bvh/vr_prediction_models/model(dmp)-dataset(return-bottle)-npsi(90)-hold(4)/final-lines.txt","right":"bvh/return-bottle-training4-lines.txt","att_check":false},"trial_type":"html-keyboard-response","trial_index":282,"time_elapsed":755462,"internal_node_id":"0.0-8.0-3.68","subject":"4tf2eg54hcrzemg","sona":"8794"},{"rt":345.91499995440245,"stimulus":"<p>Bereit?</p>","key_press":32,"trial_type":"html-keyboard-response","trial_index":283,"time_elapsed":755812,"internal_node_id":"0.0-8.0-0.69","subject":"4tf2eg54hcrzemg","sona":"8794"},{"rt":null,"stimulus":"<div style=\"font-size:60px;\">+</div>","key_press":null,"trial_type":"html-keyboard-response","trial_index":284,"time_elapsed":757815,"internal_node_id":"0.0-8.0-1.69","subject":"4tf2eg54hcrzemg","sona":"8794"},{"trial_type":"turing-test","trial_index":285,"time_elapsed":764249,"internal_node_id":"0.0-8.0-2.69","subject":"4tf2eg54hcrzemg","sona":"8794"},{"rt":368.59000008553267,"stimulus":"<p>Welche Sequenz haben Sie als natürlicher empfunden?</p>","key_press":74,"test_part":"response","test_stimulus":{"position":1,"left":"bvh/vr_prediction_models/model(vcgpdm)-dataset(return-bottle)-mode(ELBO)-parts(3)-dyn(10)-lvm(30)-hold(1)/final-lines.txt","right":"bvh/return-bottle-training1-lines.txt","att_check":false},"trial_type":"html-keyboard-response","trial_index":286,"time_elapsed":764623,"internal_node_id":"0.0-8.0-3.69","subject":"4tf2eg54hcrzemg","sona":"8794"},{"rt":164.3149999435991,"stimulus":"<p>Bereit?</p>","key_press":32,"trial_type":"html-keyboard-response","trial_index":287,"time_elapsed":764791,"internal_node_id":"0.0-8.0-0.70","subject":"4tf2eg54hcrzemg","sona":"8794"},{"rt":null,"stimulus":"<div style=\"font-size:60px;\">+</div>","key_press":null,"trial_type":"html-keyboard-response","trial_index":288,"time_elapsed":766794,"internal_node_id":"0.0-8.0-1.70","subject":"4tf2eg54hcrzemg","sona":"8794"},{"trial_type":"turing-test","trial_index":289,"time_elapsed":773008,"internal_node_id":"0.0-8.0-2.70","subject":"4tf2eg54hcrzemg","sona":"8794"},{"rt":580.0149999558926,"stimulus":"<p>Welche Sequenz haben Sie als natürlicher empfunden?</p>","key_press":70,"test_part":"response","test_stimulus":{"position":0,"left":"bvh/pass-bottle-training1-lines.txt","right":"bvh/vr_prediction_models/model(vcgpdm)-dataset(pass-bottle)-mode(ELBO)-parts(3)-dyn(35)-lvm(20)-hold(1)/final-lines.txt","att_check":false},"trial_type":"html-keyboard-response","trial_index":290,"time_elapsed":773592,"internal_node_id":"0.0-8.0-3.70","subject":"4tf2eg54hcrzemg","sona":"8794"},{"rt":186.91000004764646,"stimulus":"<p>Bereit?</p>","key_press":32,"trial_type":"html-keyboard-response","trial_index":291,"time_elapsed":773782,"internal_node_id":"0.0-8.0-0.71","subject":"4tf2eg54hcrzemg","sona":"8794"},{"rt":null,"stimulus":"<div style=\"font-size:60px;\">+</div>","key_press":null,"trial_type":"html-keyboard-response","trial_index":292,"time_elapsed":775783,"internal_node_id":"0.0-8.0-1.71","subject":"4tf2eg54hcrzemg","sona":"8794"},{"trial_type":"turing-test","trial_index":293,"time_elapsed":782746,"internal_node_id":"0.0-8.0-2.71","subject":"4tf2eg54hcrzemg","sona":"8794"},{"rt":513.5849999496713,"stimulus":"<p>Welche Sequenz haben Sie als natürlicher empfunden?</p>","key_press":74,"test_part":"response","test_stimulus":{"position":1,"left":"bvh/vr_prediction_models/model(vcgpdm)-dataset(return-bottle)-mode(ELBO)-parts(1)-dyn(20)-lvm(20)-hold(2)/final-lines.txt","right":"bvh/return-bottle-training2-lines.txt","att_check":false},"trial_type":"html-keyboard-response","trial_index":294,"time_elapsed":783264,"internal_node_id":"0.0-8.0-3.71","subject":"4tf2eg54hcrzemg","sona":"8794"},{"rt":175.1249999506399,"stimulus":"<p>Bereit?</p>","key_press":32,"trial_type":"html-keyboard-response","trial_index":295,"time_elapsed":783443,"internal_node_id":"0.0-8.0-0.72","subject":"4tf2eg54hcrzemg","sona":"8794"},{"rt":null,"stimulus":"<div style=\"font-size:60px;\">+</div>","key_press":null,"trial_type":"html-keyboard-response","trial_index":296,"time_elapsed":785446,"internal_node_id":"0.0-8.0-1.72","subject":"4tf2eg54hcrzemg","sona":"8794"},{"trial_type":"turing-test","trial_index":297,"time_elapsed":791533,"internal_node_id":"0.0-8.0-2.72","subject":"4tf2eg54hcrzemg","sona":"8794"},{"rt":584.1999999247491,"stimulus":"<p>Welche Sequenz haben Sie als natürlicher empfunden?</p>","key_press":74,"test_part":"response","test_stimulus":{"position":0,"left":"bvh/pass-bottle-training3-lines.txt","right":"bvh/vr_prediction_models/model(vcgpdm)-dataset(pass-bottle)-mode(ELBO)-parts(1)-dyn(35)-lvm(10)-hold(3)/final-lines.txt","att_check":false},"trial_type":"html-keyboard-response","trial_index":298,"time_elapsed":792122,"internal_node_id":"0.0-8.0-3.72","subject":"4tf2eg54hcrzemg","sona":"8794"},{"rt":156.0650001047179,"stimulus":"<p>Bereit?</p>","key_press":32,"trial_type":"html-keyboard-response","trial_index":299,"time_elapsed":792282,"internal_node_id":"0.0-8.0-0.73","subject":"4tf2eg54hcrzemg","sona":"8794"},{"rt":null,"stimulus":"<div style=\"font-size:60px;\">+</div>","key_press":null,"trial_type":"html-keyboard-response","trial_index":300,"time_elapsed":794285,"internal_node_id":"0.0-8.0-1.73","subject":"4tf2eg54hcrzemg","sona":"8794"},{"trial_type":"turing-test","trial_index":301,"time_elapsed":800439,"internal_node_id":"0.0-8.0-2.73","subject":"4tf2eg54hcrzemg","sona":"8794"},{"rt":389.56500007770956,"stimulus":"<p>Welche Sequenz haben Sie als natürlicher empfunden?</p>","key_press":74,"test_part":"response","test_stimulus":{"position":1,"left":"bvh/vr_prediction_models/model(dmp)-dataset(pass-bottle)-npsi(10)-hold(2)/final-lines.txt","right":"bvh/pass-bottle-training2-lines.txt","att_check":false},"trial_type":"html-keyboard-response","trial_index":302,"time_elapsed":800833,"internal_node_id":"0.0-8.0-3.73","subject":"4tf2eg54hcrzemg","sona":"8794"},{"rt":124.86999994143844,"stimulus":"<p>Bereit?</p>","key_press":32,"trial_type":"html-keyboard-response","trial_index":303,"time_elapsed":800962,"internal_node_id":"0.0-8.0-0.74","subject":"4tf2eg54hcrzemg","sona":"8794"},{"rt":null,"stimulus":"<div style=\"font-size:60px;\">+</div>","key_press":null,"trial_type":"html-keyboard-response","trial_index":304,"time_elapsed":802964,"internal_node_id":"0.0-8.0-1.74","subject":"4tf2eg54hcrzemg","sona":"8794"},{"trial_type":"turing-test","trial_index":305,"time_elapsed":807125,"internal_node_id":"0.0-8.0-2.74","subject":"4tf2eg54hcrzemg","sona":"8794"},{"rt":533.9399999938905,"stimulus":"<p>Welche Sequenz haben Sie als natürlicher empfunden?</p>","key_press":70,"test_part":"response","test_stimulus":{"position":1,"left":"bvh/vr_prediction_models/model(vcgpdm)-dataset(return-bottle-hold)-mode(ELBO)-parts(1)-dyn(30)-lvm(20)-hold(3)/final-lines.txt","right":"bvh/return-bottle-hold-training3-lines.txt","att_check":false},"trial_type":"html-keyboard-response","trial_index":306,"time_elapsed":807662,"internal_node_id":"0.0-8.0-3.74","subject":"4tf2eg54hcrzemg","sona":"8794"},{"rt":156.3849999802187,"stimulus":"<p>Bereit?</p>","key_press":32,"trial_type":"html-keyboard-response","trial_index":307,"time_elapsed":807822,"internal_node_id":"0.0-8.0-0.75","subject":"4tf2eg54hcrzemg","sona":"8794"},{"rt":null,"stimulus":"<div style=\"font-size:60px;\">+</div>","key_press":null,"trial_type":"html-keyboard-response","trial_index":308,"time_elapsed":809824,"internal_node_id":"0.0-8.0-1.75","subject":"4tf2eg54hcrzemg","sona":"8794"},{"trial_type":"turing-test","trial_index":309,"time_elapsed":816502,"internal_node_id":"0.0-8.0-2.75","subject":"4tf2eg54hcrzemg","sona":"8794"},{"rt":446.3250000262633,"stimulus":"<p>Welche Sequenz haben Sie als natürlicher empfunden?</p>","key_press":70,"test_part":"response","test_stimulus":{"position":0,"left":"bvh/return-bottle-training2-lines.txt","right":"bvh/vr_prediction_models/model(dmp)-dataset(return-bottle)-npsi(60)-hold(2)/final-lines.txt","att_check":false},"trial_type":"html-keyboard-response","trial_index":310,"time_elapsed":816953,"internal_node_id":"0.0-8.0-3.75","subject":"4tf2eg54hcrzemg","sona":"8794"},{"rt":154.84500001184642,"stimulus":"<p>Bereit?</p>","key_press":32,"trial_type":"html-keyboard-response","trial_index":311,"time_elapsed":817112,"internal_node_id":"0.0-8.0-0.76","subject":"4tf2eg54hcrzemg","sona":"8794"},{"rt":null,"stimulus":"<div style=\"font-size:60px;\">+</div>","key_press":null,"trial_type":"html-keyboard-response","trial_index":312,"time_elapsed":819116,"internal_node_id":"0.0-8.0-1.76","subject":"4tf2eg54hcrzemg","sona":"8794"},{"trial_type":"turing-test","trial_index":313,"time_elapsed":826706,"internal_node_id":"0.0-8.0-2.76","subject":"4tf2eg54hcrzemg","sona":"8794"},{"rt":583.1450000405312,"stimulus":"<p>Welche Sequenz haben Sie als natürlicher empfunden?</p>","key_press":74,"test_part":"response","test_stimulus":{"position":1,"left":"bvh/vr_prediction_models/model(vcgpdm)-dataset(return-bottle)-mode(ELBO)-parts(3)-dyn(10)-lvm(30)-hold(2)/final-lines.txt","right":"bvh/return-bottle-training2-lines.txt","att_check":false},"trial_type":"html-keyboard-response","trial_index":314,"time_elapsed":827293,"internal_node_id":"0.0-8.0-3.76","subject":"4tf2eg54hcrzemg","sona":"8794"},{"rt":174.9650000128895,"stimulus":"<p>Bereit?</p>","key_press":32,"trial_type":"html-keyboard-response","trial_index":315,"time_elapsed":827472,"internal_node_id":"0.0-8.0-0.77","subject":"4tf2eg54hcrzemg","sona":"8794"},{"rt":null,"stimulus":"<div style=\"font-size:60px;\">+</div>","key_press":null,"trial_type":"html-keyboard-response","trial_index":316,"time_elapsed":829475,"internal_node_id":"0.0-8.0-1.77","subject":"4tf2eg54hcrzemg","sona":"8794"},{"trial_type":"turing-test","trial_index":317,"time_elapsed":835260,"internal_node_id":"0.0-8.0-2.77","subject":"4tf2eg54hcrzemg","sona":"8794"},{"rt":495.2049999265,"stimulus":"<p>Welche Sequenz haben Sie als natürlicher empfunden?</p>","key_press":74,"test_part":"response","test_stimulus":{"position":1,"left":"bvh/vr_prediction_models/model(dmp)-dataset(return-bottle)-npsi(50)-hold(3)/final-lines.txt","right":"bvh/return-bottle-training3-lines.txt","att_check":true},"trial_type":"html-keyboard-response","trial_index":318,"time_elapsed":835762,"internal_node_id":"0.0-8.0-3.77","subject":"4tf2eg54hcrzemg","sona":"8794"},{"rt":135.4400001000613,"stimulus":"<p>Bereit?</p>","key_press":32,"trial_type":"html-keyboard-response","trial_index":319,"time_elapsed":835902,"internal_node_id":"0.0-8.0-0.78","subject":"4tf2eg54hcrzemg","sona":"8794"},{"rt":null,"stimulus":"<div style=\"font-size:60px;\">+</div>","key_press":null,"trial_type":"html-keyboard-response","trial_index":320,"time_elapsed":837904,"internal_node_id":"0.0-8.0-1.78","subject":"4tf2eg54hcrzemg","sona":"8794"},{"trial_type":"turing-test","trial_index":321,"time_elapsed":845155,"internal_node_id":"0.0-8.0-2.78","subject":"4tf2eg54hcrzemg","sona":"8794"},{"rt":483.9550000615418,"stimulus":"<p>Welche Sequenz haben Sie als natürlicher empfunden?</p>","key_press":74,"test_part":"response","test_stimulus":{"position":1,"left":"bvh/vr_prediction_models/model(tmp)-dataset(pass-bottle)-numprim(12)-hold(0)/final-lines.txt","right":"bvh/pass-bottle-training0-lines.txt","att_check":false},"trial_type":"html-keyboard-response","trial_index":322,"time_elapsed":845643,"internal_node_id":"0.0-8.0-3.78","subject":"4tf2eg54hcrzemg","sona":"8794"},{"rt":135.00499993097037,"stimulus":"<p>Bereit?</p>","key_press":32,"trial_type":"html-keyboard-response","trial_index":323,"time_elapsed":845782,"internal_node_id":"0.0-8.0-0.79","subject":"4tf2eg54hcrzemg","sona":"8794"},{"rt":null,"stimulus":"<div style=\"font-size:60px;\">+</div>","key_press":null,"trial_type":"html-keyboard-response","trial_index":324,"time_elapsed":847785,"internal_node_id":"0.0-8.0-1.79","subject":"4tf2eg54hcrzemg","sona":"8794"},{"trial_type":"turing-test","trial_index":325,"time_elapsed":855355,"internal_node_id":"0.0-8.0-2.79","subject":"4tf2eg54hcrzemg","sona":"8794"},{"rt":1194.844999932684,"stimulus":"<p>Welche Sequenz haben Sie als natürlicher empfunden?</p>","key_press":74,"test_part":"response","test_stimulus":{"position":0,"left":"bvh/pass-bottle-training4-lines.txt","right":"bvh/vr_prediction_models/model(vcgpdm)-dataset(pass-bottle)-mode(ELBO)-parts(1)-dyn(10)-lvm(5)-hold(4)/final-lines.txt","att_check":false},"trial_type":"html-keyboard-response","trial_index":326,"time_elapsed":856554,"internal_node_id":"0.0-8.0-3.79","subject":"4tf2eg54hcrzemg","sona":"8794"},{"rt":25463.624999974854,"responses":"{\"age\":\" 24\",\"gender\":\"männlich\"}","trial_type":"survey-text","trial_index":327,"time_elapsed":882025,"internal_node_id":"0.0-10.0-0.0","subject":"4tf2eg54hcrzemg","sona":"8794"},{"rt":83348.12999994028,"responses":"{\"area\":\"Die Arme\",\"Q1\":\"teils rotierten die Figuren oder sie bewegten sich stockend\",\"Q2\":\"starke Bewegungen oder auf- und abgleitende Figuren \"}","trial_type":"survey-text","trial_index":328,"time_elapsed":965400,"internal_node_id":"0.0-10.0-1.0","subject":"4tf2eg54hcrzemg","sona":"8794"}]