[{"rt":12555.81000004895,"stimulus":"<p>Welcome!<br> Please choose your language to start the experiment in the chosen language.</p><p>Willkommen!<br> Bitte wählen Sie eine Sprache, um das Experiment in der ausgewählten Sprache zu starten</p>","button_pressed":"0","trial_type":"html-button-response","trial_index":0,"time_elapsed":12582,"internal_node_id":"0.0-0.0","subject":"mlneyfew6rkdldy","sona":"9685"},{"view_history":"[{\"page_index\":0,\"viewing_time\":8749.614999978803},{\"page_index\":1,\"viewing_time\":3318.245000031311},{\"page_index\":2,\"viewing_time\":4455.309999990277},{\"page_index\":3,\"viewing_time\":4567.210000008345},{\"page_index\":4,\"viewing_time\":2772.430000011809}]","rt":23865.57000002358,"trial_type":"instructions","trial_index":1,"time_elapsed":36448,"internal_node_id":"0.0-2.0-0.0","subject":"mlneyfew6rkdldy","sona":"9685"},{"rt":2621.9750000163913,"stimulus":"<p>Ready?</p>","key_press":32,"trial_type":"html-keyboard-response","trial_index":2,"time_elapsed":39074,"internal_node_id":"0.0-3.0","subject":"mlneyfew6rkdldy","sona":"9685"},{"rt":null,"stimulus":"<div style=\"font-size:60px;\">+</div>","key_press":null,"trial_type":"html-keyboard-response","trial_index":3,"time_elapsed":41077,"internal_node_id":"0.0-4.0","subject":"mlneyfew6rkdldy","sona":"9685"},{"trial_type":"training","trial_index":4,"time_elapsed":44800,"internal_node_id":"0.0-5.0","subject":"mlneyfew6rkdldy","sona":"9685"},{"rt":4330.725000007078,"stimulus":"<p>Which sequence did you perceive as more natural?</p>","key_press":70,"trial_type":"html-keyboard-response","trial_index":5,"time_elapsed":49134,"internal_node_id":"0.0-6.0","subject":"mlneyfew6rkdldy","sona":"9685"},{"rt":2622.3750000353903,"stimulus":"<p>The experiment starts now.</p><p><small>Please click the button if you are ready.</small></p>","button_pressed":"0","trial_type":"html-button-response","trial_index":6,"time_elapsed":51759,"internal_node_id":"0.0-7.0","subject":"mlneyfew6rkdldy","sona":"9685"},{"rt":1247.4550000042655,"stimulus":"<p>Ready?</p>","key_press":32,"trial_type":"html-keyboard-response","trial_index":7,"time_elapsed":53010,"internal_node_id":"0.0-8.0-0.0","subject":"mlneyfew6rkdldy","sona":"9685"},{"rt":null,"stimulus":"<div style=\"font-size:60px;\">+</div>","key_press":null,"trial_type":"html-keyboard-response","trial_index":8,"time_elapsed":55017,"internal_node_id":"0.0-8.0-1.0","subject":"mlneyfew6rkdldy","sona":"9685"},{"trial_type":"turing-test","trial_index":9,"time_elapsed":58924,"internal_node_id":"0.0-8.0-2.0","subject":"mlneyfew6rkdldy","sona":"9685"},{"rt":688.9749999972992,"stimulus":"<p>Which sequence did you perceive as more natural?</p>","key_press":70,"test_part":"response","test_stimulus":{"position":1,"left":"bvh/vr_prediction_models/model(vcgpdm)-dataset(pass-bottle-hold)-mode(ELBO)-parts(3)-dyn(25)-lvm(25)-hold(1)/final-lines.txt","right":"bvh/pass-bottle-hold-training1-lines.txt","att_check":false},"trial_type":"html-keyboard-response","trial_index":10,"time_elapsed":59620,"internal_node_id":"0.0-8.0-3.0","subject":"mlneyfew6rkdldy","sona":"9685"},{"rt":4185.449999989942,"stimulus":"<p>Ready?</p>","key_press":32,"trial_type":"html-keyboard-response","trial_index":11,"time_elapsed":63810,"internal_node_id":"0.0-8.0-0.1","subject":"mlneyfew6rkdldy","sona":"9685"},{"rt":null,"stimulus":"<div style=\"font-size:60px;\">+</div>","key_press":null,"trial_type":"html-keyboard-response","trial_index":12,"time_elapsed":65813,"internal_node_id":"0.0-8.0-1.1","subject":"mlneyfew6rkdldy","sona":"9685"},{"trial_type":"turing-test","trial_index":13,"time_elapsed":69729,"internal_node_id":"0.0-8.0-2.1","subject":"mlneyfew6rkdldy","sona":"9685"},{"rt":6.584999966435134,"stimulus":"<p>Which sequence did you perceive as more natural?</p>","key_press":70,"test_part":"response","test_stimulus":{"position":1,"left":"bvh/vr_prediction_models/model(vcgpdm)-dataset(pass-bottle-hold)-mode(ELBO)-parts(3)-dyn(25)-lvm(25)-hold(2)/final-lines.txt","right":"bvh/pass-bottle-hold-training2-lines.txt","att_check":false},"trial_type":"html-keyboard-response","trial_index":14,"time_elapsed":69738,"internal_node_id":"0.0-8.0-3.1","subject":"mlneyfew6rkdldy","sona":"9685"},{"rt":1039.7900000098161,"stimulus":"<p>Ready?</p>","key_press":32,"trial_type":"html-keyboard-response","trial_index":15,"time_elapsed":70780,"internal_node_id":"0.0-8.0-0.2","subject":"mlneyfew6rkdldy","sona":"9685"},{"rt":null,"stimulus":"<div style=\"font-size:60px;\">+</div>","key_press":null,"trial_type":"html-keyboard-response","trial_index":16,"time_elapsed":72784,"internal_node_id":"0.0-8.0-1.2","subject":"mlneyfew6rkdldy","sona":"9685"},{"trial_type":"turing-test","trial_index":17,"time_elapsed":79550,"internal_node_id":"0.0-8.0-2.2","subject":"mlneyfew6rkdldy","sona":"9685"},{"rt":1962.699999974575,"stimulus":"<p>Which sequence did you perceive as more natural?</p>","key_press":74,"test_part":"response","test_stimulus":{"position":1,"left":"bvh/vr_prediction_models/model(vcgpdm)-dataset(pass-bottle)-mode(MAP)-parts(1)-hold(2)/final-lines.txt","right":"bvh/pass-bottle-training2-lines.txt","att_check":false},"trial_type":"html-keyboard-response","trial_index":18,"time_elapsed":81516,"internal_node_id":"0.0-8.0-3.2","subject":"mlneyfew6rkdldy","sona":"9685"},{"rt":3176.165000011679,"stimulus":"<p>Ready?</p>","key_press":32,"trial_type":"html-keyboard-response","trial_index":19,"time_elapsed":84696,"internal_node_id":"0.0-8.0-0.3","subject":"mlneyfew6rkdldy","sona":"9685"},{"rt":null,"stimulus":"<div style=\"font-size:60px;\">+</div>","key_press":null,"trial_type":"html-keyboard-response","trial_index":20,"time_elapsed":86699,"internal_node_id":"0.0-8.0-1.3","subject":"mlneyfew6rkdldy","sona":"9685"},{"trial_type":"turing-test","trial_index":21,"time_elapsed":92554,"internal_node_id":"0.0-8.0-2.3","subject":"mlneyfew6rkdldy","sona":"9685"},{"rt":2344.959999958519,"stimulus":"<p>Which sequence did you perceive as more natural?</p>","key_press":70,"test_part":"response","test_stimulus":{"position":1,"left":"bvh/vr_prediction_models/model(tmp)-dataset(return-bottle)-numprim(13)-hold(3)/final-lines.txt","right":"bvh/return-bottle-training3-lines.txt","att_check":false},"trial_type":"html-keyboard-response","trial_index":22,"time_elapsed":94905,"internal_node_id":"0.0-8.0-3.3","subject":"mlneyfew6rkdldy","sona":"9685"},{"rt":3091.6500000166707,"stimulus":"<p>Ready?</p>","key_press":32,"trial_type":"html-keyboard-response","trial_index":23,"time_elapsed":98001,"internal_node_id":"0.0-8.0-0.4","subject":"mlneyfew6rkdldy","sona":"9685"},{"rt":null,"stimulus":"<div style=\"font-size:60px;\">+</div>","key_press":null,"trial_type":"html-keyboard-response","trial_index":24,"time_elapsed":100004,"internal_node_id":"0.0-8.0-1.4","subject":"mlneyfew6rkdldy","sona":"9685"},{"trial_type":"turing-test","trial_index":25,"time_elapsed":106184,"internal_node_id":"0.0-8.0-2.4","subject":"mlneyfew6rkdldy","sona":"9685"},{"rt":408.3450000034645,"stimulus":"<p>Which sequence did you perceive as more natural?</p>","key_press":74,"test_part":"response","test_stimulus":{"position":1,"left":"bvh/vr_prediction_models/model(vcgpdm)-dataset(pass-bottle)-mode(ELBO)-parts(1)-dyn(30)-lvm(30)-hold(4)/final-lines.txt","right":"bvh/pass-bottle-training4-lines.txt","att_check":false},"trial_type":"html-keyboard-response","trial_index":26,"time_elapsed":106599,"internal_node_id":"0.0-8.0-3.4","subject":"mlneyfew6rkdldy","sona":"9685"},{"rt":692.6450000028126,"stimulus":"<p>Ready?</p>","key_press":32,"trial_type":"html-keyboard-response","trial_index":27,"time_elapsed":107299,"internal_node_id":"0.0-8.0-0.5","subject":"mlneyfew6rkdldy","sona":"9685"},{"rt":null,"stimulus":"<div style=\"font-size:60px;\">+</div>","key_press":null,"trial_type":"html-keyboard-response","trial_index":28,"time_elapsed":109302,"internal_node_id":"0.0-8.0-1.5","subject":"mlneyfew6rkdldy","sona":"9685"},{"trial_type":"turing-test","trial_index":29,"time_elapsed":113553,"internal_node_id":"0.0-8.0-2.5","subject":"mlneyfew6rkdldy","sona":"9685"},{"rt":575.8399999467656,"stimulus":"<p>Which sequence did you perceive as more natural?</p>","key_press":74,"test_part":"response","test_stimulus":{"position":1,"left":"bvh/vr_prediction_models/model(vcgpdm)-dataset(pass-bottle-hold)-mode(ELBO)-parts(3)-dyn(10)-lvm(10)-hold(4)/final-lines.txt","right":"bvh/pass-bottle-hold-training4-lines.txt","att_check":false},"trial_type":"html-keyboard-response","trial_index":30,"time_elapsed":114135,"internal_node_id":"0.0-8.0-3.5","subject":"mlneyfew6rkdldy","sona":"9685"},{"rt":327.6849999674596,"stimulus":"<p>Ready?</p>","key_press":32,"trial_type":"html-keyboard-response","trial_index":31,"time_elapsed":114466,"internal_node_id":"0.0-8.0-0.6","subject":"mlneyfew6rkdldy","sona":"9685"},{"rt":null,"stimulus":"<div style=\"font-size:60px;\">+</div>","key_press":null,"trial_type":"html-keyboard-response","trial_index":32,"time_elapsed":116469,"internal_node_id":"0.0-8.0-1.6","subject":"mlneyfew6rkdldy","sona":"9685"},{"trial_type":"turing-test","trial_index":33,"time_elapsed":120525,"internal_node_id":"0.0-8.0-2.6","subject":"mlneyfew6rkdldy","sona":"9685"},{"rt":399.89999996032566,"stimulus":"<p>Which sequence did you perceive as more natural?</p>","key_press":74,"test_part":"response","test_stimulus":{"position":1,"left":"bvh/vr_prediction_models/model(vcgpdm)-dataset(return-bottle-hold)-mode(ELBO)-parts(3)-dyn(25)-lvm(25)-hold(3)/final-lines.txt","right":"bvh/return-bottle-hold-training3-lines.txt","att_check":false},"trial_type":"html-keyboard-response","trial_index":34,"time_elapsed":120931,"internal_node_id":"0.0-8.0-3.6","subject":"mlneyfew6rkdldy","sona":"9685"},{"rt":546.3500000187196,"stimulus":"<p>Ready?</p>","key_press":32,"trial_type":"html-keyboard-response","trial_index":35,"time_elapsed":121481,"internal_node_id":"0.0-8.0-0.7","subject":"mlneyfew6rkdldy","sona":"9685"},{"rt":null,"stimulus":"<div style=\"font-size:60px;\">+</div>","key_press":null,"trial_type":"html-keyboard-response","trial_index":36,"time_elapsed":123484,"internal_node_id":"0.0-8.0-1.7","subject":"mlneyfew6rkdldy","sona":"9685"},{"trial_type":"turing-test","trial_index":37,"time_elapsed":127618,"internal_node_id":"0.0-8.0-2.7","subject":"mlneyfew6rkdldy","sona":"9685"},{"rt":1224.2349999723956,"stimulus":"<p>Which sequence did you perceive as more natural?</p>","key_press":70,"test_part":"response","test_stimulus":{"position":0,"left":"bvh/return-bottle-hold-training3-lines.txt","right":"bvh/vr_prediction_models/model(vcgpdm)-dataset(return-bottle-hold)-mode(ELBO)-parts(1)-dyn(35)-lvm(10)-hold(3)/final-lines.txt","att_check":false},"trial_type":"html-keyboard-response","trial_index":38,"time_elapsed":128850,"internal_node_id":"0.0-8.0-3.7","subject":"mlneyfew6rkdldy","sona":"9685"},{"rt":1052.5200000265613,"stimulus":"<p>Ready?</p>","key_press":32,"trial_type":"html-keyboard-response","trial_index":39,"time_elapsed":129906,"internal_node_id":"0.0-8.0-0.8","subject":"mlneyfew6rkdldy","sona":"9685"},{"rt":null,"stimulus":"<div style=\"font-size:60px;\">+</div>","key_press":null,"trial_type":"html-keyboard-response","trial_index":40,"time_elapsed":131909,"internal_node_id":"0.0-8.0-1.8","subject":"mlneyfew6rkdldy","sona":"9685"},{"trial_type":"turing-test","trial_index":41,"time_elapsed":138709,"internal_node_id":"0.0-8.0-2.8","subject":"mlneyfew6rkdldy","sona":"9685"},{"rt":266.5350000024773,"stimulus":"<p>Which sequence did you perceive as more natural?</p>","key_press":70,"test_part":"response","test_stimulus":{"position":1,"left":"bvh/vr_prediction_models/model(tmp)-dataset(return-bottle)-numprim(3)-hold(2)/final-lines.txt","right":"bvh/return-bottle-training2-lines.txt","att_check":false},"trial_type":"html-keyboard-response","trial_index":42,"time_elapsed":138982,"internal_node_id":"0.0-8.0-3.8","subject":"mlneyfew6rkdldy","sona":"9685"},{"rt":641.7549999896437,"stimulus":"<p>Ready?</p>","key_press":32,"trial_type":"html-keyboard-response","trial_index":43,"time_elapsed":139631,"internal_node_id":"0.0-8.0-0.9","subject":"mlneyfew6rkdldy","sona":"9685"},{"rt":null,"stimulus":"<div style=\"font-size:60px;\">+</div>","key_press":null,"trial_type":"html-keyboard-response","trial_index":44,"time_elapsed":141635,"internal_node_id":"0.0-8.0-1.9","subject":"mlneyfew6rkdldy","sona":"9685"},{"trial_type":"turing-test","trial_index":45,"time_elapsed":148983,"internal_node_id":"0.0-8.0-2.9","subject":"mlneyfew6rkdldy","sona":"9685"},{"rt":328.6599999992177,"stimulus":"<p>Which sequence did you perceive as more natural?</p>","key_press":74,"test_part":"response","test_stimulus":{"position":0,"left":"bvh/pass-bottle-training0-lines.txt","right":"bvh/vr_prediction_models/model(vcgpdm)-dataset(pass-bottle)-mode(ELBO)-parts(1)-dyn(20)-lvm(5)-hold(0)/final-lines.txt","att_check":false},"trial_type":"html-keyboard-response","trial_index":46,"time_elapsed":149319,"internal_node_id":"0.0-8.0-3.9","subject":"mlneyfew6rkdldy","sona":"9685"},{"rt":641.9449999812059,"stimulus":"<p>Ready?</p>","key_press":32,"trial_type":"html-keyboard-response","trial_index":47,"time_elapsed":149969,"internal_node_id":"0.0-8.0-0.10","subject":"mlneyfew6rkdldy","sona":"9685"},{"rt":null,"stimulus":"<div style=\"font-size:60px;\">+</div>","key_press":null,"trial_type":"html-keyboard-response","trial_index":48,"time_elapsed":151972,"internal_node_id":"0.0-8.0-1.10","subject":"mlneyfew6rkdldy","sona":"9685"},{"trial_type":"turing-test","trial_index":49,"time_elapsed":159069,"internal_node_id":"0.0-8.0-2.10","subject":"mlneyfew6rkdldy","sona":"9685"},{"rt":436.7649999912828,"stimulus":"<p>Which sequence did you perceive as more natural?</p>","key_press":70,"test_part":"response","test_stimulus":{"position":0,"left":"bvh/pass-bottle-training3-lines.txt","right":"bvh/vr_prediction_models/model(vcgpdm)-dataset(pass-bottle)-mode(ELBO)-parts(3)-dyn(25)-lvm(25)-hold(3)/final-lines.txt","att_check":false},"trial_type":"html-keyboard-response","trial_index":50,"time_elapsed":159513,"internal_node_id":"0.0-8.0-3.10","subject":"mlneyfew6rkdldy","sona":"9685"},{"rt":537.8449999843724,"stimulus":"<p>Ready?</p>","key_press":32,"trial_type":"html-keyboard-response","trial_index":51,"time_elapsed":160056,"internal_node_id":"0.0-8.0-0.11","subject":"mlneyfew6rkdldy","sona":"9685"},{"rt":null,"stimulus":"<div style=\"font-size:60px;\">+</div>","key_press":null,"trial_type":"html-keyboard-response","trial_index":52,"time_elapsed":162059,"internal_node_id":"0.0-8.0-1.11","subject":"mlneyfew6rkdldy","sona":"9685"}]