[{"rt":973,"stimulus":"<p>Welcome!<br> Please choose your language to start the experiment in the chosen language.</p><p>Willkommen!<br> Bitte wählen Sie eine Sprache um das Experiment in der ausgewählten Sprache zu starten</p>","button_pressed":"1","trial_type":"html-button-response","trial_index":0,"time_elapsed":980,"internal_node_id":"0.0-0.0","subject":"bt4quvsv7wdsku4"},{"view_history":"[{\"page_index\":0,\"viewing_time\":515},{\"page_index\":1,\"viewing_time\":515},{\"page_index\":2,\"viewing_time\":736},{\"page_index\":3,\"viewing_time\":439}]","rt":2206,"trial_type":"instructions","trial_index":1,"time_elapsed":3188,"internal_node_id":"0.0-1.0-0.0","subject":"bt4quvsv7wdsku4"},{"rt":785,"stimulus":"<p>Bereit?</p>","button_pressed":"0","trial_type":"html-button-response","trial_index":2,"time_elapsed":3976,"internal_node_id":"0.0-3.0","subject":"bt4quvsv7wdsku4"},{"rt":null,"stimulus":"<div style=\"font-size:60px;\">+</div>","key_press":null,"trial_type":"html-keyboard-response","trial_index":3,"time_elapsed":5981,"internal_node_id":"0.0-4.0","subject":"bt4quvsv7wdsku4"},{"trial_type":"training","trial_index":4,"time_elapsed":9769,"internal_node_id":"0.0-5.0","subject":"bt4quvsv7wdsku4"},{"rt":4180,"stimulus":"<p>Welche Sequenz haben Sie als natürlicher empfunden?</p>","button_pressed":"0","trial_type":"html-button-response","trial_index":5,"time_elapsed":13950,"internal_node_id":"0.0-6.0","subject":"bt4quvsv7wdsku4"},{"rt":578,"stimulus":"<p>Das Experiment startet nun.</p><p> Bitte drücken Sie den Knopf, wenn Sie bereit sind.</p>","button_pressed":"0","trial_type":"html-button-response","trial_index":6,"time_elapsed":14533,"internal_node_id":"0.0-7.0","subject":"bt4quvsv7wdsku4"},{"rt":521,"stimulus":"<p>Bereit?</p>","button_pressed":"0","trial_type":"html-button-response","trial_index":7,"time_elapsed":15055,"internal_node_id":"0.0-8.0-0.0","subject":"bt4quvsv7wdsku4"},{"rt":null,"stimulus":"<div style=\"font-size:60px;\">+</div>","key_press":null,"trial_type":"html-keyboard-response","trial_index":8,"time_elapsed":17062,"internal_node_id":"0.0-8.0-1.0","subject":"bt4quvsv7wdsku4"},{"trial_type":"turing-test","trial_index":9,"time_elapsed":21222,"internal_node_id":"0.0-8.0-2.0","subject":"bt4quvsv7wdsku4"},{"rt":5540,"stimulus":"<p>Welche Sequenz haben Sie als natürlicher empfunden?</p>","button_pressed":"0","test_part":"response","test_stimulus":{"position":0,"left":"bvh/pass-bottle-hold-training0-lines.txt","right":"bvh/vr_prediction_models/model(dmp)-dataset(pass-bottle-hold)-npsi(100)-hold(0)/final-lines.txt","att_check":false},"trial_type":"html-button-response","trial_index":10,"time_elapsed":26766,"internal_node_id":"0.0-8.0-3.0","subject":"bt4quvsv7wdsku4"},{"rt":705,"stimulus":"<p>Bereit?</p>","button_pressed":"0","trial_type":"html-button-response","trial_index":11,"time_elapsed":27475,"internal_node_id":"0.0-8.0-0.1","subject":"bt4quvsv7wdsku4"},{"rt":null,"stimulus":"<div style=\"font-size:60px;\">+</div>","key_press":null,"trial_type":"html-keyboard-response","trial_index":12,"time_elapsed":29479,"internal_node_id":"0.0-8.0-1.1","subject":"bt4quvsv7wdsku4"},{"trial_type":"turing-test","trial_index":13,"time_elapsed":33777,"internal_node_id":"0.0-8.0-2.1","subject":"bt4quvsv7wdsku4"},{"rt":792,"stimulus":"<p>Welche Sequenz haben Sie als natürlicher empfunden?</p>","button_pressed":"0","test_part":"response","test_stimulus":{"position":0,"left":"bvh/pass-bottle-hold-training1-lines.txt","right":"bvh/vr_prediction_models/model(tmp)-dataset(pass-bottle-hold)-numprim(14)-hold(1)/final-lines.txt","att_check":false},"trial_type":"html-button-response","trial_index":14,"time_elapsed":34571,"internal_node_id":"0.0-8.0-3.1","subject":"bt4quvsv7wdsku4"},{"rt":557,"stimulus":"<p>Bereit?</p>","button_pressed":"0","trial_type":"html-button-response","trial_index":15,"time_elapsed":35130,"internal_node_id":"0.0-8.0-0.2","subject":"bt4quvsv7wdsku4"},{"rt":null,"stimulus":"<div style=\"font-size:60px;\">+</div>","key_press":null,"trial_type":"html-keyboard-response","trial_index":16,"time_elapsed":37135,"internal_node_id":"0.0-8.0-1.2","subject":"bt4quvsv7wdsku4"},{"trial_type":"turing-test","trial_index":17,"time_elapsed":42654,"internal_node_id":"0.0-8.0-2.2","subject":"bt4quvsv7wdsku4"},{"rt":2076,"stimulus":"<p>Welche Sequenz haben Sie als natürlicher empfunden?</p>","button_pressed":"1","test_part":"response","test_stimulus":{"position":1,"left":"bvh/vr_prediction_models/model(vcgpdm)-dataset(return-bottle-hold)-mode(ELBO)-parts(1)-dyn(10)-lvm(30)-hold(3)/final-lines.txt","right":"bvh/return-bottle-hold-training3-lines.txt","att_check":false},"trial_type":"html-button-response","trial_index":18,"time_elapsed":44732,"internal_node_id":"0.0-8.0-3.2","subject":"bt4quvsv7wdsku4"},{"rt":732,"stimulus":"<p>Bereit?</p>","button_pressed":"0","trial_type":"html-button-response","trial_index":19,"time_elapsed":45468,"internal_node_id":"0.0-8.0-0.3","subject":"bt4quvsv7wdsku4"},{"rt":null,"stimulus":"<div style=\"font-size:60px;\">+</div>","key_press":null,"trial_type":"html-keyboard-response","trial_index":20,"time_elapsed":47470,"internal_node_id":"0.0-8.0-1.3","subject":"bt4quvsv7wdsku4"},{"trial_type":"turing-test","trial_index":21,"time_elapsed":51486,"internal_node_id":"0.0-8.0-2.3","subject":"bt4quvsv7wdsku4"},{"rt":1266,"stimulus":"<p>Welche Sequenz haben Sie als natürlicher empfunden?</p>","button_pressed":"1","test_part":"response","test_stimulus":{"position":1,"left":"bvh/vr_prediction_models/model(tmp)-dataset(pass-bottle)-numprim(4)-hold(0)/final-lines.txt","right":"bvh/pass-bottle-training0-lines.txt","att_check":false},"trial_type":"html-button-response","trial_index":22,"time_elapsed":52754,"internal_node_id":"0.0-8.0-3.3","subject":"bt4quvsv7wdsku4"},{"rt":583,"stimulus":"<p>Bereit?</p>","button_pressed":"0","trial_type":"html-button-response","trial_index":23,"time_elapsed":53338,"internal_node_id":"0.0-8.0-0.4","subject":"bt4quvsv7wdsku4"},{"rt":null,"stimulus":"<div style=\"font-size:60px;\">+</div>","key_press":null,"trial_type":"html-keyboard-response","trial_index":24,"time_elapsed":55343,"internal_node_id":"0.0-8.0-1.4","subject":"bt4quvsv7wdsku4"},{"trial_type":"turing-test","trial_index":25,"time_elapsed":61011,"internal_node_id":"0.0-8.0-2.4","subject":"bt4quvsv7wdsku4"},{"rt":2022,"stimulus":"<p>Welche Sequenz haben Sie als natürlicher empfunden?</p>","button_pressed":"1","test_part":"response","test_stimulus":{"position":0,"left":"bvh/return-bottle-hold-training4-lines.txt","right":"bvh/vr_prediction_models/model(vcgpdm)-dataset(return-bottle-hold)-mode(ELBO)-parts(1)-dyn(30)-lvm(20)-hold(4)/final-lines.txt","att_check":false},"trial_type":"html-button-response","trial_index":26,"time_elapsed":63035,"internal_node_id":"0.0-8.0-3.4","subject":"bt4quvsv7wdsku4"},{"rt":602,"stimulus":"<p>Bereit?</p>","button_pressed":"0","trial_type":"html-button-response","trial_index":27,"time_elapsed":63641,"internal_node_id":"0.0-8.0-0.5","subject":"bt4quvsv7wdsku4"},{"rt":null,"stimulus":"<div style=\"font-size:60px;\">+</div>","key_press":null,"trial_type":"html-keyboard-response","trial_index":28,"time_elapsed":65644,"internal_node_id":"0.0-8.0-1.5","subject":"bt4quvsv7wdsku4"},{"trial_type":"turing-test","trial_index":29,"time_elapsed":69650,"internal_node_id":"0.0-8.0-2.5","subject":"bt4quvsv7wdsku4"},{"rt":1198,"stimulus":"<p>Welche Sequenz haben Sie als natürlicher empfunden?</p>","button_pressed":"0","test_part":"response","test_stimulus":{"position":0,"left":"bvh/return-bottle-training4-lines.txt","right":"bvh/vr_prediction_models/model(dmp)-dataset(return-bottle)-npsi(50)-hold(4)/final-lines.txt","att_check":false},"trial_type":"html-button-response","trial_index":30,"time_elapsed":70850,"internal_node_id":"0.0-8.0-3.5","subject":"bt4quvsv7wdsku4"},{"rt":581,"stimulus":"<p>Bereit?</p>","button_pressed":"0","trial_type":"html-button-response","trial_index":31,"time_elapsed":71433,"internal_node_id":"0.0-8.0-0.6","subject":"bt4quvsv7wdsku4"},{"rt":null,"stimulus":"<div style=\"font-size:60px;\">+</div>","key_press":null,"trial_type":"html-keyboard-response","trial_index":32,"time_elapsed":73440,"internal_node_id":"0.0-8.0-1.6","subject":"bt4quvsv7wdsku4"},{"trial_type":"turing-test","trial_index":33,"time_elapsed":78790,"internal_node_id":"0.0-8.0-2.6","subject":"bt4quvsv7wdsku4"},{"rt":781,"stimulus":"<p>Welche Sequenz haben Sie als natürlicher empfunden?</p>","button_pressed":"1","test_part":"response","test_stimulus":{"position":1,"left":"bvh/vr_prediction_models/model(vcgpdm)-dataset(return-bottle)-mode(ELBO)-parts(1)-dyn(10)-lvm(25)-hold(0)/final-lines.txt","right":"bvh/return-bottle-training0-lines.txt","att_check":false},"trial_type":"html-button-response","trial_index":34,"time_elapsed":79574,"internal_node_id":"0.0-8.0-3.6","subject":"bt4quvsv7wdsku4"},{"rt":594,"stimulus":"<p>Bereit?</p>","button_pressed":"0","trial_type":"html-button-response","trial_index":35,"time_elapsed":80170,"internal_node_id":"0.0-8.0-0.7","subject":"bt4quvsv7wdsku4"},{"rt":null,"stimulus":"<div style=\"font-size:60px;\">+</div>","key_press":null,"trial_type":"html-keyboard-response","trial_index":36,"time_elapsed":82175,"internal_node_id":"0.0-8.0-1.7","subject":"bt4quvsv7wdsku4"},{"trial_type":"turing-test","trial_index":37,"time_elapsed":87684,"internal_node_id":"0.0-8.0-2.7","subject":"bt4quvsv7wdsku4"},{"rt":1314,"stimulus":"<p>Welche Sequenz haben Sie als natürlicher empfunden?</p>","button_pressed":"1","test_part":"response","test_stimulus":{"position":1,"left":"bvh/vr_prediction_models/model(vcgpdm)-dataset(pass-bottle-hold)-mode(ELBO)-parts(1)-dyn(30)-lvm(30)-hold(2)/final-lines.txt","right":"bvh/pass-bottle-hold-training2-lines.txt","att_check":false},"trial_type":"html-button-response","trial_index":38,"time_elapsed":88999,"internal_node_id":"0.0-8.0-3.7","subject":"bt4quvsv7wdsku4"},{"rt":652,"stimulus":"<p>Bereit?</p>","button_pressed":"0","trial_type":"html-button-response","trial_index":39,"time_elapsed":89654,"internal_node_id":"0.0-8.0-0.8","subject":"bt4quvsv7wdsku4"},{"rt":null,"stimulus":"<div style=\"font-size:60px;\">+</div>","key_press":null,"trial_type":"html-keyboard-response","trial_index":40,"time_elapsed":91657,"internal_node_id":"0.0-8.0-1.8","subject":"bt4quvsv7wdsku4"},{"trial_type":"turing-test","trial_index":41,"time_elapsed":96734,"internal_node_id":"0.0-8.0-2.8","subject":"bt4quvsv7wdsku4"},{"rt":1270,"stimulus":"<p>Welche Sequenz haben Sie als natürlicher empfunden?</p>","button_pressed":"0","test_part":"response","test_stimulus":{"position":0,"left":"bvh/pass-bottle-training2-lines.txt","right":"bvh/vr_prediction_models/model(vcgpdm)-dataset(pass-bottle)-mode(ELBO)-parts(1)-dyn(20)-lvm(30)-hold(2)/final-lines.txt","att_check":false},"trial_type":"html-button-response","trial_index":42,"time_elapsed":98007,"internal_node_id":"0.0-8.0-3.8","subject":"bt4quvsv7wdsku4"},{"rt":764,"stimulus":"<p>Bereit?</p>","button_pressed":"0","trial_type":"html-button-response","trial_index":43,"time_elapsed":98774,"internal_node_id":"0.0-8.0-0.9","subject":"bt4quvsv7wdsku4"},{"rt":null,"stimulus":"<div style=\"font-size:60px;\">+</div>","key_press":null,"trial_type":"html-keyboard-response","trial_index":44,"time_elapsed":100779,"internal_node_id":"0.0-8.0-1.9","subject":"bt4quvsv7wdsku4"},{"trial_type":"turing-test","trial_index":45,"time_elapsed":106208,"internal_node_id":"0.0-8.0-2.9","subject":"bt4quvsv7wdsku4"},{"rt":951,"stimulus":"<p>Welche Sequenz haben Sie als natürlicher empfunden?</p>","button_pressed":"0","test_part":"response","test_stimulus":{"position":1,"left":"bvh/vr_prediction_models/model(vcgpdm)-dataset(return-bottle)-mode(ELBO)-parts(1)-dyn(35)-lvm(10)-hold(3)/final-lines.txt","right":"bvh/return-bottle-training3-lines.txt","att_check":false},"trial_type":"html-button-response","trial_index":46,"time_elapsed":107162,"internal_node_id":"0.0-8.0-3.9","subject":"bt4quvsv7wdsku4"},{"rt":494,"stimulus":"<p>Bereit?</p>","button_pressed":"0","trial_type":"html-button-response","trial_index":47,"time_elapsed":107659,"internal_node_id":"0.0-8.0-0.10","subject":"bt4quvsv7wdsku4"},{"rt":null,"stimulus":"<div style=\"font-size:60px;\">+</div>","key_press":null,"trial_type":"html-keyboard-response","trial_index":48,"time_elapsed":109663,"internal_node_id":"0.0-8.0-1.10","subject":"bt4quvsv7wdsku4"},{"trial_type":"turing-test","trial_index":49,"time_elapsed":113603,"internal_node_id":"0.0-8.0-2.10","subject":"bt4quvsv7wdsku4"},{"rt":1081,"stimulus":"<p>Welche Sequenz haben Sie als natürlicher empfunden?</p>","button_pressed":"0","test_part":"response","test_stimulus":{"position":0,"left":"bvh/pass-bottle-training3-lines.txt","right":"bvh/vr_prediction_models/model(dmp)-dataset(pass-bottle)-npsi(90)-hold(3)/final-lines.txt","att_check":false},"trial_type":"html-button-response","trial_index":50,"time_elapsed":114690,"internal_node_id":"0.0-8.0-3.10","subject":"bt4quvsv7wdsku4"},{"rt":558,"stimulus":"<p>Bereit?</p>","button_pressed":"0","trial_type":"html-button-response","trial_index":51,"time_elapsed":115251,"internal_node_id":"0.0-8.0-0.11","subject":"bt4quvsv7wdsku4"},{"rt":null,"stimulus":"<div style=\"font-size:60px;\">+</div>","key_press":null,"trial_type":"html-keyboard-response","trial_index":52,"time_elapsed":117255,"internal_node_id":"0.0-8.0-1.11","subject":"bt4quvsv7wdsku4"},{"trial_type":"turing-test","trial_index":53,"time_elapsed":121405,"internal_node_id":"0.0-8.0-2.11","subject":"bt4quvsv7wdsku4"},{"rt":1049,"stimulus":"<p>Welche Sequenz haben Sie als natürlicher empfunden?</p>","button_pressed":"1","test_part":"response","test_stimulus":{"position":1,"left":"bvh/vr_prediction_models/model(tmp)-dataset(return-bottle)-numprim(11)-hold(1)/final-lines.txt","right":"bvh/return-bottle-training1-lines.txt","att_check":false},"trial_type":"html-button-response","trial_index":54,"time_elapsed":122460,"internal_node_id":"0.0-8.0-3.11","subject":"bt4quvsv7wdsku4"},{"rt":557,"stimulus":"<p>Bereit?</p>","button_pressed":"0","trial_type":"html-button-response","trial_index":55,"time_elapsed":123020,"internal_node_id":"0.0-8.0-0.12","subject":"bt4quvsv7wdsku4"},{"rt":null,"stimulus":"<div style=\"font-size:60px;\">+</div>","key_press":null,"trial_type":"html-keyboard-response","trial_index":56,"time_elapsed":125022,"internal_node_id":"0.0-8.0-1.12","subject":"bt4quvsv7wdsku4"},{"trial_type":"turing-test","trial_index":57,"time_elapsed":128964,"internal_node_id":"0.0-8.0-2.12","subject":"bt4quvsv7wdsku4"},{"rt":1079,"stimulus":"<p>Welche Sequenz haben Sie als natürlicher empfunden?</p>","button_pressed":"1","test_part":"response","test_stimulus":{"position":0,"left":"bvh/return-bottle-training4-lines.txt","right":"bvh/vr_prediction_models/model(dmp)-dataset(return-bottle)-npsi(80)-hold(4)/final-lines.txt","att_check":true},"trial_type":"html-button-response","trial_index":58,"time_elapsed":130046,"internal_node_id":"0.0-8.0-3.12","subject":"bt4quvsv7wdsku4"},{"rt":533,"stimulus":"<p>Bereit?</p>","button_pressed":"0","trial_type":"html-button-response","trial_index":59,"time_elapsed":130583,"internal_node_id":"0.0-8.0-0.13","subject":"bt4quvsv7wdsku4"},{"rt":null,"stimulus":"<div style=\"font-size:60px;\">+</div>","key_press":null,"trial_type":"html-keyboard-response","trial_index":60,"time_elapsed":132590,"internal_node_id":"0.0-8.0-1.13","subject":"bt4quvsv7wdsku4"},{"trial_type":"turing-test","trial_index":61,"time_elapsed":138178,"internal_node_id":"0.0-8.0-2.13","subject":"bt4quvsv7wdsku4"},{"rt":226406,"stimulus":"<p>Welche Sequenz haben Sie als natürlicher empfunden?</p>","button_pressed":"1","test_part":"response","test_stimulus":{"position":0,"left":"bvh/return-bottle-hold-training2-lines.txt","right":"bvh/vr_prediction_models/model(vcgpdm)-dataset(return-bottle-hold)-mode(ELBO)-parts(3)-dyn(35)-lvm(20)-hold(2)/final-lines.txt","att_check":false},"trial_type":"html-button-response","trial_index":62,"time_elapsed":364594,"internal_node_id":"0.0-8.0-3.13","subject":"bt4quvsv7wdsku4"},{"rt":809,"stimulus":"<p>Bereit?</p>","button_pressed":"0","trial_type":"html-button-response","trial_index":63,"time_elapsed":365411,"internal_node_id":"0.0-8.0-0.14","subject":"bt4quvsv7wdsku4"},{"rt":null,"stimulus":"<div style=\"font-size:60px;\">+</div>","key_press":null,"trial_type":"html-keyboard-response","trial_index":64,"time_elapsed":367416,"internal_node_id":"0.0-8.0-1.14","subject":"bt4quvsv7wdsku4"},{"trial_type":"turing-test","trial_index":65,"time_elapsed":371643,"internal_node_id":"0.0-8.0-2.14","subject":"bt4quvsv7wdsku4"},{"rt":1077,"stimulus":"<p>Welche Sequenz haben Sie als natürlicher empfunden?</p>","button_pressed":"0","test_part":"response","test_stimulus":{"position":1,"left":"bvh/vr_prediction_models/model(dmp)-dataset(pass-bottle-hold)-npsi(20)-hold(3)/final-lines.txt","right":"bvh/pass-bottle-hold-training3-lines.txt","att_check":false},"trial_type":"html-button-response","trial_index":66,"time_elapsed":372723,"internal_node_id":"0.0-8.0-3.14","subject":"bt4quvsv7wdsku4"},{"rt":547,"stimulus":"<p>Bereit?</p>","button_pressed":"0","trial_type":"html-button-response","trial_index":67,"time_elapsed":373275,"internal_node_id":"0.0-8.0-0.15","subject":"bt4quvsv7wdsku4"},{"rt":null,"stimulus":"<div style=\"font-size:60px;\">+</div>","key_press":null,"trial_type":"html-keyboard-response","trial_index":68,"time_elapsed":375279,"internal_node_id":"0.0-8.0-1.15","subject":"bt4quvsv7wdsku4"},{"trial_type":"turing-test","trial_index":69,"time_elapsed":379512,"internal_node_id":"0.0-8.0-2.15","subject":"bt4quvsv7wdsku4"},{"rt":1117,"stimulus":"<p>Welche Sequenz haben Sie als natürlicher empfunden?</p>","button_pressed":"1","test_part":"response","test_stimulus":{"position":1,"left":"bvh/vr_prediction_models/model(dmp)-dataset(return-bottle-hold)-npsi(10)-hold(0)/final-lines.txt","right":"bvh/return-bottle-hold-training0-lines.txt","att_check":false},"trial_type":"html-button-response","trial_index":70,"time_elapsed":380635,"internal_node_id":"0.0-8.0-3.15","subject":"bt4quvsv7wdsku4"},{"rt":559,"stimulus":"<p>Bereit?</p>","button_pressed":"0","trial_type":"html-button-response","trial_index":71,"time_elapsed":381199,"internal_node_id":"0.0-8.0-0.16","subject":"bt4quvsv7wdsku4"},{"rt":null,"stimulus":"<div style=\"font-size:60px;\">+</div>","key_press":null,"trial_type":"html-keyboard-response","trial_index":72,"time_elapsed":383203,"internal_node_id":"0.0-8.0-1.16","subject":"bt4quvsv7wdsku4"},{"trial_type":"turing-test","trial_index":73,"time_elapsed":387443,"internal_node_id":"0.0-8.0-2.16","subject":"bt4quvsv7wdsku4"},{"rt":270332,"stimulus":"<p>Welche Sequenz haben Sie als natürlicher empfunden?</p>","button_pressed":"1","test_part":"response","test_stimulus":{"position":0,"left":"bvh/pass-bottle-hold-training2-lines.txt","right":"bvh/vr_prediction_models/model(tmp)-dataset(pass-bottle-hold)-numprim(10)-hold(2)/final-lines.txt","att_check":false},"trial_type":"html-button-response","trial_index":74,"time_elapsed":657787,"internal_node_id":"0.0-8.0-3.16","subject":"bt4quvsv7wdsku4"},{"rt":877,"stimulus":"<p>Bereit?</p>","button_pressed":"0","trial_type":"html-button-response","trial_index":75,"time_elapsed":658667,"internal_node_id":"0.0-8.0-0.17","subject":"bt4quvsv7wdsku4"},{"rt":null,"stimulus":"<div style=\"font-size:60px;\">+</div>","key_press":null,"trial_type":"html-keyboard-response","trial_index":76,"time_elapsed":660670,"internal_node_id":"0.0-8.0-1.17","subject":"bt4quvsv7wdsku4"},{"trial_type":"turing-test","trial_index":77,"time_elapsed":665156,"internal_node_id":"0.0-8.0-2.17","subject":"bt4quvsv7wdsku4"},{"rt":694,"stimulus":"<p>Welche Sequenz haben Sie als natürlicher empfunden?</p>","button_pressed":"1","test_part":"response","test_stimulus":{"position":1,"left":"bvh/vr_prediction_models/model(dmp)-dataset(return-bottle-hold)-npsi(60)-hold(1)/final-lines.txt","right":"bvh/return-bottle-hold-training1-lines.txt","att_check":false},"trial_type":"html-button-response","trial_index":78,"time_elapsed":665852,"internal_node_id":"0.0-8.0-3.17","subject":"bt4quvsv7wdsku4"},{"rt":580,"stimulus":"<p>Bereit?</p>","button_pressed":"0","trial_type":"html-button-response","trial_index":79,"time_elapsed":666435,"internal_node_id":"0.0-8.0-0.18","subject":"bt4quvsv7wdsku4"},{"rt":null,"stimulus":"<div style=\"font-size:60px;\">+</div>","key_press":null,"trial_type":"html-keyboard-response","trial_index":80,"time_elapsed":668437,"internal_node_id":"0.0-8.0-1.18","subject":"bt4quvsv7wdsku4"},{"trial_type":"turing-test","trial_index":81,"time_elapsed":674075,"internal_node_id":"0.0-8.0-2.18","subject":"bt4quvsv7wdsku4"},{"rt":330587,"stimulus":"<p>Welche Sequenz haben Sie als natürlicher empfunden?</p>","button_pressed":"1","test_part":"response","test_stimulus":{"position":1,"left":"bvh/vr_prediction_models/model(vcgpdm)-dataset(return-bottle-hold)-mode(ELBO)-parts(1)-dyn(10)-lvm(25)-hold(2)/final-lines.txt","right":"bvh/return-bottle-hold-training2-lines.txt","att_check":false},"trial_type":"html-button-response","trial_index":82,"time_elapsed":1004675,"internal_node_id":"0.0-8.0-3.18","subject":"bt4quvsv7wdsku4"},{"rt":702,"stimulus":"<p>Bereit?</p>","button_pressed":"0","trial_type":"html-button-response","trial_index":83,"time_elapsed":1005379,"internal_node_id":"0.0-8.0-0.19","subject":"bt4quvsv7wdsku4"},{"rt":null,"stimulus":"<div style=\"font-size:60px;\">+</div>","key_press":null,"trial_type":"html-keyboard-response","trial_index":84,"time_elapsed":1007385,"internal_node_id":"0.0-8.0-1.19","subject":"bt4quvsv7wdsku4"},{"trial_type":"turing-test","trial_index":85,"time_elapsed":1011426,"internal_node_id":"0.0-8.0-2.19","subject":"bt4quvsv7wdsku4"},{"rt":1108,"stimulus":"<p>Welche Sequenz haben Sie als natürlicher empfunden?</p>","button_pressed":"0","test_part":"response","test_stimulus":{"position":0,"left":"bvh/pass-bottle-training3-lines.txt","right":"bvh/vr_prediction_models/model(tmp)-dataset(pass-bottle)-numprim(15)-hold(3)/final-lines.txt","att_check":false},"trial_type":"html-button-response","trial_index":86,"time_elapsed":1012538,"internal_node_id":"0.0-8.0-3.19","subject":"bt4quvsv7wdsku4"},{"rt":606,"stimulus":"<p>Bereit?</p>","button_pressed":"0","trial_type":"html-button-response","trial_index":87,"time_elapsed":1013148,"internal_node_id":"0.0-8.0-0.20","subject":"bt4quvsv7wdsku4"},{"rt":null,"stimulus":"<div style=\"font-size:60px;\">+</div>","key_press":null,"trial_type":"html-keyboard-response","trial_index":88,"time_elapsed":1015150,"internal_node_id":"0.0-8.0-1.20","subject":"bt4quvsv7wdsku4"},{"trial_type":"turing-test","trial_index":89,"time_elapsed":1020465,"internal_node_id":"0.0-8.0-2.20","subject":"bt4quvsv7wdsku4"},{"rt":3022,"stimulus":"<p>Welche Sequenz haben Sie als natürlicher empfunden?</p>","button_pressed":"1","test_part":"response","test_stimulus":{"position":0,"left":"bvh/pass-bottle-training3-lines.txt","right":"bvh/vr_prediction_models/model(vcgpdm)-dataset(pass-bottle)-mode(ELBO)-parts(3)-dyn(35)-lvm(20)-hold(3)/final-lines.txt","att_check":false},"trial_type":"html-button-response","trial_index":90,"time_elapsed":1023491,"internal_node_id":"0.0-8.0-3.20","subject":"bt4quvsv7wdsku4"},{"rt":420,"stimulus":"<p>Bereit?</p>","button_pressed":"0","trial_type":"html-button-response","trial_index":91,"time_elapsed":1023913,"internal_node_id":"0.0-8.0-0.21","subject":"bt4quvsv7wdsku4"},{"rt":null,"stimulus":"<div style=\"font-size:60px;\">+</div>","key_press":null,"trial_type":"html-keyboard-response","trial_index":92,"time_elapsed":1025916,"internal_node_id":"0.0-8.0-1.21","subject":"bt4quvsv7wdsku4"},{"trial_type":"turing-test","trial_index":93,"time_elapsed":1031284,"internal_node_id":"0.0-8.0-2.21","subject":"bt4quvsv7wdsku4"},{"rt":1015,"stimulus":"<p>Welche Sequenz haben Sie als natürlicher empfunden?</p>","button_pressed":"0","test_part":"response","test_stimulus":{"position":0,"left":"bvh/return-bottle-training4-lines.txt","right":"bvh/vr_prediction_models/model(vcgpdm)-dataset(return-bottle)-mode(ELBO)-parts(1)-dyn(20)-lvm(20)-hold(4)/final-lines.txt","att_check":false},"trial_type":"html-button-response","trial_index":94,"time_elapsed":1032304,"internal_node_id":"0.0-8.0-3.21","subject":"bt4quvsv7wdsku4"},{"rt":645,"stimulus":"<p>Bereit?</p>","button_pressed":"0","trial_type":"html-button-response","trial_index":95,"time_elapsed":1032952,"internal_node_id":"0.0-8.0-0.22","subject":"bt4quvsv7wdsku4"},{"rt":null,"stimulus":"<div style=\"font-size:60px;\">+</div>","key_press":null,"trial_type":"html-keyboard-response","trial_index":96,"time_elapsed":1034954,"internal_node_id":"0.0-8.0-1.22","subject":"bt4quvsv7wdsku4"},{"trial_type":"turing-test","trial_index":97,"time_elapsed":1040361,"internal_node_id":"0.0-8.0-2.22","subject":"bt4quvsv7wdsku4"},{"rt":1906,"stimulus":"<p>Welche Sequenz haben Sie als natürlicher empfunden?</p>","button_pressed":"0","test_part":"response","test_stimulus":{"position":1,"left":"bvh/vr_prediction_models/model(vcgpdm)-dataset(return-bottle)-mode(ELBO)-parts(3)-dyn(20)-lvm(20)-hold(2)/final-lines.txt","right":"bvh/return-bottle-training2-lines.txt","att_check":false},"trial_type":"html-button-response","trial_index":98,"time_elapsed":1042271,"internal_node_id":"0.0-8.0-3.22","subject":"bt4quvsv7wdsku4"},{"rt":592,"stimulus":"<p>Bereit?</p>","button_pressed":"0","trial_type":"html-button-response","trial_index":99,"time_elapsed":1042866,"internal_node_id":"0.0-8.0-0.23","subject":"bt4quvsv7wdsku4"},{"rt":null,"stimulus":"<div style=\"font-size:60px;\">+</div>","key_press":null,"trial_type":"html-keyboard-response","trial_index":100,"time_elapsed":1044872,"internal_node_id":"0.0-8.0-1.23","subject":"bt4quvsv7wdsku4"},{"trial_type":"turing-test","trial_index":101,"time_elapsed":1048868,"internal_node_id":"0.0-8.0-2.23","subject":"bt4quvsv7wdsku4"},{"rt":1046,"stimulus":"<p>Welche Sequenz haben Sie als natürlicher empfunden?</p>","button_pressed":"0","test_part":"response","test_stimulus":{"position":0,"left":"bvh/return-bottle-training1-lines.txt","right":"bvh/vr_prediction_models/model(dmp)-dataset(return-bottle)-npsi(20)-hold(1)/final-lines.txt","att_check":false},"trial_type":"html-button-response","trial_index":102,"time_elapsed":1049920,"internal_node_id":"0.0-8.0-3.23","subject":"bt4quvsv7wdsku4"},{"rt":698,"stimulus":"<p>Bereit?</p>","button_pressed":"0","trial_type":"html-button-response","trial_index":103,"time_elapsed":1050622,"internal_node_id":"0.0-8.0-0.24","subject":"bt4quvsv7wdsku4"},{"rt":null,"stimulus":"<div style=\"font-size:60px;\">+</div>","key_press":null,"trial_type":"html-keyboard-response","trial_index":104,"time_elapsed":1052629,"internal_node_id":"0.0-8.0-1.24","subject":"bt4quvsv7wdsku4"},{"trial_type":"turing-test","trial_index":105,"time_elapsed":1057848,"internal_node_id":"0.0-8.0-2.24","subject":"bt4quvsv7wdsku4"},{"rt":985,"stimulus":"<p>Welche Sequenz haben Sie als natürlicher empfunden?</p>","button_pressed":"1","test_part":"response","test_stimulus":{"position":0,"left":"bvh/pass-bottle-training1-lines.txt","right":"bvh/vr_prediction_models/model(vcgpdm)-dataset(pass-bottle)-mode(ELBO)-parts(1)-dyn(35)-lvm(30)-hold(1)/final-lines.txt","att_check":false},"trial_type":"html-button-response","trial_index":106,"time_elapsed":1058835,"internal_node_id":"0.0-8.0-3.24","subject":"bt4quvsv7wdsku4"},{"rt":588,"stimulus":"<p>Bereit?</p>","button_pressed":"0","trial_type":"html-button-response","trial_index":107,"time_elapsed":1059427,"internal_node_id":"0.0-8.0-0.25","subject":"bt4quvsv7wdsku4"},{"rt":null,"stimulus":"<div style=\"font-size:60px;\">+</div>","key_press":null,"trial_type":"html-keyboard-response","trial_index":108,"time_elapsed":1061428,"internal_node_id":"0.0-8.0-1.25","subject":"bt4quvsv7wdsku4"},{"trial_type":"turing-test","trial_index":109,"time_elapsed":1066981,"internal_node_id":"0.0-8.0-2.25","subject":"bt4quvsv7wdsku4"},{"rt":1311,"stimulus":"<p>Welche Sequenz haben Sie als natürlicher empfunden?</p>","button_pressed":"1","test_part":"response","test_stimulus":{"position":1,"left":"bvh/vr_prediction_models/model(vcgpdm)-dataset(return-bottle-hold)-mode(ELBO)-parts(3)-dyn(20)-lvm(35)-hold(4)/final-lines.txt","right":"bvh/return-bottle-hold-training4-lines.txt","att_check":false},"trial_type":"html-button-response","trial_index":110,"time_elapsed":1068295,"internal_node_id":"0.0-8.0-3.25","subject":"bt4quvsv7wdsku4"},{"rt":735,"stimulus":"<p>Bereit?</p>","button_pressed":"0","trial_type":"html-button-response","trial_index":111,"time_elapsed":1069033,"internal_node_id":"0.0-8.0-0.26","subject":"bt4quvsv7wdsku4"},{"rt":null,"stimulus":"<div style=\"font-size:60px;\">+</div>","key_press":null,"trial_type":"html-keyboard-response","trial_index":112,"time_elapsed":1071038,"internal_node_id":"0.0-8.0-1.26","subject":"bt4quvsv7wdsku4"},{"trial_type":"turing-test","trial_index":113,"time_elapsed":1076565,"internal_node_id":"0.0-8.0-2.26","subject":"bt4quvsv7wdsku4"},{"rt":1647,"stimulus":"<p>Welche Sequenz haben Sie als natürlicher empfunden?</p>","button_pressed":"0","test_part":"response","test_stimulus":{"position":0,"left":"bvh/return-bottle-hold-training1-lines.txt","right":"bvh/vr_prediction_models/model(vcgpdm)-dataset(return-bottle-hold)-mode(ELBO)-parts(1)-dyn(10)-lvm(5)-hold(1)/final-lines.txt","att_check":false},"trial_type":"html-button-response","trial_index":114,"time_elapsed":1078214,"internal_node_id":"0.0-8.0-3.26","subject":"bt4quvsv7wdsku4"},{"rt":868,"stimulus":"<p>Bereit?</p>","button_pressed":"0","trial_type":"html-button-response","trial_index":115,"time_elapsed":1079085,"internal_node_id":"0.0-8.0-0.27","subject":"bt4quvsv7wdsku4"},{"rt":null,"stimulus":"<div style=\"font-size:60px;\">+</div>","key_press":null,"trial_type":"html-keyboard-response","trial_index":116,"time_elapsed":1081090,"internal_node_id":"0.0-8.0-1.27","subject":"bt4quvsv7wdsku4"},{"trial_type":"turing-test","trial_index":117,"time_elapsed":1085046,"internal_node_id":"0.0-8.0-2.27","subject":"bt4quvsv7wdsku4"},{"rt":1180,"stimulus":"<p>Welche Sequenz haben Sie als natürlicher empfunden?</p>","button_pressed":"0","test_part":"response","test_stimulus":{"position":0,"left":"bvh/pass-bottle-training2-lines.txt","right":"bvh/vr_prediction_models/model(dmp)-dataset(pass-bottle)-npsi(90)-hold(2)/final-lines.txt","att_check":true},"trial_type":"html-button-response","trial_index":118,"time_elapsed":1086229,"internal_node_id":"0.0-8.0-3.27","subject":"bt4quvsv7wdsku4"},{"rt":605,"stimulus":"<p>Bereit?</p>","button_pressed":"0","trial_type":"html-button-response","trial_index":119,"time_elapsed":1086837,"internal_node_id":"0.0-8.0-0.28","subject":"bt4quvsv7wdsku4"},{"rt":null,"stimulus":"<div style=\"font-size:60px;\">+</div>","key_press":null,"trial_type":"html-keyboard-response","trial_index":120,"time_elapsed":1088839,"internal_node_id":"0.0-8.0-1.28","subject":"bt4quvsv7wdsku4"},{"trial_type":"turing-test","trial_index":121,"time_elapsed":1093230,"internal_node_id":"0.0-8.0-2.28","subject":"bt4quvsv7wdsku4"},{"rt":1480,"stimulus":"<p>Welche Sequenz haben Sie als natürlicher empfunden?</p>","button_pressed":"0","test_part":"response","test_stimulus":{"position":1,"left":"bvh/vr_prediction_models/model(tmp)-dataset(return-bottle-hold)-numprim(10)-hold(1)/final-lines.txt","right":"bvh/return-bottle-hold-training1-lines.txt","att_check":false},"trial_type":"html-button-response","trial_index":122,"time_elapsed":1094713,"internal_node_id":"0.0-8.0-3.28","subject":"bt4quvsv7wdsku4"},{"rt":595,"stimulus":"<p>Bereit?</p>","button_pressed":"0","trial_type":"html-button-response","trial_index":123,"time_elapsed":1095310,"internal_node_id":"0.0-8.0-0.29","subject":"bt4quvsv7wdsku4"},{"rt":null,"stimulus":"<div style=\"font-size:60px;\">+</div>","key_press":null,"trial_type":"html-keyboard-response","trial_index":124,"time_elapsed":1097318,"internal_node_id":"0.0-8.0-1.29","subject":"bt4quvsv7wdsku4"},{"trial_type":"turing-test","trial_index":125,"time_elapsed":1101368,"internal_node_id":"0.0-8.0-2.29","subject":"bt4quvsv7wdsku4"},{"rt":1231,"stimulus":"<p>Welche Sequenz haben Sie als natürlicher empfunden?</p>","button_pressed":"0","test_part":"response","test_stimulus":{"position":0,"left":"bvh/return-bottle-training3-lines.txt","right":"bvh/vr_prediction_models/model(dmp)-dataset(return-bottle)-npsi(90)-hold(3)/final-lines.txt","att_check":false},"trial_type":"html-button-response","trial_index":126,"time_elapsed":1102604,"internal_node_id":"0.0-8.0-3.29","subject":"bt4quvsv7wdsku4"},{"rt":576,"stimulus":"<p>Bereit?</p>","button_pressed":"0","trial_type":"html-button-response","trial_index":127,"time_elapsed":1103183,"internal_node_id":"0.0-8.0-0.30","subject":"bt4quvsv7wdsku4"},{"rt":null,"stimulus":"<div style=\"font-size:60px;\">+</div>","key_press":null,"trial_type":"html-keyboard-response","trial_index":128,"time_elapsed":1105189,"internal_node_id":"0.0-8.0-1.30","subject":"bt4quvsv7wdsku4"},{"trial_type":"turing-test","trial_index":129,"time_elapsed":1110811,"internal_node_id":"0.0-8.0-2.30","subject":"bt4quvsv7wdsku4"},{"rt":926,"stimulus":"<p>Welche Sequenz haben Sie als natürlicher empfunden?</p>","button_pressed":"0","test_part":"response","test_stimulus":{"position":0,"left":"bvh/return-bottle-training0-lines.txt","right":"bvh/vr_prediction_models/model(vcgpdm)-dataset(return-bottle)-mode(ELBO)-parts(1)-dyn(20)-lvm(30)-hold(0)/final-lines.txt","att_check":false},"trial_type":"html-button-response","trial_index":130,"time_elapsed":1111741,"internal_node_id":"0.0-8.0-3.30","subject":"bt4quvsv7wdsku4"},{"rt":649,"stimulus":"<p>Bereit?</p>","button_pressed":"0","trial_type":"html-button-response","trial_index":131,"time_elapsed":1112393,"internal_node_id":"0.0-8.0-0.31","subject":"bt4quvsv7wdsku4"},{"rt":null,"stimulus":"<div style=\"font-size:60px;\">+</div>","key_press":null,"trial_type":"html-keyboard-response","trial_index":132,"time_elapsed":1114400,"internal_node_id":"0.0-8.0-1.31","subject":"bt4quvsv7wdsku4"},{"trial_type":"turing-test","trial_index":133,"time_elapsed":1119755,"internal_node_id":"0.0-8.0-2.31","subject":"bt4quvsv7wdsku4"},{"rt":853,"stimulus":"<p>Welche Sequenz haben Sie als natürlicher empfunden?</p>","button_pressed":"1","test_part":"response","test_stimulus":{"position":0,"left":"bvh/return-bottle-hold-training4-lines.txt","right":"bvh/vr_prediction_models/model(vcgpdm)-dataset(return-bottle-hold)-mode(ELBO)-parts(1)-dyn(30)-lvm(20)-hold(4)/final-lines.txt","att_check":false},"trial_type":"html-button-response","trial_index":134,"time_elapsed":1120611,"internal_node_id":"0.0-8.0-3.31","subject":"bt4quvsv7wdsku4"},{"rt":546,"stimulus":"<p>Bereit?</p>","button_pressed":"0","trial_type":"html-button-response","trial_index":135,"time_elapsed":1121161,"internal_node_id":"0.0-8.0-0.32","subject":"bt4quvsv7wdsku4"},{"rt":null,"stimulus":"<div style=\"font-size:60px;\">+</div>","key_press":null,"trial_type":"html-keyboard-response","trial_index":136,"time_elapsed":1123166,"internal_node_id":"0.0-8.0-1.32","subject":"bt4quvsv7wdsku4"},{"trial_type":"turing-test","trial_index":137,"time_elapsed":1128513,"internal_node_id":"0.0-8.0-2.32","subject":"bt4quvsv7wdsku4"},{"rt":976,"stimulus":"<p>Welche Sequenz haben Sie als natürlicher empfunden?</p>","button_pressed":"1","test_part":"response","test_stimulus":{"position":1,"left":"bvh/vr_prediction_models/model(vcgpdm)-dataset(pass-bottle)-mode(ELBO)-parts(1)-dyn(20)-lvm(20)-hold(1)/final-lines.txt","right":"bvh/pass-bottle-training1-lines.txt","att_check":false},"trial_type":"html-button-response","trial_index":138,"time_elapsed":1129491,"internal_node_id":"0.0-8.0-3.32","subject":"bt4quvsv7wdsku4"},{"rt":534,"stimulus":"<p>Bereit?</p>","button_pressed":"0","trial_type":"html-button-response","trial_index":139,"time_elapsed":1130028,"internal_node_id":"0.0-8.0-0.33","subject":"bt4quvsv7wdsku4"},{"rt":null,"stimulus":"<div style=\"font-size:60px;\">+</div>","key_press":null,"trial_type":"html-keyboard-response","trial_index":140,"time_elapsed":1132031,"internal_node_id":"0.0-8.0-1.33","subject":"bt4quvsv7wdsku4"},{"trial_type":"turing-test","trial_index":141,"time_elapsed":1137550,"internal_node_id":"0.0-8.0-2.33","subject":"bt4quvsv7wdsku4"},{"rt":963,"stimulus":"<p>Welche Sequenz haben Sie als natürlicher empfunden?</p>","button_pressed":"1","test_part":"response","test_stimulus":{"position":1,"left":"bvh/vr_prediction_models/model(vcgpdm)-dataset(pass-bottle-hold)-mode(ELBO)-parts(1)-dyn(20)-lvm(20)-hold(3)/final-lines.txt","right":"bvh/pass-bottle-hold-training3-lines.txt","att_check":false},"trial_type":"html-button-response","trial_index":142,"time_elapsed":1138515,"internal_node_id":"0.0-8.0-3.33","subject":"bt4quvsv7wdsku4"},{"rt":563,"stimulus":"<p>Bereit?</p>","button_pressed":"0","trial_type":"html-button-response","trial_index":143,"time_elapsed":1139079,"internal_node_id":"0.0-8.0-0.34","subject":"bt4quvsv7wdsku4"},{"rt":null,"stimulus":"<div style=\"font-size:60px;\">+</div>","key_press":null,"trial_type":"html-keyboard-response","trial_index":144,"time_elapsed":1141081,"internal_node_id":"0.0-8.0-1.34","subject":"bt4quvsv7wdsku4"},{"trial_type":"turing-test","trial_index":145,"time_elapsed":1146448,"internal_node_id":"0.0-8.0-2.34","subject":"bt4quvsv7wdsku4"},{"rt":1102,"stimulus":"<p>Welche Sequenz haben Sie als natürlicher empfunden?</p>","button_pressed":"0","test_part":"response","test_stimulus":{"position":0,"left":"bvh/pass-bottle-training1-lines.txt","right":"bvh/vr_prediction_models/model(vcgpdm)-dataset(pass-bottle)-mode(ELBO)-parts(1)-dyn(20)-lvm(5)-hold(1)/final-lines.txt","att_check":false},"trial_type":"html-button-response","trial_index":146,"time_elapsed":1147554,"internal_node_id":"0.0-8.0-3.34","subject":"bt4quvsv7wdsku4"},{"rt":567,"stimulus":"<p>Bereit?</p>","button_pressed":"0","trial_type":"html-button-response","trial_index":147,"time_elapsed":1148122,"internal_node_id":"0.0-8.0-0.35","subject":"bt4quvsv7wdsku4"},{"rt":null,"stimulus":"<div style=\"font-size:60px;\">+</div>","key_press":null,"trial_type":"html-keyboard-response","trial_index":148,"time_elapsed":1150125,"internal_node_id":"0.0-8.0-1.35","subject":"bt4quvsv7wdsku4"},{"trial_type":"turing-test","trial_index":149,"time_elapsed":1154120,"internal_node_id":"0.0-8.0-2.35","subject":"bt4quvsv7wdsku4"},{"rt":1215,"stimulus":"<p>Welche Sequenz haben Sie als natürlicher empfunden?</p>","button_pressed":"0","test_part":"response","test_stimulus":{"position":0,"left":"bvh/pass-bottle-training4-lines.txt","right":"bvh/vr_prediction_models/model(tmp)-dataset(pass-bottle)-numprim(7)-hold(4)/final-lines.txt","att_check":false},"trial_type":"html-button-response","trial_index":150,"time_elapsed":1155340,"internal_node_id":"0.0-8.0-3.35","subject":"bt4quvsv7wdsku4"},{"rt":293,"stimulus":"<p>Bereit?</p>","button_pressed":"0","trial_type":"html-button-response","trial_index":151,"time_elapsed":1155637,"internal_node_id":"0.0-8.0-0.36","subject":"bt4quvsv7wdsku4"},{"rt":null,"stimulus":"<div style=\"font-size:60px;\">+</div>","key_press":null,"trial_type":"html-keyboard-response","trial_index":152,"time_elapsed":1157639,"internal_node_id":"0.0-8.0-1.36","subject":"bt4quvsv7wdsku4"},{"trial_type":"turing-test","trial_index":153,"time_elapsed":1161715,"internal_node_id":"0.0-8.0-2.36","subject":"bt4quvsv7wdsku4"},{"rt":976,"stimulus":"<p>Welche Sequenz haben Sie als natürlicher empfunden?</p>","button_pressed":"0","test_part":"response","test_stimulus":{"position":0,"left":"bvh/return-bottle-training1-lines.txt","right":"bvh/vr_prediction_models/model(tmp)-dataset(return-bottle)-numprim(7)-hold(1)/final-lines.txt","att_check":false},"trial_type":"html-button-response","trial_index":154,"time_elapsed":1162697,"internal_node_id":"0.0-8.0-3.36","subject":"bt4quvsv7wdsku4"},{"rt":355,"stimulus":"<p>Bereit?</p>","button_pressed":"0","trial_type":"html-button-response","trial_index":155,"time_elapsed":1163054,"internal_node_id":"0.0-8.0-0.37","subject":"bt4quvsv7wdsku4"},{"rt":null,"stimulus":"<div style=\"font-size:60px;\">+</div>","key_press":null,"trial_type":"html-keyboard-response","trial_index":156,"time_elapsed":1165063,"internal_node_id":"0.0-8.0-1.37","subject":"bt4quvsv7wdsku4"},{"trial_type":"turing-test","trial_index":157,"time_elapsed":1169074,"internal_node_id":"0.0-8.0-2.37","subject":"bt4quvsv7wdsku4"},{"rt":980,"stimulus":"<p>Welche Sequenz haben Sie als natürlicher empfunden?</p>","button_pressed":"1","test_part":"response","test_stimulus":{"position":1,"left":"bvh/vr_prediction_models/model(dmp)-dataset(pass-bottle-hold)-npsi(20)-hold(3)/final-lines.txt","right":"bvh/pass-bottle-hold-training3-lines.txt","att_check":false},"trial_type":"html-button-response","trial_index":158,"time_elapsed":1170058,"internal_node_id":"0.0-8.0-3.37","subject":"bt4quvsv7wdsku4"},{"rt":336,"stimulus":"<p>Bereit?</p>","button_pressed":"0","trial_type":"html-button-response","trial_index":159,"time_elapsed":1170398,"internal_node_id":"0.0-8.0-0.38","subject":"bt4quvsv7wdsku4"},{"rt":null,"stimulus":"<div style=\"font-size:60px;\">+</div>","key_press":null,"trial_type":"html-keyboard-response","trial_index":160,"time_elapsed":1172401,"internal_node_id":"0.0-8.0-1.38","subject":"bt4quvsv7wdsku4"},{"trial_type":"turing-test","trial_index":161,"time_elapsed":1178029,"internal_node_id":"0.0-8.0-2.38","subject":"bt4quvsv7wdsku4"},{"rt":936,"stimulus":"<p>Welche Sequenz haben Sie als natürlicher empfunden?</p>","button_pressed":"1","test_part":"response","test_stimulus":{"position":1,"left":"bvh/vr_prediction_models/model(vcgpdm)-dataset(return-bottle-hold)-mode(ELBO)-parts(1)-dyn(20)-lvm(5)-hold(4)/final-lines.txt","right":"bvh/return-bottle-hold-training4-lines.txt","att_check":false},"trial_type":"html-button-response","trial_index":162,"time_elapsed":1178968,"internal_node_id":"0.0-8.0-3.38","subject":"bt4quvsv7wdsku4"},{"rt":374,"stimulus":"<p>Bereit?</p>","button_pressed":"0","trial_type":"html-button-response","trial_index":163,"time_elapsed":1179344,"internal_node_id":"0.0-8.0-0.39","subject":"bt4quvsv7wdsku4"},{"rt":null,"stimulus":"<div style=\"font-size:60px;\">+</div>","key_press":null,"trial_type":"html-keyboard-response","trial_index":164,"time_elapsed":1181351,"internal_node_id":"0.0-8.0-1.39","subject":"bt4quvsv7wdsku4"},{"trial_type":"turing-test","trial_index":165,"time_elapsed":1185432,"internal_node_id":"0.0-8.0-2.39","subject":"bt4quvsv7wdsku4"},{"rt":1349,"stimulus":"<p>Welche Sequenz haben Sie als natürlicher empfunden?</p>","button_pressed":"1","test_part":"response","test_stimulus":{"position":1,"left":"bvh/vr_prediction_models/model(tmp)-dataset(return-bottle)-numprim(4)-hold(0)/final-lines.txt","right":"bvh/return-bottle-training0-lines.txt","att_check":false},"trial_type":"html-button-response","trial_index":166,"time_elapsed":1186783,"internal_node_id":"0.0-8.0-3.39","subject":"bt4quvsv7wdsku4"},{"rt":692,"stimulus":"<p>Bereit?</p>","button_pressed":"0","trial_type":"html-button-response","trial_index":167,"time_elapsed":1187478,"internal_node_id":"0.0-8.0-0.40","subject":"bt4quvsv7wdsku4"},{"rt":null,"stimulus":"<div style=\"font-size:60px;\">+</div>","key_press":null,"trial_type":"html-keyboard-response","trial_index":168,"time_elapsed":1189483,"internal_node_id":"0.0-8.0-1.40","subject":"bt4quvsv7wdsku4"},{"trial_type":"turing-test","trial_index":169,"time_elapsed":1195076,"internal_node_id":"0.0-8.0-2.40","subject":"bt4quvsv7wdsku4"},{"rt":792,"stimulus":"<p>Welche Sequenz haben Sie als natürlicher empfunden?</p>","button_pressed":"0","test_part":"response","test_stimulus":{"position":0,"left":"bvh/return-bottle-hold-training4-lines.txt","right":"bvh/vr_prediction_models/model(vcgpdm)-dataset(return-bottle-hold)-mode(ELBO)-parts(3)-dyn(10)-lvm(25)-hold(4)/final-lines.txt","att_check":false},"trial_type":"html-button-response","trial_index":170,"time_elapsed":1195872,"internal_node_id":"0.0-8.0-3.40","subject":"bt4quvsv7wdsku4"},{"rt":696,"stimulus":"<p>Bereit?</p>","button_pressed":"0","trial_type":"html-button-response","trial_index":171,"time_elapsed":1196569,"internal_node_id":"0.0-8.0-0.41","subject":"bt4quvsv7wdsku4"},{"rt":null,"stimulus":"<div style=\"font-size:60px;\">+</div>","key_press":null,"trial_type":"html-keyboard-response","trial_index":172,"time_elapsed":1198576,"internal_node_id":"0.0-8.0-1.41","subject":"bt4quvsv7wdsku4"},{"trial_type":"turing-test","trial_index":173,"time_elapsed":1202568,"internal_node_id":"0.0-8.0-2.41","subject":"bt4quvsv7wdsku4"}]