[{"rt":1864,"stimulus":"<p>Welcome!<br> Please choose your language to start the experiment in the chosen language.</p><p>Willkommen!<br> Bitte wählen Sie eine Sprache, um das Experiment in der ausgewählten Sprache zu starten</p>","button_pressed":"1","trial_type":"html-button-response","trial_index":0,"time_elapsed":1875,"internal_node_id":"0.0-0.0","subject":"vvl0eoahc1665l5","sona":"9265"},{"view_history":"[{\"page_index\":0,\"viewing_time\":769},{\"page_index\":1,\"viewing_time\":843},{\"page_index\":2,\"viewing_time\":872},{\"page_index\":3,\"viewing_time\":960},{\"page_index\":4,\"viewing_time\":861}]","rt":4305,"trial_type":"instructions","trial_index":1,"time_elapsed":6182,"internal_node_id":"0.0-1.0-0.0","subject":"vvl0eoahc1665l5","sona":"9265"},{"rt":1009,"stimulus":"<p>Bereit?</p>","key_press":32,"trial_type":"html-keyboard-response","trial_index":2,"time_elapsed":7194,"internal_node_id":"0.0-3.0","subject":"vvl0eoahc1665l5","sona":"9265"},{"rt":null,"stimulus":"<div style=\"font-size:60px;\">+</div>","key_press":null,"trial_type":"html-keyboard-response","trial_index":3,"time_elapsed":9201,"internal_node_id":"0.0-4.0","subject":"vvl0eoahc1665l5","sona":"9265"},{"trial_type":"training","trial_index":4,"time_elapsed":12495,"internal_node_id":"0.0-5.0","subject":"vvl0eoahc1665l5","sona":"9265"},{"rt":452,"stimulus":"<p>Welche Sequenz haben Sie als natürlicher empfunden?</p>","key_press":70,"trial_type":"html-keyboard-response","trial_index":5,"time_elapsed":12949,"internal_node_id":"0.0-6.0","subject":"vvl0eoahc1665l5","sona":"9265"},{"rt":2190,"stimulus":"<p>Das Experiment startet nun.</p><p><small>Bitte drücken Sie den Knopf, wenn Sie bereit sind.</small></p>","button_pressed":"0","trial_type":"html-button-response","trial_index":6,"time_elapsed":15140,"internal_node_id":"0.0-7.0","subject":"vvl0eoahc1665l5","sona":"9265"},{"rt":1110,"stimulus":"<p>Bereit?</p>","key_press":32,"trial_type":"html-keyboard-response","trial_index":7,"time_elapsed":16254,"internal_node_id":"0.0-8.0-0.0","subject":"vvl0eoahc1665l5","sona":"9265"},{"rt":null,"stimulus":"<div style=\"font-size:60px;\">+</div>","key_press":null,"trial_type":"html-keyboard-response","trial_index":8,"time_elapsed":18278,"internal_node_id":"0.0-8.0-1.0","subject":"vvl0eoahc1665l5","sona":"9265"},{"trial_type":"turing-test","trial_index":9,"time_elapsed":23646,"internal_node_id":"0.0-8.0-2.0","subject":"vvl0eoahc1665l5","sona":"9265"},{"rt":392,"stimulus":"<p>Welche Sequenz haben Sie als natürlicher empfunden?</p>","key_press":74,"test_part":"response","test_stimulus":{"position":1,"left":"bvh/vr_prediction_models/model(dmp)-dataset(return-bottle)-npsi(10)-hold(0)/final-lines.txt","right":"bvh/return-bottle-training0-lines.txt","att_check":false},"trial_type":"html-keyboard-response","trial_index":10,"time_elapsed":24040,"internal_node_id":"0.0-8.0-3.0","subject":"vvl0eoahc1665l5","sona":"9265"},{"rt":81,"stimulus":"<p>Bereit?</p>","key_press":32,"trial_type":"html-keyboard-response","trial_index":11,"time_elapsed":24123,"internal_node_id":"0.0-8.0-0.1","subject":"vvl0eoahc1665l5","sona":"9265"},{"rt":null,"stimulus":"<div style=\"font-size:60px;\">+</div>","key_press":null,"trial_type":"html-keyboard-response","trial_index":12,"time_elapsed":26147,"internal_node_id":"0.0-8.0-1.1","subject":"vvl0eoahc1665l5","sona":"9265"},{"trial_type":"turing-test","trial_index":13,"time_elapsed":31928,"internal_node_id":"0.0-8.0-2.1","subject":"vvl0eoahc1665l5","sona":"9265"},{"rt":410,"stimulus":"<p>Welche Sequenz haben Sie als natürlicher empfunden?</p>","key_press":70,"test_part":"response","test_stimulus":{"position":0,"left":"bvh/pass-bottle-training4-lines.txt","right":"bvh/vr_prediction_models/model(vcgpdm)-dataset(pass-bottle)-mode(ELBO)-parts(1)-dyn(20)-lvm(5)-hold(4)/final-lines.txt","att_check":false},"trial_type":"html-keyboard-response","trial_index":14,"time_elapsed":32341,"internal_node_id":"0.0-8.0-3.1","subject":"vvl0eoahc1665l5","sona":"9265"},{"rt":200,"stimulus":"<p>Bereit?</p>","key_press":32,"trial_type":"html-keyboard-response","trial_index":15,"time_elapsed":32543,"internal_node_id":"0.0-8.0-0.2","subject":"vvl0eoahc1665l5","sona":"9265"},{"rt":null,"stimulus":"<div style=\"font-size:60px;\">+</div>","key_press":null,"trial_type":"html-keyboard-response","trial_index":16,"time_elapsed":34559,"internal_node_id":"0.0-8.0-1.2","subject":"vvl0eoahc1665l5","sona":"9265"},{"trial_type":"turing-test","trial_index":17,"time_elapsed":40342,"internal_node_id":"0.0-8.0-2.2","subject":"vvl0eoahc1665l5","sona":"9265"},{"rt":312,"stimulus":"<p>Welche Sequenz haben Sie als natürlicher empfunden?</p>","key_press":74,"test_part":"response","test_stimulus":{"position":1,"left":"bvh/vr_prediction_models/model(dmp)-dataset(pass-bottle)-npsi(20)-hold(3)/final-lines.txt","right":"bvh/pass-bottle-training3-lines.txt","att_check":true},"trial_type":"html-keyboard-response","trial_index":18,"time_elapsed":40658,"internal_node_id":"0.0-8.0-3.2","subject":"vvl0eoahc1665l5","sona":"9265"},{"rt":63,"stimulus":"<p>Bereit?</p>","key_press":32,"trial_type":"html-keyboard-response","trial_index":19,"time_elapsed":40722,"internal_node_id":"0.0-8.0-0.3","subject":"vvl0eoahc1665l5","sona":"9265"},{"rt":null,"stimulus":"<div style=\"font-size:60px;\">+</div>","key_press":null,"trial_type":"html-keyboard-response","trial_index":20,"time_elapsed":42751,"internal_node_id":"0.0-8.0-1.3","subject":"vvl0eoahc1665l5","sona":"9265"},{"trial_type":"turing-test","trial_index":21,"time_elapsed":46028,"internal_node_id":"0.0-8.0-2.3","subject":"vvl0eoahc1665l5","sona":"9265"},{"rt":340,"stimulus":"<p>Welche Sequenz haben Sie als natürlicher empfunden?</p>","key_press":70,"test_part":"response","test_stimulus":{"position":0,"left":"bvh/pass-bottle-hold-training1-lines.txt","right":"bvh/vr_prediction_models/model(vcgpdm)-dataset(pass-bottle-hold)-mode(ELBO)-parts(1)-dyn(30)-lvm(30)-hold(1)/final-lines.txt","att_check":false},"trial_type":"html-keyboard-response","trial_index":22,"time_elapsed":46370,"internal_node_id":"0.0-8.0-3.3","subject":"vvl0eoahc1665l5","sona":"9265"},{"rt":114,"stimulus":"<p>Bereit?</p>","key_press":32,"trial_type":"html-keyboard-response","trial_index":23,"time_elapsed":46487,"internal_node_id":"0.0-8.0-0.4","subject":"vvl0eoahc1665l5","sona":"9265"},{"rt":null,"stimulus":"<div style=\"font-size:60px;\">+</div>","key_press":null,"trial_type":"html-keyboard-response","trial_index":24,"time_elapsed":48505,"internal_node_id":"0.0-8.0-1.4","subject":"vvl0eoahc1665l5","sona":"9265"},{"trial_type":"turing-test","trial_index":25,"time_elapsed":54690,"internal_node_id":"0.0-8.0-2.4","subject":"vvl0eoahc1665l5","sona":"9265"},{"rt":334,"stimulus":"<p>Welche Sequenz haben Sie als natürlicher empfunden?</p>","key_press":70,"test_part":"response","test_stimulus":{"position":0,"left":"bvh/return-bottle-training1-lines.txt","right":"bvh/vr_prediction_models/model(vcgpdm)-dataset(return-bottle)-mode(ELBO)-parts(1)-dyn(20)-lvm(5)-hold(1)/final-lines.txt","att_check":false},"trial_type":"html-keyboard-response","trial_index":26,"time_elapsed":55026,"internal_node_id":"0.0-8.0-3.4","subject":"vvl0eoahc1665l5","sona":"9265"},{"rt":84,"stimulus":"<p>Bereit?</p>","key_press":32,"trial_type":"html-keyboard-response","trial_index":27,"time_elapsed":55113,"internal_node_id":"0.0-8.0-0.5","subject":"vvl0eoahc1665l5","sona":"9265"},{"rt":null,"stimulus":"<div style=\"font-size:60px;\">+</div>","key_press":null,"trial_type":"html-keyboard-response","trial_index":28,"time_elapsed":57137,"internal_node_id":"0.0-8.0-1.5","subject":"vvl0eoahc1665l5","sona":"9265"},{"trial_type":"turing-test","trial_index":29,"time_elapsed":63185,"internal_node_id":"0.0-8.0-2.5","subject":"vvl0eoahc1665l5","sona":"9265"},{"rt":361,"stimulus":"<p>Welche Sequenz haben Sie als natürlicher empfunden?</p>","key_press":74,"test_part":"response","test_stimulus":{"position":1,"left":"bvh/vr_prediction_models/model(vcgpdm)-dataset(pass-bottle)-mode(ELBO)-parts(1)-dyn(10)-lvm(25)-hold(2)/final-lines.txt","right":"bvh/pass-bottle-training2-lines.txt","att_check":false},"trial_type":"html-keyboard-response","trial_index":30,"time_elapsed":63549,"internal_node_id":"0.0-8.0-3.5","subject":"vvl0eoahc1665l5","sona":"9265"},{"rt":109,"stimulus":"<p>Bereit?</p>","key_press":32,"trial_type":"html-keyboard-response","trial_index":31,"time_elapsed":63658,"internal_node_id":"0.0-8.0-0.6","subject":"vvl0eoahc1665l5","sona":"9265"},{"rt":null,"stimulus":"<div style=\"font-size:60px;\">+</div>","key_press":null,"trial_type":"html-keyboard-response","trial_index":32,"time_elapsed":65684,"internal_node_id":"0.0-8.0-1.6","subject":"vvl0eoahc1665l5","sona":"9265"},{"trial_type":"turing-test","trial_index":33,"time_elapsed":72326,"internal_node_id":"0.0-8.0-2.6","subject":"vvl0eoahc1665l5","sona":"9265"},{"rt":407,"stimulus":"<p>Welche Sequenz haben Sie als natürlicher empfunden?</p>","key_press":74,"test_part":"response","test_stimulus":{"position":1,"left":"bvh/vr_prediction_models/model(vcgpdm)-dataset(pass-bottle)-mode(ELBO)-parts(3)-dyn(35)-lvm(20)-hold(0)/final-lines.txt","right":"bvh/pass-bottle-training0-lines.txt","att_check":false},"trial_type":"html-keyboard-response","trial_index":34,"time_elapsed":72736,"internal_node_id":"0.0-8.0-3.6","subject":"vvl0eoahc1665l5","sona":"9265"},{"rt":109,"stimulus":"<p>Bereit?</p>","key_press":32,"trial_type":"html-keyboard-response","trial_index":35,"time_elapsed":72847,"internal_node_id":"0.0-8.0-0.7","subject":"vvl0eoahc1665l5","sona":"9265"},{"rt":null,"stimulus":"<div style=\"font-size:60px;\">+</div>","key_press":null,"trial_type":"html-keyboard-response","trial_index":36,"time_elapsed":74861,"internal_node_id":"0.0-8.0-1.7","subject":"vvl0eoahc1665l5","sona":"9265"},{"trial_type":"turing-test","trial_index":37,"time_elapsed":80789,"internal_node_id":"0.0-8.0-2.7","subject":"vvl0eoahc1665l5","sona":"9265"},{"rt":240,"stimulus":"<p>Welche Sequenz haben Sie als natürlicher empfunden?</p>","key_press":74,"test_part":"response","test_stimulus":{"position":1,"left":"bvh/vr_prediction_models/model(vcgpdm)-dataset(pass-bottle)-mode(MAP)-parts(3)-hold(3)/final-lines.txt","right":"bvh/pass-bottle-training3-lines.txt","att_check":false},"trial_type":"html-keyboard-response","trial_index":38,"time_elapsed":81031,"internal_node_id":"0.0-8.0-3.7","subject":"vvl0eoahc1665l5","sona":"9265"},{"rt":122,"stimulus":"<p>Bereit?</p>","key_press":32,"trial_type":"html-keyboard-response","trial_index":39,"time_elapsed":81156,"internal_node_id":"0.0-8.0-0.8","subject":"vvl0eoahc1665l5","sona":"9265"},{"rt":null,"stimulus":"<div style=\"font-size:60px;\">+</div>","key_press":null,"trial_type":"html-keyboard-response","trial_index":40,"time_elapsed":83173,"internal_node_id":"0.0-8.0-1.8","subject":"vvl0eoahc1665l5","sona":"9265"},{"trial_type":"turing-test","trial_index":41,"time_elapsed":89808,"internal_node_id":"0.0-8.0-2.8","subject":"vvl0eoahc1665l5","sona":"9265"},{"rt":358,"stimulus":"<p>Welche Sequenz haben Sie als natürlicher empfunden?</p>","key_press":74,"test_part":"response","test_stimulus":{"position":1,"left":"bvh/vr_prediction_models/model(dmp)-dataset(pass-bottle)-npsi(60)-hold(0)/final-lines.txt","right":"bvh/pass-bottle-training0-lines.txt","att_check":false},"trial_type":"html-keyboard-response","trial_index":42,"time_elapsed":90168,"internal_node_id":"0.0-8.0-3.8","subject":"vvl0eoahc1665l5","sona":"9265"},{"rt":95,"stimulus":"<p>Bereit?</p>","key_press":32,"trial_type":"html-keyboard-response","trial_index":43,"time_elapsed":90265,"internal_node_id":"0.0-8.0-0.9","subject":"vvl0eoahc1665l5","sona":"9265"},{"rt":null,"stimulus":"<div style=\"font-size:60px;\">+</div>","key_press":null,"trial_type":"html-keyboard-response","trial_index":44,"time_elapsed":92277,"internal_node_id":"0.0-8.0-1.9","subject":"vvl0eoahc1665l5","sona":"9265"},{"trial_type":"turing-test","trial_index":45,"time_elapsed":98233,"internal_node_id":"0.0-8.0-2.9","subject":"vvl0eoahc1665l5","sona":"9265"},{"rt":179,"stimulus":"<p>Welche Sequenz haben Sie als natürlicher empfunden?</p>","key_press":74,"test_part":"response","test_stimulus":{"position":1,"left":"bvh/vr_prediction_models/model(vcgpdm)-dataset(pass-bottle)-mode(ELBO)-parts(1)-dyn(30)-lvm(30)-hold(3)/final-lines.txt","right":"bvh/pass-bottle-training3-lines.txt","att_check":false},"trial_type":"html-keyboard-response","trial_index":46,"time_elapsed":98413,"internal_node_id":"0.0-8.0-3.9","subject":"vvl0eoahc1665l5","sona":"9265"},{"rt":122,"stimulus":"<p>Bereit?</p>","key_press":32,"trial_type":"html-keyboard-response","trial_index":47,"time_elapsed":98539,"internal_node_id":"0.0-8.0-0.10","subject":"vvl0eoahc1665l5","sona":"9265"},{"rt":null,"stimulus":"<div style=\"font-size:60px;\">+</div>","key_press":null,"trial_type":"html-keyboard-response","trial_index":48,"time_elapsed":100556,"internal_node_id":"0.0-8.0-1.10","subject":"vvl0eoahc1665l5","sona":"9265"},{"trial_type":"turing-test","trial_index":49,"time_elapsed":106419,"internal_node_id":"0.0-8.0-2.10","subject":"vvl0eoahc1665l5","sona":"9265"},{"rt":342,"stimulus":"<p>Welche Sequenz haben Sie als natürlicher empfunden?</p>","key_press":70,"test_part":"response","test_stimulus":{"position":0,"left":"bvh/return-bottle-training3-lines.txt","right":"bvh/vr_prediction_models/model(vcgpdm)-dataset(return-bottle)-mode(ELBO)-parts(3)-dyn(10)-lvm(30)-hold(3)/final-lines.txt","att_check":false},"trial_type":"html-keyboard-response","trial_index":50,"time_elapsed":106763,"internal_node_id":"0.0-8.0-3.10","subject":"vvl0eoahc1665l5","sona":"9265"},{"rt":89,"stimulus":"<p>Bereit?</p>","key_press":32,"trial_type":"html-keyboard-response","trial_index":51,"time_elapsed":106852,"internal_node_id":"0.0-8.0-0.11","subject":"vvl0eoahc1665l5","sona":"9265"},{"rt":null,"stimulus":"<div style=\"font-size:60px;\">+</div>","key_press":null,"trial_type":"html-keyboard-response","trial_index":52,"time_elapsed":108869,"internal_node_id":"0.0-8.0-1.11","subject":"vvl0eoahc1665l5","sona":"9265"},{"trial_type":"turing-test","trial_index":53,"time_elapsed":112218,"internal_node_id":"0.0-8.0-2.11","subject":"vvl0eoahc1665l5","sona":"9265"}]