[{"rt":1453.5300005227327,"stimulus":"<p>Welcome!<br> Please choose your language to start the experiment in the chosen language.</p><p>Willkommen!<br> Bitte wählen Sie eine Sprache, um das Experiment in der ausgewählten Sprache zu starten</p>","button_pressed":"1","trial_type":"html-button-response","trial_index":0,"time_elapsed":1572,"internal_node_id":"0.0-0.0","subject":"5oy9vqhlzl1unfs","sona":"7723"},{"view_history":"[{\"page_index\":0,\"viewing_time\":2689.864999614656},{\"page_index\":1,\"viewing_time\":1199.8849995434284},{\"page_index\":2,\"viewing_time\":735.8250003308058},{\"page_index\":3,\"viewing_time\":5560.015000402927},{\"page_index\":4,\"viewing_time\":1251.7099995166063}]","rt":11438.614999875426,"trial_type":"instructions","trial_index":1,"time_elapsed":13012,"internal_node_id":"0.0-1.0-0.0","subject":"5oy9vqhlzl1unfs","sona":"7723"},{"rt":2882.500000298023,"stimulus":"<p>Bereit?</p>","key_press":32,"trial_type":"html-keyboard-response","trial_index":2,"time_elapsed":15897,"internal_node_id":"0.0-3.0","subject":"5oy9vqhlzl1unfs","sona":"7723"},{"rt":null,"stimulus":"<div style=\"font-size:60px;\">+</div>","key_press":null,"trial_type":"html-keyboard-response","trial_index":3,"time_elapsed":17922,"internal_node_id":"0.0-4.0","subject":"5oy9vqhlzl1unfs","sona":"7723"},{"trial_type":"training","trial_index":4,"time_elapsed":21352,"internal_node_id":"0.0-5.0","subject":"5oy9vqhlzl1unfs","sona":"7723"},{"rt":382.70500022917986,"stimulus":"<p>Welche Sequenz haben Sie als natürlicher empfunden?</p>","key_press":70,"trial_type":"html-keyboard-response","trial_index":5,"time_elapsed":21736,"internal_node_id":"0.0-6.0","subject":"5oy9vqhlzl1unfs","sona":"7723"},{"rt":1885.8599998056889,"stimulus":"<p>Das Experiment startet nun.</p><p><small>Bitte drücken Sie den Knopf, wenn Sie bereit sind.</small></p>","button_pressed":"0","trial_type":"html-button-response","trial_index":6,"time_elapsed":23624,"internal_node_id":"0.0-7.0","subject":"5oy9vqhlzl1unfs","sona":"7723"},{"rt":979.4850004836917,"stimulus":"<p>Bereit?</p>","key_press":32,"trial_type":"html-keyboard-response","trial_index":7,"time_elapsed":24605,"internal_node_id":"0.0-8.0-0.0","subject":"5oy9vqhlzl1unfs","sona":"7723"},{"rt":null,"stimulus":"<div style=\"font-size:60px;\">+</div>","key_press":null,"trial_type":"html-keyboard-response","trial_index":8,"time_elapsed":26622,"internal_node_id":"0.0-8.0-1.0","subject":"5oy9vqhlzl1unfs","sona":"7723"},{"trial_type":"turing-test","trial_index":9,"time_elapsed":30102,"internal_node_id":"0.0-8.0-2.0","subject":"5oy9vqhlzl1unfs","sona":"7723"},{"rt":687.1899999678135,"stimulus":"<p>Welche Sequenz haben Sie als natürlicher empfunden?</p>","key_press":70,"test_part":"response","test_stimulus":{"position":1,"left":"bvh/vr_prediction_models/model(vcgpdm)-dataset(pass-bottle-hold)-mode(ELBO)-parts(1)-dyn(35)-lvm(30)-hold(1)/final-lines.txt","right":"bvh/pass-bottle-hold-training1-lines.txt","att_check":false},"trial_type":"html-keyboard-response","trial_index":10,"time_elapsed":30795,"internal_node_id":"0.0-8.0-3.0","subject":"5oy9vqhlzl1unfs","sona":"7723"},{"rt":288.1800001487136,"stimulus":"<p>Bereit?</p>","key_press":32,"trial_type":"html-keyboard-response","trial_index":11,"time_elapsed":31088,"internal_node_id":"0.0-8.0-0.1","subject":"5oy9vqhlzl1unfs","sona":"7723"},{"rt":null,"stimulus":"<div style=\"font-size:60px;\">+</div>","key_press":null,"trial_type":"html-keyboard-response","trial_index":12,"time_elapsed":33091,"internal_node_id":"0.0-8.0-1.1","subject":"5oy9vqhlzl1unfs","sona":"7723"},{"trial_type":"turing-test","trial_index":13,"time_elapsed":36746,"internal_node_id":"0.0-8.0-2.1","subject":"5oy9vqhlzl1unfs","sona":"7723"},{"rt":495.90499978512526,"stimulus":"<p>Welche Sequenz haben Sie als natürlicher empfunden?</p>","key_press":70,"test_part":"response","test_stimulus":{"position":0,"left":"bvh/return-bottle-hold-training2-lines.txt","right":"bvh/vr_prediction_models/model(vcgpdm)-dataset(return-bottle-hold)-mode(ELBO)-parts(1)-dyn(20)-lvm(5)-hold(2)/final-lines.txt","att_check":false},"trial_type":"html-keyboard-response","trial_index":14,"time_elapsed":37246,"internal_node_id":"0.0-8.0-3.1","subject":"5oy9vqhlzl1unfs","sona":"7723"},{"rt":293.1350003927946,"stimulus":"<p>Bereit?</p>","key_press":32,"trial_type":"html-keyboard-response","trial_index":15,"time_elapsed":37543,"internal_node_id":"0.0-8.0-0.2","subject":"5oy9vqhlzl1unfs","sona":"7723"},{"rt":null,"stimulus":"<div style=\"font-size:60px;\">+</div>","key_press":null,"trial_type":"html-keyboard-response","trial_index":16,"time_elapsed":39547,"internal_node_id":"0.0-8.0-1.2","subject":"5oy9vqhlzl1unfs","sona":"7723"},{"trial_type":"turing-test","trial_index":17,"time_elapsed":43075,"internal_node_id":"0.0-8.0-2.2","subject":"5oy9vqhlzl1unfs","sona":"7723"},{"rt":289.2349995672703,"stimulus":"<p>Welche Sequenz haben Sie als natürlicher empfunden?</p>","key_press":70,"test_part":"response","test_stimulus":{"position":1,"left":"bvh/vr_prediction_models/model(vcgpdm)-dataset(pass-bottle-hold)-mode(ELBO)-parts(1)-dyn(5)-lvm(5)-hold(2)/final-lines.txt","right":"bvh/pass-bottle-hold-training2-lines.txt","att_check":false},"trial_type":"html-keyboard-response","trial_index":18,"time_elapsed":43369,"internal_node_id":"0.0-8.0-3.2","subject":"5oy9vqhlzl1unfs","sona":"7723"},{"rt":313.21499962359667,"stimulus":"<p>Bereit?</p>","key_press":32,"trial_type":"html-keyboard-response","trial_index":19,"time_elapsed":43687,"internal_node_id":"0.0-8.0-0.3","subject":"5oy9vqhlzl1unfs","sona":"7723"},{"rt":null,"stimulus":"<div style=\"font-size:60px;\">+</div>","key_press":null,"trial_type":"html-keyboard-response","trial_index":20,"time_elapsed":45690,"internal_node_id":"0.0-8.0-1.3","subject":"5oy9vqhlzl1unfs","sona":"7723"},{"trial_type":"turing-test","trial_index":21,"time_elapsed":49018,"internal_node_id":"0.0-8.0-2.3","subject":"5oy9vqhlzl1unfs","sona":"7723"},{"rt":673.0399997904897,"stimulus":"<p>Welche Sequenz haben Sie als natürlicher empfunden?</p>","key_press":70,"test_part":"response","test_stimulus":{"position":0,"left":"bvh/pass-bottle-hold-training0-lines.txt","right":"bvh/vr_prediction_models/model(dmp)-dataset(pass-bottle-hold)-npsi(40)-hold(0)/final-lines.txt","att_check":false},"trial_type":"html-keyboard-response","trial_index":22,"time_elapsed":49694,"internal_node_id":"0.0-8.0-3.3","subject":"5oy9vqhlzl1unfs","sona":"7723"},{"rt":327.5650003924966,"stimulus":"<p>Bereit?</p>","key_press":32,"trial_type":"html-keyboard-response","trial_index":23,"time_elapsed":50025,"internal_node_id":"0.0-8.0-0.4","subject":"5oy9vqhlzl1unfs","sona":"7723"},{"rt":null,"stimulus":"<div style=\"font-size:60px;\">+</div>","key_press":null,"trial_type":"html-keyboard-response","trial_index":24,"time_elapsed":52027,"internal_node_id":"0.0-8.0-1.4","subject":"5oy9vqhlzl1unfs","sona":"7723"},{"trial_type":"turing-test","trial_index":25,"time_elapsed":58277,"internal_node_id":"0.0-8.0-2.4","subject":"5oy9vqhlzl1unfs","sona":"7723"},{"rt":506.4000003039837,"stimulus":"<p>Welche Sequenz haben Sie als natürlicher empfunden?</p>","key_press":70,"test_part":"response","test_stimulus":{"position":0,"left":"bvh/return-bottle-training1-lines.txt","right":"bvh/vr_prediction_models/model(vcgpdm)-dataset(return-bottle)-mode(ELBO)-parts(3)-dyn(35)-lvm(20)-hold(1)/final-lines.txt","att_check":false},"trial_type":"html-keyboard-response","trial_index":26,"time_elapsed":58787,"internal_node_id":"0.0-8.0-3.4","subject":"5oy9vqhlzl1unfs","sona":"7723"},{"rt":465.5900001525879,"stimulus":"<p>Bereit?</p>","key_press":32,"trial_type":"html-keyboard-response","trial_index":27,"time_elapsed":59256,"internal_node_id":"0.0-8.0-0.5","subject":"5oy9vqhlzl1unfs","sona":"7723"},{"rt":null,"stimulus":"<div style=\"font-size:60px;\">+</div>","key_press":null,"trial_type":"html-keyboard-response","trial_index":28,"time_elapsed":61260,"internal_node_id":"0.0-8.0-1.5","subject":"5oy9vqhlzl1unfs","sona":"7723"},{"trial_type":"turing-test","trial_index":29,"time_elapsed":67242,"internal_node_id":"0.0-8.0-2.5","subject":"5oy9vqhlzl1unfs","sona":"7723"},{"rt":1349.554999731481,"stimulus":"<p>Welche Sequenz haben Sie als natürlicher empfunden?</p>","key_press":74,"test_part":"response","test_stimulus":{"position":0,"left":"bvh/pass-bottle-training4-lines.txt","right":"bvh/vr_prediction_models/model(vcgpdm)-dataset(pass-bottle)-mode(ELBO)-parts(3)-dyn(20)-lvm(20)-hold(4)/final-lines.txt","att_check":false},"trial_type":"html-keyboard-response","trial_index":30,"time_elapsed":68595,"internal_node_id":"0.0-8.0-3.5","subject":"5oy9vqhlzl1unfs","sona":"7723"},{"rt":2083.420000039041,"stimulus":"<p>Bereit?</p>","key_press":32,"trial_type":"html-keyboard-response","trial_index":31,"time_elapsed":70681,"internal_node_id":"0.0-8.0-0.6","subject":"5oy9vqhlzl1unfs","sona":"7723"},{"rt":null,"stimulus":"<div style=\"font-size:60px;\">+</div>","key_press":null,"trial_type":"html-keyboard-response","trial_index":32,"time_elapsed":72684,"internal_node_id":"0.0-8.0-1.6","subject":"5oy9vqhlzl1unfs","sona":"7723"},{"trial_type":"turing-test","trial_index":33,"time_elapsed":75897,"internal_node_id":"0.0-8.0-2.6","subject":"5oy9vqhlzl1unfs","sona":"7723"},{"rt":1823.9799998700619,"stimulus":"<p>Welche Sequenz haben Sie als natürlicher empfunden?</p>","key_press":74,"test_part":"response","test_stimulus":{"position":0,"left":"bvh/pass-bottle-hold-training1-lines.txt","right":"bvh/vr_prediction_models/model(dmp)-dataset(pass-bottle-hold)-npsi(70)-hold(1)/final-lines.txt","att_check":true},"trial_type":"html-keyboard-response","trial_index":34,"time_elapsed":77724,"internal_node_id":"0.0-8.0-3.6","subject":"5oy9vqhlzl1unfs","sona":"7723"},{"rt":368.02500020712614,"stimulus":"<p>Bereit?</p>","key_press":32,"trial_type":"html-keyboard-response","trial_index":35,"time_elapsed":78094,"internal_node_id":"0.0-8.0-0.7","subject":"5oy9vqhlzl1unfs","sona":"7723"},{"rt":null,"stimulus":"<div style=\"font-size:60px;\">+</div>","key_press":null,"trial_type":"html-keyboard-response","trial_index":36,"time_elapsed":80098,"internal_node_id":"0.0-8.0-1.7","subject":"5oy9vqhlzl1unfs","sona":"7723"},{"trial_type":"turing-test","trial_index":37,"time_elapsed":83703,"internal_node_id":"0.0-8.0-2.7","subject":"5oy9vqhlzl1unfs","sona":"7723"},{"rt":671.8300003558397,"stimulus":"<p>Welche Sequenz haben Sie als natürlicher empfunden?</p>","key_press":74,"test_part":"response","test_stimulus":{"position":1,"left":"bvh/vr_prediction_models/model(vcgpdm)-dataset(pass-bottle-hold)-mode(ELBO)-parts(1)-dyn(20)-lvm(30)-hold(0)/final-lines.txt","right":"bvh/pass-bottle-hold-training0-lines.txt","att_check":false},"trial_type":"html-keyboard-response","trial_index":38,"time_elapsed":84378,"internal_node_id":"0.0-8.0-3.7","subject":"5oy9vqhlzl1unfs","sona":"7723"},{"rt":513.3350007236004,"stimulus":"<p>Bereit?</p>","key_press":32,"trial_type":"html-keyboard-response","trial_index":39,"time_elapsed":84894,"internal_node_id":"0.0-8.0-0.8","subject":"5oy9vqhlzl1unfs","sona":"7723"},{"rt":null,"stimulus":"<div style=\"font-size:60px;\">+</div>","key_press":null,"trial_type":"html-keyboard-response","trial_index":40,"time_elapsed":86896,"internal_node_id":"0.0-8.0-1.8","subject":"5oy9vqhlzl1unfs","sona":"7723"},{"trial_type":"turing-test","trial_index":41,"time_elapsed":92927,"internal_node_id":"0.0-8.0-2.8","subject":"5oy9vqhlzl1unfs","sona":"7723"},{"rt":935.2500000968575,"stimulus":"<p>Welche Sequenz haben Sie als natürlicher empfunden?</p>","key_press":70,"test_part":"response","test_stimulus":{"position":0,"left":"bvh/return-bottle-training4-lines.txt","right":"bvh/vr_prediction_models/model(vcgpdm)-dataset(return-bottle)-mode(ELBO)-parts(1)-dyn(30)-lvm(35)-hold(4)/final-lines.txt","att_check":false},"trial_type":"html-keyboard-response","trial_index":42,"time_elapsed":93866,"internal_node_id":"0.0-8.0-3.8","subject":"5oy9vqhlzl1unfs","sona":"7723"},{"rt":395.8550002425909,"stimulus":"<p>Bereit?</p>","key_press":32,"trial_type":"html-keyboard-response","trial_index":43,"time_elapsed":94265,"internal_node_id":"0.0-8.0-0.9","subject":"5oy9vqhlzl1unfs","sona":"7723"},{"rt":null,"stimulus":"<div style=\"font-size:60px;\">+</div>","key_press":null,"trial_type":"html-keyboard-response","trial_index":44,"time_elapsed":96268,"internal_node_id":"0.0-8.0-1.9","subject":"5oy9vqhlzl1unfs","sona":"7723"},{"trial_type":"turing-test","trial_index":45,"time_elapsed":99666,"internal_node_id":"0.0-8.0-2.9","subject":"5oy9vqhlzl1unfs","sona":"7723"},{"rt":1377.8550000861287,"stimulus":"<p>Welche Sequenz haben Sie als natürlicher empfunden?</p>","key_press":70,"test_part":"response","test_stimulus":{"position":1,"left":"bvh/vr_prediction_models/model(dmp)-dataset(return-bottle-hold)-npsi(10)-hold(1)/final-lines.txt","right":"bvh/return-bottle-hold-training1-lines.txt","att_check":false},"trial_type":"html-keyboard-response","trial_index":46,"time_elapsed":101047,"internal_node_id":"0.0-8.0-3.9","subject":"5oy9vqhlzl1unfs","sona":"7723"},{"rt":368.0699998512864,"stimulus":"<p>Bereit?</p>","key_press":32,"trial_type":"html-keyboard-response","trial_index":47,"time_elapsed":101417,"internal_node_id":"0.0-8.0-0.10","subject":"5oy9vqhlzl1unfs","sona":"7723"},{"rt":null,"stimulus":"<div style=\"font-size:60px;\">+</div>","key_press":null,"trial_type":"html-keyboard-response","trial_index":48,"time_elapsed":103421,"internal_node_id":"0.0-8.0-1.10","subject":"5oy9vqhlzl1unfs","sona":"7723"},{"trial_type":"turing-test","trial_index":49,"time_elapsed":107150,"internal_node_id":"0.0-8.0-2.10","subject":"5oy9vqhlzl1unfs","sona":"7723"},{"rt":2466.889999806881,"stimulus":"<p>Welche Sequenz haben Sie als natürlicher empfunden?</p>","key_press":70,"test_part":"response","test_stimulus":{"position":0,"left":"bvh/pass-bottle-hold-training3-lines.txt","right":"bvh/vr_prediction_models/model(vcgpdm)-dataset(pass-bottle-hold)-mode(ELBO)-parts(3)-dyn(20)-lvm(15)-hold(3)/final-lines.txt","att_check":false},"trial_type":"html-keyboard-response","trial_index":50,"time_elapsed":109621,"internal_node_id":"0.0-8.0-3.10","subject":"5oy9vqhlzl1unfs","sona":"7723"},{"rt":368.7649993225932,"stimulus":"<p>Bereit?</p>","key_press":32,"trial_type":"html-keyboard-response","trial_index":51,"time_elapsed":109992,"internal_node_id":"0.0-8.0-0.11","subject":"5oy9vqhlzl1unfs","sona":"7723"},{"rt":null,"stimulus":"<div style=\"font-size:60px;\">+</div>","key_press":null,"trial_type":"html-keyboard-response","trial_index":52,"time_elapsed":112000,"internal_node_id":"0.0-8.0-1.11","subject":"5oy9vqhlzl1unfs","sona":"7723"}]