[{"rt":4936.25000002794,"stimulus":"<p>Welcome!<br> Please choose your language to start the experiment in the chosen language.</p><p>Willkommen!<br> Bitte wählen Sie eine Sprache, um das Experiment in der ausgewählten Sprache zu starten</p>","button_pressed":"1","trial_type":"html-button-response","trial_index":0,"time_elapsed":4963,"internal_node_id":"0.0-0.0","subject":"eqch7dap9b1qkdn","sona":"9727"},{"view_history":"[{\"page_index\":0,\"viewing_time\":10167.46999998577},{\"page_index\":1,\"viewing_time\":2979.300000006333},{\"page_index\":2,\"viewing_time\":3864.9699999950826},{\"page_index\":3,\"viewing_time\":5345.450000022538},{\"page_index\":4,\"viewing_time\":4765.124999976251}]","rt":27123.439999995753,"trial_type":"instructions","trial_index":1,"time_elapsed":32088,"internal_node_id":"0.0-1.0-0.0","subject":"eqch7dap9b1qkdn","sona":"9727"},{"rt":1716.1399999749847,"stimulus":"<p>Bereit?</p>","key_press":32,"trial_type":"html-keyboard-response","trial_index":2,"time_elapsed":33806,"internal_node_id":"0.0-3.0","subject":"eqch7dap9b1qkdn","sona":"9727"},{"rt":null,"stimulus":"<div style=\"font-size:60px;\">+</div>","key_press":null,"trial_type":"html-keyboard-response","trial_index":3,"time_elapsed":35817,"internal_node_id":"0.0-4.0","subject":"eqch7dap9b1qkdn","sona":"9727"},{"trial_type":"training","trial_index":4,"time_elapsed":39156,"internal_node_id":"0.0-5.0","subject":"eqch7dap9b1qkdn","sona":"9727"},{"rt":2055.560000007972,"stimulus":"<p>Welche Sequenz haben Sie als natürlicher empfunden?</p>","key_press":70,"trial_type":"html-keyboard-response","trial_index":5,"time_elapsed":41217,"internal_node_id":"0.0-6.0","subject":"eqch7dap9b1qkdn","sona":"9727"},{"rt":6137.320000038017,"stimulus":"<p>Das Experiment startet nun.</p><p><small>Bitte drücken Sie den Knopf, wenn Sie bereit sind.</small></p>","button_pressed":"0","trial_type":"html-button-response","trial_index":6,"time_elapsed":47362,"internal_node_id":"0.0-7.0","subject":"eqch7dap9b1qkdn","sona":"9727"},{"rt":2435.0800000247546,"stimulus":"<p>Bereit?</p>","key_press":32,"trial_type":"html-keyboard-response","trial_index":7,"time_elapsed":49804,"internal_node_id":"0.0-8.0-0.0","subject":"eqch7dap9b1qkdn","sona":"9727"},{"rt":null,"stimulus":"<div style=\"font-size:60px;\">+</div>","key_press":null,"trial_type":"html-keyboard-response","trial_index":8,"time_elapsed":51817,"internal_node_id":"0.0-8.0-1.0","subject":"eqch7dap9b1qkdn","sona":"9727"},{"trial_type":"turing-test","trial_index":9,"time_elapsed":55506,"internal_node_id":"0.0-8.0-2.0","subject":"eqch7dap9b1qkdn","sona":"9727"},{"rt":1192.6649999804795,"stimulus":"<p>Welche Sequenz haben Sie als natürlicher empfunden?</p>","key_press":74,"test_part":"response","test_stimulus":{"position":1,"left":"bvh/vr_prediction_models/model(dmp)-dataset(return-bottle-hold)-npsi(30)-hold(4)/final-lines.txt","right":"bvh/return-bottle-hold-training4-lines.txt","att_check":false},"trial_type":"html-keyboard-response","trial_index":10,"time_elapsed":56702,"internal_node_id":"0.0-8.0-3.0","subject":"eqch7dap9b1qkdn","sona":"9727"},{"rt":3254.250000056345,"stimulus":"<p>Bereit?</p>","key_press":32,"trial_type":"html-keyboard-response","trial_index":11,"time_elapsed":59959,"internal_node_id":"0.0-8.0-0.1","subject":"eqch7dap9b1qkdn","sona":"9727"},{"rt":null,"stimulus":"<div style=\"font-size:60px;\">+</div>","key_press":null,"trial_type":"html-keyboard-response","trial_index":12,"time_elapsed":61961,"internal_node_id":"0.0-8.0-1.1","subject":"eqch7dap9b1qkdn","sona":"9727"},{"trial_type":"turing-test","trial_index":13,"time_elapsed":65578,"internal_node_id":"0.0-8.0-2.1","subject":"eqch7dap9b1qkdn","sona":"9727"},{"rt":2260.8349999645725,"stimulus":"<p>Welche Sequenz haben Sie als natürlicher empfunden?</p>","key_press":70,"test_part":"response","test_stimulus":{"position":0,"left":"bvh/pass-bottle-hold-training3-lines.txt","right":"bvh/vr_prediction_models/model(vcgpdm)-dataset(pass-bottle-hold)-mode(ELBO)-parts(3)-dyn(10)-lvm(30)-hold(3)/final-lines.txt","att_check":false},"trial_type":"html-keyboard-response","trial_index":14,"time_elapsed":67850,"internal_node_id":"0.0-8.0-3.1","subject":"eqch7dap9b1qkdn","sona":"9727"},{"rt":489.0500000328757,"stimulus":"<p>Bereit?</p>","key_press":32,"trial_type":"html-keyboard-response","trial_index":15,"time_elapsed":68345,"internal_node_id":"0.0-8.0-0.2","subject":"eqch7dap9b1qkdn","sona":"9727"},{"rt":null,"stimulus":"<div style=\"font-size:60px;\">+</div>","key_press":null,"trial_type":"html-keyboard-response","trial_index":16,"time_elapsed":70348,"internal_node_id":"0.0-8.0-1.2","subject":"eqch7dap9b1qkdn","sona":"9727"},{"trial_type":"turing-test","trial_index":17,"time_elapsed":76061,"internal_node_id":"0.0-8.0-2.2","subject":"eqch7dap9b1qkdn","sona":"9727"},{"rt":683.7999999988824,"stimulus":"<p>Welche Sequenz haben Sie als natürlicher empfunden?</p>","key_press":70,"test_part":"response","test_stimulus":{"position":0,"left":"bvh/pass-bottle-training4-lines.txt","right":"bvh/vr_prediction_models/model(dmp)-dataset(pass-bottle)-npsi(10)-hold(4)/final-lines.txt","att_check":false},"trial_type":"html-keyboard-response","trial_index":18,"time_elapsed":76750,"internal_node_id":"0.0-8.0-3.2","subject":"eqch7dap9b1qkdn","sona":"9727"},{"rt":832.8650000039488,"stimulus":"<p>Bereit?</p>","key_press":32,"trial_type":"html-keyboard-response","trial_index":19,"time_elapsed":77586,"internal_node_id":"0.0-8.0-0.3","subject":"eqch7dap9b1qkdn","sona":"9727"},{"rt":null,"stimulus":"<div style=\"font-size:60px;\">+</div>","key_press":null,"trial_type":"html-keyboard-response","trial_index":20,"time_elapsed":79589,"internal_node_id":"0.0-8.0-1.3","subject":"eqch7dap9b1qkdn","sona":"9727"},{"trial_type":"turing-test","trial_index":21,"time_elapsed":82868,"internal_node_id":"0.0-8.0-2.3","subject":"eqch7dap9b1qkdn","sona":"9727"},{"rt":1398.784999968484,"stimulus":"<p>Welche Sequenz haben Sie als natürlicher empfunden?</p>","key_press":74,"test_part":"response","test_stimulus":{"position":1,"left":"bvh/vr_prediction_models/model(vcgpdm)-dataset(pass-bottle-hold)-mode(ELBO)-parts(1)-dyn(20)-lvm(30)-hold(1)/final-lines.txt","right":"bvh/pass-bottle-hold-training1-lines.txt","att_check":false},"trial_type":"html-keyboard-response","trial_index":22,"time_elapsed":84284,"internal_node_id":"0.0-8.0-3.3","subject":"eqch7dap9b1qkdn","sona":"9727"},{"rt":608.3550000330433,"stimulus":"<p>Bereit?</p>","key_press":32,"trial_type":"html-keyboard-response","trial_index":23,"time_elapsed":84897,"internal_node_id":"0.0-8.0-0.4","subject":"eqch7dap9b1qkdn","sona":"9727"},{"rt":null,"stimulus":"<div style=\"font-size:60px;\">+</div>","key_press":null,"trial_type":"html-keyboard-response","trial_index":24,"time_elapsed":86902,"internal_node_id":"0.0-8.0-1.4","subject":"eqch7dap9b1qkdn","sona":"9727"},{"trial_type":"turing-test","trial_index":25,"time_elapsed":92711,"internal_node_id":"0.0-8.0-2.4","subject":"eqch7dap9b1qkdn","sona":"9727"},{"rt":1066.385000012815,"stimulus":"<p>Welche Sequenz haben Sie als natürlicher empfunden?</p>","key_press":70,"test_part":"response","test_stimulus":{"position":1,"left":"bvh/vr_prediction_models/model(tmp)-dataset(pass-bottle)-numprim(9)-hold(3)/final-lines.txt","right":"bvh/pass-bottle-training3-lines.txt","att_check":false},"trial_type":"html-keyboard-response","trial_index":26,"time_elapsed":93781,"internal_node_id":"0.0-8.0-3.4","subject":"eqch7dap9b1qkdn","sona":"9727"},{"rt":341.7450000415556,"stimulus":"<p>Bereit?</p>","key_press":32,"trial_type":"html-keyboard-response","trial_index":27,"time_elapsed":94127,"internal_node_id":"0.0-8.0-0.5","subject":"eqch7dap9b1qkdn","sona":"9727"},{"rt":null,"stimulus":"<div style=\"font-size:60px;\">+</div>","key_press":null,"trial_type":"html-keyboard-response","trial_index":28,"time_elapsed":96130,"internal_node_id":"0.0-8.0-1.5","subject":"eqch7dap9b1qkdn","sona":"9727"},{"trial_type":"turing-test","trial_index":29,"time_elapsed":102268,"internal_node_id":"0.0-8.0-2.5","subject":"eqch7dap9b1qkdn","sona":"9727"},{"rt":1478.9849999942817,"stimulus":"<p>Welche Sequenz haben Sie als natürlicher empfunden?</p>","key_press":70,"test_part":"response","test_stimulus":{"position":0,"left":"bvh/return-bottle-training1-lines.txt","right":"bvh/vr_prediction_models/model(vcgpdm)-dataset(return-bottle)-mode(ELBO)-parts(1)-dyn(10)-lvm(5)-hold(1)/final-lines.txt","att_check":false},"trial_type":"html-keyboard-response","trial_index":30,"time_elapsed":103757,"internal_node_id":"0.0-8.0-3.5","subject":"eqch7dap9b1qkdn","sona":"9727"},{"rt":434.23499999335036,"stimulus":"<p>Bereit?</p>","key_press":32,"trial_type":"html-keyboard-response","trial_index":31,"time_elapsed":104195,"internal_node_id":"0.0-8.0-0.6","subject":"eqch7dap9b1qkdn","sona":"9727"},{"rt":null,"stimulus":"<div style=\"font-size:60px;\">+</div>","key_press":null,"trial_type":"html-keyboard-response","trial_index":32,"time_elapsed":106197,"internal_node_id":"0.0-8.0-1.6","subject":"eqch7dap9b1qkdn","sona":"9727"},{"trial_type":"turing-test","trial_index":33,"time_elapsed":109503,"internal_node_id":"0.0-8.0-2.6","subject":"eqch7dap9b1qkdn","sona":"9727"},{"rt":919.3349999841303,"stimulus":"<p>Welche Sequenz haben Sie als natürlicher empfunden?</p>","key_press":74,"test_part":"response","test_stimulus":{"position":1,"left":"bvh/vr_prediction_models/model(tmp)-dataset(return-bottle-hold)-numprim(13)-hold(1)/final-lines.txt","right":"bvh/return-bottle-hold-training1-lines.txt","att_check":false},"trial_type":"html-keyboard-response","trial_index":34,"time_elapsed":110429,"internal_node_id":"0.0-8.0-3.6","subject":"eqch7dap9b1qkdn","sona":"9727"},{"rt":380.30499999877065,"stimulus":"<p>Bereit?</p>","key_press":32,"trial_type":"html-keyboard-response","trial_index":35,"time_elapsed":110816,"internal_node_id":"0.0-8.0-0.7","subject":"eqch7dap9b1qkdn","sona":"9727"},{"rt":null,"stimulus":"<div style=\"font-size:60px;\">+</div>","key_press":null,"trial_type":"html-keyboard-response","trial_index":36,"time_elapsed":112820,"internal_node_id":"0.0-8.0-1.7","subject":"eqch7dap9b1qkdn","sona":"9727"},{"trial_type":"turing-test","trial_index":37,"time_elapsed":118252,"internal_node_id":"0.0-8.0-2.7","subject":"eqch7dap9b1qkdn","sona":"9727"},{"rt":740.5000000144355,"stimulus":"<p>Welche Sequenz haben Sie als natürlicher empfunden?</p>","key_press":70,"test_part":"response","test_stimulus":{"position":0,"left":"bvh/return-bottle-training0-lines.txt","right":"bvh/vr_prediction_models/model(vcgpdm)-dataset(return-bottle)-mode(ELBO)-parts(1)-dyn(30)-lvm(30)-hold(0)/final-lines.txt","att_check":false},"trial_type":"html-keyboard-response","trial_index":38,"time_elapsed":119002,"internal_node_id":"0.0-8.0-3.7","subject":"eqch7dap9b1qkdn","sona":"9727"},{"rt":331.15499996347353,"stimulus":"<p>Bereit?</p>","key_press":32,"trial_type":"html-keyboard-response","trial_index":39,"time_elapsed":119342,"internal_node_id":"0.0-8.0-0.8","subject":"eqch7dap9b1qkdn","sona":"9727"},{"rt":null,"stimulus":"<div style=\"font-size:60px;\">+</div>","key_press":null,"trial_type":"html-keyboard-response","trial_index":40,"time_elapsed":121346,"internal_node_id":"0.0-8.0-1.8","subject":"eqch7dap9b1qkdn","sona":"9727"},{"trial_type":"turing-test","trial_index":41,"time_elapsed":124955,"internal_node_id":"0.0-8.0-2.8","subject":"eqch7dap9b1qkdn","sona":"9727"},{"rt":1551.4349999721162,"stimulus":"<p>Welche Sequenz haben Sie als natürlicher empfunden?</p>","key_press":74,"test_part":"response","test_stimulus":{"position":1,"left":"bvh/vr_prediction_models/model(dmp)-dataset(return-bottle-hold)-npsi(80)-hold(3)/final-lines.txt","right":"bvh/return-bottle-hold-training3-lines.txt","att_check":false},"trial_type":"html-keyboard-response","trial_index":42,"time_elapsed":126513,"internal_node_id":"0.0-8.0-3.8","subject":"eqch7dap9b1qkdn","sona":"9727"},{"rt":321.57500000903383,"stimulus":"<p>Bereit?</p>","key_press":32,"trial_type":"html-keyboard-response","trial_index":43,"time_elapsed":126836,"internal_node_id":"0.0-8.0-0.9","subject":"eqch7dap9b1qkdn","sona":"9727"},{"rt":null,"stimulus":"<div style=\"font-size:60px;\">+</div>","key_press":null,"trial_type":"html-keyboard-response","trial_index":44,"time_elapsed":128841,"internal_node_id":"0.0-8.0-1.9","subject":"eqch7dap9b1qkdn","sona":"9727"},{"trial_type":"turing-test","trial_index":45,"time_elapsed":132203,"internal_node_id":"0.0-8.0-2.9","subject":"eqch7dap9b1qkdn","sona":"9727"},{"rt":429.0049999835901,"stimulus":"<p>Welche Sequenz haben Sie als natürlicher empfunden?</p>","key_press":70,"test_part":"response","test_stimulus":{"position":1,"left":"bvh/vr_prediction_models/model(vcgpdm)-dataset(pass-bottle-hold)-mode(ELBO)-parts(1)-dyn(20)-lvm(30)-hold(0)/final-lines.txt","right":"bvh/pass-bottle-hold-training0-lines.txt","att_check":false},"trial_type":"html-keyboard-response","trial_index":46,"time_elapsed":132638,"internal_node_id":"0.0-8.0-3.9","subject":"eqch7dap9b1qkdn","sona":"9727"},{"rt":340.1700000395067,"stimulus":"<p>Bereit?</p>","key_press":32,"trial_type":"html-keyboard-response","trial_index":47,"time_elapsed":132983,"internal_node_id":"0.0-8.0-0.10","subject":"eqch7dap9b1qkdn","sona":"9727"},{"rt":null,"stimulus":"<div style=\"font-size:60px;\">+</div>","key_press":null,"trial_type":"html-keyboard-response","trial_index":48,"time_elapsed":134986,"internal_node_id":"0.0-8.0-1.10","subject":"eqch7dap9b1qkdn","sona":"9727"},{"trial_type":"turing-test","trial_index":49,"time_elapsed":140987,"internal_node_id":"0.0-8.0-2.10","subject":"eqch7dap9b1qkdn","sona":"9727"},{"rt":545.7549999700859,"stimulus":"<p>Welche Sequenz haben Sie als natürlicher empfunden?</p>","key_press":74,"test_part":"response","test_stimulus":{"position":1,"left":"bvh/vr_prediction_models/model(tmp)-dataset(return-bottle)-numprim(6)-hold(1)/final-lines.txt","right":"bvh/return-bottle-training1-lines.txt","att_check":false},"trial_type":"html-keyboard-response","trial_index":50,"time_elapsed":141536,"internal_node_id":"0.0-8.0-3.10","subject":"eqch7dap9b1qkdn","sona":"9727"},{"rt":320.5150000285357,"stimulus":"<p>Bereit?</p>","key_press":32,"trial_type":"html-keyboard-response","trial_index":51,"time_elapsed":141861,"internal_node_id":"0.0-8.0-0.11","subject":"eqch7dap9b1qkdn","sona":"9727"},{"rt":null,"stimulus":"<div style=\"font-size:60px;\">+</div>","key_press":null,"trial_type":"html-keyboard-response","trial_index":52,"time_elapsed":143863,"internal_node_id":"0.0-8.0-1.11","subject":"eqch7dap9b1qkdn","sona":"9727"}]