[{"rt":2499,"stimulus":"<p>Welcome!<br> Please choose your language to start the experiment in the chosen language.</p><p>Willkommen!<br> Bitte wählen Sie eine Sprache, um das Experiment in der ausgewählten Sprache zu starten</p>","button_pressed":"1","trial_type":"html-button-response","trial_index":0,"time_elapsed":2514,"internal_node_id":"0.0-0.0","subject":"3e1aqjask0lhh65","sona":"9487"},{"view_history":"[{\"page_index\":0,\"viewing_time\":3751},{\"page_index\":1,\"viewing_time\":2659},{\"page_index\":2,\"viewing_time\":2940},{\"page_index\":3,\"viewing_time\":2580},{\"page_index\":4,\"viewing_time\":2970}]","rt":14902,"trial_type":"instructions","trial_index":1,"time_elapsed":17424,"internal_node_id":"0.0-1.0-0.0","subject":"3e1aqjask0lhh65","sona":"9487"},{"rt":1741,"stimulus":"<p>Bereit?</p>","key_press":32,"trial_type":"html-keyboard-response","trial_index":2,"time_elapsed":19174,"internal_node_id":"0.0-3.0","subject":"3e1aqjask0lhh65","sona":"9487"},{"rt":null,"stimulus":"<div style=\"font-size:60px;\">+</div>","key_press":null,"trial_type":"html-keyboard-response","trial_index":3,"time_elapsed":21198,"internal_node_id":"0.0-4.0","subject":"3e1aqjask0lhh65","sona":"9487"},{"trial_type":"training","trial_index":4,"time_elapsed":24689,"internal_node_id":"0.0-5.0","subject":"3e1aqjask0lhh65","sona":"9487"},{"rt":884,"stimulus":"<p>Welche Sequenz haben Sie als natürlicher empfunden?</p>","key_press":70,"trial_type":"html-keyboard-response","trial_index":5,"time_elapsed":25577,"internal_node_id":"0.0-6.0","subject":"3e1aqjask0lhh65","sona":"9487"},{"rt":2002,"stimulus":"<p>Das Experiment startet nun.</p><p><small>Bitte drücken Sie den Knopf, wenn Sie bereit sind.</small></p>","button_pressed":"0","trial_type":"html-button-response","trial_index":6,"time_elapsed":27583,"internal_node_id":"0.0-7.0","subject":"3e1aqjask0lhh65","sona":"9487"},{"rt":1805,"stimulus":"<p>Bereit?</p>","key_press":32,"trial_type":"html-keyboard-response","trial_index":7,"time_elapsed":29397,"internal_node_id":"0.0-8.0-0.0","subject":"3e1aqjask0lhh65","sona":"9487"},{"rt":null,"stimulus":"<div style=\"font-size:60px;\">+</div>","key_press":null,"trial_type":"html-keyboard-response","trial_index":8,"time_elapsed":31420,"internal_node_id":"0.0-8.0-1.0","subject":"3e1aqjask0lhh65","sona":"9487"},{"trial_type":"turing-test","trial_index":9,"time_elapsed":35007,"internal_node_id":"0.0-8.0-2.0","subject":"3e1aqjask0lhh65","sona":"9487"},{"rt":886,"stimulus":"<p>Welche Sequenz haben Sie als natürlicher empfunden?</p>","key_press":70,"test_part":"response","test_stimulus":{"position":1,"left":"bvh/vr_prediction_models/model(vcgpdm)-dataset(return-bottle-hold)-mode(ELBO)-parts(1)-dyn(35)-lvm(10)-hold(1)/final-lines.txt","right":"bvh/return-bottle-hold-training1-lines.txt","att_check":false},"trial_type":"html-keyboard-response","trial_index":10,"time_elapsed":35899,"internal_node_id":"0.0-8.0-3.0","subject":"3e1aqjask0lhh65","sona":"9487"},{"rt":1111,"stimulus":"<p>Bereit?</p>","key_press":32,"trial_type":"html-keyboard-response","trial_index":11,"time_elapsed":37015,"internal_node_id":"0.0-8.0-0.1","subject":"3e1aqjask0lhh65","sona":"9487"},{"rt":null,"stimulus":"<div style=\"font-size:60px;\">+</div>","key_press":null,"trial_type":"html-keyboard-response","trial_index":12,"time_elapsed":39046,"internal_node_id":"0.0-8.0-1.1","subject":"3e1aqjask0lhh65","sona":"9487"},{"trial_type":"turing-test","trial_index":13,"time_elapsed":44980,"internal_node_id":"0.0-8.0-2.1","subject":"3e1aqjask0lhh65","sona":"9487"},{"rt":398,"stimulus":"<p>Welche Sequenz haben Sie als natürlicher empfunden?</p>","key_press":74,"test_part":"response","test_stimulus":{"position":1,"left":"bvh/vr_prediction_models/model(vcgpdm)-dataset(pass-bottle)-mode(ELBO)-parts(3)-dyn(10)-lvm(30)-hold(4)/final-lines.txt","right":"bvh/pass-bottle-training4-lines.txt","att_check":false},"trial_type":"html-keyboard-response","trial_index":14,"time_elapsed":45383,"internal_node_id":"0.0-8.0-3.1","subject":"3e1aqjask0lhh65","sona":"9487"},{"rt":873,"stimulus":"<p>Bereit?</p>","key_press":32,"trial_type":"html-keyboard-response","trial_index":15,"time_elapsed":46258,"internal_node_id":"0.0-8.0-0.2","subject":"3e1aqjask0lhh65","sona":"9487"},{"rt":null,"stimulus":"<div style=\"font-size:60px;\">+</div>","key_press":null,"trial_type":"html-keyboard-response","trial_index":16,"time_elapsed":48271,"internal_node_id":"0.0-8.0-1.2","subject":"3e1aqjask0lhh65","sona":"9487"},{"trial_type":"turing-test","trial_index":17,"time_elapsed":54543,"internal_node_id":"0.0-8.0-2.2","subject":"3e1aqjask0lhh65","sona":"9487"},{"rt":604,"stimulus":"<p>Welche Sequenz haben Sie als natürlicher empfunden?</p>","key_press":74,"test_part":"response","test_stimulus":{"position":0,"left":"bvh/return-bottle-training1-lines.txt","right":"bvh/vr_prediction_models/model(vcgpdm)-dataset(return-bottle)-mode(ELBO)-parts(1)-dyn(10)-lvm(5)-hold(1)/final-lines.txt","att_check":false},"trial_type":"html-keyboard-response","trial_index":18,"time_elapsed":55151,"internal_node_id":"0.0-8.0-3.2","subject":"3e1aqjask0lhh65","sona":"9487"},{"rt":458,"stimulus":"<p>Bereit?</p>","key_press":32,"trial_type":"html-keyboard-response","trial_index":19,"time_elapsed":55613,"internal_node_id":"0.0-8.0-0.3","subject":"3e1aqjask0lhh65","sona":"9487"},{"rt":null,"stimulus":"<div style=\"font-size:60px;\">+</div>","key_press":null,"trial_type":"html-keyboard-response","trial_index":20,"time_elapsed":57642,"internal_node_id":"0.0-8.0-1.3","subject":"3e1aqjask0lhh65","sona":"9487"}]