[{"rt":1261,"stimulus":"<p>Welcome!<br> Please choose your language to start the experiment in the chosen language.</p><p>Willkommen!<br> Bitte wählen Sie eine Sprache, um das Experiment in der ausgewählten Sprache zu starten</p>","button_pressed":"1","trial_type":"html-button-response","trial_index":0,"time_elapsed":1271,"internal_node_id":"0.0-0.0","subject":"88ycu8t5y8tzz7w","sona":"9265"},{"view_history":"[{\"page_index\":0,\"viewing_time\":975},{\"page_index\":1,\"viewing_time\":969},{\"page_index\":2,\"viewing_time\":752},{\"page_index\":3,\"viewing_time\":776},{\"page_index\":4,\"viewing_time\":1024}]","rt":4497,"trial_type":"instructions","trial_index":1,"time_elapsed":5770,"internal_node_id":"0.0-1.0-0.0","subject":"88ycu8t5y8tzz7w","sona":"9265"},{"rt":1165,"stimulus":"<p>Bereit?</p>","key_press":32,"trial_type":"html-keyboard-response","trial_index":2,"time_elapsed":6936,"internal_node_id":"0.0-3.0","subject":"88ycu8t5y8tzz7w","sona":"9265"},{"rt":null,"stimulus":"<div style=\"font-size:60px;\">+</div>","key_press":null,"trial_type":"html-keyboard-response","trial_index":3,"time_elapsed":8960,"internal_node_id":"0.0-4.0","subject":"88ycu8t5y8tzz7w","sona":"9265"},{"trial_type":"training","trial_index":4,"time_elapsed":12244,"internal_node_id":"0.0-5.0","subject":"88ycu8t5y8tzz7w","sona":"9265"},{"rt":326,"stimulus":"<p>Welche Sequenz haben Sie als natürlicher empfunden?</p>","key_press":70,"trial_type":"html-keyboard-response","trial_index":5,"time_elapsed":12572,"internal_node_id":"0.0-6.0","subject":"88ycu8t5y8tzz7w","sona":"9265"},{"rt":15720,"stimulus":"<p>Das Experiment startet nun.</p><p><small>Bitte drücken Sie den Knopf, wenn Sie bereit sind.</small></p>","button_pressed":"0","trial_type":"html-button-response","trial_index":6,"time_elapsed":28292,"internal_node_id":"0.0-7.0","subject":"88ycu8t5y8tzz7w","sona":"9265"},{"rt":1533,"stimulus":"<p>Bereit?</p>","key_press":32,"trial_type":"html-keyboard-response","trial_index":7,"time_elapsed":29827,"internal_node_id":"0.0-8.0-0.0","subject":"88ycu8t5y8tzz7w","sona":"9265"},{"rt":null,"stimulus":"<div style=\"font-size:60px;\">+</div>","key_press":null,"trial_type":"html-keyboard-response","trial_index":8,"time_elapsed":31833,"internal_node_id":"0.0-8.0-1.0","subject":"88ycu8t5y8tzz7w","sona":"9265"},{"trial_type":"turing-test","trial_index":9,"time_elapsed":37834,"internal_node_id":"0.0-8.0-2.0","subject":"88ycu8t5y8tzz7w","sona":"9265"},{"rt":962,"stimulus":"<p>Welche Sequenz haben Sie als natürlicher empfunden?</p>","key_press":70,"test_part":"response","test_stimulus":{"position":0,"left":"bvh/pass-bottle-training2-lines.txt","right":"bvh/vr_prediction_models/model(tmp)-dataset(pass-bottle)-numprim(3)-hold(2)/final-lines.txt","att_check":false},"trial_type":"html-keyboard-response","trial_index":10,"time_elapsed":38798,"internal_node_id":"0.0-8.0-3.0","subject":"88ycu8t5y8tzz7w","sona":"9265"},{"rt":542,"stimulus":"<p>Bereit?</p>","key_press":32,"trial_type":"html-keyboard-response","trial_index":11,"time_elapsed":39342,"internal_node_id":"0.0-8.0-0.1","subject":"88ycu8t5y8tzz7w","sona":"9265"},{"rt":null,"stimulus":"<div style=\"font-size:60px;\">+</div>","key_press":null,"trial_type":"html-keyboard-response","trial_index":12,"time_elapsed":41348,"internal_node_id":"0.0-8.0-1.1","subject":"88ycu8t5y8tzz7w","sona":"9265"},{"trial_type":"turing-test","trial_index":13,"time_elapsed":44626,"internal_node_id":"0.0-8.0-2.1","subject":"88ycu8t5y8tzz7w","sona":"9265"},{"rt":229,"stimulus":"<p>Welche Sequenz haben Sie als natürlicher empfunden?</p>","key_press":70,"test_part":"response","test_stimulus":{"position":0,"left":"bvh/pass-bottle-hold-training1-lines.txt","right":"bvh/vr_prediction_models/model(vcgpdm)-dataset(pass-bottle-hold)-mode(ELBO)-parts(1)-dyn(30)-lvm(35)-hold(1)/final-lines.txt","att_check":false},"trial_type":"html-keyboard-response","trial_index":14,"time_elapsed":44857,"internal_node_id":"0.0-8.0-3.1","subject":"88ycu8t5y8tzz7w","sona":"9265"},{"rt":450,"stimulus":"<p>Bereit?</p>","key_press":32,"trial_type":"html-keyboard-response","trial_index":15,"time_elapsed":45309,"internal_node_id":"0.0-8.0-0.2","subject":"88ycu8t5y8tzz7w","sona":"9265"},{"rt":null,"stimulus":"<div style=\"font-size:60px;\">+</div>","key_press":null,"trial_type":"html-keyboard-response","trial_index":16,"time_elapsed":47326,"internal_node_id":"0.0-8.0-1.2","subject":"88ycu8t5y8tzz7w","sona":"9265"},{"trial_type":"turing-test","trial_index":17,"time_elapsed":50763,"internal_node_id":"0.0-8.0-2.2","subject":"88ycu8t5y8tzz7w","sona":"9265"},{"rt":413,"stimulus":"<p>Welche Sequenz haben Sie als natürlicher empfunden?</p>","key_press":74,"test_part":"response","test_stimulus":{"position":1,"left":"bvh/vr_prediction_models/model(dmp)-dataset(return-bottle-hold)-npsi(100)-hold(2)/final-lines.txt","right":"bvh/return-bottle-hold-training2-lines.txt","att_check":false},"trial_type":"html-keyboard-response","trial_index":18,"time_elapsed":51179,"internal_node_id":"0.0-8.0-3.2","subject":"88ycu8t5y8tzz7w","sona":"9265"},{"rt":279,"stimulus":"<p>Bereit?</p>","key_press":32,"trial_type":"html-keyboard-response","trial_index":19,"time_elapsed":51459,"internal_node_id":"0.0-8.0-0.3","subject":"88ycu8t5y8tzz7w","sona":"9265"},{"rt":null,"stimulus":"<div style=\"font-size:60px;\">+</div>","key_press":null,"trial_type":"html-keyboard-response","trial_index":20,"time_elapsed":53470,"internal_node_id":"0.0-8.0-1.3","subject":"88ycu8t5y8tzz7w","sona":"9265"},{"trial_type":"turing-test","trial_index":21,"time_elapsed":58880,"internal_node_id":"0.0-8.0-2.3","subject":"88ycu8t5y8tzz7w","sona":"9265"},{"rt":348,"stimulus":"<p>Welche Sequenz haben Sie als natürlicher empfunden?</p>","key_press":74,"test_part":"response","test_stimulus":{"position":0,"left":"bvh/pass-bottle-training1-lines.txt","right":"bvh/vr_prediction_models/model(tmp)-dataset(pass-bottle)-numprim(4)-hold(1)/final-lines.txt","att_check":false},"trial_type":"html-keyboard-response","trial_index":22,"time_elapsed":59230,"internal_node_id":"0.0-8.0-3.3","subject":"88ycu8t5y8tzz7w","sona":"9265"},{"rt":100,"stimulus":"<p>Bereit?</p>","key_press":32,"trial_type":"html-keyboard-response","trial_index":23,"time_elapsed":59331,"internal_node_id":"0.0-8.0-0.4","subject":"88ycu8t5y8tzz7w","sona":"9265"},{"rt":null,"stimulus":"<div style=\"font-size:60px;\">+</div>","key_press":null,"trial_type":"html-keyboard-response","trial_index":24,"time_elapsed":61345,"internal_node_id":"0.0-8.0-1.4","subject":"88ycu8t5y8tzz7w","sona":"9265"},{"trial_type":"turing-test","trial_index":25,"time_elapsed":66845,"internal_node_id":"0.0-8.0-2.4","subject":"88ycu8t5y8tzz7w","sona":"9265"},{"rt":231,"stimulus":"<p>Welche Sequenz haben Sie als natürlicher empfunden?</p>","key_press":74,"test_part":"response","test_stimulus":{"position":0,"left":"bvh/pass-bottle-training1-lines.txt","right":"bvh/vr_prediction_models/model(vcgpdm)-dataset(pass-bottle)-mode(ELBO)-parts(3)-dyn(20)-lvm(15)-hold(1)/final-lines.txt","att_check":false},"trial_type":"html-keyboard-response","trial_index":26,"time_elapsed":67078,"internal_node_id":"0.0-8.0-3.4","subject":"88ycu8t5y8tzz7w","sona":"9265"},{"rt":150,"stimulus":"<p>Bereit?</p>","key_press":32,"trial_type":"html-keyboard-response","trial_index":27,"time_elapsed":67228,"internal_node_id":"0.0-8.0-0.5","subject":"88ycu8t5y8tzz7w","sona":"9265"},{"rt":null,"stimulus":"<div style=\"font-size:60px;\">+</div>","key_press":null,"trial_type":"html-keyboard-response","trial_index":28,"time_elapsed":69248,"internal_node_id":"0.0-8.0-1.5","subject":"88ycu8t5y8tzz7w","sona":"9265"},{"trial_type":"turing-test","trial_index":29,"time_elapsed":75794,"internal_node_id":"0.0-8.0-2.5","subject":"88ycu8t5y8tzz7w","sona":"9265"},{"rt":414,"stimulus":"<p>Welche Sequenz haben Sie als natürlicher empfunden?</p>","key_press":74,"test_part":"response","test_stimulus":{"position":1,"left":"bvh/vr_prediction_models/model(dmp)-dataset(return-bottle)-npsi(30)-hold(2)/final-lines.txt","right":"bvh/return-bottle-training2-lines.txt","att_check":false},"trial_type":"html-keyboard-response","trial_index":30,"time_elapsed":76210,"internal_node_id":"0.0-8.0-3.5","subject":"88ycu8t5y8tzz7w","sona":"9265"},{"rt":95,"stimulus":"<p>Bereit?</p>","key_press":32,"trial_type":"html-keyboard-response","trial_index":31,"time_elapsed":76305,"internal_node_id":"0.0-8.0-0.6","subject":"88ycu8t5y8tzz7w","sona":"9265"},{"rt":null,"stimulus":"<div style=\"font-size:60px;\">+</div>","key_press":null,"trial_type":"html-keyboard-response","trial_index":32,"time_elapsed":78332,"internal_node_id":"0.0-8.0-1.6","subject":"88ycu8t5y8tzz7w","sona":"9265"},{"trial_type":"turing-test","trial_index":33,"time_elapsed":83824,"internal_node_id":"0.0-8.0-2.6","subject":"88ycu8t5y8tzz7w","sona":"9265"},{"rt":283,"stimulus":"<p>Welche Sequenz haben Sie als natürlicher empfunden?</p>","key_press":74,"test_part":"response","test_stimulus":{"position":0,"left":"bvh/return-bottle-training0-lines.txt","right":"bvh/vr_prediction_models/model(vcgpdm)-dataset(return-bottle)-mode(ELBO)-parts(3)-dyn(35)-lvm(20)-hold(0)/final-lines.txt","att_check":false},"trial_type":"html-keyboard-response","trial_index":34,"time_elapsed":84107,"internal_node_id":"0.0-8.0-3.6","subject":"88ycu8t5y8tzz7w","sona":"9265"},{"rt":53,"stimulus":"<p>Bereit?</p>","key_press":32,"trial_type":"html-keyboard-response","trial_index":35,"time_elapsed":84162,"internal_node_id":"0.0-8.0-0.7","subject":"88ycu8t5y8tzz7w","sona":"9265"},{"rt":null,"stimulus":"<div style=\"font-size:60px;\">+</div>","key_press":null,"trial_type":"html-keyboard-response","trial_index":36,"time_elapsed":86185,"internal_node_id":"0.0-8.0-1.7","subject":"88ycu8t5y8tzz7w","sona":"9265"},{"trial_type":"turing-test","trial_index":37,"time_elapsed":92238,"internal_node_id":"0.0-8.0-2.7","subject":"88ycu8t5y8tzz7w","sona":"9265"},{"rt":268,"stimulus":"<p>Welche Sequenz haben Sie als natürlicher empfunden?</p>","key_press":70,"test_part":"response","test_stimulus":{"position":0,"left":"bvh/return-bottle-training1-lines.txt","right":"bvh/vr_prediction_models/model(tmp)-dataset(return-bottle)-numprim(11)-hold(1)/final-lines.txt","att_check":false},"trial_type":"html-keyboard-response","trial_index":38,"time_elapsed":92507,"internal_node_id":"0.0-8.0-3.7","subject":"88ycu8t5y8tzz7w","sona":"9265"},{"rt":184,"stimulus":"<p>Bereit?</p>","key_press":32,"trial_type":"html-keyboard-response","trial_index":39,"time_elapsed":92692,"internal_node_id":"0.0-8.0-0.8","subject":"88ycu8t5y8tzz7w","sona":"9265"},{"rt":null,"stimulus":"<div style=\"font-size:60px;\">+</div>","key_press":null,"trial_type":"html-keyboard-response","trial_index":40,"time_elapsed":94699,"internal_node_id":"0.0-8.0-1.8","subject":"88ycu8t5y8tzz7w","sona":"9265"},{"trial_type":"turing-test","trial_index":41,"time_elapsed":100089,"internal_node_id":"0.0-8.0-2.8","subject":"88ycu8t5y8tzz7w","sona":"9265"},{"rt":308,"stimulus":"<p>Welche Sequenz haben Sie als natürlicher empfunden?</p>","key_press":74,"test_part":"response","test_stimulus":{"position":1,"left":"bvh/vr_prediction_models/model(tmp)-dataset(return-bottle)-numprim(9)-hold(0)/final-lines.txt","right":"bvh/return-bottle-training0-lines.txt","att_check":false},"trial_type":"html-keyboard-response","trial_index":42,"time_elapsed":100398,"internal_node_id":"0.0-8.0-3.8","subject":"88ycu8t5y8tzz7w","sona":"9265"},{"rt":135,"stimulus":"<p>Bereit?</p>","key_press":32,"trial_type":"html-keyboard-response","trial_index":43,"time_elapsed":100535,"internal_node_id":"0.0-8.0-0.9","subject":"88ycu8t5y8tzz7w","sona":"9265"},{"rt":null,"stimulus":"<div style=\"font-size:60px;\">+</div>","key_press":null,"trial_type":"html-keyboard-response","trial_index":44,"time_elapsed":102548,"internal_node_id":"0.0-8.0-1.9","subject":"88ycu8t5y8tzz7w","sona":"9265"},{"trial_type":"turing-test","trial_index":45,"time_elapsed":108557,"internal_node_id":"0.0-8.0-2.9","subject":"88ycu8t5y8tzz7w","sona":"9265"},{"rt":571,"stimulus":"<p>Welche Sequenz haben Sie als natürlicher empfunden?</p>","key_press":74,"test_part":"response","test_stimulus":{"position":1,"left":"bvh/vr_prediction_models/model(dmp)-dataset(pass-bottle)-npsi(70)-hold(2)/final-lines.txt","right":"bvh/pass-bottle-training2-lines.txt","att_check":false},"trial_type":"html-keyboard-response","trial_index":46,"time_elapsed":109129,"internal_node_id":"0.0-8.0-3.9","subject":"88ycu8t5y8tzz7w","sona":"9265"},{"rt":98,"stimulus":"<p>Bereit?</p>","key_press":32,"trial_type":"html-keyboard-response","trial_index":47,"time_elapsed":109229,"internal_node_id":"0.0-8.0-0.10","subject":"88ycu8t5y8tzz7w","sona":"9265"},{"rt":null,"stimulus":"<div style=\"font-size:60px;\">+</div>","key_press":null,"trial_type":"html-keyboard-response","trial_index":48,"time_elapsed":111242,"internal_node_id":"0.0-8.0-1.10","subject":"88ycu8t5y8tzz7w","sona":"9265"},{"trial_type":"turing-test","trial_index":49,"time_elapsed":114978,"internal_node_id":"0.0-8.0-2.10","subject":"88ycu8t5y8tzz7w","sona":"9265"},{"rt":303,"stimulus":"<p>Welche Sequenz haben Sie als natürlicher empfunden?</p>","key_press":70,"test_part":"response","test_stimulus":{"position":0,"left":"bvh/return-bottle-hold-training4-lines.txt","right":"bvh/vr_prediction_models/model(dmp)-dataset(return-bottle-hold)-npsi(20)-hold(4)/final-lines.txt","att_check":true},"trial_type":"html-keyboard-response","trial_index":50,"time_elapsed":115284,"internal_node_id":"0.0-8.0-3.10","subject":"88ycu8t5y8tzz7w","sona":"9265"},{"rt":149,"stimulus":"<p>Bereit?</p>","key_press":32,"trial_type":"html-keyboard-response","trial_index":51,"time_elapsed":115435,"internal_node_id":"0.0-8.0-0.11","subject":"88ycu8t5y8tzz7w","sona":"9265"},{"rt":null,"stimulus":"<div style=\"font-size:60px;\">+</div>","key_press":null,"trial_type":"html-keyboard-response","trial_index":52,"time_elapsed":117466,"internal_node_id":"0.0-8.0-1.11","subject":"88ycu8t5y8tzz7w","sona":"9265"},{"trial_type":"turing-test","trial_index":53,"time_elapsed":121103,"internal_node_id":"0.0-8.0-2.11","subject":"88ycu8t5y8tzz7w","sona":"9265"}]