[{"rt":808413.8000000021,"stimulus":"<p>Welcome!<br> Please choose your language to start the experiment in the chosen language.</p><p>Willkommen!<br> Bitte wählen Sie eine Sprache, um das Experiment in der ausgewählten Sprache zu starten</p>","button_pressed":"1","trial_type":"html-button-response","trial_index":0,"time_elapsed":908938,"internal_node_id":"0.0-0.0","subject":"9xkr4hyvdsg002z","sona":"5203"},{"view_history":"[{\"page_index\":0,\"viewing_time\":6175.524999998743},{\"page_index\":1,\"viewing_time\":897.6800000019139},{\"page_index\":2,\"viewing_time\":5279.885000003502},{\"page_index\":3,\"viewing_time\":7236.749999996391},{\"page_index\":4,\"viewing_time\":1229.4949999995297}]","rt":20820.46999999869,"trial_type":"instructions","trial_index":1,"time_elapsed":929760,"internal_node_id":"0.0-1.0-0.0","subject":"9xkr4hyvdsg002z","sona":"5203"},{"rt":1533.6849999949336,"stimulus":"<p>Bereit?</p>","key_press":32,"trial_type":"html-keyboard-response","trial_index":2,"time_elapsed":931296,"internal_node_id":"0.0-3.0","subject":"9xkr4hyvdsg002z","sona":"5203"},{"rt":null,"stimulus":"<div style=\"font-size:60px;\">+</div>","key_press":null,"trial_type":"html-keyboard-response","trial_index":3,"time_elapsed":933298,"internal_node_id":"0.0-4.0","subject":"9xkr4hyvdsg002z","sona":"5203"},{"trial_type":"training","trial_index":4,"time_elapsed":937560,"internal_node_id":"0.0-5.0","subject":"9xkr4hyvdsg002z","sona":"5203"},{"rt":1669.3599999998696,"stimulus":"<p>Welche Sequenz haben Sie als natürlicher empfunden?</p>","key_press":74,"trial_type":"html-keyboard-response","trial_index":5,"time_elapsed":939231,"internal_node_id":"0.0-6.0","subject":"9xkr4hyvdsg002z","sona":"5203"},{"rt":2297.404999997583,"stimulus":"<p>Das Experiment startet nun.</p><p><small>Bitte drücken Sie den Knopf, wenn Sie bereit sind.</small></p>","button_pressed":"0","trial_type":"html-button-response","trial_index":6,"time_elapsed":941530,"internal_node_id":"0.0-7.0","subject":"9xkr4hyvdsg002z","sona":"5203"},{"rt":5157.22000000102,"stimulus":"<p>Bereit?</p>","key_press":32,"trial_type":"html-keyboard-response","trial_index":7,"time_elapsed":946689,"internal_node_id":"0.0-8.0-0.0","subject":"9xkr4hyvdsg002z","sona":"5203"},{"rt":null,"stimulus":"<div style=\"font-size:60px;\">+</div>","key_press":null,"trial_type":"html-keyboard-response","trial_index":8,"time_elapsed":948692,"internal_node_id":"0.0-8.0-1.0","subject":"9xkr4hyvdsg002z","sona":"5203"},{"trial_type":"turing-test","trial_index":9,"time_elapsed":956528,"internal_node_id":"0.0-8.0-2.0","subject":"9xkr4hyvdsg002z","sona":"5203"},{"rt":1825.3699999985984,"stimulus":"<p>Welche Sequenz haben Sie als natürlicher empfunden?</p>","key_press":74,"test_part":"response","test_stimulus":{"position":0,"left":"bvh/return-bottle-training3-lines.txt","right":"bvh/vr_prediction_models/model(dmp)-dataset(return-bottle)-npsi(50)-hold(3)/final-lines.txt","att_check":false},"trial_type":"html-keyboard-response","trial_index":10,"time_elapsed":958356,"internal_node_id":"0.0-8.0-3.0","subject":"9xkr4hyvdsg002z","sona":"5203"},{"rt":1767.570000003674,"stimulus":"<p>Bereit?</p>","key_press":32,"trial_type":"html-keyboard-response","trial_index":11,"time_elapsed":960125,"internal_node_id":"0.0-8.0-0.1","subject":"9xkr4hyvdsg002z","sona":"5203"},{"rt":null,"stimulus":"<div style=\"font-size:60px;\">+</div>","key_press":null,"trial_type":"html-keyboard-response","trial_index":12,"time_elapsed":962128,"internal_node_id":"0.0-8.0-1.1","subject":"9xkr4hyvdsg002z","sona":"5203"},{"trial_type":"turing-test","trial_index":13,"time_elapsed":973994,"internal_node_id":"0.0-8.0-2.1","subject":"9xkr4hyvdsg002z","sona":"5203"},{"rt":3250.5349999992177,"stimulus":"<p>Welche Sequenz haben Sie als natürlicher empfunden?</p>","key_press":74,"test_part":"response","test_stimulus":{"position":0,"left":"bvh/pass-bottle-training4-lines.txt","right":"bvh/vr_prediction_models/model(tmp)-dataset(pass-bottle)-numprim(11)-hold(4)/final-lines.txt","att_check":false},"trial_type":"html-keyboard-response","trial_index":14,"time_elapsed":977248,"internal_node_id":"0.0-8.0-3.1","subject":"9xkr4hyvdsg002z","sona":"5203"},{"rt":1356.90500000061,"stimulus":"<p>Bereit?</p>","key_press":32,"trial_type":"html-keyboard-response","trial_index":15,"time_elapsed":978606,"internal_node_id":"0.0-8.0-0.2","subject":"9xkr4hyvdsg002z","sona":"5203"},{"rt":null,"stimulus":"<div style=\"font-size:60px;\">+</div>","key_press":null,"trial_type":"html-keyboard-response","trial_index":16,"time_elapsed":980609,"internal_node_id":"0.0-8.0-1.2","subject":"9xkr4hyvdsg002z","sona":"5203"},{"trial_type":"turing-test","trial_index":17,"time_elapsed":992401,"internal_node_id":"0.0-8.0-2.2","subject":"9xkr4hyvdsg002z","sona":"5203"}]