[{"rt":1579,"stimulus":"<p>Welcome!<br> Please choose your language to start the experiment in the chosen language.</p><p>Willkommen!<br> Bitte wählen Sie eine Sprache, um das Experiment in der ausgewählten Sprache zu starten</p>","button_pressed":"1","trial_type":"html-button-response","trial_index":0,"time_elapsed":1585,"internal_node_id":"0.0-0.0","subject":"rj3z1ztt0dect99","sona":"5917"},{"view_history":"[{\"page_index\":0,\"viewing_time\":1074},{\"page_index\":1,\"viewing_time\":3188},{\"page_index\":2,\"viewing_time\":759},{\"page_index\":3,\"viewing_time\":1788},{\"page_index\":4,\"viewing_time\":1399}]","rt":8209,"trial_type":"instructions","trial_index":1,"time_elapsed":9795,"internal_node_id":"0.0-1.0-0.0","subject":"rj3z1ztt0dect99","sona":"5917"},{"rt":979,"stimulus":"<p>Bereit?</p>","key_press":32,"trial_type":"html-keyboard-response","trial_index":2,"time_elapsed":10776,"internal_node_id":"0.0-3.0","subject":"rj3z1ztt0dect99","sona":"5917"},{"rt":null,"stimulus":"<div style=\"font-size:60px;\">+</div>","key_press":null,"trial_type":"html-keyboard-response","trial_index":3,"time_elapsed":12779,"internal_node_id":"0.0-4.0","subject":"rj3z1ztt0dect99","sona":"5917"},{"trial_type":"training","trial_index":4,"time_elapsed":15977,"internal_node_id":"0.0-5.0","subject":"rj3z1ztt0dect99","sona":"5917"},{"rt":609,"stimulus":"<p>Welche Sequenz haben Sie als natürlicher empfunden?</p>","key_press":74,"trial_type":"html-keyboard-response","trial_index":5,"time_elapsed":16587,"internal_node_id":"0.0-6.0","subject":"rj3z1ztt0dect99","sona":"5917"},{"rt":2943,"stimulus":"<p>Das Experiment startet nun.</p><p><small>Bitte drücken Sie den Knopf, wenn Sie bereit sind.</small></p>","button_pressed":"0","trial_type":"html-button-response","trial_index":6,"time_elapsed":19530,"internal_node_id":"0.0-7.0","subject":"rj3z1ztt0dect99","sona":"5917"},{"rt":1255,"stimulus":"<p>Bereit?</p>","key_press":32,"trial_type":"html-keyboard-response","trial_index":7,"time_elapsed":20787,"internal_node_id":"0.0-8.0-0.0","subject":"rj3z1ztt0dect99","sona":"5917"},{"rt":null,"stimulus":"<div style=\"font-size:60px;\">+</div>","key_press":null,"trial_type":"html-keyboard-response","trial_index":8,"time_elapsed":22791,"internal_node_id":"0.0-8.0-1.0","subject":"rj3z1ztt0dect99","sona":"5917"},{"trial_type":"turing-test","trial_index":9,"time_elapsed":29562,"internal_node_id":"0.0-8.0-2.0","subject":"rj3z1ztt0dect99","sona":"5917"},{"rt":288,"stimulus":"<p>Welche Sequenz haben Sie als natürlicher empfunden?</p>","key_press":74,"test_part":"response","test_stimulus":{"position":0,"left":"bvh/pass-bottle-training0-lines.txt","right":"bvh/vr_prediction_models/model(vcgpdm)-dataset(pass-bottle)-mode(ELBO)-parts(3)-dyn(15)-lvm(30)-hold(0)/final-lines.txt","att_check":false},"trial_type":"html-keyboard-response","trial_index":10,"time_elapsed":29852,"internal_node_id":"0.0-8.0-3.0","subject":"rj3z1ztt0dect99","sona":"5917"},{"rt":201,"stimulus":"<p>Bereit?</p>","key_press":32,"trial_type":"html-keyboard-response","trial_index":11,"time_elapsed":30054,"internal_node_id":"0.0-8.0-0.1","subject":"rj3z1ztt0dect99","sona":"5917"},{"rt":null,"stimulus":"<div style=\"font-size:60px;\">+</div>","key_press":null,"trial_type":"html-keyboard-response","trial_index":12,"time_elapsed":32057,"internal_node_id":"0.0-8.0-1.1","subject":"rj3z1ztt0dect99","sona":"5917"},{"trial_type":"turing-test","trial_index":13,"time_elapsed":35614,"internal_node_id":"0.0-8.0-2.1","subject":"rj3z1ztt0dect99","sona":"5917"},{"rt":1214,"stimulus":"<p>Welche Sequenz haben Sie als natürlicher empfunden?</p>","key_press":70,"test_part":"response","test_stimulus":{"position":1,"left":"bvh/vr_prediction_models/model(tmp)-dataset(return-bottle-hold)-numprim(10)-hold(3)/final-lines.txt","right":"bvh/return-bottle-hold-training3-lines.txt","att_check":false},"trial_type":"html-keyboard-response","trial_index":14,"time_elapsed":36830,"internal_node_id":"0.0-8.0-3.1","subject":"rj3z1ztt0dect99","sona":"5917"},{"rt":285,"stimulus":"<p>Bereit?</p>","key_press":32,"trial_type":"html-keyboard-response","trial_index":15,"time_elapsed":37116,"internal_node_id":"0.0-8.0-0.2","subject":"rj3z1ztt0dect99","sona":"5917"},{"rt":null,"stimulus":"<div style=\"font-size:60px;\">+</div>","key_press":null,"trial_type":"html-keyboard-response","trial_index":16,"time_elapsed":39119,"internal_node_id":"0.0-8.0-1.2","subject":"rj3z1ztt0dect99","sona":"5917"},{"trial_type":"turing-test","trial_index":17,"time_elapsed":45875,"internal_node_id":"0.0-8.0-2.2","subject":"rj3z1ztt0dect99","sona":"5917"},{"rt":628,"stimulus":"<p>Welche Sequenz haben Sie als natürlicher empfunden?</p>","key_press":74,"test_part":"response","test_stimulus":{"position":1,"left":"bvh/vr_prediction_models/model(vcgpdm)-dataset(pass-bottle)-mode(ELBO)-parts(3)-dyn(10)-lvm(30)-hold(0)/final-lines.txt","right":"bvh/pass-bottle-training0-lines.txt","att_check":false},"trial_type":"html-keyboard-response","trial_index":18,"time_elapsed":46505,"internal_node_id":"0.0-8.0-3.2","subject":"rj3z1ztt0dect99","sona":"5917"},{"rt":242,"stimulus":"<p>Bereit?</p>","key_press":32,"trial_type":"html-keyboard-response","trial_index":19,"time_elapsed":46748,"internal_node_id":"0.0-8.0-0.3","subject":"rj3z1ztt0dect99","sona":"5917"},{"rt":null,"stimulus":"<div style=\"font-size:60px;\">+</div>","key_press":null,"trial_type":"html-keyboard-response","trial_index":20,"time_elapsed":48751,"internal_node_id":"0.0-8.0-1.3","subject":"rj3z1ztt0dect99","sona":"5917"},{"trial_type":"turing-test","trial_index":21,"time_elapsed":52195,"internal_node_id":"0.0-8.0-2.3","subject":"rj3z1ztt0dect99","sona":"5917"},{"rt":761,"stimulus":"<p>Welche Sequenz haben Sie als natürlicher empfunden?</p>","key_press":70,"test_part":"response","test_stimulus":{"position":0,"left":"bvh/pass-bottle-hold-training4-lines.txt","right":"bvh/vr_prediction_models/model(tmp)-dataset(pass-bottle-hold)-numprim(6)-hold(4)/final-lines.txt","att_check":false},"trial_type":"html-keyboard-response","trial_index":22,"time_elapsed":52957,"internal_node_id":"0.0-8.0-3.3","subject":"rj3z1ztt0dect99","sona":"5917"},{"rt":188,"stimulus":"<p>Bereit?</p>","key_press":32,"trial_type":"html-keyboard-response","trial_index":23,"time_elapsed":53151,"internal_node_id":"0.0-8.0-0.4","subject":"rj3z1ztt0dect99","sona":"5917"},{"rt":null,"stimulus":"<div style=\"font-size:60px;\">+</div>","key_press":null,"trial_type":"html-keyboard-response","trial_index":24,"time_elapsed":55155,"internal_node_id":"0.0-8.0-1.4","subject":"rj3z1ztt0dect99","sona":"5917"},{"trial_type":"turing-test","trial_index":25,"time_elapsed":58680,"internal_node_id":"0.0-8.0-2.4","subject":"rj3z1ztt0dect99","sona":"5917"},{"rt":673,"stimulus":"<p>Welche Sequenz haben Sie als natürlicher empfunden?</p>","key_press":74,"test_part":"response","test_stimulus":{"position":0,"left":"bvh/return-bottle-hold-training2-lines.txt","right":"bvh/vr_prediction_models/model(vcgpdm)-dataset(return-bottle-hold)-mode(ELBO)-parts(1)-dyn(30)-lvm(35)-hold(2)/final-lines.txt","att_check":false},"trial_type":"html-keyboard-response","trial_index":26,"time_elapsed":59356,"internal_node_id":"0.0-8.0-3.4","subject":"rj3z1ztt0dect99","sona":"5917"},{"rt":298,"stimulus":"<p>Bereit?</p>","key_press":32,"trial_type":"html-keyboard-response","trial_index":27,"time_elapsed":59656,"internal_node_id":"0.0-8.0-0.5","subject":"rj3z1ztt0dect99","sona":"5917"},{"rt":null,"stimulus":"<div style=\"font-size:60px;\">+</div>","key_press":null,"trial_type":"html-keyboard-response","trial_index":28,"time_elapsed":61659,"internal_node_id":"0.0-8.0-1.5","subject":"rj3z1ztt0dect99","sona":"5917"},{"trial_type":"turing-test","trial_index":29,"time_elapsed":67662,"internal_node_id":"0.0-8.0-2.5","subject":"rj3z1ztt0dect99","sona":"5917"},{"rt":368,"stimulus":"<p>Welche Sequenz haben Sie als natürlicher empfunden?</p>","key_press":70,"test_part":"response","test_stimulus":{"position":0,"left":"bvh/return-bottle-training1-lines.txt","right":"bvh/vr_prediction_models/model(dmp)-dataset(return-bottle)-npsi(60)-hold(1)/final-lines.txt","att_check":false},"trial_type":"html-keyboard-response","trial_index":30,"time_elapsed":68032,"internal_node_id":"0.0-8.0-3.5","subject":"rj3z1ztt0dect99","sona":"5917"},{"rt":240,"stimulus":"<p>Bereit?</p>","key_press":32,"trial_type":"html-keyboard-response","trial_index":31,"time_elapsed":68274,"internal_node_id":"0.0-8.0-0.6","subject":"rj3z1ztt0dect99","sona":"5917"},{"rt":null,"stimulus":"<div style=\"font-size:60px;\">+</div>","key_press":null,"trial_type":"html-keyboard-response","trial_index":32,"time_elapsed":70277,"internal_node_id":"0.0-8.0-1.6","subject":"rj3z1ztt0dect99","sona":"5917"},{"trial_type":"turing-test","trial_index":33,"time_elapsed":75237,"internal_node_id":"0.0-8.0-2.6","subject":"rj3z1ztt0dect99","sona":"5917"},{"rt":510,"stimulus":"<p>Welche Sequenz haben Sie als natürlicher empfunden?</p>","key_press":70,"test_part":"response","test_stimulus":{"position":0,"left":"bvh/return-bottle-hold-training0-lines.txt","right":"bvh/vr_prediction_models/model(vcgpdm)-dataset(return-bottle-hold)-mode(ELBO)-parts(3)-dyn(10)-lvm(30)-hold(0)/final-lines.txt","att_check":false},"trial_type":"html-keyboard-response","trial_index":34,"time_elapsed":75750,"internal_node_id":"0.0-8.0-3.6","subject":"rj3z1ztt0dect99","sona":"5917"},{"rt":177.00000000001455,"stimulus":"<p>Bereit?</p>","key_press":32,"trial_type":"html-keyboard-response","trial_index":35,"time_elapsed":75929,"internal_node_id":"0.0-8.0-0.7","subject":"rj3z1ztt0dect99","sona":"5917"},{"rt":null,"stimulus":"<div style=\"font-size:60px;\">+</div>","key_press":null,"trial_type":"html-keyboard-response","trial_index":36,"time_elapsed":77932,"internal_node_id":"0.0-8.0-1.7","subject":"rj3z1ztt0dect99","sona":"5917"},{"trial_type":"turing-test","trial_index":37,"time_elapsed":83939,"internal_node_id":"0.0-8.0-2.7","subject":"rj3z1ztt0dect99","sona":"5917"},{"rt":625,"stimulus":"<p>Welche Sequenz haben Sie als natürlicher empfunden?</p>","key_press":70,"test_part":"response","test_stimulus":{"position":0,"left":"bvh/return-bottle-training1-lines.txt","right":"bvh/vr_prediction_models/model(tmp)-dataset(return-bottle)-numprim(5)-hold(1)/final-lines.txt","att_check":false},"trial_type":"html-keyboard-response","trial_index":38,"time_elapsed":84567,"internal_node_id":"0.0-8.0-3.7","subject":"rj3z1ztt0dect99","sona":"5917"},{"rt":354.99999999998545,"stimulus":"<p>Bereit?</p>","key_press":32,"trial_type":"html-keyboard-response","trial_index":39,"time_elapsed":84924,"internal_node_id":"0.0-8.0-0.8","subject":"rj3z1ztt0dect99","sona":"5917"},{"rt":null,"stimulus":"<div style=\"font-size:60px;\">+</div>","key_press":null,"trial_type":"html-keyboard-response","trial_index":40,"time_elapsed":86927,"internal_node_id":"0.0-8.0-1.8","subject":"rj3z1ztt0dect99","sona":"5917"},{"trial_type":"turing-test","trial_index":41,"time_elapsed":92371,"internal_node_id":"0.0-8.0-2.8","subject":"rj3z1ztt0dect99","sona":"5917"},{"rt":1024,"stimulus":"<p>Welche Sequenz haben Sie als natürlicher empfunden?</p>","key_press":70,"test_part":"response","test_stimulus":{"position":0,"left":"bvh/return-bottle-training0-lines.txt","right":"bvh/vr_prediction_models/model(vcgpdm)-dataset(return-bottle)-mode(ELBO)-parts(1)-dyn(30)-lvm(20)-hold(0)/final-lines.txt","att_check":false},"trial_type":"html-keyboard-response","trial_index":42,"time_elapsed":93397,"internal_node_id":"0.0-8.0-3.8","subject":"rj3z1ztt0dect99","sona":"5917"},{"rt":384,"stimulus":"<p>Bereit?</p>","key_press":32,"trial_type":"html-keyboard-response","trial_index":43,"time_elapsed":93784,"internal_node_id":"0.0-8.0-0.9","subject":"rj3z1ztt0dect99","sona":"5917"},{"rt":null,"stimulus":"<div style=\"font-size:60px;\">+</div>","key_press":null,"trial_type":"html-keyboard-response","trial_index":44,"time_elapsed":95787,"internal_node_id":"0.0-8.0-1.9","subject":"rj3z1ztt0dect99","sona":"5917"},{"trial_type":"turing-test","trial_index":45,"time_elapsed":101465,"internal_node_id":"0.0-8.0-2.9","subject":"rj3z1ztt0dect99","sona":"5917"},{"rt":825,"stimulus":"<p>Welche Sequenz haben Sie als natürlicher empfunden?</p>","key_press":74,"test_part":"response","test_stimulus":{"position":1,"left":"bvh/vr_prediction_models/model(vcgpdm)-dataset(pass-bottle)-mode(ELBO)-parts(1)-dyn(30)-lvm(35)-hold(3)/final-lines.txt","right":"bvh/pass-bottle-training3-lines.txt","att_check":false},"trial_type":"html-keyboard-response","trial_index":46,"time_elapsed":102293,"internal_node_id":"0.0-8.0-3.9","subject":"rj3z1ztt0dect99","sona":"5917"},{"rt":5623,"stimulus":"<p>Bereit?</p>","key_press":32,"trial_type":"html-keyboard-response","trial_index":47,"time_elapsed":107917,"internal_node_id":"0.0-8.0-0.10","subject":"rj3z1ztt0dect99","sona":"5917"},{"rt":null,"stimulus":"<div style=\"font-size:60px;\">+</div>","key_press":null,"trial_type":"html-keyboard-response","trial_index":48,"time_elapsed":109923,"internal_node_id":"0.0-8.0-1.10","subject":"rj3z1ztt0dect99","sona":"5917"},{"trial_type":"turing-test","trial_index":49,"time_elapsed":115731,"internal_node_id":"0.0-8.0-2.10","subject":"rj3z1ztt0dect99","sona":"5917"},{"rt":529,"stimulus":"<p>Welche Sequenz haben Sie als natürlicher empfunden?</p>","key_press":70,"test_part":"response","test_stimulus":{"position":1,"left":"bvh/vr_prediction_models/model(vcgpdm)-dataset(return-bottle)-mode(ELBO)-parts(3)-dyn(10)-lvm(10)-hold(4)/final-lines.txt","right":"bvh/return-bottle-training4-lines.txt","att_check":false},"trial_type":"html-keyboard-response","trial_index":50,"time_elapsed":116262,"internal_node_id":"0.0-8.0-3.10","subject":"rj3z1ztt0dect99","sona":"5917"},{"rt":225,"stimulus":"<p>Bereit?</p>","key_press":32,"trial_type":"html-keyboard-response","trial_index":51,"time_elapsed":116490,"internal_node_id":"0.0-8.0-0.11","subject":"rj3z1ztt0dect99","sona":"5917"},{"rt":null,"stimulus":"<div style=\"font-size:60px;\">+</div>","key_press":null,"trial_type":"html-keyboard-response","trial_index":52,"time_elapsed":118493,"internal_node_id":"0.0-8.0-1.11","subject":"rj3z1ztt0dect99","sona":"5917"},{"trial_type":"turing-test","trial_index":53,"time_elapsed":124504,"internal_node_id":"0.0-8.0-2.11","subject":"rj3z1ztt0dect99","sona":"5917"}]