[{"rt":812,"stimulus":"<p>Welcome!<br> Please choose your language to start the experiment in the chosen language.</p><p>Willkommen!<br> Bitte wählen Sie eine Sprache um das Experiment in der ausgewählten Sprache zu starten</p>","button_pressed":"1","trial_type":"html-button-response","trial_index":0,"time_elapsed":818,"internal_node_id":"0.0-0.0","subject":"gl9u2qvu2cmvtjq"},{"view_history":"[{\"page_index\":0,\"viewing_time\":375},{\"page_index\":1,\"viewing_time\":624},{\"page_index\":2,\"viewing_time\":480},{\"page_index\":3,\"viewing_time\":356}]","rt":1835,"trial_type":"instructions","trial_index":1,"time_elapsed":2655,"internal_node_id":"0.0-1.0-0.0","subject":"gl9u2qvu2cmvtjq"},{"rt":638,"stimulus":"<p>Bereit?</p>","button_pressed":"0","trial_type":"html-button-response","trial_index":2,"time_elapsed":3295,"internal_node_id":"0.0-3.0","subject":"gl9u2qvu2cmvtjq"},{"rt":null,"stimulus":"<div style=\"font-size:60px;\">+</div>","key_press":null,"trial_type":"html-keyboard-response","trial_index":3,"time_elapsed":5302,"internal_node_id":"0.0-4.0","subject":"gl9u2qvu2cmvtjq"},{"trial_type":"training","trial_index":4,"time_elapsed":9090,"internal_node_id":"0.0-5.0","subject":"gl9u2qvu2cmvtjq"},{"rt":953,"stimulus":"<p>Welche Sequenz haben Sie als natürlicher empfunden?</p>","button_pressed":"1","trial_type":"html-button-response","trial_index":5,"time_elapsed":10046,"internal_node_id":"0.0-6.0","subject":"gl9u2qvu2cmvtjq"},{"rt":11646,"stimulus":"<p>Das Experiment startet nun.</p><p> Bitte drücken Sie den Knopf, wenn Sie bereit sind.</p>","button_pressed":"0","trial_type":"html-button-response","trial_index":6,"time_elapsed":21694,"internal_node_id":"0.0-7.0","subject":"gl9u2qvu2cmvtjq"},{"rt":1156,"stimulus":"<p>Bereit?</p>","button_pressed":"0","trial_type":"html-button-response","trial_index":7,"time_elapsed":22852,"internal_node_id":"0.0-8.0-0.0","subject":"gl9u2qvu2cmvtjq"},{"rt":null,"stimulus":"<div style=\"font-size:60px;\">+</div>","key_press":null,"trial_type":"html-keyboard-response","trial_index":8,"time_elapsed":24857,"internal_node_id":"0.0-8.0-1.0","subject":"gl9u2qvu2cmvtjq"},{"trial_type":"turing-test","trial_index":9,"time_elapsed":29849,"internal_node_id":"0.0-8.0-2.0","subject":"gl9u2qvu2cmvtjq"},{"rt":1560,"stimulus":"<p>Welche Sequenz haben Sie als natürlicher empfunden?</p>","button_pressed":"1","test_part":"response","test_stimulus":{"position":1,"left":"bvh/vr_prediction_models/model(vcgpdm)-dataset(return-bottle)-mode(MAP)-parts(3)-hold(1)/final-lines.txt","right":"bvh/return-bottle-training1-lines.txt","att_check":false},"trial_type":"html-button-response","trial_index":10,"time_elapsed":31412,"internal_node_id":"0.0-8.0-3.0","subject":"gl9u2qvu2cmvtjq"},{"rt":644,"stimulus":"<p>Bereit?</p>","button_pressed":"0","trial_type":"html-button-response","trial_index":11,"time_elapsed":32059,"internal_node_id":"0.0-8.0-0.1","subject":"gl9u2qvu2cmvtjq"},{"rt":null,"stimulus":"<div style=\"font-size:60px;\">+</div>","key_press":null,"trial_type":"html-keyboard-response","trial_index":12,"time_elapsed":34064,"internal_node_id":"0.0-8.0-1.1","subject":"gl9u2qvu2cmvtjq"},{"trial_type":"turing-test","trial_index":13,"time_elapsed":39326,"internal_node_id":"0.0-8.0-2.1","subject":"gl9u2qvu2cmvtjq"},{"rt":918,"stimulus":"<p>Welche Sequenz haben Sie als natürlicher empfunden?</p>","button_pressed":"0","test_part":"response","test_stimulus":{"position":0,"left":"bvh/pass-bottle-training2-lines.txt","right":"bvh/vr_prediction_models/model(vcgpdm)-dataset(pass-bottle)-mode(ELBO)-parts(1)-dyn(20)-lvm(30)-hold(2)/final-lines.txt","att_check":false},"trial_type":"html-button-response","trial_index":14,"time_elapsed":40248,"internal_node_id":"0.0-8.0-3.1","subject":"gl9u2qvu2cmvtjq"},{"rt":531,"stimulus":"<p>Bereit?</p>","button_pressed":"0","trial_type":"html-button-response","trial_index":15,"time_elapsed":40782,"internal_node_id":"0.0-8.0-0.2","subject":"gl9u2qvu2cmvtjq"},{"rt":null,"stimulus":"<div style=\"font-size:60px;\">+</div>","key_press":null,"trial_type":"html-keyboard-response","trial_index":16,"time_elapsed":42787,"internal_node_id":"0.0-8.0-1.2","subject":"gl9u2qvu2cmvtjq"},{"trial_type":"turing-test","trial_index":17,"time_elapsed":48071,"internal_node_id":"0.0-8.0-2.2","subject":"gl9u2qvu2cmvtjq"},{"rt":1326,"stimulus":"<p>Welche Sequenz haben Sie als natürlicher empfunden?</p>","button_pressed":"1","test_part":"response","test_stimulus":{"position":0,"left":"bvh/pass-bottle-training2-lines.txt","right":"bvh/vr_prediction_models/model(vcgpdm)-dataset(pass-bottle)-mode(ELBO)-parts(3)-dyn(25)-lvm(25)-hold(2)/final-lines.txt","att_check":false},"trial_type":"html-button-response","trial_index":18,"time_elapsed":49401,"internal_node_id":"0.0-8.0-3.2","subject":"gl9u2qvu2cmvtjq"},{"rt":578,"stimulus":"<p>Bereit?</p>","button_pressed":"0","trial_type":"html-button-response","trial_index":19,"time_elapsed":49982,"internal_node_id":"0.0-8.0-0.3","subject":"gl9u2qvu2cmvtjq"},{"rt":null,"stimulus":"<div style=\"font-size:60px;\">+</div>","key_press":null,"trial_type":"html-keyboard-response","trial_index":20,"time_elapsed":51984,"internal_node_id":"0.0-8.0-1.3","subject":"gl9u2qvu2cmvtjq"},{"trial_type":"turing-test","trial_index":21,"time_elapsed":55951,"internal_node_id":"0.0-8.0-2.3","subject":"gl9u2qvu2cmvtjq"},{"rt":1009,"stimulus":"<p>Welche Sequenz haben Sie als natürlicher empfunden?</p>","button_pressed":"1","test_part":"response","test_stimulus":{"position":1,"left":"bvh/vr_prediction_models/model(dmp)-dataset(pass-bottle)-npsi(50)-hold(1)/final-lines.txt","right":"bvh/pass-bottle-training1-lines.txt","att_check":true},"trial_type":"html-button-response","trial_index":22,"time_elapsed":56964,"internal_node_id":"0.0-8.0-3.3","subject":"gl9u2qvu2cmvtjq"},{"rt":607,"stimulus":"<p>Bereit?</p>","button_pressed":"0","trial_type":"html-button-response","trial_index":23,"time_elapsed":57575,"internal_node_id":"0.0-8.0-0.4","subject":"gl9u2qvu2cmvtjq"},{"rt":null,"stimulus":"<div style=\"font-size:60px;\">+</div>","key_press":null,"trial_type":"html-keyboard-response","trial_index":24,"time_elapsed":59577,"internal_node_id":"0.0-8.0-1.4","subject":"gl9u2qvu2cmvtjq"},{"trial_type":"turing-test","trial_index":25,"time_elapsed":63913,"internal_node_id":"0.0-8.0-2.4","subject":"gl9u2qvu2cmvtjq"},{"rt":1042,"stimulus":"<p>Welche Sequenz haben Sie als natürlicher empfunden?</p>","button_pressed":"0","test_part":"response","test_stimulus":{"position":1,"left":"bvh/vr_prediction_models/model(tmp)-dataset(return-bottle-hold)-numprim(4)-hold(0)/final-lines.txt","right":"bvh/return-bottle-hold-training0-lines.txt","att_check":false},"trial_type":"html-button-response","trial_index":26,"time_elapsed":64958,"internal_node_id":"0.0-8.0-3.4","subject":"gl9u2qvu2cmvtjq"},{"rt":618,"stimulus":"<p>Bereit?</p>","button_pressed":"0","trial_type":"html-button-response","trial_index":27,"time_elapsed":65578,"internal_node_id":"0.0-8.0-0.5","subject":"gl9u2qvu2cmvtjq"},{"rt":null,"stimulus":"<div style=\"font-size:60px;\">+</div>","key_press":null,"trial_type":"html-keyboard-response","trial_index":28,"time_elapsed":67579,"internal_node_id":"0.0-8.0-1.5","subject":"gl9u2qvu2cmvtjq"},{"trial_type":"turing-test","trial_index":29,"time_elapsed":72645,"internal_node_id":"0.0-8.0-2.5","subject":"gl9u2qvu2cmvtjq"},{"rt":890,"stimulus":"<p>Welche Sequenz haben Sie als natürlicher empfunden?</p>","button_pressed":"0","test_part":"response","test_stimulus":{"position":0,"left":"bvh/pass-bottle-training2-lines.txt","right":"bvh/vr_prediction_models/model(vcgpdm)-dataset(pass-bottle)-mode(ELBO)-parts(1)-dyn(20)-lvm(30)-hold(2)/final-lines.txt","att_check":false},"trial_type":"html-button-response","trial_index":30,"time_elapsed":73537,"internal_node_id":"0.0-8.0-3.5","subject":"gl9u2qvu2cmvtjq"},{"rt":633,"stimulus":"<p>Bereit?</p>","button_pressed":"0","trial_type":"html-button-response","trial_index":31,"time_elapsed":74173,"internal_node_id":"0.0-8.0-0.6","subject":"gl9u2qvu2cmvtjq"},{"rt":null,"stimulus":"<div style=\"font-size:60px;\">+</div>","key_press":null,"trial_type":"html-keyboard-response","trial_index":32,"time_elapsed":76175,"internal_node_id":"0.0-8.0-1.6","subject":"gl9u2qvu2cmvtjq"},{"trial_type":"turing-test","trial_index":33,"time_elapsed":80246,"internal_node_id":"0.0-8.0-2.6","subject":"gl9u2qvu2cmvtjq"},{"rt":1943,"stimulus":"<p>Welche Sequenz haben Sie als natürlicher empfunden?</p>","button_pressed":"0","test_part":"response","test_stimulus":{"position":1,"left":"bvh/vr_prediction_models/model(tmp)-dataset(pass-bottle)-numprim(15)-hold(4)/final-lines.txt","right":"bvh/pass-bottle-training4-lines.txt","att_check":false},"trial_type":"html-button-response","trial_index":34,"time_elapsed":82192,"internal_node_id":"0.0-8.0-3.6","subject":"gl9u2qvu2cmvtjq"},{"rt":805,"stimulus":"<p>Bereit?</p>","button_pressed":"0","trial_type":"html-button-response","trial_index":35,"time_elapsed":83001,"internal_node_id":"0.0-8.0-0.7","subject":"gl9u2qvu2cmvtjq"},{"rt":null,"stimulus":"<div style=\"font-size:60px;\">+</div>","key_press":null,"trial_type":"html-keyboard-response","trial_index":36,"time_elapsed":85005,"internal_node_id":"0.0-8.0-1.7","subject":"gl9u2qvu2cmvtjq"},{"trial_type":"turing-test","trial_index":37,"time_elapsed":89244,"internal_node_id":"0.0-8.0-2.7","subject":"gl9u2qvu2cmvtjq"},{"rt":11408,"stimulus":"<p>Welche Sequenz haben Sie als natürlicher empfunden?</p>","button_pressed":"0","test_part":"response","test_stimulus":{"position":0,"left":"bvh/return-bottle-hold-training1-lines.txt","right":"bvh/vr_prediction_models/model(dmp)-dataset(return-bottle-hold)-npsi(90)-hold(1)/final-lines.txt","att_check":false},"trial_type":"html-button-response","trial_index":38,"time_elapsed":100654,"internal_node_id":"0.0-8.0-3.7","subject":"gl9u2qvu2cmvtjq"},{"rt":1343,"stimulus":"<p>Bereit?</p>","button_pressed":"0","trial_type":"html-button-response","trial_index":39,"time_elapsed":102001,"internal_node_id":"0.0-8.0-0.8","subject":"gl9u2qvu2cmvtjq"},{"rt":null,"stimulus":"<div style=\"font-size:60px;\">+</div>","key_press":null,"trial_type":"html-keyboard-response","trial_index":40,"time_elapsed":104006,"internal_node_id":"0.0-8.0-1.8","subject":"gl9u2qvu2cmvtjq"},{"trial_type":"turing-test","trial_index":41,"time_elapsed":109425,"internal_node_id":"0.0-8.0-2.8","subject":"gl9u2qvu2cmvtjq"},{"rt":912,"stimulus":"<p>Welche Sequenz haben Sie als natürlicher empfunden?</p>","button_pressed":"1","test_part":"response","test_stimulus":{"position":1,"left":"bvh/vr_prediction_models/model(vcgpdm)-dataset(pass-bottle)-mode(ELBO)-parts(1)-dyn(35)-lvm(10)-hold(4)/final-lines.txt","right":"bvh/pass-bottle-training4-lines.txt","att_check":false},"trial_type":"html-button-response","trial_index":42,"time_elapsed":110342,"internal_node_id":"0.0-8.0-3.8","subject":"gl9u2qvu2cmvtjq"},{"rt":658,"stimulus":"<p>Bereit?</p>","button_pressed":"0","trial_type":"html-button-response","trial_index":43,"time_elapsed":111003,"internal_node_id":"0.0-8.0-0.9","subject":"gl9u2qvu2cmvtjq"},{"rt":null,"stimulus":"<div style=\"font-size:60px;\">+</div>","key_press":null,"trial_type":"html-keyboard-response","trial_index":44,"time_elapsed":113007,"internal_node_id":"0.0-8.0-1.9","subject":"gl9u2qvu2cmvtjq"},{"trial_type":"turing-test","trial_index":45,"time_elapsed":117107,"internal_node_id":"0.0-8.0-2.9","subject":"gl9u2qvu2cmvtjq"},{"rt":729,"stimulus":"<p>Welche Sequenz haben Sie als natürlicher empfunden?</p>","button_pressed":"1","test_part":"response","test_stimulus":{"position":1,"left":"bvh/vr_prediction_models/model(dmp)-dataset(pass-bottle-hold)-npsi(50)-hold(2)/final-lines.txt","right":"bvh/pass-bottle-hold-training2-lines.txt","att_check":false},"trial_type":"html-button-response","trial_index":46,"time_elapsed":117838,"internal_node_id":"0.0-8.0-3.9","subject":"gl9u2qvu2cmvtjq"},{"rt":534,"stimulus":"<p>Bereit?</p>","button_pressed":"0","trial_type":"html-button-response","trial_index":47,"time_elapsed":118375,"internal_node_id":"0.0-8.0-0.10","subject":"gl9u2qvu2cmvtjq"},{"rt":null,"stimulus":"<div style=\"font-size:60px;\">+</div>","key_press":null,"trial_type":"html-keyboard-response","trial_index":48,"time_elapsed":120381,"internal_node_id":"0.0-8.0-1.10","subject":"gl9u2qvu2cmvtjq"},{"trial_type":"turing-test","trial_index":49,"time_elapsed":125964,"internal_node_id":"0.0-8.0-2.10","subject":"gl9u2qvu2cmvtjq"}]