[{"rt":2662,"stimulus":"<p>Welcome!<br> Please choose your language to start the experiment in the chosen language.</p><p>Willkommen!<br> Bitte wählen Sie eine Sprache, um das Experiment in der ausgewählten Sprache zu starten</p>","button_pressed":"1","trial_type":"html-button-response","trial_index":0,"time_elapsed":2694,"internal_node_id":"0.0-0.0","subject":"ymtvfht4esguxej","sona":"5572"},{"view_history":"[{\"page_index\":0,\"viewing_time\":1269.9999999999995},{\"page_index\":1,\"viewing_time\":1217},{\"page_index\":2,\"viewing_time\":950},{\"page_index\":3,\"viewing_time\":2934},{\"page_index\":4,\"viewing_time\":1678}]","rt":8050,"trial_type":"instructions","trial_index":1,"time_elapsed":10746,"internal_node_id":"0.0-1.0-0.0","subject":"ymtvfht4esguxej","sona":"5572"},{"rt":2036,"stimulus":"<p>Bereit?</p>","key_press":32,"trial_type":"html-keyboard-response","trial_index":2,"time_elapsed":12783,"internal_node_id":"0.0-3.0","subject":"ymtvfht4esguxej","sona":"5572"},{"rt":null,"stimulus":"<div style=\"font-size:60px;\">+</div>","key_press":null,"trial_type":"html-keyboard-response","trial_index":3,"time_elapsed":14786,"internal_node_id":"0.0-4.0","subject":"ymtvfht4esguxej","sona":"5572"},{"trial_type":"training","trial_index":4,"time_elapsed":18061,"internal_node_id":"0.0-5.0","subject":"ymtvfht4esguxej","sona":"5572"},{"rt":3336,"stimulus":"<p>Welche Sequenz haben Sie als natürlicher empfunden?</p>","key_press":70,"trial_type":"html-keyboard-response","trial_index":5,"time_elapsed":21399,"internal_node_id":"0.0-6.0","subject":"ymtvfht4esguxej","sona":"5572"},{"rt":4871,"stimulus":"<p>Das Experiment startet nun.</p><p><small>Bitte drücken Sie den Knopf, wenn Sie bereit sind.</small></p>","button_pressed":"0","trial_type":"html-button-response","trial_index":6,"time_elapsed":26270,"internal_node_id":"0.0-7.0","subject":"ymtvfht4esguxej","sona":"5572"},{"rt":1313,"stimulus":"<p>Bereit?</p>","key_press":32,"trial_type":"html-keyboard-response","trial_index":7,"time_elapsed":27583,"internal_node_id":"0.0-8.0-0.0","subject":"ymtvfht4esguxej","sona":"5572"},{"rt":null,"stimulus":"<div style=\"font-size:60px;\">+</div>","key_press":null,"trial_type":"html-keyboard-response","trial_index":8,"time_elapsed":29586,"internal_node_id":"0.0-8.0-1.0","subject":"ymtvfht4esguxej","sona":"5572"},{"trial_type":"turing-test","trial_index":9,"time_elapsed":35255,"internal_node_id":"0.0-8.0-2.0","subject":"ymtvfht4esguxej","sona":"5572"},{"rt":578,"stimulus":"<p>Welche Sequenz haben Sie als natürlicher empfunden?</p>","key_press":74,"test_part":"response","test_stimulus":{"position":0,"left":"bvh/pass-bottle-training4-lines.txt","right":"bvh/vr_prediction_models/model(vcgpdm)-dataset(pass-bottle)-mode(ELBO)-parts(1)-dyn(35)-lvm(30)-hold(4)/final-lines.txt","att_check":false},"trial_type":"html-keyboard-response","trial_index":10,"time_elapsed":35835,"internal_node_id":"0.0-8.0-3.0","subject":"ymtvfht4esguxej","sona":"5572"},{"rt":1269.9999999999927,"stimulus":"<p>Bereit?</p>","key_press":32,"trial_type":"html-keyboard-response","trial_index":11,"time_elapsed":37107,"internal_node_id":"0.0-8.0-0.1","subject":"ymtvfht4esguxej","sona":"5572"},{"rt":null,"stimulus":"<div style=\"font-size:60px;\">+</div>","key_press":null,"trial_type":"html-keyboard-response","trial_index":12,"time_elapsed":39110,"internal_node_id":"0.0-8.0-1.1","subject":"ymtvfht4esguxej","sona":"5572"},{"trial_type":"turing-test","trial_index":13,"time_elapsed":44696,"internal_node_id":"0.0-8.0-2.1","subject":"ymtvfht4esguxej","sona":"5572"},{"rt":504,"stimulus":"<p>Welche Sequenz haben Sie als natürlicher empfunden?</p>","key_press":74,"test_part":"response","test_stimulus":{"position":1,"left":"bvh/vr_prediction_models/model(tmp)-dataset(pass-bottle)-numprim(6)-hold(4)/final-lines.txt","right":"bvh/pass-bottle-training4-lines.txt","att_check":false},"trial_type":"html-keyboard-response","trial_index":14,"time_elapsed":45203,"internal_node_id":"0.0-8.0-3.1","subject":"ymtvfht4esguxej","sona":"5572"},{"rt":467,"stimulus":"<p>Bereit?</p>","key_press":32,"trial_type":"html-keyboard-response","trial_index":15,"time_elapsed":45670,"internal_node_id":"0.0-8.0-0.2","subject":"ymtvfht4esguxej","sona":"5572"},{"rt":null,"stimulus":"<div style=\"font-size:60px;\">+</div>","key_press":null,"trial_type":"html-keyboard-response","trial_index":16,"time_elapsed":47673,"internal_node_id":"0.0-8.0-1.2","subject":"ymtvfht4esguxej","sona":"5572"},{"trial_type":"turing-test","trial_index":17,"time_elapsed":51187,"internal_node_id":"0.0-8.0-2.2","subject":"ymtvfht4esguxej","sona":"5572"},{"rt":584,"stimulus":"<p>Welche Sequenz haben Sie als natürlicher empfunden?</p>","key_press":74,"test_part":"response","test_stimulus":{"position":0,"left":"bvh/return-bottle-hold-training3-lines.txt","right":"bvh/vr_prediction_models/model(dmp)-dataset(return-bottle-hold)-npsi(60)-hold(3)/final-lines.txt","att_check":false},"trial_type":"html-keyboard-response","trial_index":18,"time_elapsed":51774,"internal_node_id":"0.0-8.0-3.2","subject":"ymtvfht4esguxej","sona":"5572"},{"rt":861.9999999999927,"stimulus":"<p>Bereit?</p>","key_press":32,"trial_type":"html-keyboard-response","trial_index":19,"time_elapsed":52638,"internal_node_id":"0.0-8.0-0.3","subject":"ymtvfht4esguxej","sona":"5572"},{"rt":null,"stimulus":"<div style=\"font-size:60px;\">+</div>","key_press":null,"trial_type":"html-keyboard-response","trial_index":20,"time_elapsed":54641,"internal_node_id":"0.0-8.0-1.3","subject":"ymtvfht4esguxej","sona":"5572"},{"trial_type":"turing-test","trial_index":21,"time_elapsed":58124,"internal_node_id":"0.0-8.0-2.3","subject":"ymtvfht4esguxej","sona":"5572"},{"rt":617,"stimulus":"<p>Welche Sequenz haben Sie als natürlicher empfunden?</p>","key_press":74,"test_part":"response","test_stimulus":{"position":0,"left":"bvh/return-bottle-hold-training3-lines.txt","right":"bvh/vr_prediction_models/model(dmp)-dataset(return-bottle-hold)-npsi(60)-hold(3)/final-lines.txt","att_check":false},"trial_type":"html-keyboard-response","trial_index":22,"time_elapsed":58742,"internal_node_id":"0.0-8.0-3.3","subject":"ymtvfht4esguxej","sona":"5572"},{"rt":438,"stimulus":"<p>Bereit?</p>","key_press":32,"trial_type":"html-keyboard-response","trial_index":23,"time_elapsed":59182,"internal_node_id":"0.0-8.0-0.4","subject":"ymtvfht4esguxej","sona":"5572"},{"rt":null,"stimulus":"<div style=\"font-size:60px;\">+</div>","key_press":null,"trial_type":"html-keyboard-response","trial_index":24,"time_elapsed":61185,"internal_node_id":"0.0-8.0-1.4","subject":"ymtvfht4esguxej","sona":"5572"},{"trial_type":"turing-test","trial_index":25,"time_elapsed":67841,"internal_node_id":"0.0-8.0-2.4","subject":"ymtvfht4esguxej","sona":"5572"},{"rt":444,"stimulus":"<p>Welche Sequenz haben Sie als natürlicher empfunden?</p>","key_press":74,"test_part":"response","test_stimulus":{"position":1,"left":"bvh/vr_prediction_models/model(vcgpdm)-dataset(pass-bottle)-mode(ELBO)-parts(1)-dyn(30)-lvm(35)-hold(0)/final-lines.txt","right":"bvh/pass-bottle-training0-lines.txt","att_check":false},"trial_type":"html-keyboard-response","trial_index":26,"time_elapsed":68286,"internal_node_id":"0.0-8.0-3.4","subject":"ymtvfht4esguxej","sona":"5572"},{"rt":366,"stimulus":"<p>Bereit?</p>","key_press":32,"trial_type":"html-keyboard-response","trial_index":27,"time_elapsed":68653,"internal_node_id":"0.0-8.0-0.5","subject":"ymtvfht4esguxej","sona":"5572"},{"rt":null,"stimulus":"<div style=\"font-size:60px;\">+</div>","key_press":null,"trial_type":"html-keyboard-response","trial_index":28,"time_elapsed":70656,"internal_node_id":"0.0-8.0-1.5","subject":"ymtvfht4esguxej","sona":"5572"},{"trial_type":"turing-test","trial_index":29,"time_elapsed":74142,"internal_node_id":"0.0-8.0-2.5","subject":"ymtvfht4esguxej","sona":"5572"},{"rt":446,"stimulus":"<p>Welche Sequenz haben Sie als natürlicher empfunden?</p>","key_press":74,"test_part":"response","test_stimulus":{"position":0,"left":"bvh/pass-bottle-hold-training3-lines.txt","right":"bvh/vr_prediction_models/model(vcgpdm)-dataset(pass-bottle-hold)-mode(ELBO)-parts(3)-dyn(15)-lvm(30)-hold(3)/final-lines.txt","att_check":false},"trial_type":"html-keyboard-response","trial_index":30,"time_elapsed":74590,"internal_node_id":"0.0-8.0-3.5","subject":"ymtvfht4esguxej","sona":"5572"},{"rt":175,"stimulus":"<p>Bereit?</p>","key_press":32,"trial_type":"html-keyboard-response","trial_index":31,"time_elapsed":74766,"internal_node_id":"0.0-8.0-0.6","subject":"ymtvfht4esguxej","sona":"5572"},{"rt":null,"stimulus":"<div style=\"font-size:60px;\">+</div>","key_press":null,"trial_type":"html-keyboard-response","trial_index":32,"time_elapsed":76769,"internal_node_id":"0.0-8.0-1.6","subject":"ymtvfht4esguxej","sona":"5572"},{"trial_type":"turing-test","trial_index":33,"time_elapsed":82503,"internal_node_id":"0.0-8.0-2.6","subject":"ymtvfht4esguxej","sona":"5572"},{"rt":452.99999999998545,"stimulus":"<p>Welche Sequenz haben Sie als natürlicher empfunden?</p>","key_press":74,"test_part":"response","test_stimulus":{"position":0,"left":"bvh/pass-bottle-training3-lines.txt","right":"bvh/vr_prediction_models/model(vcgpdm)-dataset(pass-bottle)-mode(ELBO)-parts(1)-dyn(10)-lvm(25)-hold(3)/final-lines.txt","att_check":false},"trial_type":"html-keyboard-response","trial_index":34,"time_elapsed":82958,"internal_node_id":"0.0-8.0-3.6","subject":"ymtvfht4esguxej","sona":"5572"},{"rt":254,"stimulus":"<p>Bereit?</p>","key_press":32,"trial_type":"html-keyboard-response","trial_index":35,"time_elapsed":83213,"internal_node_id":"0.0-8.0-0.7","subject":"ymtvfht4esguxej","sona":"5572"},{"rt":null,"stimulus":"<div style=\"font-size:60px;\">+</div>","key_press":null,"trial_type":"html-keyboard-response","trial_index":36,"time_elapsed":85216,"internal_node_id":"0.0-8.0-1.7","subject":"ymtvfht4esguxej","sona":"5572"},{"trial_type":"turing-test","trial_index":37,"time_elapsed":90882,"internal_node_id":"0.0-8.0-2.7","subject":"ymtvfht4esguxej","sona":"5572"},{"rt":466,"stimulus":"<p>Welche Sequenz haben Sie als natürlicher empfunden?</p>","key_press":74,"test_part":"response","test_stimulus":{"position":0,"left":"bvh/pass-bottle-training3-lines.txt","right":"bvh/vr_prediction_models/model(dmp)-dataset(pass-bottle)-npsi(40)-hold(3)/final-lines.txt","att_check":false},"trial_type":"html-keyboard-response","trial_index":38,"time_elapsed":91349,"internal_node_id":"0.0-8.0-3.7","subject":"ymtvfht4esguxej","sona":"5572"},{"rt":374,"stimulus":"<p>Bereit?</p>","key_press":32,"trial_type":"html-keyboard-response","trial_index":39,"time_elapsed":91725,"internal_node_id":"0.0-8.0-0.8","subject":"ymtvfht4esguxej","sona":"5572"},{"rt":null,"stimulus":"<div style=\"font-size:60px;\">+</div>","key_press":null,"trial_type":"html-keyboard-response","trial_index":40,"time_elapsed":93728,"internal_node_id":"0.0-8.0-1.8","subject":"ymtvfht4esguxej","sona":"5572"},{"trial_type":"turing-test","trial_index":41,"time_elapsed":99714,"internal_node_id":"0.0-8.0-2.8","subject":"ymtvfht4esguxej","sona":"5572"},{"rt":354,"stimulus":"<p>Welche Sequenz haben Sie als natürlicher empfunden?</p>","key_press":74,"test_part":"response","test_stimulus":{"position":0,"left":"bvh/return-bottle-training1-lines.txt","right":"bvh/vr_prediction_models/model(vcgpdm)-dataset(return-bottle)-mode(MAP)-parts(1)-hold(1)/final-lines.txt","att_check":false},"trial_type":"html-keyboard-response","trial_index":42,"time_elapsed":100069,"internal_node_id":"0.0-8.0-3.8","subject":"ymtvfht4esguxej","sona":"5572"},{"rt":638,"stimulus":"<p>Bereit?</p>","key_press":32,"trial_type":"html-keyboard-response","trial_index":43,"time_elapsed":100709,"internal_node_id":"0.0-8.0-0.9","subject":"ymtvfht4esguxej","sona":"5572"},{"rt":null,"stimulus":"<div style=\"font-size:60px;\">+</div>","key_press":null,"trial_type":"html-keyboard-response","trial_index":44,"time_elapsed":102710,"internal_node_id":"0.0-8.0-1.9","subject":"ymtvfht4esguxej","sona":"5572"},{"trial_type":"turing-test","trial_index":45,"time_elapsed":109185,"internal_node_id":"0.0-8.0-2.9","subject":"ymtvfht4esguxej","sona":"5572"},{"rt":4386,"stimulus":"<p>Welche Sequenz haben Sie als natürlicher empfunden?</p>","key_press":74,"test_part":"response","test_stimulus":{"position":0,"left":"bvh/return-bottle-training2-lines.txt","right":"bvh/vr_prediction_models/model(vcgpdm)-dataset(return-bottle)-mode(ELBO)-parts(3)-dyn(25)-lvm(30)-hold(2)/final-lines.txt","att_check":false},"trial_type":"html-keyboard-response","trial_index":46,"time_elapsed":113573,"internal_node_id":"0.0-8.0-3.9","subject":"ymtvfht4esguxej","sona":"5572"},{"rt":278,"stimulus":"<p>Bereit?</p>","key_press":32,"trial_type":"html-keyboard-response","trial_index":47,"time_elapsed":113852,"internal_node_id":"0.0-8.0-0.10","subject":"ymtvfht4esguxej","sona":"5572"},{"rt":null,"stimulus":"<div style=\"font-size:60px;\">+</div>","key_press":null,"trial_type":"html-keyboard-response","trial_index":48,"time_elapsed":115855,"internal_node_id":"0.0-8.0-1.10","subject":"ymtvfht4esguxej","sona":"5572"},{"trial_type":"turing-test","trial_index":49,"time_elapsed":119406,"internal_node_id":"0.0-8.0-2.10","subject":"ymtvfht4esguxej","sona":"5572"},{"rt":2514,"stimulus":"<p>Welche Sequenz haben Sie als natürlicher empfunden?</p>","key_press":74,"test_part":"response","test_stimulus":{"position":1,"left":"bvh/vr_prediction_models/model(vcgpdm)-dataset(return-bottle-hold)-mode(ELBO)-parts(1)-dyn(20)-lvm(30)-hold(3)/final-lines.txt","right":"bvh/return-bottle-hold-training3-lines.txt","att_check":false},"trial_type":"html-keyboard-response","trial_index":50,"time_elapsed":121922,"internal_node_id":"0.0-8.0-3.10","subject":"ymtvfht4esguxej","sona":"5572"},{"rt":157.99999999998545,"stimulus":"<p>Bereit?</p>","key_press":32,"trial_type":"html-keyboard-response","trial_index":51,"time_elapsed":122082,"internal_node_id":"0.0-8.0-0.11","subject":"ymtvfht4esguxej","sona":"5572"},{"rt":null,"stimulus":"<div style=\"font-size:60px;\">+</div>","key_press":null,"trial_type":"html-keyboard-response","trial_index":52,"time_elapsed":124085,"internal_node_id":"0.0-8.0-1.11","subject":"ymtvfht4esguxej","sona":"5572"},{"trial_type":"turing-test","trial_index":53,"time_elapsed":129388,"internal_node_id":"0.0-8.0-2.11","subject":"ymtvfht4esguxej","sona":"5572"}]