[{"rt":2149.505000001227,"stimulus":"<p>Welcome!<br> Please choose your language to start the experiment in the chosen language.</p><p>Willkommen!<br> Bitte wählen Sie eine Sprache, um das Experiment in der ausgewählten Sprache zu starten</p>","button_pressed":"1","trial_type":"html-button-response","trial_index":0,"time_elapsed":2173,"internal_node_id":"0.0-0.0","subject":"nys2x0bfwz31qj2","sona":"7603"},{"view_history":"[{\"page_index\":0,\"viewing_time\":3886.5900000018883},{\"page_index\":1,\"viewing_time\":8748.540000000503},{\"page_index\":2,\"viewing_time\":4988.524999993388},{\"page_index\":3,\"viewing_time\":3589.4500000067637},{\"page_index\":4,\"viewing_time\":1867.5349999975879}]","rt":23081.709999998566,"trial_type":"instructions","trial_index":1,"time_elapsed":25258,"internal_node_id":"0.0-1.0-0.0","subject":"nys2x0bfwz31qj2","sona":"7603"},{"rt":1415.4750000016065,"stimulus":"<p>Bereit?</p>","key_press":32,"trial_type":"html-keyboard-response","trial_index":2,"time_elapsed":26675,"internal_node_id":"0.0-3.0","subject":"nys2x0bfwz31qj2","sona":"7603"},{"rt":null,"stimulus":"<div style=\"font-size:60px;\">+</div>","key_press":null,"trial_type":"html-keyboard-response","trial_index":3,"time_elapsed":28683,"internal_node_id":"0.0-4.0","subject":"nys2x0bfwz31qj2","sona":"7603"},{"trial_type":"training","trial_index":4,"time_elapsed":33320,"internal_node_id":"0.0-5.0","subject":"nys2x0bfwz31qj2","sona":"7603"},{"rt":1553.859999999986,"stimulus":"<p>Welche Sequenz haben Sie als natürlicher empfunden?</p>","key_press":70,"trial_type":"html-keyboard-response","trial_index":5,"time_elapsed":34876,"internal_node_id":"0.0-6.0","subject":"nys2x0bfwz31qj2","sona":"7603"},{"rt":3473.824999993667,"stimulus":"<p>Das Experiment startet nun.</p><p><small>Bitte drücken Sie den Knopf, wenn Sie bereit sind.</small></p>","button_pressed":"0","trial_type":"html-button-response","trial_index":6,"time_elapsed":38352,"internal_node_id":"0.0-7.0","subject":"nys2x0bfwz31qj2","sona":"7603"},{"rt":1598.6550000015995,"stimulus":"<p>Bereit?</p>","key_press":32,"trial_type":"html-keyboard-response","trial_index":7,"time_elapsed":39952,"internal_node_id":"0.0-8.0-0.0","subject":"nys2x0bfwz31qj2","sona":"7603"},{"rt":null,"stimulus":"<div style=\"font-size:60px;\">+</div>","key_press":null,"trial_type":"html-keyboard-response","trial_index":8,"time_elapsed":41967,"internal_node_id":"0.0-8.0-1.0","subject":"nys2x0bfwz31qj2","sona":"7603"},{"trial_type":"turing-test","trial_index":9,"time_elapsed":45722,"internal_node_id":"0.0-8.0-2.0","subject":"nys2x0bfwz31qj2","sona":"7603"},{"rt":908.6899999965681,"stimulus":"<p>Welche Sequenz haben Sie als natürlicher empfunden?</p>","key_press":74,"test_part":"response","test_stimulus":{"position":1,"left":"bvh/vr_prediction_models/model(dmp)-dataset(pass-bottle-hold)-npsi(30)-hold(4)/final-lines.txt","right":"bvh/pass-bottle-hold-training4-lines.txt","att_check":false},"trial_type":"html-keyboard-response","trial_index":10,"time_elapsed":46636,"internal_node_id":"0.0-8.0-3.0","subject":"nys2x0bfwz31qj2","sona":"7603"},{"rt":998.9000000059605,"stimulus":"<p>Bereit?</p>","key_press":32,"trial_type":"html-keyboard-response","trial_index":11,"time_elapsed":47637,"internal_node_id":"0.0-8.0-0.1","subject":"nys2x0bfwz31qj2","sona":"7603"},{"rt":null,"stimulus":"<div style=\"font-size:60px;\">+</div>","key_press":null,"trial_type":"html-keyboard-response","trial_index":12,"time_elapsed":49645,"internal_node_id":"0.0-8.0-1.1","subject":"nys2x0bfwz31qj2","sona":"7603"},{"trial_type":"turing-test","trial_index":13,"time_elapsed":53979,"internal_node_id":"0.0-8.0-2.1","subject":"nys2x0bfwz31qj2","sona":"7603"},{"rt":594.6400000029826,"stimulus":"<p>Welche Sequenz haben Sie als natürlicher empfunden?</p>","key_press":74,"test_part":"response","test_stimulus":{"position":1,"left":"bvh/vr_prediction_models/model(vcgpdm)-dataset(return-bottle-hold)-mode(ELBO)-parts(1)-dyn(20)-lvm(20)-hold(3)/final-lines.txt","right":"bvh/return-bottle-hold-training3-lines.txt","att_check":false},"trial_type":"html-keyboard-response","trial_index":14,"time_elapsed":54576,"internal_node_id":"0.0-8.0-3.1","subject":"nys2x0bfwz31qj2","sona":"7603"},{"rt":858.4449999980279,"stimulus":"<p>Bereit?</p>","key_press":32,"trial_type":"html-keyboard-response","trial_index":15,"time_elapsed":55436,"internal_node_id":"0.0-8.0-0.2","subject":"nys2x0bfwz31qj2","sona":"7603"},{"rt":null,"stimulus":"<div style=\"font-size:60px;\">+</div>","key_press":null,"trial_type":"html-keyboard-response","trial_index":16,"time_elapsed":57448,"internal_node_id":"0.0-8.0-1.2","subject":"nys2x0bfwz31qj2","sona":"7603"},{"trial_type":"turing-test","trial_index":17,"time_elapsed":62983,"internal_node_id":"0.0-8.0-2.2","subject":"nys2x0bfwz31qj2","sona":"7603"},{"rt":137.38500000181375,"stimulus":"<p>Welche Sequenz haben Sie als natürlicher empfunden?</p>","key_press":74,"test_part":"response","test_stimulus":{"position":1,"left":"bvh/vr_prediction_models/model(tmp)-dataset(return-bottle)-numprim(13)-hold(0)/final-lines.txt","right":"bvh/return-bottle-training0-lines.txt","att_check":false},"trial_type":"html-keyboard-response","trial_index":18,"time_elapsed":63123,"internal_node_id":"0.0-8.0-3.2","subject":"nys2x0bfwz31qj2","sona":"7603"},{"rt":905.2599999995437,"stimulus":"<p>Bereit?</p>","key_press":32,"trial_type":"html-keyboard-response","trial_index":19,"time_elapsed":64029,"internal_node_id":"0.0-8.0-0.3","subject":"nys2x0bfwz31qj2","sona":"7603"},{"rt":null,"stimulus":"<div style=\"font-size:60px;\">+</div>","key_press":null,"trial_type":"html-keyboard-response","trial_index":20,"time_elapsed":66048,"internal_node_id":"0.0-8.0-1.3","subject":"nys2x0bfwz31qj2","sona":"7603"},{"trial_type":"turing-test","trial_index":21,"time_elapsed":71536,"internal_node_id":"0.0-8.0-2.3","subject":"nys2x0bfwz31qj2","sona":"7603"},{"rt":10533.33500000008,"stimulus":"<p>Welche Sequenz haben Sie als natürlicher empfunden?</p>","key_press":70,"test_part":"response","test_stimulus":{"position":1,"left":"bvh/vr_prediction_models/model(dmp)-dataset(return-bottle)-npsi(60)-hold(0)/final-lines.txt","right":"bvh/return-bottle-training0-lines.txt","att_check":false},"trial_type":"html-keyboard-response","trial_index":22,"time_elapsed":82073,"internal_node_id":"0.0-8.0-3.3","subject":"nys2x0bfwz31qj2","sona":"7603"},{"rt":1045.1350000003004,"stimulus":"<p>Bereit?</p>","key_press":32,"trial_type":"html-keyboard-response","trial_index":23,"time_elapsed":83120,"internal_node_id":"0.0-8.0-0.4","subject":"nys2x0bfwz31qj2","sona":"7603"},{"rt":null,"stimulus":"<div style=\"font-size:60px;\">+</div>","key_press":null,"trial_type":"html-keyboard-response","trial_index":24,"time_elapsed":85142,"internal_node_id":"0.0-8.0-1.4","subject":"nys2x0bfwz31qj2","sona":"7603"},{"trial_type":"turing-test","trial_index":25,"time_elapsed":91709,"internal_node_id":"0.0-8.0-2.4","subject":"nys2x0bfwz31qj2","sona":"7603"},{"rt":193.20000000152504,"stimulus":"<p>Welche Sequenz haben Sie als natürlicher empfunden?</p>","key_press":74,"test_part":"response","test_stimulus":{"position":1,"left":"bvh/vr_prediction_models/model(vcgpdm)-dataset(pass-bottle)-mode(ELBO)-parts(3)-dyn(25)-lvm(15)-hold(4)/final-lines.txt","right":"bvh/pass-bottle-training4-lines.txt","att_check":false},"trial_type":"html-keyboard-response","trial_index":26,"time_elapsed":91908,"internal_node_id":"0.0-8.0-3.4","subject":"nys2x0bfwz31qj2","sona":"7603"},{"rt":881.3000000009197,"stimulus":"<p>Bereit?</p>","key_press":32,"trial_type":"html-keyboard-response","trial_index":27,"time_elapsed":92795,"internal_node_id":"0.0-8.0-0.5","subject":"nys2x0bfwz31qj2","sona":"7603"},{"rt":null,"stimulus":"<div style=\"font-size:60px;\">+</div>","key_press":null,"trial_type":"html-keyboard-response","trial_index":28,"time_elapsed":94805,"internal_node_id":"0.0-8.0-1.5","subject":"nys2x0bfwz31qj2","sona":"7603"},{"trial_type":"turing-test","trial_index":29,"time_elapsed":100302,"internal_node_id":"0.0-8.0-2.5","subject":"nys2x0bfwz31qj2","sona":"7603"},{"rt":1545.4899999967893,"stimulus":"<p>Welche Sequenz haben Sie als natürlicher empfunden?</p>","key_press":74,"test_part":"response","test_stimulus":{"position":1,"left":"bvh/vr_prediction_models/model(tmp)-dataset(return-bottle-hold)-numprim(13)-hold(0)/final-lines.txt","right":"bvh/return-bottle-hold-training0-lines.txt","att_check":false},"trial_type":"html-keyboard-response","trial_index":30,"time_elapsed":101854,"internal_node_id":"0.0-8.0-3.5","subject":"nys2x0bfwz31qj2","sona":"7603"},{"rt":767.3450000002049,"stimulus":"<p>Bereit?</p>","key_press":32,"trial_type":"html-keyboard-response","trial_index":31,"time_elapsed":102626,"internal_node_id":"0.0-8.0-0.6","subject":"nys2x0bfwz31qj2","sona":"7603"},{"rt":null,"stimulus":"<div style=\"font-size:60px;\">+</div>","key_press":null,"trial_type":"html-keyboard-response","trial_index":32,"time_elapsed":104637,"internal_node_id":"0.0-8.0-1.6","subject":"nys2x0bfwz31qj2","sona":"7603"},{"trial_type":"turing-test","trial_index":33,"time_elapsed":110515,"internal_node_id":"0.0-8.0-2.6","subject":"nys2x0bfwz31qj2","sona":"7603"},{"rt":237.3200000001816,"stimulus":"<p>Welche Sequenz haben Sie als natürlicher empfunden?</p>","key_press":74,"test_part":"response","test_stimulus":{"position":1,"left":"bvh/vr_prediction_models/model(tmp)-dataset(return-bottle)-numprim(15)-hold(4)/final-lines.txt","right":"bvh/return-bottle-training4-lines.txt","att_check":false},"trial_type":"html-keyboard-response","trial_index":34,"time_elapsed":110755,"internal_node_id":"0.0-8.0-3.6","subject":"nys2x0bfwz31qj2","sona":"7603"},{"rt":1261.884999999893,"stimulus":"<p>Bereit?</p>","key_press":32,"trial_type":"html-keyboard-response","trial_index":35,"time_elapsed":112019,"internal_node_id":"0.0-8.0-0.7","subject":"nys2x0bfwz31qj2","sona":"7603"},{"rt":null,"stimulus":"<div style=\"font-size:60px;\">+</div>","key_press":null,"trial_type":"html-keyboard-response","trial_index":36,"time_elapsed":114036,"internal_node_id":"0.0-8.0-1.7","subject":"nys2x0bfwz31qj2","sona":"7603"},{"trial_type":"turing-test","trial_index":37,"time_elapsed":118289,"internal_node_id":"0.0-8.0-2.7","subject":"nys2x0bfwz31qj2","sona":"7603"},{"rt":89.07499999622814,"stimulus":"<p>Welche Sequenz haben Sie als natürlicher empfunden?</p>","key_press":74,"test_part":"response","test_stimulus":{"position":1,"left":"bvh/vr_prediction_models/model(vcgpdm)-dataset(pass-bottle-hold)-mode(ELBO)-parts(3)-dyn(25)-lvm(15)-hold(3)/final-lines.txt","right":"bvh/pass-bottle-hold-training3-lines.txt","att_check":false},"trial_type":"html-keyboard-response","trial_index":38,"time_elapsed":118381,"internal_node_id":"0.0-8.0-3.7","subject":"nys2x0bfwz31qj2","sona":"7603"},{"rt":800.3850000022794,"stimulus":"<p>Bereit?</p>","key_press":32,"trial_type":"html-keyboard-response","trial_index":39,"time_elapsed":119183,"internal_node_id":"0.0-8.0-0.8","subject":"nys2x0bfwz31qj2","sona":"7603"},{"rt":null,"stimulus":"<div style=\"font-size:60px;\">+</div>","key_press":null,"trial_type":"html-keyboard-response","trial_index":40,"time_elapsed":121199,"internal_node_id":"0.0-8.0-1.8","subject":"nys2x0bfwz31qj2","sona":"7603"},{"trial_type":"turing-test","trial_index":41,"time_elapsed":128496,"internal_node_id":"0.0-8.0-2.8","subject":"nys2x0bfwz31qj2","sona":"7603"},{"rt":365.3599999961443,"stimulus":"<p>Welche Sequenz haben Sie als natürlicher empfunden?</p>","key_press":74,"test_part":"response","test_stimulus":{"position":1,"left":"bvh/vr_prediction_models/model(vcgpdm)-dataset(return-bottle)-mode(ELBO)-parts(3)-dyn(30)-lvm(15)-hold(2)/final-lines.txt","right":"bvh/return-bottle-training2-lines.txt","att_check":false},"trial_type":"html-keyboard-response","trial_index":42,"time_elapsed":128868,"internal_node_id":"0.0-8.0-3.8","subject":"nys2x0bfwz31qj2","sona":"7603"},{"rt":686.744999999064,"stimulus":"<p>Bereit?</p>","key_press":32,"trial_type":"html-keyboard-response","trial_index":43,"time_elapsed":129560,"internal_node_id":"0.0-8.0-0.9","subject":"nys2x0bfwz31qj2","sona":"7603"},{"rt":null,"stimulus":"<div style=\"font-size:60px;\">+</div>","key_press":null,"trial_type":"html-keyboard-response","trial_index":44,"time_elapsed":131584,"internal_node_id":"0.0-8.0-1.9","subject":"nys2x0bfwz31qj2","sona":"7603"},{"trial_type":"turing-test","trial_index":45,"time_elapsed":138582,"internal_node_id":"0.0-8.0-2.9","subject":"nys2x0bfwz31qj2","sona":"7603"},{"rt":441.4699999979348,"stimulus":"<p>Welche Sequenz haben Sie als natürlicher empfunden?</p>","key_press":70,"test_part":"response","test_stimulus":{"position":0,"left":"bvh/pass-bottle-training2-lines.txt","right":"bvh/vr_prediction_models/model(vcgpdm)-dataset(pass-bottle)-mode(ELBO)-parts(3)-dyn(30)-lvm(15)-hold(2)/final-lines.txt","att_check":false},"trial_type":"html-keyboard-response","trial_index":46,"time_elapsed":139030,"internal_node_id":"0.0-8.0-3.9","subject":"nys2x0bfwz31qj2","sona":"7603"},{"rt":765.0250000006054,"stimulus":"<p>Bereit?</p>","key_press":32,"trial_type":"html-keyboard-response","trial_index":47,"time_elapsed":139801,"internal_node_id":"0.0-8.0-0.10","subject":"nys2x0bfwz31qj2","sona":"7603"},{"rt":null,"stimulus":"<div style=\"font-size:60px;\">+</div>","key_press":null,"trial_type":"html-keyboard-response","trial_index":48,"time_elapsed":141814,"internal_node_id":"0.0-8.0-1.10","subject":"nys2x0bfwz31qj2","sona":"7603"},{"trial_type":"turing-test","trial_index":49,"time_elapsed":145176,"internal_node_id":"0.0-8.0-2.10","subject":"nys2x0bfwz31qj2","sona":"7603"},{"rt":237.84000000159722,"stimulus":"<p>Welche Sequenz haben Sie als natürlicher empfunden?</p>","key_press":74,"test_part":"response","test_stimulus":{"position":1,"left":"bvh/vr_prediction_models/model(dmp)-dataset(pass-bottle-hold)-npsi(30)-hold(1)/final-lines.txt","right":"bvh/pass-bottle-hold-training1-lines.txt","att_check":false},"trial_type":"html-keyboard-response","trial_index":50,"time_elapsed":145422,"internal_node_id":"0.0-8.0-3.10","subject":"nys2x0bfwz31qj2","sona":"7603"},{"rt":1067.685000001802,"stimulus":"<p>Bereit?</p>","key_press":32,"trial_type":"html-keyboard-response","trial_index":51,"time_elapsed":146496,"internal_node_id":"0.0-8.0-0.11","subject":"nys2x0bfwz31qj2","sona":"7603"},{"rt":null,"stimulus":"<div style=\"font-size:60px;\">+</div>","key_press":null,"trial_type":"html-keyboard-response","trial_index":52,"time_elapsed":148519,"internal_node_id":"0.0-8.0-1.11","subject":"nys2x0bfwz31qj2","sona":"7603"},{"trial_type":"turing-test","trial_index":53,"time_elapsed":152273,"internal_node_id":"0.0-8.0-2.11","subject":"nys2x0bfwz31qj2","sona":"7603"},{"rt":82.669999996142,"stimulus":"<p>Welche Sequenz haben Sie als natürlicher empfunden?</p>","key_press":70,"test_part":"response","test_stimulus":{"position":1,"left":"bvh/vr_prediction_models/model(vcgpdm)-dataset(return-bottle-hold)-mode(ELBO)-parts(3)-dyn(10)-lvm(25)-hold(1)/final-lines.txt","right":"bvh/return-bottle-hold-training1-lines.txt","att_check":false},"trial_type":"html-keyboard-response","trial_index":54,"time_elapsed":152363,"internal_node_id":"0.0-8.0-3.11","subject":"nys2x0bfwz31qj2","sona":"7603"},{"rt":796.0549999988871,"stimulus":"<p>Bereit?</p>","key_press":32,"trial_type":"html-keyboard-response","trial_index":55,"time_elapsed":153164,"internal_node_id":"0.0-8.0-0.12","subject":"nys2x0bfwz31qj2","sona":"7603"},{"rt":null,"stimulus":"<div style=\"font-size:60px;\">+</div>","key_press":null,"trial_type":"html-keyboard-response","trial_index":56,"time_elapsed":155175,"internal_node_id":"0.0-8.0-1.12","subject":"nys2x0bfwz31qj2","sona":"7603"},{"trial_type":"turing-test","trial_index":57,"time_elapsed":158624,"internal_node_id":"0.0-8.0-2.12","subject":"nys2x0bfwz31qj2","sona":"7603"},{"rt":350.63999999692896,"stimulus":"<p>Welche Sequenz haben Sie als natürlicher empfunden?</p>","key_press":70,"test_part":"response","test_stimulus":{"position":1,"left":"bvh/vr_prediction_models/model(tmp)-dataset(pass-bottle-hold)-numprim(10)-hold(2)/final-lines.txt","right":"bvh/pass-bottle-hold-training2-lines.txt","att_check":false},"trial_type":"html-keyboard-response","trial_index":58,"time_elapsed":158982,"internal_node_id":"0.0-8.0-3.12","subject":"nys2x0bfwz31qj2","sona":"7603"},{"rt":896.229999998468,"stimulus":"<p>Bereit?</p>","key_press":32,"trial_type":"html-keyboard-response","trial_index":59,"time_elapsed":159884,"internal_node_id":"0.0-8.0-0.13","subject":"nys2x0bfwz31qj2","sona":"7603"},{"rt":null,"stimulus":"<div style=\"font-size:60px;\">+</div>","key_press":null,"trial_type":"html-keyboard-response","trial_index":60,"time_elapsed":161895,"internal_node_id":"0.0-8.0-1.13","subject":"nys2x0bfwz31qj2","sona":"7603"},{"trial_type":"turing-test","trial_index":61,"time_elapsed":168763,"internal_node_id":"0.0-8.0-2.13","subject":"nys2x0bfwz31qj2","sona":"7603"},{"rt":424.44999999861466,"stimulus":"<p>Welche Sequenz haben Sie als natürlicher empfunden?</p>","key_press":70,"test_part":"response","test_stimulus":{"position":0,"left":"bvh/return-bottle-training1-lines.txt","right":"bvh/vr_prediction_models/model(vcgpdm)-dataset(return-bottle)-mode(MAP)-parts(3)-hold(1)/final-lines.txt","att_check":false},"trial_type":"html-keyboard-response","trial_index":62,"time_elapsed":169195,"internal_node_id":"0.0-8.0-3.13","subject":"nys2x0bfwz31qj2","sona":"7603"},{"rt":417.3549999977695,"stimulus":"<p>Bereit?</p>","key_press":32,"trial_type":"html-keyboard-response","trial_index":63,"time_elapsed":169615,"internal_node_id":"0.0-8.0-0.14","subject":"nys2x0bfwz31qj2","sona":"7603"},{"rt":null,"stimulus":"<div style=\"font-size:60px;\">+</div>","key_press":null,"trial_type":"html-keyboard-response","trial_index":64,"time_elapsed":171638,"internal_node_id":"0.0-8.0-1.14","subject":"nys2x0bfwz31qj2","sona":"7603"},{"trial_type":"turing-test","trial_index":65,"time_elapsed":177682,"internal_node_id":"0.0-8.0-2.14","subject":"nys2x0bfwz31qj2","sona":"7603"},{"rt":130.3299999999581,"stimulus":"<p>Welche Sequenz haben Sie als natürlicher empfunden?</p>","key_press":74,"test_part":"response","test_stimulus":{"position":0,"left":"bvh/pass-bottle-training4-lines.txt","right":"bvh/vr_prediction_models/model(vcgpdm)-dataset(pass-bottle)-mode(ELBO)-parts(1)-dyn(10)-lvm(30)-hold(4)/final-lines.txt","att_check":false},"trial_type":"html-keyboard-response","trial_index":66,"time_elapsed":177820,"internal_node_id":"0.0-8.0-3.14","subject":"nys2x0bfwz31qj2","sona":"7603"},{"rt":774.6399999959976,"stimulus":"<p>Bereit?</p>","key_press":32,"trial_type":"html-keyboard-response","trial_index":67,"time_elapsed":178599,"internal_node_id":"0.0-8.0-0.15","subject":"nys2x0bfwz31qj2","sona":"7603"},{"rt":null,"stimulus":"<div style=\"font-size:60px;\">+</div>","key_press":null,"trial_type":"html-keyboard-response","trial_index":68,"time_elapsed":180621,"internal_node_id":"0.0-8.0-1.15","subject":"nys2x0bfwz31qj2","sona":"7603"},{"trial_type":"turing-test","trial_index":69,"time_elapsed":186389,"internal_node_id":"0.0-8.0-2.15","subject":"nys2x0bfwz31qj2","sona":"7603"},{"rt":431.40000000130385,"stimulus":"<p>Welche Sequenz haben Sie als natürlicher empfunden?</p>","key_press":70,"test_part":"response","test_stimulus":{"position":0,"left":"bvh/pass-bottle-training1-lines.txt","right":"bvh/vr_prediction_models/model(dmp)-dataset(pass-bottle)-npsi(20)-hold(1)/final-lines.txt","att_check":false},"trial_type":"html-keyboard-response","trial_index":70,"time_elapsed":186828,"internal_node_id":"0.0-8.0-3.15","subject":"nys2x0bfwz31qj2","sona":"7603"},{"rt":477.100000003702,"stimulus":"<p>Bereit?</p>","key_press":32,"trial_type":"html-keyboard-response","trial_index":71,"time_elapsed":187310,"internal_node_id":"0.0-8.0-0.16","subject":"nys2x0bfwz31qj2","sona":"7603"},{"rt":null,"stimulus":"<div style=\"font-size:60px;\">+</div>","key_press":null,"trial_type":"html-keyboard-response","trial_index":72,"time_elapsed":189331,"internal_node_id":"0.0-8.0-1.16","subject":"nys2x0bfwz31qj2","sona":"7603"},{"trial_type":"turing-test","trial_index":73,"time_elapsed":193319,"internal_node_id":"0.0-8.0-2.16","subject":"nys2x0bfwz31qj2","sona":"7603"},{"rt":382.5399999986985,"stimulus":"<p>Welche Sequenz haben Sie als natürlicher empfunden?</p>","key_press":70,"test_part":"response","test_stimulus":{"position":0,"left":"bvh/pass-bottle-hold-training0-lines.txt","right":"bvh/vr_prediction_models/model(vcgpdm)-dataset(pass-bottle-hold)-mode(ELBO)-parts(3)-dyn(15)-lvm(30)-hold(0)/final-lines.txt","att_check":false},"trial_type":"html-keyboard-response","trial_index":74,"time_elapsed":193709,"internal_node_id":"0.0-8.0-3.16","subject":"nys2x0bfwz31qj2","sona":"7603"},{"rt":473.6750000010943,"stimulus":"<p>Bereit?</p>","key_press":32,"trial_type":"html-keyboard-response","trial_index":75,"time_elapsed":194187,"internal_node_id":"0.0-8.0-0.17","subject":"nys2x0bfwz31qj2","sona":"7603"},{"rt":null,"stimulus":"<div style=\"font-size:60px;\">+</div>","key_press":null,"trial_type":"html-keyboard-response","trial_index":76,"time_elapsed":196194,"internal_node_id":"0.0-8.0-1.17","subject":"nys2x0bfwz31qj2","sona":"7603"},{"trial_type":"turing-test","trial_index":77,"time_elapsed":200433,"internal_node_id":"0.0-8.0-2.17","subject":"nys2x0bfwz31qj2","sona":"7603"},{"rt":424.6899999998277,"stimulus":"<p>Welche Sequenz haben Sie als natürlicher empfunden?</p>","key_press":74,"test_part":"response","test_stimulus":{"position":1,"left":"bvh/vr_prediction_models/model(vcgpdm)-dataset(return-bottle-hold)-mode(ELBO)-parts(1)-dyn(35)-lvm(30)-hold(4)/final-lines.txt","right":"bvh/return-bottle-hold-training4-lines.txt","att_check":false},"trial_type":"html-keyboard-response","trial_index":78,"time_elapsed":200866,"internal_node_id":"0.0-8.0-3.17","subject":"nys2x0bfwz31qj2","sona":"7603"},{"rt":888.2299999968382,"stimulus":"<p>Bereit?</p>","key_press":32,"trial_type":"html-keyboard-response","trial_index":79,"time_elapsed":201763,"internal_node_id":"0.0-8.0-0.18","subject":"nys2x0bfwz31qj2","sona":"7603"},{"rt":null,"stimulus":"<div style=\"font-size:60px;\">+</div>","key_press":null,"trial_type":"html-keyboard-response","trial_index":80,"time_elapsed":203789,"internal_node_id":"0.0-8.0-1.18","subject":"nys2x0bfwz31qj2","sona":"7603"},{"trial_type":"turing-test","trial_index":81,"time_elapsed":210152,"internal_node_id":"0.0-8.0-2.18","subject":"nys2x0bfwz31qj2","sona":"7603"},{"rt":748.6649999991641,"stimulus":"<p>Welche Sequenz haben Sie als natürlicher empfunden?</p>","key_press":74,"test_part":"response","test_stimulus":{"position":1,"left":"bvh/vr_prediction_models/model(vcgpdm)-dataset(pass-bottle)-mode(ELBO)-parts(3)-dyn(30)-lvm(15)-hold(3)/final-lines.txt","right":"bvh/pass-bottle-training3-lines.txt","att_check":false},"trial_type":"html-keyboard-response","trial_index":82,"time_elapsed":210909,"internal_node_id":"0.0-8.0-3.18","subject":"nys2x0bfwz31qj2","sona":"7603"},{"rt":656.4250000010361,"stimulus":"<p>Bereit?</p>","key_press":32,"trial_type":"html-keyboard-response","trial_index":83,"time_elapsed":211574,"internal_node_id":"0.0-8.0-0.19","subject":"nys2x0bfwz31qj2","sona":"7603"},{"rt":null,"stimulus":"<div style=\"font-size:60px;\">+</div>","key_press":null,"trial_type":"html-keyboard-response","trial_index":84,"time_elapsed":213595,"internal_node_id":"0.0-8.0-1.19","subject":"nys2x0bfwz31qj2","sona":"7603"},{"trial_type":"turing-test","trial_index":85,"time_elapsed":217146,"internal_node_id":"0.0-8.0-2.19","subject":"nys2x0bfwz31qj2","sona":"7603"},{"rt":317.32999999803724,"stimulus":"<p>Welche Sequenz haben Sie als natürlicher empfunden?</p>","key_press":74,"test_part":"response","test_stimulus":{"position":0,"left":"bvh/pass-bottle-hold-training0-lines.txt","right":"bvh/vr_prediction_models/model(tmp)-dataset(pass-bottle-hold)-numprim(6)-hold(0)/final-lines.txt","att_check":false},"trial_type":"html-keyboard-response","trial_index":86,"time_elapsed":217469,"internal_node_id":"0.0-8.0-3.19","subject":"nys2x0bfwz31qj2","sona":"7603"},{"rt":561.8350000004284,"stimulus":"<p>Bereit?</p>","key_press":32,"trial_type":"html-keyboard-response","trial_index":87,"time_elapsed":218039,"internal_node_id":"0.0-8.0-0.20","subject":"nys2x0bfwz31qj2","sona":"7603"},{"rt":null,"stimulus":"<div style=\"font-size:60px;\">+</div>","key_press":null,"trial_type":"html-keyboard-response","trial_index":88,"time_elapsed":220062,"internal_node_id":"0.0-8.0-1.20","subject":"nys2x0bfwz31qj2","sona":"7603"},{"trial_type":"turing-test","trial_index":89,"time_elapsed":223634,"internal_node_id":"0.0-8.0-2.20","subject":"nys2x0bfwz31qj2","sona":"7603"},{"rt":391.6650000028312,"stimulus":"<p>Welche Sequenz haben Sie als natürlicher empfunden?</p>","key_press":74,"test_part":"response","test_stimulus":{"position":1,"left":"bvh/vr_prediction_models/model(tmp)-dataset(return-bottle-hold)-numprim(4)-hold(2)/final-lines.txt","right":"bvh/return-bottle-hold-training2-lines.txt","att_check":false},"trial_type":"html-keyboard-response","trial_index":90,"time_elapsed":224035,"internal_node_id":"0.0-8.0-3.20","subject":"nys2x0bfwz31qj2","sona":"7603"},{"rt":502.44499999826076,"stimulus":"<p>Bereit?</p>","key_press":32,"trial_type":"html-keyboard-response","trial_index":91,"time_elapsed":224542,"internal_node_id":"0.0-8.0-0.21","subject":"nys2x0bfwz31qj2","sona":"7603"},{"rt":null,"stimulus":"<div style=\"font-size:60px;\">+</div>","key_press":null,"trial_type":"html-keyboard-response","trial_index":92,"time_elapsed":226565,"internal_node_id":"0.0-8.0-1.21","subject":"nys2x0bfwz31qj2","sona":"7603"},{"trial_type":"turing-test","trial_index":93,"time_elapsed":230281,"internal_node_id":"0.0-8.0-2.21","subject":"nys2x0bfwz31qj2","sona":"7603"},{"rt":120.54000000352971,"stimulus":"<p>Welche Sequenz haben Sie als natürlicher empfunden?</p>","key_press":70,"test_part":"response","test_stimulus":{"position":0,"left":"bvh/pass-bottle-hold-training3-lines.txt","right":"bvh/vr_prediction_models/model(dmp)-dataset(pass-bottle-hold)-npsi(80)-hold(3)/final-lines.txt","att_check":false},"trial_type":"html-keyboard-response","trial_index":94,"time_elapsed":230408,"internal_node_id":"0.0-8.0-3.21","subject":"nys2x0bfwz31qj2","sona":"7603"},{"rt":748.6400000052527,"stimulus":"<p>Bereit?</p>","key_press":32,"trial_type":"html-keyboard-response","trial_index":95,"time_elapsed":231163,"internal_node_id":"0.0-8.0-0.22","subject":"nys2x0bfwz31qj2","sona":"7603"},{"rt":null,"stimulus":"<div style=\"font-size:60px;\">+</div>","key_press":null,"trial_type":"html-keyboard-response","trial_index":96,"time_elapsed":233173,"internal_node_id":"0.0-8.0-1.22","subject":"nys2x0bfwz31qj2","sona":"7603"},{"trial_type":"turing-test","trial_index":97,"time_elapsed":239562,"internal_node_id":"0.0-8.0-2.22","subject":"nys2x0bfwz31qj2","sona":"7603"},{"rt":313.14500000007683,"stimulus":"<p>Welche Sequenz haben Sie als natürlicher empfunden?</p>","key_press":70,"test_part":"response","test_stimulus":{"position":0,"left":"bvh/pass-bottle-training2-lines.txt","right":"bvh/vr_prediction_models/model(tmp)-dataset(pass-bottle)-numprim(14)-hold(2)/final-lines.txt","att_check":false},"trial_type":"html-keyboard-response","trial_index":98,"time_elapsed":239878,"internal_node_id":"0.0-8.0-3.22","subject":"nys2x0bfwz31qj2","sona":"7603"},{"rt":458.3500000007916,"stimulus":"<p>Bereit?</p>","key_press":32,"trial_type":"html-keyboard-response","trial_index":99,"time_elapsed":240341,"internal_node_id":"0.0-8.0-0.23","subject":"nys2x0bfwz31qj2","sona":"7603"},{"rt":null,"stimulus":"<div style=\"font-size:60px;\">+</div>","key_press":null,"trial_type":"html-keyboard-response","trial_index":100,"time_elapsed":242362,"internal_node_id":"0.0-8.0-1.23","subject":"nys2x0bfwz31qj2","sona":"7603"},{"trial_type":"turing-test","trial_index":101,"time_elapsed":246865,"internal_node_id":"0.0-8.0-2.23","subject":"nys2x0bfwz31qj2","sona":"7603"},{"rt":527.2699999986799,"stimulus":"<p>Welche Sequenz haben Sie als natürlicher empfunden?</p>","key_press":70,"test_part":"response","test_stimulus":{"position":1,"left":"bvh/vr_prediction_models/model(vcgpdm)-dataset(pass-bottle-hold)-mode(ELBO)-parts(1)-dyn(20)-lvm(30)-hold(4)/final-lines.txt","right":"bvh/pass-bottle-hold-training4-lines.txt","att_check":false},"trial_type":"html-keyboard-response","trial_index":102,"time_elapsed":247400,"internal_node_id":"0.0-8.0-3.23","subject":"nys2x0bfwz31qj2","sona":"7603"},{"rt":393.6549999998533,"stimulus":"<p>Bereit?</p>","key_press":32,"trial_type":"html-keyboard-response","trial_index":103,"time_elapsed":247799,"internal_node_id":"0.0-8.0-0.24","subject":"nys2x0bfwz31qj2","sona":"7603"},{"rt":null,"stimulus":"<div style=\"font-size:60px;\">+</div>","key_press":null,"trial_type":"html-keyboard-response","trial_index":104,"time_elapsed":249826,"internal_node_id":"0.0-8.0-1.24","subject":"nys2x0bfwz31qj2","sona":"7603"},{"trial_type":"turing-test","trial_index":105,"time_elapsed":255951,"internal_node_id":"0.0-8.0-2.24","subject":"nys2x0bfwz31qj2","sona":"7603"},{"rt":137.5800000023446,"stimulus":"<p>Welche Sequenz haben Sie als natürlicher empfunden?</p>","key_press":70,"test_part":"response","test_stimulus":{"position":0,"left":"bvh/return-bottle-training1-lines.txt","right":"bvh/vr_prediction_models/model(tmp)-dataset(return-bottle)-numprim(7)-hold(1)/final-lines.txt","att_check":false},"trial_type":"html-keyboard-response","trial_index":106,"time_elapsed":256101,"internal_node_id":"0.0-8.0-3.24","subject":"nys2x0bfwz31qj2","sona":"7603"},{"rt":733.8500000041677,"stimulus":"<p>Bereit?</p>","key_press":32,"trial_type":"html-keyboard-response","trial_index":107,"time_elapsed":256842,"internal_node_id":"0.0-8.0-0.25","subject":"nys2x0bfwz31qj2","sona":"7603"},{"rt":null,"stimulus":"<div style=\"font-size:60px;\">+</div>","key_press":null,"trial_type":"html-keyboard-response","trial_index":108,"time_elapsed":258862,"internal_node_id":"0.0-8.0-1.25","subject":"nys2x0bfwz31qj2","sona":"7603"},{"trial_type":"turing-test","trial_index":109,"time_elapsed":262332,"internal_node_id":"0.0-8.0-2.25","subject":"nys2x0bfwz31qj2","sona":"7603"},{"rt":283.11000000394415,"stimulus":"<p>Welche Sequenz haben Sie als natürlicher empfunden?</p>","key_press":70,"test_part":"response","test_stimulus":{"position":1,"left":"bvh/vr_prediction_models/model(dmp)-dataset(pass-bottle-hold)-npsi(80)-hold(2)/final-lines.txt","right":"bvh/pass-bottle-hold-training2-lines.txt","att_check":false},"trial_type":"html-keyboard-response","trial_index":110,"time_elapsed":262618,"internal_node_id":"0.0-8.0-3.25","subject":"nys2x0bfwz31qj2","sona":"7603"},{"rt":437.4050000042189,"stimulus":"<p>Bereit?</p>","key_press":32,"trial_type":"html-keyboard-response","trial_index":111,"time_elapsed":263062,"internal_node_id":"0.0-8.0-0.26","subject":"nys2x0bfwz31qj2","sona":"7603"},{"rt":null,"stimulus":"<div style=\"font-size:60px;\">+</div>","key_press":null,"trial_type":"html-keyboard-response","trial_index":112,"time_elapsed":265087,"internal_node_id":"0.0-8.0-1.26","subject":"nys2x0bfwz31qj2","sona":"7603"},{"trial_type":"turing-test","trial_index":113,"time_elapsed":269766,"internal_node_id":"0.0-8.0-2.26","subject":"nys2x0bfwz31qj2","sona":"7603"},{"rt":2427.1200000002864,"stimulus":"<p>Welche Sequenz haben Sie als natürlicher empfunden?</p>","key_press":70,"test_part":"response","test_stimulus":{"position":0,"left":"bvh/pass-bottle-hold-training3-lines.txt","right":"bvh/vr_prediction_models/model(vcgpdm)-dataset(pass-bottle-hold)-mode(MAP)-parts(3)-hold(3)/final-lines.txt","att_check":false},"trial_type":"html-keyboard-response","trial_index":114,"time_elapsed":272199,"internal_node_id":"0.0-8.0-3.26","subject":"nys2x0bfwz31qj2","sona":"7603"},{"rt":860.5349999997998,"stimulus":"<p>Bereit?</p>","key_press":32,"trial_type":"html-keyboard-response","trial_index":115,"time_elapsed":273062,"internal_node_id":"0.0-8.0-0.27","subject":"nys2x0bfwz31qj2","sona":"7603"},{"rt":null,"stimulus":"<div style=\"font-size:60px;\">+</div>","key_press":null,"trial_type":"html-keyboard-response","trial_index":116,"time_elapsed":275080,"internal_node_id":"0.0-8.0-1.27","subject":"nys2x0bfwz31qj2","sona":"7603"},{"trial_type":"turing-test","trial_index":117,"time_elapsed":278804,"internal_node_id":"0.0-8.0-2.27","subject":"nys2x0bfwz31qj2","sona":"7603"},{"rt":391.17999999871245,"stimulus":"<p>Welche Sequenz haben Sie als natürlicher empfunden?</p>","key_press":74,"test_part":"response","test_stimulus":{"position":0,"left":"bvh/return-bottle-hold-training4-lines.txt","right":"bvh/vr_prediction_models/model(tmp)-dataset(return-bottle-hold)-numprim(11)-hold(4)/final-lines.txt","att_check":false},"trial_type":"html-keyboard-response","trial_index":118,"time_elapsed":279204,"internal_node_id":"0.0-8.0-3.27","subject":"nys2x0bfwz31qj2","sona":"7603"},{"rt":559.6150000055786,"stimulus":"<p>Bereit?</p>","key_press":32,"trial_type":"html-keyboard-response","trial_index":119,"time_elapsed":279768,"internal_node_id":"0.0-8.0-0.28","subject":"nys2x0bfwz31qj2","sona":"7603"},{"rt":null,"stimulus":"<div style=\"font-size:60px;\">+</div>","key_press":null,"trial_type":"html-keyboard-response","trial_index":120,"time_elapsed":281789,"internal_node_id":"0.0-8.0-1.28","subject":"nys2x0bfwz31qj2","sona":"7603"},{"trial_type":"turing-test","trial_index":121,"time_elapsed":288840,"internal_node_id":"0.0-8.0-2.28","subject":"nys2x0bfwz31qj2","sona":"7603"},{"rt":484.8299999939627,"stimulus":"<p>Welche Sequenz haben Sie als natürlicher empfunden?</p>","key_press":74,"test_part":"response","test_stimulus":{"position":1,"left":"bvh/vr_prediction_models/model(vcgpdm)-dataset(return-bottle)-mode(ELBO)-parts(1)-dyn(20)-lvm(5)-hold(2)/final-lines.txt","right":"bvh/return-bottle-training2-lines.txt","att_check":false},"trial_type":"html-keyboard-response","trial_index":122,"time_elapsed":289332,"internal_node_id":"0.0-8.0-3.28","subject":"nys2x0bfwz31qj2","sona":"7603"},{"rt":506.58999999723164,"stimulus":"<p>Bereit?</p>","key_press":32,"trial_type":"html-keyboard-response","trial_index":123,"time_elapsed":289843,"internal_node_id":"0.0-8.0-0.29","subject":"nys2x0bfwz31qj2","sona":"7603"},{"rt":null,"stimulus":"<div style=\"font-size:60px;\">+</div>","key_press":null,"trial_type":"html-keyboard-response","trial_index":124,"time_elapsed":291871,"internal_node_id":"0.0-8.0-1.29","subject":"nys2x0bfwz31qj2","sona":"7603"},{"trial_type":"turing-test","trial_index":125,"time_elapsed":296167,"internal_node_id":"0.0-8.0-2.29","subject":"nys2x0bfwz31qj2","sona":"7603"},{"rt":310.23499999719206,"stimulus":"<p>Welche Sequenz haben Sie als natürlicher empfunden?</p>","key_press":74,"test_part":"response","test_stimulus":{"position":1,"left":"bvh/vr_prediction_models/model(vcgpdm)-dataset(pass-bottle-hold)-mode(ELBO)-parts(3)-dyn(20)-lvm(15)-hold(4)/final-lines.txt","right":"bvh/pass-bottle-hold-training4-lines.txt","att_check":false},"trial_type":"html-keyboard-response","trial_index":126,"time_elapsed":296489,"internal_node_id":"0.0-8.0-3.29","subject":"nys2x0bfwz31qj2","sona":"7603"},{"rt":395.75499999773456,"stimulus":"<p>Bereit?</p>","key_press":32,"trial_type":"html-keyboard-response","trial_index":127,"time_elapsed":296890,"internal_node_id":"0.0-8.0-0.30","subject":"nys2x0bfwz31qj2","sona":"7603"},{"rt":null,"stimulus":"<div style=\"font-size:60px;\">+</div>","key_press":null,"trial_type":"html-keyboard-response","trial_index":128,"time_elapsed":298911,"internal_node_id":"0.0-8.0-1.30","subject":"nys2x0bfwz31qj2","sona":"7603"},{"trial_type":"turing-test","trial_index":129,"time_elapsed":305674,"internal_node_id":"0.0-8.0-2.30","subject":"nys2x0bfwz31qj2","sona":"7603"},{"rt":470.9950000033132,"stimulus":"<p>Welche Sequenz haben Sie als natürlicher empfunden?</p>","key_press":70,"test_part":"response","test_stimulus":{"position":1,"left":"bvh/vr_prediction_models/model(dmp)-dataset(return-bottle)-npsi(70)-hold(2)/final-lines.txt","right":"bvh/return-bottle-training2-lines.txt","att_check":false},"trial_type":"html-keyboard-response","trial_index":130,"time_elapsed":306158,"internal_node_id":"0.0-8.0-3.30","subject":"nys2x0bfwz31qj2","sona":"7603"},{"rt":544.6000000010827,"stimulus":"<p>Bereit?</p>","key_press":32,"trial_type":"html-keyboard-response","trial_index":131,"time_elapsed":306708,"internal_node_id":"0.0-8.0-0.31","subject":"nys2x0bfwz31qj2","sona":"7603"},{"rt":null,"stimulus":"<div style=\"font-size:60px;\">+</div>","key_press":null,"trial_type":"html-keyboard-response","trial_index":132,"time_elapsed":308739,"internal_node_id":"0.0-8.0-1.31","subject":"nys2x0bfwz31qj2","sona":"7603"},{"trial_type":"turing-test","trial_index":133,"time_elapsed":315109,"internal_node_id":"0.0-8.0-2.31","subject":"nys2x0bfwz31qj2","sona":"7603"},{"rt":488.8500000015483,"stimulus":"<p>Welche Sequenz haben Sie als natürlicher empfunden?</p>","key_press":74,"test_part":"response","test_stimulus":{"position":1,"left":"bvh/vr_prediction_models/model(vcgpdm)-dataset(pass-bottle)-mode(ELBO)-parts(1)-dyn(10)-lvm(5)-hold(3)/final-lines.txt","right":"bvh/pass-bottle-training3-lines.txt","att_check":false},"trial_type":"html-keyboard-response","trial_index":134,"time_elapsed":315606,"internal_node_id":"0.0-8.0-3.31","subject":"nys2x0bfwz31qj2","sona":"7603"},{"rt":346.08500000467757,"stimulus":"<p>Bereit?</p>","key_press":32,"trial_type":"html-keyboard-response","trial_index":135,"time_elapsed":315956,"internal_node_id":"0.0-8.0-0.32","subject":"nys2x0bfwz31qj2","sona":"7603"},{"rt":null,"stimulus":"<div style=\"font-size:60px;\">+</div>","key_press":null,"trial_type":"html-keyboard-response","trial_index":136,"time_elapsed":317964,"internal_node_id":"0.0-8.0-1.32","subject":"nys2x0bfwz31qj2","sona":"7603"},{"trial_type":"turing-test","trial_index":137,"time_elapsed":324789,"internal_node_id":"0.0-8.0-2.32","subject":"nys2x0bfwz31qj2","sona":"7603"},{"rt":15.129999999771826,"stimulus":"<p>Welche Sequenz haben Sie als natürlicher empfunden?</p>","key_press":74,"test_part":"response","test_stimulus":{"position":1,"left":"bvh/vr_prediction_models/model(vcgpdm)-dataset(return-bottle)-mode(ELBO)-parts(3)-dyn(10)-lvm(10)-hold(2)/final-lines.txt","right":"bvh/return-bottle-training2-lines.txt","att_check":false},"trial_type":"html-keyboard-response","trial_index":138,"time_elapsed":324812,"internal_node_id":"0.0-8.0-3.32","subject":"nys2x0bfwz31qj2","sona":"7603"},{"rt":790.4550000021118,"stimulus":"<p>Bereit?</p>","key_press":32,"trial_type":"html-keyboard-response","trial_index":139,"time_elapsed":325608,"internal_node_id":"0.0-8.0-0.33","subject":"nys2x0bfwz31qj2","sona":"7603"},{"rt":null,"stimulus":"<div style=\"font-size:60px;\">+</div>","key_press":null,"trial_type":"html-keyboard-response","trial_index":140,"time_elapsed":327640,"internal_node_id":"0.0-8.0-1.33","subject":"nys2x0bfwz31qj2","sona":"7603"},{"trial_type":"turing-test","trial_index":141,"time_elapsed":331275,"internal_node_id":"0.0-8.0-2.33","subject":"nys2x0bfwz31qj2","sona":"7603"},{"rt":327.81999999861,"stimulus":"<p>Welche Sequenz haben Sie als natürlicher empfunden?</p>","key_press":70,"test_part":"response","test_stimulus":{"position":0,"left":"bvh/return-bottle-hold-training2-lines.txt","right":"bvh/vr_prediction_models/model(dmp)-dataset(return-bottle-hold)-npsi(10)-hold(2)/final-lines.txt","att_check":true},"trial_type":"html-keyboard-response","trial_index":142,"time_elapsed":331606,"internal_node_id":"0.0-8.0-3.33","subject":"nys2x0bfwz31qj2","sona":"7603"},{"rt":519.4100000007893,"stimulus":"<p>Bereit?</p>","key_press":32,"trial_type":"html-keyboard-response","trial_index":143,"time_elapsed":332131,"internal_node_id":"0.0-8.0-0.34","subject":"nys2x0bfwz31qj2","sona":"7603"},{"rt":null,"stimulus":"<div style=\"font-size:60px;\">+</div>","key_press":null,"trial_type":"html-keyboard-response","trial_index":144,"time_elapsed":334155,"internal_node_id":"0.0-8.0-1.34","subject":"nys2x0bfwz31qj2","sona":"7603"},{"trial_type":"turing-test","trial_index":145,"time_elapsed":337982,"internal_node_id":"0.0-8.0-2.34","subject":"nys2x0bfwz31qj2","sona":"7603"},{"rt":320.48000000213506,"stimulus":"<p>Welche Sequenz haben Sie als natürlicher empfunden?</p>","key_press":74,"test_part":"response","test_stimulus":{"position":1,"left":"bvh/vr_prediction_models/model(dmp)-dataset(pass-bottle-hold)-npsi(90)-hold(4)/final-lines.txt","right":"bvh/pass-bottle-hold-training4-lines.txt","att_check":true},"trial_type":"html-keyboard-response","trial_index":146,"time_elapsed":338313,"internal_node_id":"0.0-8.0-3.34","subject":"nys2x0bfwz31qj2","sona":"7603"},{"rt":371.2149999992107,"stimulus":"<p>Bereit?</p>","key_press":32,"trial_type":"html-keyboard-response","trial_index":147,"time_elapsed":338692,"internal_node_id":"0.0-8.0-0.35","subject":"nys2x0bfwz31qj2","sona":"7603"},{"rt":null,"stimulus":"<div style=\"font-size:60px;\">+</div>","key_press":null,"trial_type":"html-keyboard-response","trial_index":148,"time_elapsed":340718,"internal_node_id":"0.0-8.0-1.35","subject":"nys2x0bfwz31qj2","sona":"7603"},{"trial_type":"turing-test","trial_index":149,"time_elapsed":343985,"internal_node_id":"0.0-8.0-2.35","subject":"nys2x0bfwz31qj2","sona":"7603"},{"rt":291.4000000018859,"stimulus":"<p>Welche Sequenz haben Sie als natürlicher empfunden?</p>","key_press":74,"test_part":"response","test_stimulus":{"position":0,"left":"bvh/pass-bottle-hold-training1-lines.txt","right":"bvh/vr_prediction_models/model(tmp)-dataset(pass-bottle-hold)-numprim(13)-hold(1)/final-lines.txt","att_check":false},"trial_type":"html-keyboard-response","trial_index":150,"time_elapsed":344286,"internal_node_id":"0.0-8.0-3.35","subject":"nys2x0bfwz31qj2","sona":"7603"},{"rt":346.5199999991455,"stimulus":"<p>Bereit?</p>","key_press":32,"trial_type":"html-keyboard-response","trial_index":151,"time_elapsed":344639,"internal_node_id":"0.0-8.0-0.36","subject":"nys2x0bfwz31qj2","sona":"7603"},{"rt":null,"stimulus":"<div style=\"font-size:60px;\">+</div>","key_press":null,"trial_type":"html-keyboard-response","trial_index":152,"time_elapsed":346667,"internal_node_id":"0.0-8.0-1.36","subject":"nys2x0bfwz31qj2","sona":"7603"},{"trial_type":"turing-test","trial_index":153,"time_elapsed":352970,"internal_node_id":"0.0-8.0-2.36","subject":"nys2x0bfwz31qj2","sona":"7603"},{"rt":375.5799999998999,"stimulus":"<p>Welche Sequenz haben Sie als natürlicher empfunden?</p>","key_press":74,"test_part":"response","test_stimulus":{"position":0,"left":"bvh/pass-bottle-training4-lines.txt","right":"bvh/vr_prediction_models/model(vcgpdm)-dataset(pass-bottle)-mode(ELBO)-parts(1)-dyn(35)-lvm(10)-hold(4)/final-lines.txt","att_check":false},"trial_type":"html-keyboard-response","trial_index":154,"time_elapsed":353354,"internal_node_id":"0.0-8.0-3.36","subject":"nys2x0bfwz31qj2","sona":"7603"},{"rt":544.2849999963073,"stimulus":"<p>Bereit?</p>","key_press":32,"trial_type":"html-keyboard-response","trial_index":155,"time_elapsed":353905,"internal_node_id":"0.0-8.0-0.37","subject":"nys2x0bfwz31qj2","sona":"7603"},{"rt":null,"stimulus":"<div style=\"font-size:60px;\">+</div>","key_press":null,"trial_type":"html-keyboard-response","trial_index":156,"time_elapsed":355929,"internal_node_id":"0.0-8.0-1.37","subject":"nys2x0bfwz31qj2","sona":"7603"},{"trial_type":"turing-test","trial_index":157,"time_elapsed":359820,"internal_node_id":"0.0-8.0-2.37","subject":"nys2x0bfwz31qj2","sona":"7603"},{"rt":303.15499999414897,"stimulus":"<p>Welche Sequenz haben Sie als natürlicher empfunden?</p>","key_press":74,"test_part":"response","test_stimulus":{"position":0,"left":"bvh/pass-bottle-hold-training2-lines.txt","right":"bvh/vr_prediction_models/model(vcgpdm)-dataset(pass-bottle-hold)-mode(ELBO)-parts(3)-dyn(10)-lvm(10)-hold(2)/final-lines.txt","att_check":false},"trial_type":"html-keyboard-response","trial_index":158,"time_elapsed":360130,"internal_node_id":"0.0-8.0-3.37","subject":"nys2x0bfwz31qj2","sona":"7603"},{"rt":455.0450000024284,"stimulus":"<p>Bereit?</p>","key_press":32,"trial_type":"html-keyboard-response","trial_index":159,"time_elapsed":360592,"internal_node_id":"0.0-8.0-0.38","subject":"nys2x0bfwz31qj2","sona":"7603"},{"rt":null,"stimulus":"<div style=\"font-size:60px;\">+</div>","key_press":null,"trial_type":"html-keyboard-response","trial_index":160,"time_elapsed":362612,"internal_node_id":"0.0-8.0-1.38","subject":"nys2x0bfwz31qj2","sona":"7603"},{"trial_type":"turing-test","trial_index":161,"time_elapsed":366365,"internal_node_id":"0.0-8.0-2.38","subject":"nys2x0bfwz31qj2","sona":"7603"},{"rt":443.77499999973224,"stimulus":"<p>Welche Sequenz haben Sie als natürlicher empfunden?</p>","key_press":74,"test_part":"response","test_stimulus":{"position":0,"left":"bvh/pass-bottle-hold-training3-lines.txt","right":"bvh/vr_prediction_models/model(tmp)-dataset(pass-bottle-hold)-numprim(10)-hold(3)/final-lines.txt","att_check":false},"trial_type":"html-keyboard-response","trial_index":162,"time_elapsed":366816,"internal_node_id":"0.0-8.0-3.38","subject":"nys2x0bfwz31qj2","sona":"7603"},{"rt":243.14500000036787,"stimulus":"<p>Bereit?</p>","key_press":32,"trial_type":"html-keyboard-response","trial_index":163,"time_elapsed":367066,"internal_node_id":"0.0-8.0-0.39","subject":"nys2x0bfwz31qj2","sona":"7603"},{"rt":null,"stimulus":"<div style=\"font-size:60px;\">+</div>","key_press":null,"trial_type":"html-keyboard-response","trial_index":164,"time_elapsed":369084,"internal_node_id":"0.0-8.0-1.39","subject":"nys2x0bfwz31qj2","sona":"7603"},{"trial_type":"turing-test","trial_index":165,"time_elapsed":374906,"internal_node_id":"0.0-8.0-2.39","subject":"nys2x0bfwz31qj2","sona":"7603"},{"rt":578.0650000015157,"stimulus":"<p>Welche Sequenz haben Sie als natürlicher empfunden?</p>","key_press":74,"test_part":"response","test_stimulus":{"position":0,"left":"bvh/pass-bottle-training1-lines.txt","right":"bvh/vr_prediction_models/model(vcgpdm)-dataset(pass-bottle)-mode(ELBO)-parts(1)-dyn(30)-lvm(30)-hold(1)/final-lines.txt","att_check":false},"trial_type":"html-keyboard-response","trial_index":166,"time_elapsed":375494,"internal_node_id":"0.0-8.0-3.39","subject":"nys2x0bfwz31qj2","sona":"7603"},{"rt":378.05500000104075,"stimulus":"<p>Bereit?</p>","key_press":32,"trial_type":"html-keyboard-response","trial_index":167,"time_elapsed":375878,"internal_node_id":"0.0-8.0-0.40","subject":"nys2x0bfwz31qj2","sona":"7603"},{"rt":null,"stimulus":"<div style=\"font-size:60px;\">+</div>","key_press":null,"trial_type":"html-keyboard-response","trial_index":168,"time_elapsed":377909,"internal_node_id":"0.0-8.0-1.40","subject":"nys2x0bfwz31qj2","sona":"7603"},{"trial_type":"turing-test","trial_index":169,"time_elapsed":382014,"internal_node_id":"0.0-8.0-2.40","subject":"nys2x0bfwz31qj2","sona":"7603"},{"rt":343.89999999984866,"stimulus":"<p>Welche Sequenz haben Sie als natürlicher empfunden?</p>","key_press":74,"test_part":"response","test_stimulus":{"position":1,"left":"bvh/vr_prediction_models/model(vcgpdm)-dataset(pass-bottle-hold)-mode(ELBO)-parts(1)-dyn(30)-lvm(20)-hold(4)/final-lines.txt","right":"bvh/pass-bottle-hold-training4-lines.txt","att_check":false},"trial_type":"html-keyboard-response","trial_index":170,"time_elapsed":382366,"internal_node_id":"0.0-8.0-3.40","subject":"nys2x0bfwz31qj2","sona":"7603"},{"rt":748.7900000051013,"stimulus":"<p>Bereit?</p>","key_press":32,"trial_type":"html-keyboard-response","trial_index":171,"time_elapsed":383121,"internal_node_id":"0.0-8.0-0.41","subject":"nys2x0bfwz31qj2","sona":"7603"},{"rt":null,"stimulus":"<div style=\"font-size:60px;\">+</div>","key_press":null,"trial_type":"html-keyboard-response","trial_index":172,"time_elapsed":385144,"internal_node_id":"0.0-8.0-1.41","subject":"nys2x0bfwz31qj2","sona":"7603"},{"trial_type":"turing-test","trial_index":173,"time_elapsed":391318,"internal_node_id":"0.0-8.0-2.41","subject":"nys2x0bfwz31qj2","sona":"7603"},{"rt":447.3900000011781,"stimulus":"<p>Welche Sequenz haben Sie als natürlicher empfunden?</p>","key_press":70,"test_part":"response","test_stimulus":{"position":0,"left":"bvh/pass-bottle-training2-lines.txt","right":"bvh/vr_prediction_models/model(dmp)-dataset(pass-bottle)-npsi(50)-hold(2)/final-lines.txt","att_check":false},"trial_type":"html-keyboard-response","trial_index":174,"time_elapsed":391771,"internal_node_id":"0.0-8.0-3.41","subject":"nys2x0bfwz31qj2","sona":"7603"},{"rt":357.10500000277534,"stimulus":"<p>Bereit?</p>","key_press":32,"trial_type":"html-keyboard-response","trial_index":175,"time_elapsed":392137,"internal_node_id":"0.0-8.0-0.42","subject":"nys2x0bfwz31qj2","sona":"7603"},{"rt":null,"stimulus":"<div style=\"font-size:60px;\">+</div>","key_press":null,"trial_type":"html-keyboard-response","trial_index":176,"time_elapsed":394159,"internal_node_id":"0.0-8.0-1.42","subject":"nys2x0bfwz31qj2","sona":"7603"},{"trial_type":"turing-test","trial_index":177,"time_elapsed":398250,"internal_node_id":"0.0-8.0-2.42","subject":"nys2x0bfwz31qj2","sona":"7603"},{"rt":302.49000000185333,"stimulus":"<p>Welche Sequenz haben Sie als natürlicher empfunden?</p>","key_press":74,"test_part":"response","test_stimulus":{"position":1,"left":"bvh/vr_prediction_models/model(vcgpdm)-dataset(pass-bottle-hold)-mode(ELBO)-parts(3)-dyn(10)-lvm(30)-hold(4)/final-lines.txt","right":"bvh/pass-bottle-hold-training4-lines.txt","att_check":false},"trial_type":"html-keyboard-response","trial_index":178,"time_elapsed":398565,"internal_node_id":"0.0-8.0-3.42","subject":"nys2x0bfwz31qj2","sona":"7603"},{"rt":391.8100000009872,"stimulus":"<p>Bereit?</p>","key_press":32,"trial_type":"html-keyboard-response","trial_index":179,"time_elapsed":398964,"internal_node_id":"0.0-8.0-0.43","subject":"nys2x0bfwz31qj2","sona":"7603"},{"rt":null,"stimulus":"<div style=\"font-size:60px;\">+</div>","key_press":null,"trial_type":"html-keyboard-response","trial_index":180,"time_elapsed":400983,"internal_node_id":"0.0-8.0-1.43","subject":"nys2x0bfwz31qj2","sona":"7603"},{"trial_type":"turing-test","trial_index":181,"time_elapsed":404654,"internal_node_id":"0.0-8.0-2.43","subject":"nys2x0bfwz31qj2","sona":"7603"},{"rt":260.75999999738997,"stimulus":"<p>Welche Sequenz haben Sie als natürlicher empfunden?</p>","key_press":74,"test_part":"response","test_stimulus":{"position":1,"left":"bvh/vr_prediction_models/model(vcgpdm)-dataset(pass-bottle-hold)-mode(ELBO)-parts(1)-dyn(30)-lvm(20)-hold(4)/final-lines.txt","right":"bvh/pass-bottle-hold-training4-lines.txt","att_check":false},"trial_type":"html-keyboard-response","trial_index":182,"time_elapsed":404924,"internal_node_id":"0.0-8.0-3.43","subject":"nys2x0bfwz31qj2","sona":"7603"},{"rt":401.5750000035041,"stimulus":"<p>Bereit?</p>","key_press":32,"trial_type":"html-keyboard-response","trial_index":183,"time_elapsed":405332,"internal_node_id":"0.0-8.0-0.44","subject":"nys2x0bfwz31qj2","sona":"7603"},{"rt":null,"stimulus":"<div style=\"font-size:60px;\">+</div>","key_press":null,"trial_type":"html-keyboard-response","trial_index":184,"time_elapsed":407349,"internal_node_id":"0.0-8.0-1.44","subject":"nys2x0bfwz31qj2","sona":"7603"},{"trial_type":"turing-test","trial_index":185,"time_elapsed":411284,"internal_node_id":"0.0-8.0-2.44","subject":"nys2x0bfwz31qj2","sona":"7603"},{"rt":448.9400000020396,"stimulus":"<p>Welche Sequenz haben Sie als natürlicher empfunden?</p>","key_press":74,"test_part":"response","test_stimulus":{"position":0,"left":"bvh/pass-bottle-hold-training0-lines.txt","right":"bvh/vr_prediction_models/model(vcgpdm)-dataset(pass-bottle-hold)-mode(ELBO)-parts(1)-dyn(30)-lvm(20)-hold(0)/final-lines.txt","att_check":false},"trial_type":"html-keyboard-response","trial_index":186,"time_elapsed":411741,"internal_node_id":"0.0-8.0-3.44","subject":"nys2x0bfwz31qj2","sona":"7603"},{"rt":324.13500000257045,"stimulus":"<p>Bereit?</p>","key_press":32,"trial_type":"html-keyboard-response","trial_index":187,"time_elapsed":412073,"internal_node_id":"0.0-8.0-0.45","subject":"nys2x0bfwz31qj2","sona":"7603"},{"rt":null,"stimulus":"<div style=\"font-size:60px;\">+</div>","key_press":null,"trial_type":"html-keyboard-response","trial_index":188,"time_elapsed":414095,"internal_node_id":"0.0-8.0-1.45","subject":"nys2x0bfwz31qj2","sona":"7603"},{"trial_type":"turing-test","trial_index":189,"time_elapsed":417470,"internal_node_id":"0.0-8.0-2.45","subject":"nys2x0bfwz31qj2","sona":"7603"},{"rt":332.0449999955599,"stimulus":"<p>Welche Sequenz haben Sie als natürlicher empfunden?</p>","key_press":74,"test_part":"response","test_stimulus":{"position":1,"left":"bvh/vr_prediction_models/model(dmp)-dataset(pass-bottle-hold)-npsi(10)-hold(1)/final-lines.txt","right":"bvh/pass-bottle-hold-training1-lines.txt","att_check":false},"trial_type":"html-keyboard-response","trial_index":190,"time_elapsed":417811,"internal_node_id":"0.0-8.0-3.45","subject":"nys2x0bfwz31qj2","sona":"7603"},{"rt":385.13000000239117,"stimulus":"<p>Bereit?</p>","key_press":32,"trial_type":"html-keyboard-response","trial_index":191,"time_elapsed":418204,"internal_node_id":"0.0-8.0-0.46","subject":"nys2x0bfwz31qj2","sona":"7603"},{"rt":null,"stimulus":"<div style=\"font-size:60px;\">+</div>","key_press":null,"trial_type":"html-keyboard-response","trial_index":192,"time_elapsed":420221,"internal_node_id":"0.0-8.0-1.46","subject":"nys2x0bfwz31qj2","sona":"7603"},{"trial_type":"turing-test","trial_index":193,"time_elapsed":426326,"internal_node_id":"0.0-8.0-2.46","subject":"nys2x0bfwz31qj2","sona":"7603"},{"rt":533.304999997199,"stimulus":"<p>Welche Sequenz haben Sie als natürlicher empfunden?</p>","key_press":74,"test_part":"response","test_stimulus":{"position":1,"left":"bvh/vr_prediction_models/model(vcgpdm)-dataset(return-bottle)-mode(ELBO)-parts(1)-dyn(25)-lvm(35)-hold(0)/final-lines.txt","right":"bvh/return-bottle-training0-lines.txt","att_check":false},"trial_type":"html-keyboard-response","trial_index":194,"time_elapsed":426864,"internal_node_id":"0.0-8.0-3.46","subject":"nys2x0bfwz31qj2","sona":"7603"},{"rt":344.8800000041956,"stimulus":"<p>Bereit?</p>","key_press":32,"trial_type":"html-keyboard-response","trial_index":195,"time_elapsed":427216,"internal_node_id":"0.0-8.0-0.47","subject":"nys2x0bfwz31qj2","sona":"7603"},{"rt":null,"stimulus":"<div style=\"font-size:60px;\">+</div>","key_press":null,"trial_type":"html-keyboard-response","trial_index":196,"time_elapsed":429234,"internal_node_id":"0.0-8.0-1.47","subject":"nys2x0bfwz31qj2","sona":"7603"},{"trial_type":"turing-test","trial_index":197,"time_elapsed":433156,"internal_node_id":"0.0-8.0-2.47","subject":"nys2x0bfwz31qj2","sona":"7603"},{"rt":537.0350000011967,"stimulus":"<p>Welche Sequenz haben Sie als natürlicher empfunden?</p>","key_press":74,"test_part":"response","test_stimulus":{"position":0,"left":"bvh/return-bottle-hold-training1-lines.txt","right":"bvh/vr_prediction_models/model(vcgpdm)-dataset(return-bottle-hold)-mode(ELBO)-parts(1)-dyn(30)-lvm(30)-hold(1)/final-lines.txt","att_check":false},"trial_type":"html-keyboard-response","trial_index":198,"time_elapsed":433704,"internal_node_id":"0.0-8.0-3.47","subject":"nys2x0bfwz31qj2","sona":"7603"},{"rt":819.2249999992782,"stimulus":"<p>Bereit?</p>","key_press":32,"trial_type":"html-keyboard-response","trial_index":199,"time_elapsed":434530,"internal_node_id":"0.0-8.0-0.48","subject":"nys2x0bfwz31qj2","sona":"7603"},{"rt":null,"stimulus":"<div style=\"font-size:60px;\">+</div>","key_press":null,"trial_type":"html-keyboard-response","trial_index":200,"time_elapsed":436554,"internal_node_id":"0.0-8.0-1.48","subject":"nys2x0bfwz31qj2","sona":"7603"},{"trial_type":"turing-test","trial_index":201,"time_elapsed":442658,"internal_node_id":"0.0-8.0-2.48","subject":"nys2x0bfwz31qj2","sona":"7603"},{"rt":494.74000000191154,"stimulus":"<p>Welche Sequenz haben Sie als natürlicher empfunden?</p>","key_press":74,"test_part":"response","test_stimulus":{"position":1,"left":"bvh/vr_prediction_models/model(tmp)-dataset(pass-bottle)-numprim(14)-hold(2)/final-lines.txt","right":"bvh/pass-bottle-training2-lines.txt","att_check":false},"trial_type":"html-keyboard-response","trial_index":202,"time_elapsed":443162,"internal_node_id":"0.0-8.0-3.48","subject":"nys2x0bfwz31qj2","sona":"7603"},{"rt":468.36500000063097,"stimulus":"<p>Bereit?</p>","key_press":32,"trial_type":"html-keyboard-response","trial_index":203,"time_elapsed":443641,"internal_node_id":"0.0-8.0-0.49","subject":"nys2x0bfwz31qj2","sona":"7603"},{"rt":null,"stimulus":"<div style=\"font-size:60px;\">+</div>","key_press":null,"trial_type":"html-keyboard-response","trial_index":204,"time_elapsed":445664,"internal_node_id":"0.0-8.0-1.49","subject":"nys2x0bfwz31qj2","sona":"7603"},{"trial_type":"turing-test","trial_index":205,"time_elapsed":452899,"internal_node_id":"0.0-8.0-2.49","subject":"nys2x0bfwz31qj2","sona":"7603"},{"rt":304.50000000564614,"stimulus":"<p>Welche Sequenz haben Sie als natürlicher empfunden?</p>","key_press":70,"test_part":"response","test_stimulus":{"position":0,"left":"bvh/pass-bottle-training0-lines.txt","right":"bvh/vr_prediction_models/model(vcgpdm)-dataset(pass-bottle)-mode(ELBO)-parts(1)-dyn(30)-lvm(35)-hold(0)/final-lines.txt","att_check":false},"trial_type":"html-keyboard-response","trial_index":206,"time_elapsed":453213,"internal_node_id":"0.0-8.0-3.49","subject":"nys2x0bfwz31qj2","sona":"7603"},{"rt":427.8550000017276,"stimulus":"<p>Bereit?</p>","key_press":32,"trial_type":"html-keyboard-response","trial_index":207,"time_elapsed":453648,"internal_node_id":"0.0-8.0-0.50","subject":"nys2x0bfwz31qj2","sona":"7603"},{"rt":null,"stimulus":"<div style=\"font-size:60px;\">+</div>","key_press":null,"trial_type":"html-keyboard-response","trial_index":208,"time_elapsed":455678,"internal_node_id":"0.0-8.0-1.50","subject":"nys2x0bfwz31qj2","sona":"7603"},{"trial_type":"turing-test","trial_index":209,"time_elapsed":460120,"internal_node_id":"0.0-8.0-2.50","subject":"nys2x0bfwz31qj2","sona":"7603"},{"rt":326.10000000568107,"stimulus":"<p>Welche Sequenz haben Sie als natürlicher empfunden?</p>","key_press":70,"test_part":"response","test_stimulus":{"position":0,"left":"bvh/pass-bottle-hold-training0-lines.txt","right":"bvh/vr_prediction_models/model(vcgpdm)-dataset(pass-bottle-hold)-mode(ELBO)-parts(3)-dyn(25)-lvm(30)-hold(0)/final-lines.txt","att_check":false},"trial_type":"html-keyboard-response","trial_index":210,"time_elapsed":460455,"internal_node_id":"0.0-8.0-3.50","subject":"nys2x0bfwz31qj2","sona":"7603"},{"rt":506.4649999985704,"stimulus":"<p>Bereit?</p>","key_press":32,"trial_type":"html-keyboard-response","trial_index":211,"time_elapsed":460968,"internal_node_id":"0.0-8.0-0.51","subject":"nys2x0bfwz31qj2","sona":"7603"},{"rt":null,"stimulus":"<div style=\"font-size:60px;\">+</div>","key_press":null,"trial_type":"html-keyboard-response","trial_index":212,"time_elapsed":462992,"internal_node_id":"0.0-8.0-1.51","subject":"nys2x0bfwz31qj2","sona":"7603"},{"trial_type":"turing-test","trial_index":213,"time_elapsed":469207,"internal_node_id":"0.0-8.0-2.51","subject":"nys2x0bfwz31qj2","sona":"7603"},{"rt":309.39999999827705,"stimulus":"<p>Welche Sequenz haben Sie als natürlicher empfunden?</p>","key_press":74,"test_part":"response","test_stimulus":{"position":1,"left":"bvh/vr_prediction_models/model(tmp)-dataset(return-bottle)-numprim(9)-hold(1)/final-lines.txt","right":"bvh/return-bottle-training1-lines.txt","att_check":false},"trial_type":"html-keyboard-response","trial_index":214,"time_elapsed":469530,"internal_node_id":"0.0-8.0-3.51","subject":"nys2x0bfwz31qj2","sona":"7603"},{"rt":369.60499999986496,"stimulus":"<p>Bereit?</p>","key_press":32,"trial_type":"html-keyboard-response","trial_index":215,"time_elapsed":469906,"internal_node_id":"0.0-8.0-0.52","subject":"nys2x0bfwz31qj2","sona":"7603"},{"rt":null,"stimulus":"<div style=\"font-size:60px;\">+</div>","key_press":null,"trial_type":"html-keyboard-response","trial_index":216,"time_elapsed":471932,"internal_node_id":"0.0-8.0-1.52","subject":"nys2x0bfwz31qj2","sona":"7603"},{"trial_type":"turing-test","trial_index":217,"time_elapsed":478380,"internal_node_id":"0.0-8.0-2.52","subject":"nys2x0bfwz31qj2","sona":"7603"},{"rt":455.180000004475,"stimulus":"<p>Welche Sequenz haben Sie als natürlicher empfunden?</p>","key_press":74,"test_part":"response","test_stimulus":{"position":1,"left":"bvh/vr_prediction_models/model(vcgpdm)-dataset(return-bottle)-mode(ELBO)-parts(1)-dyn(35)-lvm(30)-hold(1)/final-lines.txt","right":"bvh/return-bottle-training1-lines.txt","att_check":false},"trial_type":"html-keyboard-response","trial_index":218,"time_elapsed":478839,"internal_node_id":"0.0-8.0-3.52","subject":"nys2x0bfwz31qj2","sona":"7603"},{"rt":374.18500000057975,"stimulus":"<p>Bereit?</p>","key_press":32,"trial_type":"html-keyboard-response","trial_index":219,"time_elapsed":479218,"internal_node_id":"0.0-8.0-0.53","subject":"nys2x0bfwz31qj2","sona":"7603"},{"rt":null,"stimulus":"<div style=\"font-size:60px;\">+</div>","key_press":null,"trial_type":"html-keyboard-response","trial_index":220,"time_elapsed":481236,"internal_node_id":"0.0-8.0-1.53","subject":"nys2x0bfwz31qj2","sona":"7603"},{"trial_type":"turing-test","trial_index":221,"time_elapsed":487470,"internal_node_id":"0.0-8.0-2.53","subject":"nys2x0bfwz31qj2","sona":"7603"},{"rt":427.1650000009686,"stimulus":"<p>Welche Sequenz haben Sie als natürlicher empfunden?</p>","key_press":74,"test_part":"response","test_stimulus":{"position":0,"left":"bvh/return-bottle-training1-lines.txt","right":"bvh/vr_prediction_models/model(tmp)-dataset(return-bottle)-numprim(14)-hold(1)/final-lines.txt","att_check":false},"trial_type":"html-keyboard-response","trial_index":222,"time_elapsed":487910,"internal_node_id":"0.0-8.0-3.53","subject":"nys2x0bfwz31qj2","sona":"7603"},{"rt":936.7950000014389,"stimulus":"<p>Bereit?</p>","key_press":32,"trial_type":"html-keyboard-response","trial_index":223,"time_elapsed":488855,"internal_node_id":"0.0-8.0-0.54","subject":"nys2x0bfwz31qj2","sona":"7603"},{"rt":null,"stimulus":"<div style=\"font-size:60px;\">+</div>","key_press":null,"trial_type":"html-keyboard-response","trial_index":224,"time_elapsed":490867,"internal_node_id":"0.0-8.0-1.54","subject":"nys2x0bfwz31qj2","sona":"7603"},{"trial_type":"turing-test","trial_index":225,"time_elapsed":494671,"internal_node_id":"0.0-8.0-2.54","subject":"nys2x0bfwz31qj2","sona":"7603"},{"rt":350.9849999973085,"stimulus":"<p>Welche Sequenz haben Sie als natürlicher empfunden?</p>","key_press":70,"test_part":"response","test_stimulus":{"position":1,"left":"bvh/vr_prediction_models/model(vcgpdm)-dataset(pass-bottle-hold)-mode(ELBO)-parts(3)-dyn(30)-lvm(15)-hold(2)/final-lines.txt","right":"bvh/pass-bottle-hold-training2-lines.txt","att_check":false},"trial_type":"html-keyboard-response","trial_index":226,"time_elapsed":495032,"internal_node_id":"0.0-8.0-3.54","subject":"nys2x0bfwz31qj2","sona":"7603"},{"rt":455.30000000144355,"stimulus":"<p>Bereit?</p>","key_press":32,"trial_type":"html-keyboard-response","trial_index":227,"time_elapsed":495494,"internal_node_id":"0.0-8.0-0.55","subject":"nys2x0bfwz31qj2","sona":"7603"},{"rt":null,"stimulus":"<div style=\"font-size:60px;\">+</div>","key_press":null,"trial_type":"html-keyboard-response","trial_index":228,"time_elapsed":497514,"internal_node_id":"0.0-8.0-1.55","subject":"nys2x0bfwz31qj2","sona":"7603"},{"trial_type":"turing-test","trial_index":229,"time_elapsed":502634,"internal_node_id":"0.0-8.0-2.55","subject":"nys2x0bfwz31qj2","sona":"7603"},{"rt":309.0249999950174,"stimulus":"<p>Welche Sequenz haben Sie als natürlicher empfunden?</p>","key_press":74,"test_part":"response","test_stimulus":{"position":0,"left":"bvh/return-bottle-hold-training0-lines.txt","right":"bvh/vr_prediction_models/model(tmp)-dataset(return-bottle-hold)-numprim(13)-hold(0)/final-lines.txt","att_check":false},"trial_type":"html-keyboard-response","trial_index":230,"time_elapsed":502957,"internal_node_id":"0.0-8.0-3.55","subject":"nys2x0bfwz31qj2","sona":"7603"},{"rt":293.60499999893364,"stimulus":"<p>Bereit?</p>","key_press":32,"trial_type":"html-keyboard-response","trial_index":231,"time_elapsed":503258,"internal_node_id":"0.0-8.0-0.56","subject":"nys2x0bfwz31qj2","sona":"7603"},{"rt":null,"stimulus":"<div style=\"font-size:60px;\">+</div>","key_press":null,"trial_type":"html-keyboard-response","trial_index":232,"time_elapsed":505270,"internal_node_id":"0.0-8.0-1.56","subject":"nys2x0bfwz31qj2","sona":"7603"},{"trial_type":"turing-test","trial_index":233,"time_elapsed":508829,"internal_node_id":"0.0-8.0-2.56","subject":"nys2x0bfwz31qj2","sona":"7603"},{"rt":316.31000000197673,"stimulus":"<p>Welche Sequenz haben Sie als natürlicher empfunden?</p>","key_press":74,"test_part":"response","test_stimulus":{"position":0,"left":"bvh/pass-bottle-hold-training4-lines.txt","right":"bvh/vr_prediction_models/model(tmp)-dataset(pass-bottle-hold)-numprim(11)-hold(4)/final-lines.txt","att_check":false},"trial_type":"html-keyboard-response","trial_index":234,"time_elapsed":509157,"internal_node_id":"0.0-8.0-3.56","subject":"nys2x0bfwz31qj2","sona":"7603"},{"rt":274.955000000773,"stimulus":"<p>Bereit?</p>","key_press":32,"trial_type":"html-keyboard-response","trial_index":235,"time_elapsed":509443,"internal_node_id":"0.0-8.0-0.57","subject":"nys2x0bfwz31qj2","sona":"7603"},{"rt":null,"stimulus":"<div style=\"font-size:60px;\">+</div>","key_press":null,"trial_type":"html-keyboard-response","trial_index":236,"time_elapsed":511463,"internal_node_id":"0.0-8.0-1.57","subject":"nys2x0bfwz31qj2","sona":"7603"},{"trial_type":"turing-test","trial_index":237,"time_elapsed":515210,"internal_node_id":"0.0-8.0-2.57","subject":"nys2x0bfwz31qj2","sona":"7603"},{"rt":335.2050000030431,"stimulus":"<p>Welche Sequenz haben Sie als natürlicher empfunden?</p>","key_press":70,"test_part":"response","test_stimulus":{"position":0,"left":"bvh/pass-bottle-hold-training0-lines.txt","right":"bvh/vr_prediction_models/model(vcgpdm)-dataset(pass-bottle-hold)-mode(ELBO)-parts(1)-dyn(30)-lvm(30)-hold(0)/final-lines.txt","att_check":false},"trial_type":"html-keyboard-response","trial_index":238,"time_elapsed":515557,"internal_node_id":"0.0-8.0-3.57","subject":"nys2x0bfwz31qj2","sona":"7603"},{"rt":320.94999999389984,"stimulus":"<p>Bereit?</p>","key_press":32,"trial_type":"html-keyboard-response","trial_index":239,"time_elapsed":515884,"internal_node_id":"0.0-8.0-0.58","subject":"nys2x0bfwz31qj2","sona":"7603"},{"rt":null,"stimulus":"<div style=\"font-size:60px;\">+</div>","key_press":null,"trial_type":"html-keyboard-response","trial_index":240,"time_elapsed":517904,"internal_node_id":"0.0-8.0-1.58","subject":"nys2x0bfwz31qj2","sona":"7603"},{"trial_type":"turing-test","trial_index":241,"time_elapsed":521646,"internal_node_id":"0.0-8.0-2.58","subject":"nys2x0bfwz31qj2","sona":"7603"},{"rt":278.3549999949173,"stimulus":"<p>Welche Sequenz haben Sie als natürlicher empfunden?</p>","key_press":74,"test_part":"response","test_stimulus":{"position":1,"left":"bvh/vr_prediction_models/model(dmp)-dataset(pass-bottle-hold)-npsi(10)-hold(3)/final-lines.txt","right":"bvh/pass-bottle-hold-training3-lines.txt","att_check":false},"trial_type":"html-keyboard-response","trial_index":242,"time_elapsed":521936,"internal_node_id":"0.0-8.0-3.58","subject":"nys2x0bfwz31qj2","sona":"7603"},{"rt":287.57999999652384,"stimulus":"<p>Bereit?</p>","key_press":32,"trial_type":"html-keyboard-response","trial_index":243,"time_elapsed":522233,"internal_node_id":"0.0-8.0-0.59","subject":"nys2x0bfwz31qj2","sona":"7603"},{"rt":null,"stimulus":"<div style=\"font-size:60px;\">+</div>","key_press":null,"trial_type":"html-keyboard-response","trial_index":244,"time_elapsed":524261,"internal_node_id":"0.0-8.0-1.59","subject":"nys2x0bfwz31qj2","sona":"7603"},{"trial_type":"turing-test","trial_index":245,"time_elapsed":527787,"internal_node_id":"0.0-8.0-2.59","subject":"nys2x0bfwz31qj2","sona":"7603"},{"rt":315.70999999530613,"stimulus":"<p>Welche Sequenz haben Sie als natürlicher empfunden?</p>","key_press":74,"test_part":"response","test_stimulus":{"position":1,"left":"bvh/vr_prediction_models/model(dmp)-dataset(return-bottle-hold)-npsi(70)-hold(2)/final-lines.txt","right":"bvh/return-bottle-hold-training2-lines.txt","att_check":false},"trial_type":"html-keyboard-response","trial_index":246,"time_elapsed":528111,"internal_node_id":"0.0-8.0-3.59","subject":"nys2x0bfwz31qj2","sona":"7603"},{"rt":305.8999999993248,"stimulus":"<p>Bereit?</p>","key_press":32,"trial_type":"html-keyboard-response","trial_index":247,"time_elapsed":528427,"internal_node_id":"0.0-8.0-0.60","subject":"nys2x0bfwz31qj2","sona":"7603"},{"rt":null,"stimulus":"<div style=\"font-size:60px;\">+</div>","key_press":null,"trial_type":"html-keyboard-response","trial_index":248,"time_elapsed":530447,"internal_node_id":"0.0-8.0-1.60","subject":"nys2x0bfwz31qj2","sona":"7603"},{"trial_type":"turing-test","trial_index":249,"time_elapsed":536691,"internal_node_id":"0.0-8.0-2.60","subject":"nys2x0bfwz31qj2","sona":"7603"},{"rt":3256.5850000027567,"stimulus":"<p>Welche Sequenz haben Sie als natürlicher empfunden?</p>","key_press":74,"test_part":"response","test_stimulus":{"position":1,"left":"bvh/vr_prediction_models/model(vcgpdm)-dataset(return-bottle)-mode(ELBO)-parts(3)-dyn(20)-lvm(20)-hold(4)/final-lines.txt","right":"bvh/return-bottle-training4-lines.txt","att_check":false},"trial_type":"html-keyboard-response","trial_index":250,"time_elapsed":539952,"internal_node_id":"0.0-8.0-3.60","subject":"nys2x0bfwz31qj2","sona":"7603"},{"rt":807.3700000022072,"stimulus":"<p>Bereit?</p>","key_press":32,"trial_type":"html-keyboard-response","trial_index":251,"time_elapsed":540763,"internal_node_id":"0.0-8.0-0.61","subject":"nys2x0bfwz31qj2","sona":"7603"},{"rt":null,"stimulus":"<div style=\"font-size:60px;\">+</div>","key_press":null,"trial_type":"html-keyboard-response","trial_index":252,"time_elapsed":542769,"internal_node_id":"0.0-8.0-1.61","subject":"nys2x0bfwz31qj2","sona":"7603"},{"trial_type":"turing-test","trial_index":253,"time_elapsed":546078,"internal_node_id":"0.0-8.0-2.61","subject":"nys2x0bfwz31qj2","sona":"7603"},{"rt":258.8850000030361,"stimulus":"<p>Welche Sequenz haben Sie als natürlicher empfunden?</p>","key_press":74,"test_part":"response","test_stimulus":{"position":0,"left":"bvh/pass-bottle-hold-training2-lines.txt","right":"bvh/vr_prediction_models/model(tmp)-dataset(pass-bottle-hold)-numprim(9)-hold(2)/final-lines.txt","att_check":false},"trial_type":"html-keyboard-response","trial_index":254,"time_elapsed":546341,"internal_node_id":"0.0-8.0-3.61","subject":"nys2x0bfwz31qj2","sona":"7603"},{"rt":322.41999999666587,"stimulus":"<p>Bereit?</p>","key_press":32,"trial_type":"html-keyboard-response","trial_index":255,"time_elapsed":546668,"internal_node_id":"0.0-8.0-0.62","subject":"nys2x0bfwz31qj2","sona":"7603"},{"rt":null,"stimulus":"<div style=\"font-size:60px;\">+</div>","key_press":null,"trial_type":"html-keyboard-response","trial_index":256,"time_elapsed":548675,"internal_node_id":"0.0-8.0-1.62","subject":"nys2x0bfwz31qj2","sona":"7603"},{"trial_type":"turing-test","trial_index":257,"time_elapsed":552339,"internal_node_id":"0.0-8.0-2.62","subject":"nys2x0bfwz31qj2","sona":"7603"},{"rt":396.24000000185333,"stimulus":"<p>Welche Sequenz haben Sie als natürlicher empfunden?</p>","key_press":70,"test_part":"response","test_stimulus":{"position":1,"left":"bvh/vr_prediction_models/model(tmp)-dataset(pass-bottle-hold)-numprim(4)-hold(4)/final-lines.txt","right":"bvh/pass-bottle-hold-training4-lines.txt","att_check":false},"trial_type":"html-keyboard-response","trial_index":258,"time_elapsed":552739,"internal_node_id":"0.0-8.0-3.62","subject":"nys2x0bfwz31qj2","sona":"7603"},{"rt":284.8149999990128,"stimulus":"<p>Bereit?</p>","key_press":32,"trial_type":"html-keyboard-response","trial_index":259,"time_elapsed":553028,"internal_node_id":"0.0-8.0-0.63","subject":"nys2x0bfwz31qj2","sona":"7603"},{"rt":null,"stimulus":"<div style=\"font-size:60px;\">+</div>","key_press":null,"trial_type":"html-keyboard-response","trial_index":260,"time_elapsed":555045,"internal_node_id":"0.0-8.0-1.63","subject":"nys2x0bfwz31qj2","sona":"7603"},{"trial_type":"turing-test","trial_index":261,"time_elapsed":558858,"internal_node_id":"0.0-8.0-2.63","subject":"nys2x0bfwz31qj2","sona":"7603"},{"rt":1.765000000828877,"stimulus":"<p>Welche Sequenz haben Sie als natürlicher empfunden?</p>","key_press":74,"test_part":"response","test_stimulus":{"position":1,"left":"bvh/vr_prediction_models/model(vcgpdm)-dataset(pass-bottle-hold)-mode(ELBO)-parts(1)-dyn(10)-lvm(30)-hold(3)/final-lines.txt","right":"bvh/pass-bottle-hold-training3-lines.txt","att_check":false},"trial_type":"html-keyboard-response","trial_index":262,"time_elapsed":558864,"internal_node_id":"0.0-8.0-3.63","subject":"nys2x0bfwz31qj2","sona":"7603"},{"rt":646.9300000027288,"stimulus":"<p>Bereit?</p>","key_press":32,"trial_type":"html-keyboard-response","trial_index":263,"time_elapsed":559514,"internal_node_id":"0.0-8.0-0.64","subject":"nys2x0bfwz31qj2","sona":"7603"},{"rt":null,"stimulus":"<div style=\"font-size:60px;\">+</div>","key_press":null,"trial_type":"html-keyboard-response","trial_index":264,"time_elapsed":561524,"internal_node_id":"0.0-8.0-1.64","subject":"nys2x0bfwz31qj2","sona":"7603"},{"trial_type":"turing-test","trial_index":265,"time_elapsed":568307,"internal_node_id":"0.0-8.0-2.64","subject":"nys2x0bfwz31qj2","sona":"7603"},{"rt":296.0650000022724,"stimulus":"<p>Welche Sequenz haben Sie als natürlicher empfunden?</p>","key_press":70,"test_part":"response","test_stimulus":{"position":0,"left":"bvh/pass-bottle-training2-lines.txt","right":"bvh/vr_prediction_models/model(vcgpdm)-dataset(pass-bottle)-mode(ELBO)-parts(3)-dyn(25)-lvm(30)-hold(2)/final-lines.txt","att_check":false},"trial_type":"html-keyboard-response","trial_index":266,"time_elapsed":568607,"internal_node_id":"0.0-8.0-3.64","subject":"nys2x0bfwz31qj2","sona":"7603"},{"rt":455.30499999586027,"stimulus":"<p>Bereit?</p>","key_press":32,"trial_type":"html-keyboard-response","trial_index":267,"time_elapsed":569065,"internal_node_id":"0.0-8.0-0.65","subject":"nys2x0bfwz31qj2","sona":"7603"},{"rt":null,"stimulus":"<div style=\"font-size:60px;\">+</div>","key_press":null,"trial_type":"html-keyboard-response","trial_index":268,"time_elapsed":571067,"internal_node_id":"0.0-8.0-1.65","subject":"nys2x0bfwz31qj2","sona":"7603"},{"trial_type":"turing-test","trial_index":269,"time_elapsed":574959,"internal_node_id":"0.0-8.0-2.65","subject":"nys2x0bfwz31qj2","sona":"7603"},{"rt":360.77499999385327,"stimulus":"<p>Welche Sequenz haben Sie als natürlicher empfunden?</p>","key_press":74,"test_part":"response","test_stimulus":{"position":1,"left":"bvh/vr_prediction_models/model(vcgpdm)-dataset(pass-bottle-hold)-mode(ELBO)-parts(3)-dyn(15)-lvm(30)-hold(4)/final-lines.txt","right":"bvh/pass-bottle-hold-training4-lines.txt","att_check":false},"trial_type":"html-keyboard-response","trial_index":270,"time_elapsed":575327,"internal_node_id":"0.0-8.0-3.65","subject":"nys2x0bfwz31qj2","sona":"7603"},{"rt":262.6749999980675,"stimulus":"<p>Bereit?</p>","key_press":32,"trial_type":"html-keyboard-response","trial_index":271,"time_elapsed":575593,"internal_node_id":"0.0-8.0-0.66","subject":"nys2x0bfwz31qj2","sona":"7603"},{"rt":null,"stimulus":"<div style=\"font-size:60px;\">+</div>","key_press":null,"trial_type":"html-keyboard-response","trial_index":272,"time_elapsed":577609,"internal_node_id":"0.0-8.0-1.66","subject":"nys2x0bfwz31qj2","sona":"7603"},{"trial_type":"turing-test","trial_index":273,"time_elapsed":581460,"internal_node_id":"0.0-8.0-2.66","subject":"nys2x0bfwz31qj2","sona":"7603"},{"rt":308.45000000402797,"stimulus":"<p>Welche Sequenz haben Sie als natürlicher empfunden?</p>","key_press":74,"test_part":"response","test_stimulus":{"position":1,"left":"bvh/vr_prediction_models/model(vcgpdm)-dataset(pass-bottle-hold)-mode(ELBO)-parts(3)-dyn(20)-lvm(15)-hold(2)/final-lines.txt","right":"bvh/pass-bottle-hold-training2-lines.txt","att_check":false},"trial_type":"html-keyboard-response","trial_index":274,"time_elapsed":581771,"internal_node_id":"0.0-8.0-3.66","subject":"nys2x0bfwz31qj2","sona":"7603"},{"rt":428.6950000023935,"stimulus":"<p>Bereit?</p>","key_press":32,"trial_type":"html-keyboard-response","trial_index":275,"time_elapsed":582204,"internal_node_id":"0.0-8.0-0.67","subject":"nys2x0bfwz31qj2","sona":"7603"},{"rt":null,"stimulus":"<div style=\"font-size:60px;\">+</div>","key_press":null,"trial_type":"html-keyboard-response","trial_index":276,"time_elapsed":584211,"internal_node_id":"0.0-8.0-1.67","subject":"nys2x0bfwz31qj2","sona":"7603"},{"trial_type":"turing-test","trial_index":277,"time_elapsed":588104,"internal_node_id":"0.0-8.0-2.67","subject":"nys2x0bfwz31qj2","sona":"7603"},{"rt":548.9400000005262,"stimulus":"<p>Welche Sequenz haben Sie als natürlicher empfunden?</p>","key_press":74,"test_part":"response","test_stimulus":{"position":0,"left":"bvh/pass-bottle-hold-training0-lines.txt","right":"bvh/vr_prediction_models/model(vcgpdm)-dataset(pass-bottle-hold)-mode(ELBO)-parts(1)-dyn(10)-lvm(25)-hold(0)/final-lines.txt","att_check":false},"trial_type":"html-keyboard-response","trial_index":278,"time_elapsed":588656,"internal_node_id":"0.0-8.0-3.67","subject":"nys2x0bfwz31qj2","sona":"7603"},{"rt":856.8100000047125,"stimulus":"<p>Bereit?</p>","key_press":32,"trial_type":"html-keyboard-response","trial_index":279,"time_elapsed":589516,"internal_node_id":"0.0-8.0-0.68","subject":"nys2x0bfwz31qj2","sona":"7603"},{"rt":null,"stimulus":"<div style=\"font-size:60px;\">+</div>","key_press":null,"trial_type":"html-keyboard-response","trial_index":280,"time_elapsed":591536,"internal_node_id":"0.0-8.0-1.68","subject":"nys2x0bfwz31qj2","sona":"7603"},{"trial_type":"turing-test","trial_index":281,"time_elapsed":597656,"internal_node_id":"0.0-8.0-2.68","subject":"nys2x0bfwz31qj2","sona":"7603"},{"rt":846.140000001411,"stimulus":"<p>Welche Sequenz haben Sie als natürlicher empfunden?</p>","key_press":70,"test_part":"response","test_stimulus":{"position":0,"left":"bvh/pass-bottle-training2-lines.txt","right":"bvh/vr_prediction_models/model(tmp)-dataset(pass-bottle)-numprim(4)-hold(2)/final-lines.txt","att_check":false},"trial_type":"html-keyboard-response","trial_index":282,"time_elapsed":598507,"internal_node_id":"0.0-8.0-3.68","subject":"nys2x0bfwz31qj2","sona":"7603"},{"rt":609.8500000006752,"stimulus":"<p>Bereit?</p>","key_press":32,"trial_type":"html-keyboard-response","trial_index":283,"time_elapsed":599121,"internal_node_id":"0.0-8.0-0.69","subject":"nys2x0bfwz31qj2","sona":"7603"},{"rt":null,"stimulus":"<div style=\"font-size:60px;\">+</div>","key_press":null,"trial_type":"html-keyboard-response","trial_index":284,"time_elapsed":601138,"internal_node_id":"0.0-8.0-1.69","subject":"nys2x0bfwz31qj2","sona":"7603"},{"trial_type":"turing-test","trial_index":285,"time_elapsed":605010,"internal_node_id":"0.0-8.0-2.69","subject":"nys2x0bfwz31qj2","sona":"7603"},{"rt":381.75000000046566,"stimulus":"<p>Welche Sequenz haben Sie als natürlicher empfunden?</p>","key_press":74,"test_part":"response","test_stimulus":{"position":1,"left":"bvh/vr_prediction_models/model(vcgpdm)-dataset(return-bottle-hold)-mode(ELBO)-parts(1)-dyn(30)-lvm(20)-hold(2)/final-lines.txt","right":"bvh/return-bottle-hold-training2-lines.txt","att_check":false},"trial_type":"html-keyboard-response","trial_index":286,"time_elapsed":605395,"internal_node_id":"0.0-8.0-3.69","subject":"nys2x0bfwz31qj2","sona":"7603"},{"rt":61296.01000000548,"stimulus":"<p>Bereit?</p>","key_press":32,"trial_type":"html-keyboard-response","trial_index":287,"time_elapsed":666694,"internal_node_id":"0.0-8.0-0.70","subject":"nys2x0bfwz31qj2","sona":"7603"},{"rt":null,"stimulus":"<div style=\"font-size:60px;\">+</div>","key_press":null,"trial_type":"html-keyboard-response","trial_index":288,"time_elapsed":668705,"internal_node_id":"0.0-8.0-1.70","subject":"nys2x0bfwz31qj2","sona":"7603"},{"trial_type":"turing-test","trial_index":289,"time_elapsed":672342,"internal_node_id":"0.0-8.0-2.70","subject":"nys2x0bfwz31qj2","sona":"7603"},{"rt":167.89499999862164,"stimulus":"<p>Welche Sequenz haben Sie als natürlicher empfunden?</p>","key_press":74,"test_part":"response","test_stimulus":{"position":0,"left":"bvh/pass-bottle-hold-training1-lines.txt","right":"bvh/vr_prediction_models/model(vcgpdm)-dataset(pass-bottle-hold)-mode(ELBO)-parts(3)-dyn(25)-lvm(30)-hold(1)/final-lines.txt","att_check":false},"trial_type":"html-keyboard-response","trial_index":290,"time_elapsed":672523,"internal_node_id":"0.0-8.0-3.70","subject":"nys2x0bfwz31qj2","sona":"7603"},{"rt":600.7700000044424,"stimulus":"<p>Bereit?</p>","key_press":32,"trial_type":"html-keyboard-response","trial_index":291,"time_elapsed":673135,"internal_node_id":"0.0-8.0-0.71","subject":"nys2x0bfwz31qj2","sona":"7603"},{"rt":null,"stimulus":"<div style=\"font-size:60px;\">+</div>","key_press":null,"trial_type":"html-keyboard-response","trial_index":292,"time_elapsed":675152,"internal_node_id":"0.0-8.0-1.71","subject":"nys2x0bfwz31qj2","sona":"7603"},{"trial_type":"turing-test","trial_index":293,"time_elapsed":678911,"internal_node_id":"0.0-8.0-2.71","subject":"nys2x0bfwz31qj2","sona":"7603"},{"rt":181.8299999940209,"stimulus":"<p>Welche Sequenz haben Sie als natürlicher empfunden?</p>","key_press":74,"test_part":"response","test_stimulus":{"position":1,"left":"bvh/vr_prediction_models/model(dmp)-dataset(return-bottle-hold)-npsi(10)-hold(3)/final-lines.txt","right":"bvh/return-bottle-hold-training3-lines.txt","att_check":true},"trial_type":"html-keyboard-response","trial_index":294,"time_elapsed":679105,"internal_node_id":"0.0-8.0-3.71","subject":"nys2x0bfwz31qj2","sona":"7603"},{"rt":549.2400000003399,"stimulus":"<p>Bereit?</p>","key_press":32,"trial_type":"html-keyboard-response","trial_index":295,"time_elapsed":679666,"internal_node_id":"0.0-8.0-0.72","subject":"nys2x0bfwz31qj2","sona":"7603"},{"rt":null,"stimulus":"<div style=\"font-size:60px;\">+</div>","key_press":null,"trial_type":"html-keyboard-response","trial_index":296,"time_elapsed":681693,"internal_node_id":"0.0-8.0-1.72","subject":"nys2x0bfwz31qj2","sona":"7603"},{"trial_type":"turing-test","trial_index":297,"time_elapsed":685986,"internal_node_id":"0.0-8.0-2.72","subject":"nys2x0bfwz31qj2","sona":"7603"},{"rt":370.0500000050524,"stimulus":"<p>Welche Sequenz haben Sie als natürlicher empfunden?</p>","key_press":74,"test_part":"response","test_stimulus":{"position":0,"left":"bvh/return-bottle-hold-training4-lines.txt","right":"bvh/vr_prediction_models/model(vcgpdm)-dataset(return-bottle-hold)-mode(ELBO)-parts(1)-dyn(20)-lvm(20)-hold(4)/final-lines.txt","att_check":false},"trial_type":"html-keyboard-response","trial_index":298,"time_elapsed":686369,"internal_node_id":"0.0-8.0-3.72","subject":"nys2x0bfwz31qj2","sona":"7603"},{"rt":630.4650000019465,"stimulus":"<p>Bereit?</p>","key_press":32,"trial_type":"html-keyboard-response","trial_index":299,"time_elapsed":687007,"internal_node_id":"0.0-8.0-0.73","subject":"nys2x0bfwz31qj2","sona":"7603"},{"rt":null,"stimulus":"<div style=\"font-size:60px;\">+</div>","key_press":null,"trial_type":"html-keyboard-response","trial_index":300,"time_elapsed":689015,"internal_node_id":"0.0-8.0-1.73","subject":"nys2x0bfwz31qj2","sona":"7603"},{"trial_type":"turing-test","trial_index":301,"time_elapsed":694581,"internal_node_id":"0.0-8.0-2.73","subject":"nys2x0bfwz31qj2","sona":"7603"},{"rt":342.4400000004098,"stimulus":"<p>Welche Sequenz haben Sie als natürlicher empfunden?</p>","key_press":70,"test_part":"response","test_stimulus":{"position":0,"left":"bvh/return-bottle-hold-training0-lines.txt","right":"bvh/vr_prediction_models/model(vcgpdm)-dataset(return-bottle-hold)-mode(ELBO)-parts(3)-dyn(20)-lvm(35)-hold(0)/final-lines.txt","att_check":false},"trial_type":"html-keyboard-response","trial_index":302,"time_elapsed":694933,"internal_node_id":"0.0-8.0-3.73","subject":"nys2x0bfwz31qj2","sona":"7603"},{"rt":459.0649999954039,"stimulus":"<p>Bereit?</p>","key_press":32,"trial_type":"html-keyboard-response","trial_index":303,"time_elapsed":695401,"internal_node_id":"0.0-8.0-0.74","subject":"nys2x0bfwz31qj2","sona":"7603"},{"rt":null,"stimulus":"<div style=\"font-size:60px;\">+</div>","key_press":null,"trial_type":"html-keyboard-response","trial_index":304,"time_elapsed":697416,"internal_node_id":"0.0-8.0-1.74","subject":"nys2x0bfwz31qj2","sona":"7603"},{"trial_type":"turing-test","trial_index":305,"time_elapsed":703259,"internal_node_id":"0.0-8.0-2.74","subject":"nys2x0bfwz31qj2","sona":"7603"},{"rt":289.6050000054529,"stimulus":"<p>Welche Sequenz haben Sie als natürlicher empfunden?</p>","key_press":70,"test_part":"response","test_stimulus":{"position":0,"left":"bvh/return-bottle-training0-lines.txt","right":"bvh/vr_prediction_models/model(vcgpdm)-dataset(return-bottle)-mode(ELBO)-parts(3)-dyn(10)-lvm(30)-hold(0)/final-lines.txt","att_check":false},"trial_type":"html-keyboard-response","trial_index":306,"time_elapsed":703559,"internal_node_id":"0.0-8.0-3.74","subject":"nys2x0bfwz31qj2","sona":"7603"},{"rt":335.7899999972433,"stimulus":"<p>Bereit?</p>","key_press":32,"trial_type":"html-keyboard-response","trial_index":307,"time_elapsed":703905,"internal_node_id":"0.0-8.0-0.75","subject":"nys2x0bfwz31qj2","sona":"7603"},{"rt":null,"stimulus":"<div style=\"font-size:60px;\">+</div>","key_press":null,"trial_type":"html-keyboard-response","trial_index":308,"time_elapsed":705919,"internal_node_id":"0.0-8.0-1.75","subject":"nys2x0bfwz31qj2","sona":"7603"},{"trial_type":"turing-test","trial_index":309,"time_elapsed":712187,"internal_node_id":"0.0-8.0-2.75","subject":"nys2x0bfwz31qj2","sona":"7603"},{"rt":407.3750000024447,"stimulus":"<p>Welche Sequenz haben Sie als natürlicher empfunden?</p>","key_press":74,"test_part":"response","test_stimulus":{"position":0,"left":"bvh/pass-bottle-training4-lines.txt","right":"bvh/vr_prediction_models/model(vcgpdm)-dataset(pass-bottle)-mode(ELBO)-parts(3)-dyn(35)-lvm(20)-hold(4)/final-lines.txt","att_check":false},"trial_type":"html-keyboard-response","trial_index":310,"time_elapsed":712607,"internal_node_id":"0.0-8.0-3.75","subject":"nys2x0bfwz31qj2","sona":"7603"},{"rt":355.890000006184,"stimulus":"<p>Bereit?</p>","key_press":32,"trial_type":"html-keyboard-response","trial_index":311,"time_elapsed":712971,"internal_node_id":"0.0-8.0-0.76","subject":"nys2x0bfwz31qj2","sona":"7603"},{"rt":null,"stimulus":"<div style=\"font-size:60px;\">+</div>","key_press":null,"trial_type":"html-keyboard-response","trial_index":312,"time_elapsed":714992,"internal_node_id":"0.0-8.0-1.76","subject":"nys2x0bfwz31qj2","sona":"7603"},{"trial_type":"turing-test","trial_index":313,"time_elapsed":720491,"internal_node_id":"0.0-8.0-2.76","subject":"nys2x0bfwz31qj2","sona":"7603"},{"rt":372.5350000022445,"stimulus":"<p>Welche Sequenz haben Sie als natürlicher empfunden?</p>","key_press":70,"test_part":"response","test_stimulus":{"position":0,"left":"bvh/return-bottle-hold-training0-lines.txt","right":"bvh/vr_prediction_models/model(tmp)-dataset(return-bottle-hold)-numprim(6)-hold(0)/final-lines.txt","att_check":false},"trial_type":"html-keyboard-response","trial_index":314,"time_elapsed":720876,"internal_node_id":"0.0-8.0-3.76","subject":"nys2x0bfwz31qj2","sona":"7603"},{"rt":347.1750000026077,"stimulus":"<p>Bereit?</p>","key_press":32,"trial_type":"html-keyboard-response","trial_index":315,"time_elapsed":721230,"internal_node_id":"0.0-8.0-0.77","subject":"nys2x0bfwz31qj2","sona":"7603"},{"rt":null,"stimulus":"<div style=\"font-size:60px;\">+</div>","key_press":null,"trial_type":"html-keyboard-response","trial_index":316,"time_elapsed":723252,"internal_node_id":"0.0-8.0-1.77","subject":"nys2x0bfwz31qj2","sona":"7603"},{"trial_type":"turing-test","trial_index":317,"time_elapsed":728863,"internal_node_id":"0.0-8.0-2.77","subject":"nys2x0bfwz31qj2","sona":"7603"},{"rt":284.2549999987241,"stimulus":"<p>Welche Sequenz haben Sie als natürlicher empfunden?</p>","key_press":74,"test_part":"response","test_stimulus":{"position":1,"left":"bvh/vr_prediction_models/model(tmp)-dataset(return-bottle)-numprim(7)-hold(0)/final-lines.txt","right":"bvh/return-bottle-training0-lines.txt","att_check":false},"trial_type":"html-keyboard-response","trial_index":318,"time_elapsed":729162,"internal_node_id":"0.0-8.0-3.77","subject":"nys2x0bfwz31qj2","sona":"7603"},{"rt":260.8650000039488,"stimulus":"<p>Bereit?</p>","key_press":32,"trial_type":"html-keyboard-response","trial_index":319,"time_elapsed":729432,"internal_node_id":"0.0-8.0-0.78","subject":"nys2x0bfwz31qj2","sona":"7603"},{"rt":null,"stimulus":"<div style=\"font-size:60px;\">+</div>","key_press":null,"trial_type":"html-keyboard-response","trial_index":320,"time_elapsed":731461,"internal_node_id":"0.0-8.0-1.78","subject":"nys2x0bfwz31qj2","sona":"7603"},{"trial_type":"turing-test","trial_index":321,"time_elapsed":736747,"internal_node_id":"0.0-8.0-2.78","subject":"nys2x0bfwz31qj2","sona":"7603"},{"rt":15.800000000977889,"stimulus":"<p>Welche Sequenz haben Sie als natürlicher empfunden?</p>","key_press":70,"test_part":"response","test_stimulus":{"position":0,"left":"bvh/return-bottle-hold-training0-lines.txt","right":"bvh/vr_prediction_models/model(tmp)-dataset(return-bottle-hold)-numprim(3)-hold(0)/final-lines.txt","att_check":false},"trial_type":"html-keyboard-response","trial_index":322,"time_elapsed":736777,"internal_node_id":"0.0-8.0-3.78","subject":"nys2x0bfwz31qj2","sona":"7603"},{"rt":489.2399999953341,"stimulus":"<p>Bereit?</p>","key_press":32,"trial_type":"html-keyboard-response","trial_index":323,"time_elapsed":737275,"internal_node_id":"0.0-8.0-0.79","subject":"nys2x0bfwz31qj2","sona":"7603"},{"rt":null,"stimulus":"<div style=\"font-size:60px;\">+</div>","key_press":null,"trial_type":"html-keyboard-response","trial_index":324,"time_elapsed":739287,"internal_node_id":"0.0-8.0-1.79","subject":"nys2x0bfwz31qj2","sona":"7603"},{"trial_type":"turing-test","trial_index":325,"time_elapsed":743201,"internal_node_id":"0.0-8.0-2.79","subject":"nys2x0bfwz31qj2","sona":"7603"},{"rt":281.7150000045076,"stimulus":"<p>Welche Sequenz haben Sie als natürlicher empfunden?</p>","key_press":70,"test_part":"response","test_stimulus":{"position":0,"left":"bvh/return-bottle-hold-training2-lines.txt","right":"bvh/vr_prediction_models/model(vcgpdm)-dataset(return-bottle-hold)-mode(ELBO)-parts(3)-dyn(25)-lvm(25)-hold(2)/final-lines.txt","att_check":false},"trial_type":"html-keyboard-response","trial_index":326,"time_elapsed":743494,"internal_node_id":"0.0-8.0-3.79","subject":"nys2x0bfwz31qj2","sona":"7603"},{"rt":6589.95000000135,"responses":"{\"age\":\"20\",\"gender\":\"weiblich\"}","trial_type":"survey-text","trial_index":327,"time_elapsed":750108,"internal_node_id":"0.0-10.0-0.0","subject":"nys2x0bfwz31qj2","sona":"7603"},{"rt":44972.42000000551,"responses":"{\"area\":\"Arme und Wirbelsäule\",\"Q1\":\"Hektische Bewegungen, starre Wirbelsäule\",\"Q2\":\"Wenn die Arme unnötige Bewegungen gemacht haben\"}","trial_type":"survey-text","trial_index":328,"time_elapsed":795103,"internal_node_id":"0.0-10.0-1.0","subject":"nys2x0bfwz31qj2","sona":"7603"}]