[{"rt":2387.08999985829,"stimulus":"<p>Welcome!<br> Please choose your language to start the experiment in the chosen language.</p><p>Willkommen!<br> Bitte wählen Sie eine Sprache, um das Experiment in der ausgewählten Sprache zu starten</p>","button_pressed":"1","trial_type":"html-button-response","trial_index":0,"time_elapsed":2415,"internal_node_id":"0.0-0.0","subject":"dfsy89k5f7b7j40","sona":"7672"},{"view_history":"[{\"page_index\":0,\"viewing_time\":15510.094999801368},{\"page_index\":1,\"viewing_time\":2319.7099999524653},{\"page_index\":2,\"viewing_time\":5605.145000386983},{\"page_index\":3,\"viewing_time\":3264.2349996604025},{\"page_index\":4,\"viewing_time\":2071.9800000078976}]","rt":28771.67999977246,"trial_type":"instructions","trial_index":1,"time_elapsed":31187,"internal_node_id":"0.0-1.0-0.0","subject":"dfsy89k5f7b7j40","sona":"7672"},{"rt":1006.7799999378622,"stimulus":"<p>Bereit?</p>","key_press":32,"trial_type":"html-keyboard-response","trial_index":2,"time_elapsed":32195,"internal_node_id":"0.0-3.0","subject":"dfsy89k5f7b7j40","sona":"7672"},{"rt":null,"stimulus":"<div style=\"font-size:60px;\">+</div>","key_press":null,"trial_type":"html-keyboard-response","trial_index":3,"time_elapsed":34198,"internal_node_id":"0.0-4.0","subject":"dfsy89k5f7b7j40","sona":"7672"},{"trial_type":"training","trial_index":4,"time_elapsed":37545,"internal_node_id":"0.0-5.0","subject":"dfsy89k5f7b7j40","sona":"7672"},{"rt":301.78500013425946,"stimulus":"<p>Welche Sequenz haben Sie als natürlicher empfunden?</p>","key_press":70,"trial_type":"html-keyboard-response","trial_index":5,"time_elapsed":37847,"internal_node_id":"0.0-6.0","subject":"dfsy89k5f7b7j40","sona":"7672"},{"rt":2677.7550000697374,"stimulus":"<p>Das Experiment startet nun.</p><p><small>Bitte drücken Sie den Knopf, wenn Sie bereit sind.</small></p>","button_pressed":"0","trial_type":"html-button-response","trial_index":6,"time_elapsed":40526,"internal_node_id":"0.0-7.0","subject":"dfsy89k5f7b7j40","sona":"7672"},{"rt":998.8299999386072,"stimulus":"<p>Bereit?</p>","key_press":32,"trial_type":"html-keyboard-response","trial_index":7,"time_elapsed":41525,"internal_node_id":"0.0-8.0-0.0","subject":"dfsy89k5f7b7j40","sona":"7672"},{"rt":null,"stimulus":"<div style=\"font-size:60px;\">+</div>","key_press":null,"trial_type":"html-keyboard-response","trial_index":8,"time_elapsed":43529,"internal_node_id":"0.0-8.0-1.0","subject":"dfsy89k5f7b7j40","sona":"7672"},{"trial_type":"turing-test","trial_index":9,"time_elapsed":46904,"internal_node_id":"0.0-8.0-2.0","subject":"dfsy89k5f7b7j40","sona":"7672"},{"rt":33.920000307261944,"stimulus":"<p>Welche Sequenz haben Sie als natürlicher empfunden?</p>","key_press":70,"test_part":"response","test_stimulus":{"position":1,"left":"bvh/vr_prediction_models/model(tmp)-dataset(return-bottle-hold)-numprim(9)-hold(1)/final-lines.txt","right":"bvh/return-bottle-hold-training1-lines.txt","att_check":false},"trial_type":"html-keyboard-response","trial_index":10,"time_elapsed":46939,"internal_node_id":"0.0-8.0-3.0","subject":"dfsy89k5f7b7j40","sona":"7672"},{"rt":743.8250002451241,"stimulus":"<p>Bereit?</p>","key_press":32,"trial_type":"html-keyboard-response","trial_index":11,"time_elapsed":47684,"internal_node_id":"0.0-8.0-0.1","subject":"dfsy89k5f7b7j40","sona":"7672"},{"rt":null,"stimulus":"<div style=\"font-size:60px;\">+</div>","key_press":null,"trial_type":"html-keyboard-response","trial_index":12,"time_elapsed":49686,"internal_node_id":"0.0-8.0-1.1","subject":"dfsy89k5f7b7j40","sona":"7672"},{"trial_type":"turing-test","trial_index":13,"time_elapsed":56262,"internal_node_id":"0.0-8.0-2.1","subject":"dfsy89k5f7b7j40","sona":"7672"},{"rt":664.3550000153482,"stimulus":"<p>Welche Sequenz haben Sie als natürlicher empfunden?</p>","key_press":70,"test_part":"response","test_stimulus":{"position":0,"left":"bvh/return-bottle-training2-lines.txt","right":"bvh/vr_prediction_models/model(dmp)-dataset(return-bottle)-npsi(70)-hold(2)/final-lines.txt","att_check":false},"trial_type":"html-keyboard-response","trial_index":14,"time_elapsed":56928,"internal_node_id":"0.0-8.0-3.1","subject":"dfsy89k5f7b7j40","sona":"7672"},{"rt":317.91000021621585,"stimulus":"<p>Bereit?</p>","key_press":32,"trial_type":"html-keyboard-response","trial_index":15,"time_elapsed":57247,"internal_node_id":"0.0-8.0-0.2","subject":"dfsy89k5f7b7j40","sona":"7672"},{"rt":null,"stimulus":"<div style=\"font-size:60px;\">+</div>","key_press":null,"trial_type":"html-keyboard-response","trial_index":16,"time_elapsed":59249,"internal_node_id":"0.0-8.0-1.2","subject":"dfsy89k5f7b7j40","sona":"7672"}]