[{"rt":2161.3150000048336,"stimulus":"<p>Welcome!<br> Please choose your language to start the experiment in the chosen language.</p><p>Willkommen!<br> Bitte wählen Sie eine Sprache, um das Experiment in der ausgewählten Sprache zu starten</p>","button_pressed":"1","trial_type":"html-button-response","trial_index":0,"time_elapsed":2209,"internal_node_id":"0.0-0.0","subject":"vsy8rwkjn5omrqf","sona":"9505"},{"view_history":"[{\"page_index\":0,\"viewing_time\":9423.539999988861},{\"page_index\":1,\"viewing_time\":3771.360000013374},{\"page_index\":2,\"viewing_time\":8470.260000001872},{\"page_index\":3,\"viewing_time\":5885.714999982156},{\"page_index\":4,\"viewing_time\":3151.9800000241958}]","rt":30704.744999995455,"trial_type":"instructions","trial_index":1,"time_elapsed":32916,"internal_node_id":"0.0-1.0-0.0","subject":"vsy8rwkjn5omrqf","sona":"9505"},{"rt":3103.1700000166893,"stimulus":"<p>Bereit?</p>","key_press":32,"trial_type":"html-keyboard-response","trial_index":2,"time_elapsed":36022,"internal_node_id":"0.0-3.0","subject":"vsy8rwkjn5omrqf","sona":"9505"},{"rt":null,"stimulus":"<div style=\"font-size:60px;\">+</div>","key_press":null,"trial_type":"html-keyboard-response","trial_index":3,"time_elapsed":38026,"internal_node_id":"0.0-4.0","subject":"vsy8rwkjn5omrqf","sona":"9505"},{"trial_type":"training","trial_index":4,"time_elapsed":42096,"internal_node_id":"0.0-5.0","subject":"vsy8rwkjn5omrqf","sona":"9505"},{"rt":164.43999999319203,"stimulus":"<p>Welche Sequenz haben Sie als natürlicher empfunden?</p>","key_press":70,"trial_type":"html-keyboard-response","trial_index":5,"time_elapsed":42262,"internal_node_id":"0.0-6.0","subject":"vsy8rwkjn5omrqf","sona":"9505"},{"rt":3915.81999999471,"stimulus":"<p>Das Experiment startet nun.</p><p><small>Bitte drücken Sie den Knopf, wenn Sie bereit sind.</small></p>","button_pressed":"0","trial_type":"html-button-response","trial_index":6,"time_elapsed":46179,"internal_node_id":"0.0-7.0","subject":"vsy8rwkjn5omrqf","sona":"9505"},{"rt":1830.3699999814853,"stimulus":"<p>Bereit?</p>","key_press":32,"trial_type":"html-keyboard-response","trial_index":7,"time_elapsed":48011,"internal_node_id":"0.0-8.0-0.0","subject":"vsy8rwkjn5omrqf","sona":"9505"},{"rt":null,"stimulus":"<div style=\"font-size:60px;\">+</div>","key_press":null,"trial_type":"html-keyboard-response","trial_index":8,"time_elapsed":50016,"internal_node_id":"0.0-8.0-1.0","subject":"vsy8rwkjn5omrqf","sona":"9505"},{"trial_type":"turing-test","trial_index":9,"time_elapsed":53264,"internal_node_id":"0.0-8.0-2.0","subject":"vsy8rwkjn5omrqf","sona":"9505"},{"rt":432.0949999964796,"stimulus":"<p>Welche Sequenz haben Sie als natürlicher empfunden?</p>","key_press":70,"test_part":"response","test_stimulus":{"position":1,"left":"bvh/vr_prediction_models/model(tmp)-dataset(pass-bottle-hold)-numprim(9)-hold(1)/final-lines.txt","right":"bvh/pass-bottle-hold-training1-lines.txt","att_check":false},"trial_type":"html-keyboard-response","trial_index":10,"time_elapsed":53700,"internal_node_id":"0.0-8.0-3.0","subject":"vsy8rwkjn5omrqf","sona":"9505"},{"rt":1910.3250000043772,"stimulus":"<p>Bereit?</p>","key_press":32,"trial_type":"html-keyboard-response","trial_index":11,"time_elapsed":55613,"internal_node_id":"0.0-8.0-0.1","subject":"vsy8rwkjn5omrqf","sona":"9505"},{"rt":null,"stimulus":"<div style=\"font-size:60px;\">+</div>","key_press":null,"trial_type":"html-keyboard-response","trial_index":12,"time_elapsed":57616,"internal_node_id":"0.0-8.0-1.1","subject":"vsy8rwkjn5omrqf","sona":"9505"},{"trial_type":"turing-test","trial_index":13,"time_elapsed":61565,"internal_node_id":"0.0-8.0-2.1","subject":"vsy8rwkjn5omrqf","sona":"9505"},{"rt":1271.054999990156,"stimulus":"<p>Welche Sequenz haben Sie als natürlicher empfunden?</p>","key_press":74,"test_part":"response","test_stimulus":{"position":0,"left":"bvh/return-bottle-hold-training4-lines.txt","right":"bvh/vr_prediction_models/model(tmp)-dataset(return-bottle-hold)-numprim(9)-hold(4)/final-lines.txt","att_check":false},"trial_type":"html-keyboard-response","trial_index":14,"time_elapsed":62839,"internal_node_id":"0.0-8.0-3.1","subject":"vsy8rwkjn5omrqf","sona":"9505"},{"rt":1427.6950000203215,"stimulus":"<p>Bereit?</p>","key_press":32,"trial_type":"html-keyboard-response","trial_index":15,"time_elapsed":64269,"internal_node_id":"0.0-8.0-0.2","subject":"vsy8rwkjn5omrqf","sona":"9505"},{"rt":null,"stimulus":"<div style=\"font-size:60px;\">+</div>","key_press":null,"trial_type":"html-keyboard-response","trial_index":16,"time_elapsed":66271,"internal_node_id":"0.0-8.0-1.2","subject":"vsy8rwkjn5omrqf","sona":"9505"},{"trial_type":"turing-test","trial_index":17,"time_elapsed":77642,"internal_node_id":"0.0-8.0-2.2","subject":"vsy8rwkjn5omrqf","sona":"9505"},{"rt":1716.7799999879207,"stimulus":"<p>Welche Sequenz haben Sie als natürlicher empfunden?</p>","key_press":70,"test_part":"response","test_stimulus":{"position":1,"left":"bvh/vr_prediction_models/model(dmp)-dataset(pass-bottle)-npsi(100)-hold(3)/final-lines.txt","right":"bvh/pass-bottle-training3-lines.txt","att_check":false},"trial_type":"html-keyboard-response","trial_index":18,"time_elapsed":79362,"internal_node_id":"0.0-8.0-3.2","subject":"vsy8rwkjn5omrqf","sona":"9505"},{"rt":1224.225000012666,"stimulus":"<p>Bereit?</p>","key_press":32,"trial_type":"html-keyboard-response","trial_index":19,"time_elapsed":80589,"internal_node_id":"0.0-8.0-0.3","subject":"vsy8rwkjn5omrqf","sona":"9505"},{"rt":null,"stimulus":"<div style=\"font-size:60px;\">+</div>","key_press":null,"trial_type":"html-keyboard-response","trial_index":20,"time_elapsed":82592,"internal_node_id":"0.0-8.0-1.3","subject":"vsy8rwkjn5omrqf","sona":"9505"},{"trial_type":"turing-test","trial_index":21,"time_elapsed":87728,"internal_node_id":"0.0-8.0-2.3","subject":"vsy8rwkjn5omrqf","sona":"9505"},{"rt":683.1449999881443,"stimulus":"<p>Welche Sequenz haben Sie als natürlicher empfunden?</p>","key_press":74,"test_part":"response","test_stimulus":{"position":0,"left":"bvh/pass-bottle-hold-training3-lines.txt","right":"bvh/vr_prediction_models/model(tmp)-dataset(pass-bottle-hold)-numprim(3)-hold(3)/final-lines.txt","att_check":false},"trial_type":"html-keyboard-response","trial_index":22,"time_elapsed":88415,"internal_node_id":"0.0-8.0-3.3","subject":"vsy8rwkjn5omrqf","sona":"9505"},{"rt":3277.8999999864027,"stimulus":"<p>Bereit?</p>","key_press":32,"trial_type":"html-keyboard-response","trial_index":23,"time_elapsed":91696,"internal_node_id":"0.0-8.0-0.4","subject":"vsy8rwkjn5omrqf","sona":"9505"},{"rt":null,"stimulus":"<div style=\"font-size:60px;\">+</div>","key_press":null,"trial_type":"html-keyboard-response","trial_index":24,"time_elapsed":93698,"internal_node_id":"0.0-8.0-1.4","subject":"vsy8rwkjn5omrqf","sona":"9505"},{"trial_type":"turing-test","trial_index":25,"time_elapsed":97274,"internal_node_id":"0.0-8.0-2.4","subject":"vsy8rwkjn5omrqf","sona":"9505"},{"rt":584.3849999946542,"stimulus":"<p>Welche Sequenz haben Sie als natürlicher empfunden?</p>","key_press":74,"test_part":"response","test_stimulus":{"position":1,"left":"bvh/vr_prediction_models/model(vcgpdm)-dataset(pass-bottle-hold)-mode(MAP)-parts(3)-hold(2)/final-lines.txt","right":"bvh/pass-bottle-hold-training2-lines.txt","att_check":false},"trial_type":"html-keyboard-response","trial_index":26,"time_elapsed":97862,"internal_node_id":"0.0-8.0-3.4","subject":"vsy8rwkjn5omrqf","sona":"9505"},{"rt":588.6950000131037,"stimulus":"<p>Bereit?</p>","key_press":32,"trial_type":"html-keyboard-response","trial_index":27,"time_elapsed":98454,"internal_node_id":"0.0-8.0-0.5","subject":"vsy8rwkjn5omrqf","sona":"9505"},{"rt":null,"stimulus":"<div style=\"font-size:60px;\">+</div>","key_press":null,"trial_type":"html-keyboard-response","trial_index":28,"time_elapsed":100458,"internal_node_id":"0.0-8.0-1.5","subject":"vsy8rwkjn5omrqf","sona":"9505"},{"trial_type":"turing-test","trial_index":29,"time_elapsed":104175,"internal_node_id":"0.0-8.0-2.5","subject":"vsy8rwkjn5omrqf","sona":"9505"},{"rt":731.0949999955483,"stimulus":"<p>Welche Sequenz haben Sie als natürlicher empfunden?</p>","key_press":70,"test_part":"response","test_stimulus":{"position":0,"left":"bvh/pass-bottle-hold-training3-lines.txt","right":"bvh/vr_prediction_models/model(vcgpdm)-dataset(pass-bottle-hold)-mode(ELBO)-parts(3)-dyn(30)-lvm(15)-hold(3)/final-lines.txt","att_check":false},"trial_type":"html-keyboard-response","trial_index":30,"time_elapsed":104909,"internal_node_id":"0.0-8.0-3.5","subject":"vsy8rwkjn5omrqf","sona":"9505"},{"rt":493.7199999985751,"stimulus":"<p>Bereit?</p>","key_press":32,"trial_type":"html-keyboard-response","trial_index":31,"time_elapsed":105406,"internal_node_id":"0.0-8.0-0.6","subject":"vsy8rwkjn5omrqf","sona":"9505"},{"rt":null,"stimulus":"<div style=\"font-size:60px;\">+</div>","key_press":null,"trial_type":"html-keyboard-response","trial_index":32,"time_elapsed":107409,"internal_node_id":"0.0-8.0-1.6","subject":"vsy8rwkjn5omrqf","sona":"9505"},{"trial_type":"turing-test","trial_index":33,"time_elapsed":110726,"internal_node_id":"0.0-8.0-2.6","subject":"vsy8rwkjn5omrqf","sona":"9505"},{"rt":746.9450000207871,"stimulus":"<p>Welche Sequenz haben Sie als natürlicher empfunden?</p>","key_press":70,"test_part":"response","test_stimulus":{"position":1,"left":"bvh/vr_prediction_models/model(tmp)-dataset(return-bottle-hold)-numprim(8)-hold(1)/final-lines.txt","right":"bvh/return-bottle-hold-training1-lines.txt","att_check":false},"trial_type":"html-keyboard-response","trial_index":34,"time_elapsed":111478,"internal_node_id":"0.0-8.0-3.6","subject":"vsy8rwkjn5omrqf","sona":"9505"},{"rt":807.7749999938533,"stimulus":"<p>Bereit?</p>","key_press":32,"trial_type":"html-keyboard-response","trial_index":35,"time_elapsed":112289,"internal_node_id":"0.0-8.0-0.7","subject":"vsy8rwkjn5omrqf","sona":"9505"},{"rt":null,"stimulus":"<div style=\"font-size:60px;\">+</div>","key_press":null,"trial_type":"html-keyboard-response","trial_index":36,"time_elapsed":114291,"internal_node_id":"0.0-8.0-1.7","subject":"vsy8rwkjn5omrqf","sona":"9505"},{"trial_type":"turing-test","trial_index":37,"time_elapsed":124153,"internal_node_id":"0.0-8.0-2.7","subject":"vsy8rwkjn5omrqf","sona":"9505"},{"rt":2126.6750000067987,"stimulus":"<p>Welche Sequenz haben Sie als natürlicher empfunden?</p>","key_press":70,"test_part":"response","test_stimulus":{"position":0,"left":"bvh/return-bottle-hold-training3-lines.txt","right":"bvh/vr_prediction_models/model(vcgpdm)-dataset(return-bottle-hold)-mode(ELBO)-parts(1)-dyn(35)-lvm(10)-hold(3)/final-lines.txt","att_check":false},"trial_type":"html-keyboard-response","trial_index":38,"time_elapsed":126284,"internal_node_id":"0.0-8.0-3.7","subject":"vsy8rwkjn5omrqf","sona":"9505"},{"rt":638.1150000088383,"stimulus":"<p>Bereit?</p>","key_press":32,"trial_type":"html-keyboard-response","trial_index":39,"time_elapsed":126925,"internal_node_id":"0.0-8.0-0.8","subject":"vsy8rwkjn5omrqf","sona":"9505"},{"rt":null,"stimulus":"<div style=\"font-size:60px;\">+</div>","key_press":null,"trial_type":"html-keyboard-response","trial_index":40,"time_elapsed":128929,"internal_node_id":"0.0-8.0-1.8","subject":"vsy8rwkjn5omrqf","sona":"9505"},{"trial_type":"turing-test","trial_index":41,"time_elapsed":132554,"internal_node_id":"0.0-8.0-2.8","subject":"vsy8rwkjn5omrqf","sona":"9505"},{"rt":619.5250000164378,"stimulus":"<p>Welche Sequenz haben Sie als natürlicher empfunden?</p>","key_press":74,"test_part":"response","test_stimulus":{"position":0,"left":"bvh/return-bottle-hold-training3-lines.txt","right":"bvh/vr_prediction_models/model(tmp)-dataset(return-bottle-hold)-numprim(7)-hold(3)/final-lines.txt","att_check":false},"trial_type":"html-keyboard-response","trial_index":42,"time_elapsed":133177,"internal_node_id":"0.0-8.0-3.8","subject":"vsy8rwkjn5omrqf","sona":"9505"},{"rt":632.6249999983702,"stimulus":"<p>Bereit?</p>","key_press":32,"trial_type":"html-keyboard-response","trial_index":43,"time_elapsed":133812,"internal_node_id":"0.0-8.0-0.9","subject":"vsy8rwkjn5omrqf","sona":"9505"},{"rt":null,"stimulus":"<div style=\"font-size:60px;\">+</div>","key_press":null,"trial_type":"html-keyboard-response","trial_index":44,"time_elapsed":135818,"internal_node_id":"0.0-8.0-1.9","subject":"vsy8rwkjn5omrqf","sona":"9505"},{"trial_type":"turing-test","trial_index":45,"time_elapsed":139110,"internal_node_id":"0.0-8.0-2.9","subject":"vsy8rwkjn5omrqf","sona":"9505"},{"rt":295.64500000560656,"stimulus":"<p>Welche Sequenz haben Sie als natürlicher empfunden?</p>","key_press":74,"test_part":"response","test_stimulus":{"position":0,"left":"bvh/return-bottle-hold-training1-lines.txt","right":"bvh/vr_prediction_models/model(tmp)-dataset(return-bottle-hold)-numprim(11)-hold(1)/final-lines.txt","att_check":false},"trial_type":"html-keyboard-response","trial_index":46,"time_elapsed":139409,"internal_node_id":"0.0-8.0-3.9","subject":"vsy8rwkjn5omrqf","sona":"9505"},{"rt":375.54500001715496,"stimulus":"<p>Bereit?</p>","key_press":32,"trial_type":"html-keyboard-response","trial_index":47,"time_elapsed":139788,"internal_node_id":"0.0-8.0-0.10","subject":"vsy8rwkjn5omrqf","sona":"9505"},{"rt":null,"stimulus":"<div style=\"font-size:60px;\">+</div>","key_press":null,"trial_type":"html-keyboard-response","trial_index":48,"time_elapsed":141791,"internal_node_id":"0.0-8.0-1.10","subject":"vsy8rwkjn5omrqf","sona":"9505"},{"trial_type":"turing-test","trial_index":49,"time_elapsed":148620,"internal_node_id":"0.0-8.0-2.10","subject":"vsy8rwkjn5omrqf","sona":"9505"},{"rt":846.0449999838602,"stimulus":"<p>Welche Sequenz haben Sie als natürlicher empfunden?</p>","key_press":74,"test_part":"response","test_stimulus":{"position":1,"left":"bvh/vr_prediction_models/model(dmp)-dataset(pass-bottle)-npsi(40)-hold(0)/final-lines.txt","right":"bvh/pass-bottle-training0-lines.txt","att_check":true},"trial_type":"html-keyboard-response","trial_index":50,"time_elapsed":149474,"internal_node_id":"0.0-8.0-3.10","subject":"vsy8rwkjn5omrqf","sona":"9505"},{"rt":497.28999999933876,"stimulus":"<p>Bereit?</p>","key_press":32,"trial_type":"html-keyboard-response","trial_index":51,"time_elapsed":149976,"internal_node_id":"0.0-8.0-0.11","subject":"vsy8rwkjn5omrqf","sona":"9505"},{"rt":null,"stimulus":"<div style=\"font-size:60px;\">+</div>","key_press":null,"trial_type":"html-keyboard-response","trial_index":52,"time_elapsed":151978,"internal_node_id":"0.0-8.0-1.11","subject":"vsy8rwkjn5omrqf","sona":"9505"}]