[{"rt":2062.6650000049267,"stimulus":"<p>Welcome!<br> Please choose your language to start the experiment in the chosen language.</p><p>Willkommen!<br> Bitte wählen Sie eine Sprache, um das Experiment in der ausgewählten Sprache zu starten</p>","button_pressed":"1","trial_type":"html-button-response","trial_index":0,"time_elapsed":2093,"internal_node_id":"0.0-0.0","subject":"oczf3my4z7z8duw","sona":"9322"},{"view_history":"[{\"page_index\":0,\"viewing_time\":5379.920000006678},{\"page_index\":1,\"viewing_time\":3667.959999991581},{\"page_index\":2,\"viewing_time\":5586.085000017192},{\"page_index\":3,\"viewing_time\":14542.474999994738},{\"page_index\":4,\"viewing_time\":2380.9149999869987}]","rt":31558.424999995623,"trial_type":"instructions","trial_index":1,"time_elapsed":33653,"internal_node_id":"0.0-1.0-0.0","subject":"oczf3my4z7z8duw","sona":"9322"},{"rt":1444.7949999885168,"stimulus":"<p>Bereit?</p>","key_press":32,"trial_type":"html-keyboard-response","trial_index":2,"time_elapsed":35099,"internal_node_id":"0.0-3.0","subject":"oczf3my4z7z8duw","sona":"9322"},{"rt":null,"stimulus":"<div style=\"font-size:60px;\">+</div>","key_press":null,"trial_type":"html-keyboard-response","trial_index":3,"time_elapsed":37107,"internal_node_id":"0.0-4.0","subject":"oczf3my4z7z8duw","sona":"9322"},{"trial_type":"training","trial_index":4,"time_elapsed":40627,"internal_node_id":"0.0-5.0","subject":"oczf3my4z7z8duw","sona":"9322"},{"rt":4676.464999996824,"stimulus":"<p>Welche Sequenz haben Sie als natürlicher empfunden?</p>","key_press":74,"trial_type":"html-keyboard-response","trial_index":5,"time_elapsed":45305,"internal_node_id":"0.0-6.0","subject":"oczf3my4z7z8duw","sona":"9322"},{"rt":1838.3449999964796,"stimulus":"<p>Das Experiment startet nun.</p><p><small>Bitte drücken Sie den Knopf, wenn Sie bereit sind.</small></p>","button_pressed":"0","trial_type":"html-button-response","trial_index":6,"time_elapsed":47144,"internal_node_id":"0.0-7.0","subject":"oczf3my4z7z8duw","sona":"9322"},{"rt":1598.3549999946263,"stimulus":"<p>Bereit?</p>","key_press":32,"trial_type":"html-keyboard-response","trial_index":7,"time_elapsed":48743,"internal_node_id":"0.0-8.0-0.0","subject":"oczf3my4z7z8duw","sona":"9322"},{"rt":null,"stimulus":"<div style=\"font-size:60px;\">+</div>","key_press":null,"trial_type":"html-keyboard-response","trial_index":8,"time_elapsed":50752,"internal_node_id":"0.0-8.0-1.0","subject":"oczf3my4z7z8duw","sona":"9322"},{"trial_type":"turing-test","trial_index":9,"time_elapsed":57302,"internal_node_id":"0.0-8.0-2.0","subject":"oczf3my4z7z8duw","sona":"9322"},{"rt":3546.7849999840837,"stimulus":"<p>Welche Sequenz haben Sie als natürlicher empfunden?</p>","key_press":70,"test_part":"response","test_stimulus":{"position":0,"left":"bvh/return-bottle-training3-lines.txt","right":"bvh/vr_prediction_models/model(vcgpdm)-dataset(return-bottle)-mode(ELBO)-parts(3)-dyn(30)-lvm(15)-hold(3)/final-lines.txt","att_check":false},"trial_type":"html-keyboard-response","trial_index":10,"time_elapsed":60851,"internal_node_id":"0.0-8.0-3.0","subject":"oczf3my4z7z8duw","sona":"9322"},{"rt":1376.4199999859557,"stimulus":"<p>Bereit?</p>","key_press":32,"trial_type":"html-keyboard-response","trial_index":11,"time_elapsed":62229,"internal_node_id":"0.0-8.0-0.1","subject":"oczf3my4z7z8duw","sona":"9322"},{"rt":null,"stimulus":"<div style=\"font-size:60px;\">+</div>","key_press":null,"trial_type":"html-keyboard-response","trial_index":12,"time_elapsed":64235,"internal_node_id":"0.0-8.0-1.1","subject":"oczf3my4z7z8duw","sona":"9322"},{"trial_type":"turing-test","trial_index":13,"time_elapsed":71198,"internal_node_id":"0.0-8.0-2.1","subject":"oczf3my4z7z8duw","sona":"9322"},{"rt":1808.0749999789987,"stimulus":"<p>Welche Sequenz haben Sie als natürlicher empfunden?</p>","key_press":74,"test_part":"response","test_stimulus":{"position":1,"left":"bvh/vr_prediction_models/model(vcgpdm)-dataset(pass-bottle)-mode(ELBO)-parts(3)-dyn(30)-lvm(15)-hold(2)/final-lines.txt","right":"bvh/pass-bottle-training2-lines.txt","att_check":false},"trial_type":"html-keyboard-response","trial_index":14,"time_elapsed":73008,"internal_node_id":"0.0-8.0-3.1","subject":"oczf3my4z7z8duw","sona":"9322"},{"rt":1045.1499999908265,"stimulus":"<p>Bereit?</p>","key_press":32,"trial_type":"html-keyboard-response","trial_index":15,"time_elapsed":74055,"internal_node_id":"0.0-8.0-0.2","subject":"oczf3my4z7z8duw","sona":"9322"},{"rt":null,"stimulus":"<div style=\"font-size:60px;\">+</div>","key_press":null,"trial_type":"html-keyboard-response","trial_index":16,"time_elapsed":76063,"internal_node_id":"0.0-8.0-1.2","subject":"oczf3my4z7z8duw","sona":"9322"},{"trial_type":"turing-test","trial_index":17,"time_elapsed":82594,"internal_node_id":"0.0-8.0-2.2","subject":"oczf3my4z7z8duw","sona":"9322"},{"rt":548.3799999929033,"stimulus":"<p>Welche Sequenz haben Sie als natürlicher empfunden?</p>","key_press":70,"test_part":"response","test_stimulus":{"position":0,"left":"bvh/pass-bottle-training4-lines.txt","right":"bvh/vr_prediction_models/model(vcgpdm)-dataset(pass-bottle)-mode(ELBO)-parts(3)-dyn(35)-lvm(20)-hold(4)/final-lines.txt","att_check":false},"trial_type":"html-keyboard-response","trial_index":18,"time_elapsed":83144,"internal_node_id":"0.0-8.0-3.2","subject":"oczf3my4z7z8duw","sona":"9322"},{"rt":844.5150000043213,"stimulus":"<p>Bereit?</p>","key_press":32,"trial_type":"html-keyboard-response","trial_index":19,"time_elapsed":83989,"internal_node_id":"0.0-8.0-0.3","subject":"oczf3my4z7z8duw","sona":"9322"},{"rt":null,"stimulus":"<div style=\"font-size:60px;\">+</div>","key_press":null,"trial_type":"html-keyboard-response","trial_index":20,"time_elapsed":85995,"internal_node_id":"0.0-8.0-1.3","subject":"oczf3my4z7z8duw","sona":"9322"},{"trial_type":"turing-test","trial_index":21,"time_elapsed":91829,"internal_node_id":"0.0-8.0-2.3","subject":"oczf3my4z7z8duw","sona":"9322"},{"rt":991.070000018226,"stimulus":"<p>Welche Sequenz haben Sie als natürlicher empfunden?</p>","key_press":70,"test_part":"response","test_stimulus":{"position":0,"left":"bvh/return-bottle-training3-lines.txt","right":"bvh/vr_prediction_models/model(tmp)-dataset(return-bottle)-numprim(8)-hold(3)/final-lines.txt","att_check":false},"trial_type":"html-keyboard-response","trial_index":22,"time_elapsed":92823,"internal_node_id":"0.0-8.0-3.3","subject":"oczf3my4z7z8duw","sona":"9322"},{"rt":441.9249999918975,"stimulus":"<p>Bereit?</p>","key_press":32,"trial_type":"html-keyboard-response","trial_index":23,"time_elapsed":93266,"internal_node_id":"0.0-8.0-0.4","subject":"oczf3my4z7z8duw","sona":"9322"},{"rt":null,"stimulus":"<div style=\"font-size:60px;\">+</div>","key_press":null,"trial_type":"html-keyboard-response","trial_index":24,"time_elapsed":95276,"internal_node_id":"0.0-8.0-1.4","subject":"oczf3my4z7z8duw","sona":"9322"},{"trial_type":"turing-test","trial_index":25,"time_elapsed":102555,"internal_node_id":"0.0-8.0-2.4","subject":"oczf3my4z7z8duw","sona":"9322"},{"rt":367.6749999867752,"stimulus":"<p>Welche Sequenz haben Sie als natürlicher empfunden?</p>","key_press":74,"test_part":"response","test_stimulus":{"position":1,"left":"bvh/vr_prediction_models/model(vcgpdm)-dataset(return-bottle)-mode(ELBO)-parts(1)-dyn(25)-lvm(35)-hold(2)/final-lines.txt","right":"bvh/return-bottle-training2-lines.txt","att_check":false},"trial_type":"html-keyboard-response","trial_index":26,"time_elapsed":102925,"internal_node_id":"0.0-8.0-3.4","subject":"oczf3my4z7z8duw","sona":"9322"},{"rt":770.3099999926053,"stimulus":"<p>Bereit?</p>","key_press":32,"trial_type":"html-keyboard-response","trial_index":27,"time_elapsed":103697,"internal_node_id":"0.0-8.0-0.5","subject":"oczf3my4z7z8duw","sona":"9322"},{"rt":null,"stimulus":"<div style=\"font-size:60px;\">+</div>","key_press":null,"trial_type":"html-keyboard-response","trial_index":28,"time_elapsed":105704,"internal_node_id":"0.0-8.0-1.5","subject":"oczf3my4z7z8duw","sona":"9322"},{"trial_type":"turing-test","trial_index":29,"time_elapsed":109870,"internal_node_id":"0.0-8.0-2.5","subject":"oczf3my4z7z8duw","sona":"9322"},{"rt":3297.709999984363,"stimulus":"<p>Welche Sequenz haben Sie als natürlicher empfunden?</p>","key_press":70,"test_part":"response","test_stimulus":{"position":0,"left":"bvh/return-bottle-hold-training1-lines.txt","right":"bvh/vr_prediction_models/model(vcgpdm)-dataset(return-bottle-hold)-mode(ELBO)-parts(1)-dyn(35)-lvm(10)-hold(1)/final-lines.txt","att_check":false},"trial_type":"html-keyboard-response","trial_index":30,"time_elapsed":113170,"internal_node_id":"0.0-8.0-3.5","subject":"oczf3my4z7z8duw","sona":"9322"},{"rt":755.8250000001863,"stimulus":"<p>Bereit?</p>","key_press":32,"trial_type":"html-keyboard-response","trial_index":31,"time_elapsed":113927,"internal_node_id":"0.0-8.0-0.6","subject":"oczf3my4z7z8duw","sona":"9322"},{"rt":null,"stimulus":"<div style=\"font-size:60px;\">+</div>","key_press":null,"trial_type":"html-keyboard-response","trial_index":32,"time_elapsed":115937,"internal_node_id":"0.0-8.0-1.6","subject":"oczf3my4z7z8duw","sona":"9322"},{"trial_type":"turing-test","trial_index":33,"time_elapsed":119730,"internal_node_id":"0.0-8.0-2.6","subject":"oczf3my4z7z8duw","sona":"9322"},{"rt":368.37999999988824,"stimulus":"<p>Welche Sequenz haben Sie als natürlicher empfunden?</p>","key_press":74,"test_part":"response","test_stimulus":{"position":0,"left":"bvh/pass-bottle-hold-training4-lines.txt","right":"bvh/vr_prediction_models/model(dmp)-dataset(pass-bottle-hold)-npsi(30)-hold(4)/final-lines.txt","att_check":false},"trial_type":"html-keyboard-response","trial_index":34,"time_elapsed":120100,"internal_node_id":"0.0-8.0-3.6","subject":"oczf3my4z7z8duw","sona":"9322"},{"rt":952.2699999797624,"stimulus":"<p>Bereit?</p>","key_press":32,"trial_type":"html-keyboard-response","trial_index":35,"time_elapsed":121054,"internal_node_id":"0.0-8.0-0.7","subject":"oczf3my4z7z8duw","sona":"9322"},{"rt":null,"stimulus":"<div style=\"font-size:60px;\">+</div>","key_press":null,"trial_type":"html-keyboard-response","trial_index":36,"time_elapsed":123063,"internal_node_id":"0.0-8.0-1.7","subject":"oczf3my4z7z8duw","sona":"9322"},{"trial_type":"turing-test","trial_index":37,"time_elapsed":130461,"internal_node_id":"0.0-8.0-2.7","subject":"oczf3my4z7z8duw","sona":"9322"},{"rt":310.77000001096167,"stimulus":"<p>Welche Sequenz haben Sie als natürlicher empfunden?</p>","key_press":74,"test_part":"response","test_stimulus":{"position":1,"left":"bvh/vr_prediction_models/model(vcgpdm)-dataset(pass-bottle)-mode(ELBO)-parts(3)-dyn(35)-lvm(20)-hold(0)/final-lines.txt","right":"bvh/pass-bottle-training0-lines.txt","att_check":false},"trial_type":"html-keyboard-response","trial_index":38,"time_elapsed":130774,"internal_node_id":"0.0-8.0-3.7","subject":"oczf3my4z7z8duw","sona":"9322"},{"rt":835.8550000120886,"stimulus":"<p>Bereit?</p>","key_press":32,"trial_type":"html-keyboard-response","trial_index":39,"time_elapsed":131611,"internal_node_id":"0.0-8.0-0.8","subject":"oczf3my4z7z8duw","sona":"9322"},{"rt":null,"stimulus":"<div style=\"font-size:60px;\">+</div>","key_press":null,"trial_type":"html-keyboard-response","trial_index":40,"time_elapsed":133617,"internal_node_id":"0.0-8.0-1.8","subject":"oczf3my4z7z8duw","sona":"9322"},{"trial_type":"turing-test","trial_index":41,"time_elapsed":139484,"internal_node_id":"0.0-8.0-2.8","subject":"oczf3my4z7z8duw","sona":"9322"},{"rt":593.9300000027288,"stimulus":"<p>Welche Sequenz haben Sie als natürlicher empfunden?</p>","key_press":74,"test_part":"response","test_stimulus":{"position":0,"left":"bvh/return-bottle-training3-lines.txt","right":"bvh/vr_prediction_models/model(tmp)-dataset(return-bottle)-numprim(5)-hold(3)/final-lines.txt","att_check":false},"trial_type":"html-keyboard-response","trial_index":42,"time_elapsed":140080,"internal_node_id":"0.0-8.0-3.8","subject":"oczf3my4z7z8duw","sona":"9322"},{"rt":508.15000000875443,"stimulus":"<p>Bereit?</p>","key_press":32,"trial_type":"html-keyboard-response","trial_index":43,"time_elapsed":140589,"internal_node_id":"0.0-8.0-0.9","subject":"oczf3my4z7z8duw","sona":"9322"},{"rt":null,"stimulus":"<div style=\"font-size:60px;\">+</div>","key_press":null,"trial_type":"html-keyboard-response","trial_index":44,"time_elapsed":142596,"internal_node_id":"0.0-8.0-1.9","subject":"oczf3my4z7z8duw","sona":"9322"},{"trial_type":"turing-test","trial_index":45,"time_elapsed":148951,"internal_node_id":"0.0-8.0-2.9","subject":"oczf3my4z7z8duw","sona":"9322"},{"rt":961.8449999834411,"stimulus":"<p>Welche Sequenz haben Sie als natürlicher empfunden?</p>","key_press":74,"test_part":"response","test_stimulus":{"position":0,"left":"bvh/return-bottle-training3-lines.txt","right":"bvh/vr_prediction_models/model(vcgpdm)-dataset(return-bottle)-mode(ELBO)-parts(3)-dyn(15)-lvm(30)-hold(3)/final-lines.txt","att_check":false},"trial_type":"html-keyboard-response","trial_index":46,"time_elapsed":149915,"internal_node_id":"0.0-8.0-3.9","subject":"oczf3my4z7z8duw","sona":"9322"},{"rt":733.9349999965634,"stimulus":"<p>Bereit?</p>","key_press":32,"trial_type":"html-keyboard-response","trial_index":47,"time_elapsed":150650,"internal_node_id":"0.0-8.0-0.10","subject":"oczf3my4z7z8duw","sona":"9322"},{"rt":null,"stimulus":"<div style=\"font-size:60px;\">+</div>","key_press":null,"trial_type":"html-keyboard-response","trial_index":48,"time_elapsed":152651,"internal_node_id":"0.0-8.0-1.10","subject":"oczf3my4z7z8duw","sona":"9322"},{"trial_type":"turing-test","trial_index":49,"time_elapsed":156444,"internal_node_id":"0.0-8.0-2.10","subject":"oczf3my4z7z8duw","sona":"9322"},{"rt":1377.8450000099838,"stimulus":"<p>Welche Sequenz haben Sie als natürlicher empfunden?</p>","key_press":74,"test_part":"response","test_stimulus":{"position":1,"left":"bvh/vr_prediction_models/model(dmp)-dataset(pass-bottle-hold)-npsi(20)-hold(3)/final-lines.txt","right":"bvh/pass-bottle-hold-training3-lines.txt","att_check":false},"trial_type":"html-keyboard-response","trial_index":50,"time_elapsed":157825,"internal_node_id":"0.0-8.0-3.10","subject":"oczf3my4z7z8duw","sona":"9322"},{"rt":476.7500000016298,"stimulus":"<p>Bereit?</p>","key_press":32,"trial_type":"html-keyboard-response","trial_index":51,"time_elapsed":158303,"internal_node_id":"0.0-8.0-0.11","subject":"oczf3my4z7z8duw","sona":"9322"},{"rt":null,"stimulus":"<div style=\"font-size:60px;\">+</div>","key_press":null,"trial_type":"html-keyboard-response","trial_index":52,"time_elapsed":160311,"internal_node_id":"0.0-8.0-1.11","subject":"oczf3my4z7z8duw","sona":"9322"}]