[{"rt":7161.345000000438,"stimulus":"<p>Welcome!<br> Please choose your language to start the experiment in the chosen language.</p><p>Willkommen!<br> Bitte wählen Sie eine Sprache, um das Experiment in der ausgewählten Sprache zu starten</p>","button_pressed":"1","trial_type":"html-button-response","trial_index":0,"time_elapsed":7179,"internal_node_id":"0.0-0.0","subject":"u58cvrzd6e04uk6","sona":"9637"},{"view_history":"[{\"page_index\":0,\"viewing_time\":20245.269999999437},{\"page_index\":1,\"viewing_time\":14237.365000000864},{\"page_index\":2,\"viewing_time\":12077.315000002272},{\"page_index\":3,\"viewing_time\":10702.760000000126},{\"page_index\":4,\"viewing_time\":5649.374999997235}]","rt":62913.21000000244,"trial_type":"instructions","trial_index":1,"time_elapsed":70093,"internal_node_id":"0.0-1.0-0.0","subject":"u58cvrzd6e04uk6","sona":"9637"},{"rt":2413.6899999975867,"stimulus":"<p>Bereit?</p>","key_press":32,"trial_type":"html-keyboard-response","trial_index":2,"time_elapsed":72509,"internal_node_id":"0.0-3.0","subject":"u58cvrzd6e04uk6","sona":"9637"},{"rt":null,"stimulus":"<div style=\"font-size:60px;\">+</div>","key_press":null,"trial_type":"html-keyboard-response","trial_index":3,"time_elapsed":74511,"internal_node_id":"0.0-4.0","subject":"u58cvrzd6e04uk6","sona":"9637"},{"trial_type":"training","trial_index":4,"time_elapsed":77894,"internal_node_id":"0.0-5.0","subject":"u58cvrzd6e04uk6","sona":"9637"},{"rt":991.6750000011234,"stimulus":"<p>Welche Sequenz haben Sie als natürlicher empfunden?</p>","key_press":70,"trial_type":"html-keyboard-response","trial_index":5,"time_elapsed":78886,"internal_node_id":"0.0-6.0","subject":"u58cvrzd6e04uk6","sona":"9637"},{"rt":7176.060000001598,"stimulus":"<p>Das Experiment startet nun.</p><p><small>Bitte drücken Sie den Knopf, wenn Sie bereit sind.</small></p>","button_pressed":"0","trial_type":"html-button-response","trial_index":6,"time_elapsed":86064,"internal_node_id":"0.0-7.0","subject":"u58cvrzd6e04uk6","sona":"9637"},{"rt":1645.8199999979115,"stimulus":"<p>Bereit?</p>","key_press":32,"trial_type":"html-keyboard-response","trial_index":7,"time_elapsed":87710,"internal_node_id":"0.0-8.0-0.0","subject":"u58cvrzd6e04uk6","sona":"9637"},{"rt":null,"stimulus":"<div style=\"font-size:60px;\">+</div>","key_press":null,"trial_type":"html-keyboard-response","trial_index":8,"time_elapsed":89714,"internal_node_id":"0.0-8.0-1.0","subject":"u58cvrzd6e04uk6","sona":"9637"},{"trial_type":"turing-test","trial_index":9,"time_elapsed":95613,"internal_node_id":"0.0-8.0-2.0","subject":"u58cvrzd6e04uk6","sona":"9637"},{"rt":897.0700000027136,"stimulus":"<p>Welche Sequenz haben Sie als natürlicher empfunden?</p>","key_press":70,"test_part":"response","test_stimulus":{"position":0,"left":"bvh/return-bottle-training4-lines.txt","right":"bvh/vr_prediction_models/model(vcgpdm)-dataset(return-bottle)-mode(ELBO)-parts(1)-dyn(30)-lvm(20)-hold(4)/final-lines.txt","att_check":false},"trial_type":"html-keyboard-response","trial_index":10,"time_elapsed":96512,"internal_node_id":"0.0-8.0-3.0","subject":"u58cvrzd6e04uk6","sona":"9637"},{"rt":1251.6799999975774,"stimulus":"<p>Bereit?</p>","key_press":32,"trial_type":"html-keyboard-response","trial_index":11,"time_elapsed":97765,"internal_node_id":"0.0-8.0-0.1","subject":"u58cvrzd6e04uk6","sona":"9637"},{"rt":null,"stimulus":"<div style=\"font-size:60px;\">+</div>","key_press":null,"trial_type":"html-keyboard-response","trial_index":12,"time_elapsed":99767,"internal_node_id":"0.0-8.0-1.1","subject":"u58cvrzd6e04uk6","sona":"9637"},{"trial_type":"turing-test","trial_index":13,"time_elapsed":106577,"internal_node_id":"0.0-8.0-2.1","subject":"u58cvrzd6e04uk6","sona":"9637"},{"rt":687.659999999596,"stimulus":"<p>Welche Sequenz haben Sie als natürlicher empfunden?</p>","key_press":70,"test_part":"response","test_stimulus":{"position":1,"left":"bvh/vr_prediction_models/model(vcgpdm)-dataset(pass-bottle)-mode(ELBO)-parts(1)-dyn(20)-lvm(20)-hold(0)/final-lines.txt","right":"bvh/pass-bottle-training0-lines.txt","att_check":false},"trial_type":"html-keyboard-response","trial_index":14,"time_elapsed":107268,"internal_node_id":"0.0-8.0-3.1","subject":"u58cvrzd6e04uk6","sona":"9637"},{"rt":2164.9800000013784,"stimulus":"<p>Bereit?</p>","key_press":32,"trial_type":"html-keyboard-response","trial_index":15,"time_elapsed":109434,"internal_node_id":"0.0-8.0-0.2","subject":"u58cvrzd6e04uk6","sona":"9637"},{"rt":null,"stimulus":"<div style=\"font-size:60px;\">+</div>","key_press":null,"trial_type":"html-keyboard-response","trial_index":16,"time_elapsed":111436,"internal_node_id":"0.0-8.0-1.2","subject":"u58cvrzd6e04uk6","sona":"9637"},{"trial_type":"turing-test","trial_index":17,"time_elapsed":116851,"internal_node_id":"0.0-8.0-2.2","subject":"u58cvrzd6e04uk6","sona":"9637"},{"rt":908.2149999994726,"stimulus":"<p>Welche Sequenz haben Sie als natürlicher empfunden?</p>","key_press":70,"test_part":"response","test_stimulus":{"position":0,"left":"bvh/pass-bottle-training1-lines.txt","right":"bvh/vr_prediction_models/model(dmp)-dataset(pass-bottle)-npsi(90)-hold(1)/final-lines.txt","att_check":false},"trial_type":"html-keyboard-response","trial_index":18,"time_elapsed":117762,"internal_node_id":"0.0-8.0-3.2","subject":"u58cvrzd6e04uk6","sona":"9637"},{"rt":503.5100000022794,"stimulus":"<p>Bereit?</p>","key_press":32,"trial_type":"html-keyboard-response","trial_index":19,"time_elapsed":118267,"internal_node_id":"0.0-8.0-0.3","subject":"u58cvrzd6e04uk6","sona":"9637"},{"rt":null,"stimulus":"<div style=\"font-size:60px;\">+</div>","key_press":null,"trial_type":"html-keyboard-response","trial_index":20,"time_elapsed":120270,"internal_node_id":"0.0-8.0-1.3","subject":"u58cvrzd6e04uk6","sona":"9637"},{"trial_type":"turing-test","trial_index":21,"time_elapsed":123794,"internal_node_id":"0.0-8.0-2.3","subject":"u58cvrzd6e04uk6","sona":"9637"},{"rt":961.8200000004435,"stimulus":"<p>Welche Sequenz haben Sie als natürlicher empfunden?</p>","key_press":70,"test_part":"response","test_stimulus":{"position":0,"left":"bvh/return-bottle-hold-training2-lines.txt","right":"bvh/vr_prediction_models/model(vcgpdm)-dataset(return-bottle-hold)-mode(ELBO)-parts(1)-dyn(30)-lvm(35)-hold(2)/final-lines.txt","att_check":false},"trial_type":"html-keyboard-response","trial_index":22,"time_elapsed":124758,"internal_node_id":"0.0-8.0-3.3","subject":"u58cvrzd6e04uk6","sona":"9637"},{"rt":674.9799999997776,"stimulus":"<p>Bereit?</p>","key_press":32,"trial_type":"html-keyboard-response","trial_index":23,"time_elapsed":125435,"internal_node_id":"0.0-8.0-0.4","subject":"u58cvrzd6e04uk6","sona":"9637"},{"rt":null,"stimulus":"<div style=\"font-size:60px;\">+</div>","key_press":null,"trial_type":"html-keyboard-response","trial_index":24,"time_elapsed":127438,"internal_node_id":"0.0-8.0-1.4","subject":"u58cvrzd6e04uk6","sona":"9637"},{"trial_type":"turing-test","trial_index":25,"time_elapsed":130705,"internal_node_id":"0.0-8.0-2.4","subject":"u58cvrzd6e04uk6","sona":"9637"},{"rt":2484.9749999993946,"stimulus":"<p>Welche Sequenz haben Sie als natürlicher empfunden?</p>","key_press":70,"test_part":"response","test_stimulus":{"position":0,"left":"bvh/pass-bottle-hold-training0-lines.txt","right":"bvh/vr_prediction_models/model(tmp)-dataset(pass-bottle-hold)-numprim(7)-hold(0)/final-lines.txt","att_check":false},"trial_type":"html-keyboard-response","trial_index":26,"time_elapsed":133192,"internal_node_id":"0.0-8.0-3.4","subject":"u58cvrzd6e04uk6","sona":"9637"},{"rt":350.63499999887426,"stimulus":"<p>Bereit?</p>","key_press":32,"trial_type":"html-keyboard-response","trial_index":27,"time_elapsed":133544,"internal_node_id":"0.0-8.0-0.5","subject":"u58cvrzd6e04uk6","sona":"9637"},{"rt":null,"stimulus":"<div style=\"font-size:60px;\">+</div>","key_press":null,"trial_type":"html-keyboard-response","trial_index":28,"time_elapsed":135547,"internal_node_id":"0.0-8.0-1.5","subject":"u58cvrzd6e04uk6","sona":"9637"},{"trial_type":"turing-test","trial_index":29,"time_elapsed":142141,"internal_node_id":"0.0-8.0-2.5","subject":"u58cvrzd6e04uk6","sona":"9637"},{"rt":2843.5500000014144,"stimulus":"<p>Welche Sequenz haben Sie als natürlicher empfunden?</p>","key_press":70,"test_part":"response","test_stimulus":{"position":1,"left":"bvh/vr_prediction_models/model(dmp)-dataset(return-bottle)-npsi(60)-hold(2)/final-lines.txt","right":"bvh/return-bottle-training2-lines.txt","att_check":false},"trial_type":"html-keyboard-response","trial_index":30,"time_elapsed":144987,"internal_node_id":"0.0-8.0-3.5","subject":"u58cvrzd6e04uk6","sona":"9637"},{"rt":255.14499999917462,"stimulus":"<p>Bereit?</p>","key_press":32,"trial_type":"html-keyboard-response","trial_index":31,"time_elapsed":145244,"internal_node_id":"0.0-8.0-0.6","subject":"u58cvrzd6e04uk6","sona":"9637"},{"rt":null,"stimulus":"<div style=\"font-size:60px;\">+</div>","key_press":null,"trial_type":"html-keyboard-response","trial_index":32,"time_elapsed":147245,"internal_node_id":"0.0-8.0-1.6","subject":"u58cvrzd6e04uk6","sona":"9637"},{"trial_type":"turing-test","trial_index":33,"time_elapsed":150877,"internal_node_id":"0.0-8.0-2.6","subject":"u58cvrzd6e04uk6","sona":"9637"},{"rt":5102.02500000014,"stimulus":"<p>Welche Sequenz haben Sie als natürlicher empfunden?</p>","key_press":70,"test_part":"response","test_stimulus":{"position":1,"left":"bvh/vr_prediction_models/model(dmp)-dataset(return-bottle-hold)-npsi(100)-hold(3)/final-lines.txt","right":"bvh/return-bottle-hold-training3-lines.txt","att_check":false},"trial_type":"html-keyboard-response","trial_index":34,"time_elapsed":155981,"internal_node_id":"0.0-8.0-3.6","subject":"u58cvrzd6e04uk6","sona":"9637"},{"rt":261.7049999971641,"stimulus":"<p>Bereit?</p>","key_press":32,"trial_type":"html-keyboard-response","trial_index":35,"time_elapsed":156245,"internal_node_id":"0.0-8.0-0.7","subject":"u58cvrzd6e04uk6","sona":"9637"},{"rt":null,"stimulus":"<div style=\"font-size:60px;\">+</div>","key_press":null,"trial_type":"html-keyboard-response","trial_index":36,"time_elapsed":158247,"internal_node_id":"0.0-8.0-1.7","subject":"u58cvrzd6e04uk6","sona":"9637"},{"trial_type":"turing-test","trial_index":37,"time_elapsed":161923,"internal_node_id":"0.0-8.0-2.7","subject":"u58cvrzd6e04uk6","sona":"9637"},{"rt":794.0549999984796,"stimulus":"<p>Welche Sequenz haben Sie als natürlicher empfunden?</p>","key_press":70,"test_part":"response","test_stimulus":{"position":0,"left":"bvh/return-bottle-hold-training3-lines.txt","right":"bvh/vr_prediction_models/model(vcgpdm)-dataset(return-bottle-hold)-mode(ELBO)-parts(1)-dyn(20)-lvm(20)-hold(3)/final-lines.txt","att_check":false},"trial_type":"html-keyboard-response","trial_index":38,"time_elapsed":162720,"internal_node_id":"0.0-8.0-3.7","subject":"u58cvrzd6e04uk6","sona":"9637"},{"rt":214.50999999797205,"stimulus":"<p>Bereit?</p>","key_press":32,"trial_type":"html-keyboard-response","trial_index":39,"time_elapsed":162936,"internal_node_id":"0.0-8.0-0.8","subject":"u58cvrzd6e04uk6","sona":"9637"},{"rt":null,"stimulus":"<div style=\"font-size:60px;\">+</div>","key_press":null,"trial_type":"html-keyboard-response","trial_index":40,"time_elapsed":164938,"internal_node_id":"0.0-8.0-1.8","subject":"u58cvrzd6e04uk6","sona":"9637"},{"trial_type":"turing-test","trial_index":41,"time_elapsed":168601,"internal_node_id":"0.0-8.0-2.8","subject":"u58cvrzd6e04uk6","sona":"9637"},{"rt":2352.354999999079,"stimulus":"<p>Welche Sequenz haben Sie als natürlicher empfunden?</p>","key_press":70,"test_part":"response","test_stimulus":{"position":1,"left":"bvh/vr_prediction_models/model(tmp)-dataset(return-bottle-hold)-numprim(13)-hold(4)/final-lines.txt","right":"bvh/return-bottle-hold-training4-lines.txt","att_check":false},"trial_type":"html-keyboard-response","trial_index":42,"time_elapsed":170955,"internal_node_id":"0.0-8.0-3.8","subject":"u58cvrzd6e04uk6","sona":"9637"},{"rt":159.44500000114203,"stimulus":"<p>Bereit?</p>","key_press":32,"trial_type":"html-keyboard-response","trial_index":43,"time_elapsed":171117,"internal_node_id":"0.0-8.0-0.9","subject":"u58cvrzd6e04uk6","sona":"9637"},{"rt":null,"stimulus":"<div style=\"font-size:60px;\">+</div>","key_press":null,"trial_type":"html-keyboard-response","trial_index":44,"time_elapsed":173120,"internal_node_id":"0.0-8.0-1.9","subject":"u58cvrzd6e04uk6","sona":"9637"},{"trial_type":"turing-test","trial_index":45,"time_elapsed":176316,"internal_node_id":"0.0-8.0-2.9","subject":"u58cvrzd6e04uk6","sona":"9637"},{"rt":1877.2049999970477,"stimulus":"<p>Welche Sequenz haben Sie als natürlicher empfunden?</p>","key_press":74,"test_part":"response","test_stimulus":{"position":0,"left":"bvh/pass-bottle-hold-training1-lines.txt","right":"bvh/vr_prediction_models/model(dmp)-dataset(pass-bottle-hold)-npsi(50)-hold(1)/final-lines.txt","att_check":false},"trial_type":"html-keyboard-response","trial_index":46,"time_elapsed":178195,"internal_node_id":"0.0-8.0-3.9","subject":"u58cvrzd6e04uk6","sona":"9637"},{"rt":528.6550000018906,"stimulus":"<p>Bereit?</p>","key_press":32,"trial_type":"html-keyboard-response","trial_index":47,"time_elapsed":178725,"internal_node_id":"0.0-8.0-0.10","subject":"u58cvrzd6e04uk6","sona":"9637"},{"rt":null,"stimulus":"<div style=\"font-size:60px;\">+</div>","key_press":null,"trial_type":"html-keyboard-response","trial_index":48,"time_elapsed":180728,"internal_node_id":"0.0-8.0-1.10","subject":"u58cvrzd6e04uk6","sona":"9637"},{"trial_type":"turing-test","trial_index":49,"time_elapsed":184241,"internal_node_id":"0.0-8.0-2.10","subject":"u58cvrzd6e04uk6","sona":"9637"},{"rt":1646.004999998695,"stimulus":"<p>Welche Sequenz haben Sie als natürlicher empfunden?</p>","key_press":74,"test_part":"response","test_stimulus":{"position":0,"left":"bvh/return-bottle-hold-training2-lines.txt","right":"bvh/vr_prediction_models/model(vcgpdm)-dataset(return-bottle-hold)-mode(ELBO)-parts(1)-dyn(35)-lvm(30)-hold(2)/final-lines.txt","att_check":false},"trial_type":"html-keyboard-response","trial_index":50,"time_elapsed":185890,"internal_node_id":"0.0-8.0-3.10","subject":"u58cvrzd6e04uk6","sona":"9637"},{"rt":471.6950000001816,"stimulus":"<p>Bereit?</p>","key_press":32,"trial_type":"html-keyboard-response","trial_index":51,"time_elapsed":186363,"internal_node_id":"0.0-8.0-0.11","subject":"u58cvrzd6e04uk6","sona":"9637"},{"rt":null,"stimulus":"<div style=\"font-size:60px;\">+</div>","key_press":null,"trial_type":"html-keyboard-response","trial_index":52,"time_elapsed":188366,"internal_node_id":"0.0-8.0-1.11","subject":"u58cvrzd6e04uk6","sona":"9637"}]