[{"rt":1319.0000000000036,"stimulus":"<p>Welcome!<br> Please choose your language to start the experiment in the chosen language.</p><p>Willkommen!<br> Bitte wählen Sie eine Sprache um das Experiment in der ausgewählten Sprache zu starten</p>","button_pressed":"1","trial_type":"html-button-response","trial_index":0,"time_elapsed":1324,"internal_node_id":"0.0-0.0","subject":"4775y4eh1y2gvna"},{"view_history":"[{\"page_index\":0,\"viewing_time\":16624},{\"page_index\":1,\"viewing_time\":384.0000000000073},{\"page_index\":2,\"viewing_time\":591.9999999999927},{\"page_index\":3,\"viewing_time\":493}]","rt":18094,"trial_type":"instructions","trial_index":1,"time_elapsed":19419,"internal_node_id":"0.0-1.0-0.0","subject":"4775y4eh1y2gvna"},{"rt":645,"stimulus":"<p>Bereit?</p>","button_pressed":"0","trial_type":"html-button-response","trial_index":2,"time_elapsed":20067,"internal_node_id":"0.0-3.0","subject":"4775y4eh1y2gvna"},{"rt":null,"stimulus":"<div style=\"font-size:60px;\">+</div>","key_press":null,"trial_type":"html-keyboard-response","trial_index":3,"time_elapsed":22071,"internal_node_id":"0.0-4.0","subject":"4775y4eh1y2gvna"},{"trial_type":"training","trial_index":4,"time_elapsed":25274,"internal_node_id":"0.0-5.0","subject":"4775y4eh1y2gvna"},{"rt":4329,"stimulus":"<p>Welche Sequenz haben Sie als natürlicher empfunden?</p>","button_pressed":"1","trial_type":"html-button-response","trial_index":5,"time_elapsed":29604,"internal_node_id":"0.0-6.0","subject":"4775y4eh1y2gvna"},{"rt":614.9999999999927,"stimulus":"<p>Das Experiment startet nun.</p><p> Bitte drücken Sie den Knopf, wenn Sie bereit sind.</p>","button_pressed":"0","trial_type":"html-button-response","trial_index":6,"time_elapsed":30220,"internal_node_id":"0.0-7.0","subject":"4775y4eh1y2gvna"},{"rt":607.9999999999927,"stimulus":"<p>Bereit?</p>","button_pressed":"0","trial_type":"html-button-response","trial_index":7,"time_elapsed":30829,"internal_node_id":"0.0-8.0-0.0","subject":"4775y4eh1y2gvna"},{"rt":null,"stimulus":"<div style=\"font-size:60px;\">+</div>","key_press":null,"trial_type":"html-keyboard-response","trial_index":8,"time_elapsed":32833,"internal_node_id":"0.0-8.0-1.0","subject":"4775y4eh1y2gvna"},{"trial_type":"turing-test","trial_index":9,"time_elapsed":36344,"internal_node_id":"0.0-8.0-2.0","subject":"4775y4eh1y2gvna"},{"rt":12885,"stimulus":"<p>Welche Sequenz haben Sie als natürlicher empfunden?</p>","button_pressed":"1","test_part":"response","test_stimulus":{"position":0,"left":"bvh/return-bottle-hold-training2-lines.txt","right":"bvh/vr_prediction_models/model(tmp)-dataset(return-bottle-hold)-numprim(5)-hold(2)/final-lines.txt","att_check":false},"trial_type":"html-button-response","trial_index":10,"time_elapsed":49234,"internal_node_id":"0.0-8.0-3.0","subject":"4775y4eh1y2gvna"},{"rt":727,"stimulus":"<p>Bereit?</p>","button_pressed":"0","trial_type":"html-button-response","trial_index":11,"time_elapsed":49965,"internal_node_id":"0.0-8.0-0.1","subject":"4775y4eh1y2gvna"},{"rt":null,"stimulus":"<div style=\"font-size:60px;\">+</div>","key_press":null,"trial_type":"html-keyboard-response","trial_index":12,"time_elapsed":51968,"internal_node_id":"0.0-8.0-1.1","subject":"4775y4eh1y2gvna"},{"trial_type":"turing-test","trial_index":13,"time_elapsed":57507,"internal_node_id":"0.0-8.0-2.1","subject":"4775y4eh1y2gvna"},{"rt":1114,"stimulus":"<p>Welche Sequenz haben Sie als natürlicher empfunden?</p>","button_pressed":"1","test_part":"response","test_stimulus":{"position":1,"left":"bvh/vr_prediction_models/model(vcgpdm)-dataset(return-bottle)-mode(ELBO)-parts(3)-dyn(25)-lvm(15)-hold(0)/final-lines.txt","right":"bvh/return-bottle-training0-lines.txt","att_check":false},"trial_type":"html-button-response","trial_index":14,"time_elapsed":58625,"internal_node_id":"0.0-8.0-3.1","subject":"4775y4eh1y2gvna"},{"rt":582,"stimulus":"<p>Bereit?</p>","button_pressed":"0","trial_type":"html-button-response","trial_index":15,"time_elapsed":59210,"internal_node_id":"0.0-8.0-0.2","subject":"4775y4eh1y2gvna"},{"rt":null,"stimulus":"<div style=\"font-size:60px;\">+</div>","key_press":null,"trial_type":"html-keyboard-response","trial_index":16,"time_elapsed":61213,"internal_node_id":"0.0-8.0-1.2","subject":"4775y4eh1y2gvna"},{"trial_type":"turing-test","trial_index":17,"time_elapsed":65036,"internal_node_id":"0.0-8.0-2.2","subject":"4775y4eh1y2gvna"},{"rt":1154.0000000000146,"stimulus":"<p>Welche Sequenz haben Sie als natürlicher empfunden?</p>","button_pressed":"0","test_part":"response","test_stimulus":{"position":0,"left":"bvh/return-bottle-hold-training4-lines.txt","right":"bvh/vr_prediction_models/model(vcgpdm)-dataset(return-bottle-hold)-mode(ELBO)-parts(1)-dyn(30)-lvm(20)-hold(4)/final-lines.txt","att_check":false},"trial_type":"html-button-response","trial_index":18,"time_elapsed":66193,"internal_node_id":"0.0-8.0-3.2","subject":"4775y4eh1y2gvna"},{"rt":718.9999999999854,"stimulus":"<p>Bereit?</p>","button_pressed":"0","trial_type":"html-button-response","trial_index":19,"time_elapsed":66915,"internal_node_id":"0.0-8.0-0.3","subject":"4775y4eh1y2gvna"},{"rt":null,"stimulus":"<div style=\"font-size:60px;\">+</div>","key_press":null,"trial_type":"html-keyboard-response","trial_index":20,"time_elapsed":68919,"internal_node_id":"0.0-8.0-1.3","subject":"4775y4eh1y2gvna"},{"trial_type":"turing-test","trial_index":21,"time_elapsed":75129,"internal_node_id":"0.0-8.0-2.3","subject":"4775y4eh1y2gvna"},{"rt":1706.0000000000146,"stimulus":"<p>Welche Sequenz haben Sie als natürlicher empfunden?</p>","button_pressed":"1","test_part":"response","test_stimulus":{"position":1,"left":"bvh/vr_prediction_models/model(vcgpdm)-dataset(pass-bottle)-mode(ELBO)-parts(1)-dyn(20)-lvm(30)-hold(2)/final-lines.txt","right":"bvh/pass-bottle-training2-lines.txt","att_check":false},"trial_type":"html-button-response","trial_index":22,"time_elapsed":76839,"internal_node_id":"0.0-8.0-3.3","subject":"4775y4eh1y2gvna"},{"rt":550.9999999999854,"stimulus":"<p>Bereit?</p>","button_pressed":"0","trial_type":"html-button-response","trial_index":23,"time_elapsed":77393,"internal_node_id":"0.0-8.0-0.4","subject":"4775y4eh1y2gvna"},{"rt":null,"stimulus":"<div style=\"font-size:60px;\">+</div>","key_press":null,"trial_type":"html-keyboard-response","trial_index":24,"time_elapsed":79396,"internal_node_id":"0.0-8.0-1.4","subject":"4775y4eh1y2gvna"},{"trial_type":"turing-test","trial_index":25,"time_elapsed":82709,"internal_node_id":"0.0-8.0-2.4","subject":"4775y4eh1y2gvna"},{"rt":2023,"stimulus":"<p>Welche Sequenz haben Sie als natürlicher empfunden?</p>","button_pressed":"1","test_part":"response","test_stimulus":{"position":0,"left":"bvh/pass-bottle-hold-training2-lines.txt","right":"bvh/vr_prediction_models/model(tmp)-dataset(pass-bottle-hold)-numprim(5)-hold(2)/final-lines.txt","att_check":false},"trial_type":"html-button-response","trial_index":26,"time_elapsed":84735,"internal_node_id":"0.0-8.0-3.4","subject":"4775y4eh1y2gvna"},{"rt":1070,"stimulus":"<p>Bereit?</p>","button_pressed":"0","trial_type":"html-button-response","trial_index":27,"time_elapsed":85809,"internal_node_id":"0.0-8.0-0.5","subject":"4775y4eh1y2gvna"},{"rt":null,"stimulus":"<div style=\"font-size:60px;\">+</div>","key_press":null,"trial_type":"html-keyboard-response","trial_index":28,"time_elapsed":87812,"internal_node_id":"0.0-8.0-1.5","subject":"4775y4eh1y2gvna"},{"trial_type":"turing-test","trial_index":29,"time_elapsed":91282,"internal_node_id":"0.0-8.0-2.5","subject":"4775y4eh1y2gvna"},{"rt":684,"stimulus":"<p>Welche Sequenz haben Sie als natürlicher empfunden?</p>","button_pressed":"1","test_part":"response","test_stimulus":{"position":1,"left":"bvh/vr_prediction_models/model(vcgpdm)-dataset(pass-bottle-hold)-mode(ELBO)-parts(3)-dyn(30)-lvm(15)-hold(0)/final-lines.txt","right":"bvh/pass-bottle-hold-training0-lines.txt","att_check":false},"trial_type":"html-button-response","trial_index":30,"time_elapsed":91970,"internal_node_id":"0.0-8.0-3.5","subject":"4775y4eh1y2gvna"},{"rt":585,"stimulus":"<p>Bereit?</p>","button_pressed":"0","trial_type":"html-button-response","trial_index":31,"time_elapsed":92558,"internal_node_id":"0.0-8.0-0.6","subject":"4775y4eh1y2gvna"},{"rt":null,"stimulus":"<div style=\"font-size:60px;\">+</div>","key_press":null,"trial_type":"html-keyboard-response","trial_index":32,"time_elapsed":94559,"internal_node_id":"0.0-8.0-1.6","subject":"4775y4eh1y2gvna"},{"trial_type":"turing-test","trial_index":33,"time_elapsed":97896,"internal_node_id":"0.0-8.0-2.6","subject":"4775y4eh1y2gvna"},{"rt":642,"stimulus":"<p>Welche Sequenz haben Sie als natürlicher empfunden?</p>","button_pressed":"1","test_part":"response","test_stimulus":{"position":1,"left":"bvh/vr_prediction_models/model(vcgpdm)-dataset(pass-bottle-hold)-mode(ELBO)-parts(3)-dyn(15)-lvm(30)-hold(1)/final-lines.txt","right":"bvh/pass-bottle-hold-training1-lines.txt","att_check":false},"trial_type":"html-button-response","trial_index":34,"time_elapsed":98542,"internal_node_id":"0.0-8.0-3.6","subject":"4775y4eh1y2gvna"},{"rt":364,"stimulus":"<p>Bereit?</p>","button_pressed":"0","trial_type":"html-button-response","trial_index":35,"time_elapsed":98908,"internal_node_id":"0.0-8.0-0.7","subject":"4775y4eh1y2gvna"},{"rt":null,"stimulus":"<div style=\"font-size:60px;\">+</div>","key_press":null,"trial_type":"html-keyboard-response","trial_index":36,"time_elapsed":100911,"internal_node_id":"0.0-8.0-1.7","subject":"4775y4eh1y2gvna"},{"trial_type":"turing-test","trial_index":37,"time_elapsed":106751,"internal_node_id":"0.0-8.0-2.7","subject":"4775y4eh1y2gvna"},{"rt":1040,"stimulus":"<p>Welche Sequenz haben Sie als natürlicher empfunden?</p>","button_pressed":"0","test_part":"response","test_stimulus":{"position":0,"left":"bvh/pass-bottle-training3-lines.txt","right":"bvh/vr_prediction_models/model(dmp)-dataset(pass-bottle)-npsi(80)-hold(3)/final-lines.txt","att_check":true},"trial_type":"html-button-response","trial_index":38,"time_elapsed":107795,"internal_node_id":"0.0-8.0-3.7","subject":"4775y4eh1y2gvna"},{"rt":637,"stimulus":"<p>Bereit?</p>","button_pressed":"0","trial_type":"html-button-response","trial_index":39,"time_elapsed":108434,"internal_node_id":"0.0-8.0-0.8","subject":"4775y4eh1y2gvna"},{"rt":null,"stimulus":"<div style=\"font-size:60px;\">+</div>","key_press":null,"trial_type":"html-keyboard-response","trial_index":40,"time_elapsed":110439,"internal_node_id":"0.0-8.0-1.8","subject":"4775y4eh1y2gvna"},{"trial_type":"turing-test","trial_index":41,"time_elapsed":114070,"internal_node_id":"0.0-8.0-2.8","subject":"4775y4eh1y2gvna"},{"rt":776,"stimulus":"<p>Welche Sequenz haben Sie als natürlicher empfunden?</p>","button_pressed":"0","test_part":"response","test_stimulus":{"position":1,"left":"bvh/vr_prediction_models/model(vcgpdm)-dataset(pass-bottle-hold)-mode(ELBO)-parts(3)-dyn(10)-lvm(10)-hold(3)/final-lines.txt","right":"bvh/pass-bottle-hold-training3-lines.txt","att_check":false},"trial_type":"html-button-response","trial_index":42,"time_elapsed":114850,"internal_node_id":"0.0-8.0-3.8","subject":"4775y4eh1y2gvna"},{"rt":308,"stimulus":"<p>Bereit?</p>","button_pressed":"0","trial_type":"html-button-response","trial_index":43,"time_elapsed":115161,"internal_node_id":"0.0-8.0-0.9","subject":"4775y4eh1y2gvna"},{"rt":null,"stimulus":"<div style=\"font-size:60px;\">+</div>","key_press":null,"trial_type":"html-keyboard-response","trial_index":44,"time_elapsed":117165,"internal_node_id":"0.0-8.0-1.9","subject":"4775y4eh1y2gvna"},{"trial_type":"turing-test","trial_index":45,"time_elapsed":122339,"internal_node_id":"0.0-8.0-2.9","subject":"4775y4eh1y2gvna"},{"rt":640,"stimulus":"<p>Welche Sequenz haben Sie als natürlicher empfunden?</p>","button_pressed":"0","test_part":"response","test_stimulus":{"position":0,"left":"bvh/return-bottle-hold-training0-lines.txt","right":"bvh/vr_prediction_models/model(dmp)-dataset(return-bottle-hold)-npsi(30)-hold(0)/final-lines.txt","att_check":false},"trial_type":"html-button-response","trial_index":46,"time_elapsed":122983,"internal_node_id":"0.0-8.0-3.9","subject":"4775y4eh1y2gvna"},{"rt":549,"stimulus":"<p>Bereit?</p>","button_pressed":"0","trial_type":"html-button-response","trial_index":47,"time_elapsed":123535,"internal_node_id":"0.0-8.0-0.10","subject":"4775y4eh1y2gvna"},{"rt":null,"stimulus":"<div style=\"font-size:60px;\">+</div>","key_press":null,"trial_type":"html-keyboard-response","trial_index":48,"time_elapsed":125538,"internal_node_id":"0.0-8.0-1.10","subject":"4775y4eh1y2gvna"},{"trial_type":"turing-test","trial_index":49,"time_elapsed":129029,"internal_node_id":"0.0-8.0-2.10","subject":"4775y4eh1y2gvna"},{"rt":778.9999999999709,"stimulus":"<p>Welche Sequenz haben Sie als natürlicher empfunden?</p>","button_pressed":"0","test_part":"response","test_stimulus":{"position":0,"left":"bvh/return-bottle-hold-training1-lines.txt","right":"bvh/vr_prediction_models/model(vcgpdm)-dataset(return-bottle-hold)-mode(ELBO)-parts(3)-dyn(25)-lvm(30)-hold(1)/final-lines.txt","att_check":false},"trial_type":"html-button-response","trial_index":50,"time_elapsed":129812,"internal_node_id":"0.0-8.0-3.10","subject":"4775y4eh1y2gvna"},{"rt":465,"stimulus":"<p>Bereit?</p>","button_pressed":"0","trial_type":"html-button-response","trial_index":51,"time_elapsed":130280,"internal_node_id":"0.0-8.0-0.11","subject":"4775y4eh1y2gvna"},{"rt":null,"stimulus":"<div style=\"font-size:60px;\">+</div>","key_press":null,"trial_type":"html-keyboard-response","trial_index":52,"time_elapsed":132283,"internal_node_id":"0.0-8.0-1.11","subject":"4775y4eh1y2gvna"},{"trial_type":"turing-test","trial_index":53,"time_elapsed":139040,"internal_node_id":"0.0-8.0-2.11","subject":"4775y4eh1y2gvna"},{"rt":1028,"stimulus":"<p>Welche Sequenz haben Sie als natürlicher empfunden?</p>","button_pressed":"0","test_part":"response","test_stimulus":{"position":0,"left":"bvh/return-bottle-training2-lines.txt","right":"bvh/vr_prediction_models/model(vcgpdm)-dataset(return-bottle)-mode(ELBO)-parts(3)-dyn(15)-lvm(30)-hold(2)/final-lines.txt","att_check":false},"trial_type":"html-button-response","trial_index":54,"time_elapsed":140072,"internal_node_id":"0.0-8.0-3.11","subject":"4775y4eh1y2gvna"},{"rt":375,"stimulus":"<p>Bereit?</p>","button_pressed":"0","trial_type":"html-button-response","trial_index":55,"time_elapsed":140450,"internal_node_id":"0.0-8.0-0.12","subject":"4775y4eh1y2gvna"},{"rt":null,"stimulus":"<div style=\"font-size:60px;\">+</div>","key_press":null,"trial_type":"html-keyboard-response","trial_index":56,"time_elapsed":142453,"internal_node_id":"0.0-8.0-1.12","subject":"4775y4eh1y2gvna"},{"trial_type":"turing-test","trial_index":57,"time_elapsed":145852,"internal_node_id":"0.0-8.0-2.12","subject":"4775y4eh1y2gvna"},{"rt":712,"stimulus":"<p>Welche Sequenz haben Sie als natürlicher empfunden?</p>","button_pressed":"0","test_part":"response","test_stimulus":{"position":0,"left":"bvh/pass-bottle-hold-training2-lines.txt","right":"bvh/vr_prediction_models/model(vcgpdm)-dataset(pass-bottle-hold)-mode(ELBO)-parts(3)-dyn(25)-lvm(30)-hold(2)/final-lines.txt","att_check":false},"trial_type":"html-button-response","trial_index":58,"time_elapsed":146570,"internal_node_id":"0.0-8.0-3.12","subject":"4775y4eh1y2gvna"},{"rt":762,"stimulus":"<p>Bereit?</p>","button_pressed":"0","trial_type":"html-button-response","trial_index":59,"time_elapsed":147335,"internal_node_id":"0.0-8.0-0.13","subject":"4775y4eh1y2gvna"},{"rt":null,"stimulus":"<div style=\"font-size:60px;\">+</div>","key_press":null,"trial_type":"html-keyboard-response","trial_index":60,"time_elapsed":149338,"internal_node_id":"0.0-8.0-1.13","subject":"4775y4eh1y2gvna"},{"trial_type":"turing-test","trial_index":61,"time_elapsed":153038,"internal_node_id":"0.0-8.0-2.13","subject":"4775y4eh1y2gvna"},{"rt":929,"stimulus":"<p>Welche Sequenz haben Sie als natürlicher empfunden?</p>","button_pressed":"0","test_part":"response","test_stimulus":{"position":1,"left":"bvh/vr_prediction_models/model(vcgpdm)-dataset(return-bottle-hold)-mode(ELBO)-parts(1)-dyn(30)-lvm(35)-hold(2)/final-lines.txt","right":"bvh/return-bottle-hold-training2-lines.txt","att_check":false},"trial_type":"html-button-response","trial_index":62,"time_elapsed":153972,"internal_node_id":"0.0-8.0-3.13","subject":"4775y4eh1y2gvna"},{"rt":369,"stimulus":"<p>Bereit?</p>","button_pressed":"0","trial_type":"html-button-response","trial_index":63,"time_elapsed":154345,"internal_node_id":"0.0-8.0-0.14","subject":"4775y4eh1y2gvna"},{"rt":null,"stimulus":"<div style=\"font-size:60px;\">+</div>","key_press":null,"trial_type":"html-keyboard-response","trial_index":64,"time_elapsed":156346,"internal_node_id":"0.0-8.0-1.14","subject":"4775y4eh1y2gvna"},{"trial_type":"turing-test","trial_index":65,"time_elapsed":159683,"internal_node_id":"0.0-8.0-2.14","subject":"4775y4eh1y2gvna"},{"rt":829,"stimulus":"<p>Welche Sequenz haben Sie als natürlicher empfunden?</p>","button_pressed":"1","test_part":"response","test_stimulus":{"position":0,"left":"bvh/return-bottle-hold-training1-lines.txt","right":"bvh/vr_prediction_models/model(tmp)-dataset(return-bottle-hold)-numprim(11)-hold(1)/final-lines.txt","att_check":false},"trial_type":"html-button-response","trial_index":66,"time_elapsed":160517,"internal_node_id":"0.0-8.0-3.14","subject":"4775y4eh1y2gvna"},{"rt":308,"stimulus":"<p>Bereit?</p>","button_pressed":"0","trial_type":"html-button-response","trial_index":67,"time_elapsed":160829,"internal_node_id":"0.0-8.0-0.15","subject":"4775y4eh1y2gvna"},{"rt":null,"stimulus":"<div style=\"font-size:60px;\">+</div>","key_press":null,"trial_type":"html-keyboard-response","trial_index":68,"time_elapsed":162832,"internal_node_id":"0.0-8.0-1.15","subject":"4775y4eh1y2gvna"},{"trial_type":"turing-test","trial_index":69,"time_elapsed":168956,"internal_node_id":"0.0-8.0-2.15","subject":"4775y4eh1y2gvna"},{"rt":669,"stimulus":"<p>Welche Sequenz haben Sie als natürlicher empfunden?</p>","button_pressed":"1","test_part":"response","test_stimulus":{"position":1,"left":"bvh/vr_prediction_models/model(dmp)-dataset(return-bottle)-npsi(60)-hold(1)/final-lines.txt","right":"bvh/return-bottle-training1-lines.txt","att_check":true},"trial_type":"html-button-response","trial_index":70,"time_elapsed":169630,"internal_node_id":"0.0-8.0-3.15","subject":"4775y4eh1y2gvna"},{"rt":751.0000000000291,"stimulus":"<p>Bereit?</p>","button_pressed":"0","trial_type":"html-button-response","trial_index":71,"time_elapsed":170385,"internal_node_id":"0.0-8.0-0.16","subject":"4775y4eh1y2gvna"},{"rt":null,"stimulus":"<div style=\"font-size:60px;\">+</div>","key_press":null,"trial_type":"html-keyboard-response","trial_index":72,"time_elapsed":172388,"internal_node_id":"0.0-8.0-1.16","subject":"4775y4eh1y2gvna"},{"trial_type":"turing-test","trial_index":73,"time_elapsed":175751,"internal_node_id":"0.0-8.0-2.16","subject":"4775y4eh1y2gvna"},{"rt":750,"stimulus":"<p>Welche Sequenz haben Sie als natürlicher empfunden?</p>","button_pressed":"1","test_part":"response","test_stimulus":{"position":1,"left":"bvh/vr_prediction_models/model(dmp)-dataset(pass-bottle-hold)-npsi(20)-hold(0)/final-lines.txt","right":"bvh/pass-bottle-hold-training0-lines.txt","att_check":false},"trial_type":"html-button-response","trial_index":74,"time_elapsed":176505,"internal_node_id":"0.0-8.0-3.16","subject":"4775y4eh1y2gvna"},{"rt":636,"stimulus":"<p>Bereit?</p>","button_pressed":"0","trial_type":"html-button-response","trial_index":75,"time_elapsed":177144,"internal_node_id":"0.0-8.0-0.17","subject":"4775y4eh1y2gvna"},{"rt":null,"stimulus":"<div style=\"font-size:60px;\">+</div>","key_press":null,"trial_type":"html-keyboard-response","trial_index":76,"time_elapsed":179148,"internal_node_id":"0.0-8.0-1.17","subject":"4775y4eh1y2gvna"},{"trial_type":"turing-test","trial_index":77,"time_elapsed":182496,"internal_node_id":"0.0-8.0-2.17","subject":"4775y4eh1y2gvna"},{"rt":2202,"stimulus":"<p>Welche Sequenz haben Sie als natürlicher empfunden?</p>","button_pressed":"1","test_part":"response","test_stimulus":{"position":1,"left":"bvh/vr_prediction_models/model(vcgpdm)-dataset(pass-bottle-hold)-mode(ELBO)-parts(3)-dyn(20)-lvm(20)-hold(1)/final-lines.txt","right":"bvh/pass-bottle-hold-training1-lines.txt","att_check":false},"trial_type":"html-button-response","trial_index":78,"time_elapsed":184702,"internal_node_id":"0.0-8.0-3.17","subject":"4775y4eh1y2gvna"},{"rt":548,"stimulus":"<p>Bereit?</p>","button_pressed":"0","trial_type":"html-button-response","trial_index":79,"time_elapsed":185254,"internal_node_id":"0.0-8.0-0.18","subject":"4775y4eh1y2gvna"},{"rt":null,"stimulus":"<div style=\"font-size:60px;\">+</div>","key_press":null,"trial_type":"html-keyboard-response","trial_index":80,"time_elapsed":187257,"internal_node_id":"0.0-8.0-1.18","subject":"4775y4eh1y2gvna"},{"trial_type":"turing-test","trial_index":81,"time_elapsed":190544,"internal_node_id":"0.0-8.0-2.18","subject":"4775y4eh1y2gvna"},{"rt":1336,"stimulus":"<p>Welche Sequenz haben Sie als natürlicher empfunden?</p>","button_pressed":"0","test_part":"response","test_stimulus":{"position":0,"left":"bvh/pass-bottle-hold-training1-lines.txt","right":"bvh/vr_prediction_models/model(vcgpdm)-dataset(pass-bottle-hold)-mode(ELBO)-parts(1)-dyn(35)-lvm(30)-hold(1)/final-lines.txt","att_check":false},"trial_type":"html-button-response","trial_index":82,"time_elapsed":191884,"internal_node_id":"0.0-8.0-3.18","subject":"4775y4eh1y2gvna"},{"rt":653.0000000000291,"stimulus":"<p>Bereit?</p>","button_pressed":"0","trial_type":"html-button-response","trial_index":83,"time_elapsed":192540,"internal_node_id":"0.0-8.0-0.19","subject":"4775y4eh1y2gvna"},{"rt":null,"stimulus":"<div style=\"font-size:60px;\">+</div>","key_press":null,"trial_type":"html-keyboard-response","trial_index":84,"time_elapsed":194543,"internal_node_id":"0.0-8.0-1.19","subject":"4775y4eh1y2gvna"},{"trial_type":"turing-test","trial_index":85,"time_elapsed":198110,"internal_node_id":"0.0-8.0-2.19","subject":"4775y4eh1y2gvna"},{"rt":523,"stimulus":"<p>Welche Sequenz haben Sie als natürlicher empfunden?</p>","button_pressed":"0","test_part":"response","test_stimulus":{"position":0,"left":"bvh/pass-bottle-hold-training3-lines.txt","right":"bvh/vr_prediction_models/model(dmp)-dataset(pass-bottle-hold)-npsi(80)-hold(3)/final-lines.txt","att_check":false},"trial_type":"html-button-response","trial_index":86,"time_elapsed":198636,"internal_node_id":"0.0-8.0-3.19","subject":"4775y4eh1y2gvna"},{"rt":601,"stimulus":"<p>Bereit?</p>","button_pressed":"0","trial_type":"html-button-response","trial_index":87,"time_elapsed":199241,"internal_node_id":"0.0-8.0-0.20","subject":"4775y4eh1y2gvna"},{"rt":null,"stimulus":"<div style=\"font-size:60px;\">+</div>","key_press":null,"trial_type":"html-keyboard-response","trial_index":88,"time_elapsed":201244,"internal_node_id":"0.0-8.0-1.20","subject":"4775y4eh1y2gvna"},{"trial_type":"turing-test","trial_index":89,"time_elapsed":207086,"internal_node_id":"0.0-8.0-2.20","subject":"4775y4eh1y2gvna"},{"rt":749.0000000000291,"stimulus":"<p>Welche Sequenz haben Sie als natürlicher empfunden?</p>","button_pressed":"0","test_part":"response","test_stimulus":{"position":0,"left":"bvh/pass-bottle-training4-lines.txt","right":"bvh/vr_prediction_models/model(tmp)-dataset(pass-bottle)-numprim(3)-hold(4)/final-lines.txt","att_check":false},"trial_type":"html-button-response","trial_index":90,"time_elapsed":207839,"internal_node_id":"0.0-8.0-3.20","subject":"4775y4eh1y2gvna"},{"rt":302,"stimulus":"<p>Bereit?</p>","button_pressed":"0","trial_type":"html-button-response","trial_index":91,"time_elapsed":208145,"internal_node_id":"0.0-8.0-0.21","subject":"4775y4eh1y2gvna"},{"rt":null,"stimulus":"<div style=\"font-size:60px;\">+</div>","key_press":null,"trial_type":"html-keyboard-response","trial_index":92,"time_elapsed":210147,"internal_node_id":"0.0-8.0-1.21","subject":"4775y4eh1y2gvna"},{"trial_type":"turing-test","trial_index":93,"time_elapsed":213768,"internal_node_id":"0.0-8.0-2.21","subject":"4775y4eh1y2gvna"},{"rt":844,"stimulus":"<p>Welche Sequenz haben Sie als natürlicher empfunden?</p>","button_pressed":"1","test_part":"response","test_stimulus":{"position":1,"left":"bvh/vr_prediction_models/model(vcgpdm)-dataset(return-bottle-hold)-mode(ELBO)-parts(1)-dyn(15)-lvm(35)-hold(1)/final-lines.txt","right":"bvh/return-bottle-hold-training1-lines.txt","att_check":false},"trial_type":"html-button-response","trial_index":94,"time_elapsed":214616,"internal_node_id":"0.0-8.0-3.21","subject":"4775y4eh1y2gvna"},{"rt":316.9999999999709,"stimulus":"<p>Bereit?</p>","button_pressed":"0","trial_type":"html-button-response","trial_index":95,"time_elapsed":214937,"internal_node_id":"0.0-8.0-0.22","subject":"4775y4eh1y2gvna"},{"rt":null,"stimulus":"<div style=\"font-size:60px;\">+</div>","key_press":null,"trial_type":"html-keyboard-response","trial_index":96,"time_elapsed":216940,"internal_node_id":"0.0-8.0-1.22","subject":"4775y4eh1y2gvna"},{"trial_type":"turing-test","trial_index":97,"time_elapsed":223117,"internal_node_id":"0.0-8.0-2.22","subject":"4775y4eh1y2gvna"},{"rt":620,"stimulus":"<p>Welche Sequenz haben Sie als natürlicher empfunden?</p>","button_pressed":"1","test_part":"response","test_stimulus":{"position":1,"left":"bvh/vr_prediction_models/model(dmp)-dataset(return-bottle)-npsi(40)-hold(3)/final-lines.txt","right":"bvh/return-bottle-training3-lines.txt","att_check":true},"trial_type":"html-button-response","trial_index":98,"time_elapsed":223742,"internal_node_id":"0.0-8.0-3.22","subject":"4775y4eh1y2gvna"},{"rt":605,"stimulus":"<p>Bereit?</p>","button_pressed":"0","trial_type":"html-button-response","trial_index":99,"time_elapsed":224350,"internal_node_id":"0.0-8.0-0.23","subject":"4775y4eh1y2gvna"},{"rt":null,"stimulus":"<div style=\"font-size:60px;\">+</div>","key_press":null,"trial_type":"html-keyboard-response","trial_index":100,"time_elapsed":226353,"internal_node_id":"0.0-8.0-1.23","subject":"4775y4eh1y2gvna"},{"trial_type":"turing-test","trial_index":101,"time_elapsed":231903,"internal_node_id":"0.0-8.0-2.23","subject":"4775y4eh1y2gvna"},{"rt":537,"stimulus":"<p>Welche Sequenz haben Sie als natürlicher empfunden?</p>","button_pressed":"1","test_part":"response","test_stimulus":{"position":0,"left":"bvh/pass-bottle-training1-lines.txt","right":"bvh/vr_prediction_models/model(tmp)-dataset(pass-bottle)-numprim(10)-hold(1)/final-lines.txt","att_check":false},"trial_type":"html-button-response","trial_index":102,"time_elapsed":232444,"internal_node_id":"0.0-8.0-3.23","subject":"4775y4eh1y2gvna"},{"rt":1005,"stimulus":"<p>Bereit?</p>","button_pressed":"0","trial_type":"html-button-response","trial_index":103,"time_elapsed":233454,"internal_node_id":"0.0-8.0-0.24","subject":"4775y4eh1y2gvna"},{"rt":null,"stimulus":"<div style=\"font-size:60px;\">+</div>","key_press":null,"trial_type":"html-keyboard-response","trial_index":104,"time_elapsed":235456,"internal_node_id":"0.0-8.0-1.24","subject":"4775y4eh1y2gvna"},{"trial_type":"turing-test","trial_index":105,"time_elapsed":239168,"internal_node_id":"0.0-8.0-2.24","subject":"4775y4eh1y2gvna"},{"rt":667.0000000000291,"stimulus":"<p>Welche Sequenz haben Sie als natürlicher empfunden?</p>","button_pressed":"0","test_part":"response","test_stimulus":{"position":0,"left":"bvh/return-bottle-hold-training4-lines.txt","right":"bvh/vr_prediction_models/model(tmp)-dataset(return-bottle-hold)-numprim(5)-hold(4)/final-lines.txt","att_check":false},"trial_type":"html-button-response","trial_index":106,"time_elapsed":239838,"internal_node_id":"0.0-8.0-3.24","subject":"4775y4eh1y2gvna"},{"rt":303,"stimulus":"<p>Bereit?</p>","button_pressed":"0","trial_type":"html-button-response","trial_index":107,"time_elapsed":240145,"internal_node_id":"0.0-8.0-0.25","subject":"4775y4eh1y2gvna"},{"rt":null,"stimulus":"<div style=\"font-size:60px;\">+</div>","key_press":null,"trial_type":"html-keyboard-response","trial_index":108,"time_elapsed":242148,"internal_node_id":"0.0-8.0-1.25","subject":"4775y4eh1y2gvna"},{"trial_type":"turing-test","trial_index":109,"time_elapsed":245590,"internal_node_id":"0.0-8.0-2.25","subject":"4775y4eh1y2gvna"},{"rt":835,"stimulus":"<p>Welche Sequenz haben Sie als natürlicher empfunden?</p>","button_pressed":"1","test_part":"response","test_stimulus":{"position":1,"left":"bvh/vr_prediction_models/model(dmp)-dataset(return-bottle-hold)-npsi(20)-hold(2)/final-lines.txt","right":"bvh/return-bottle-hold-training2-lines.txt","att_check":false},"trial_type":"html-button-response","trial_index":110,"time_elapsed":246430,"internal_node_id":"0.0-8.0-3.25","subject":"4775y4eh1y2gvna"},{"rt":338,"stimulus":"<p>Bereit?</p>","button_pressed":"0","trial_type":"html-button-response","trial_index":111,"time_elapsed":246772,"internal_node_id":"0.0-8.0-0.26","subject":"4775y4eh1y2gvna"},{"rt":null,"stimulus":"<div style=\"font-size:60px;\">+</div>","key_press":null,"trial_type":"html-keyboard-response","trial_index":112,"time_elapsed":248776,"internal_node_id":"0.0-8.0-1.26","subject":"4775y4eh1y2gvna"},{"trial_type":"turing-test","trial_index":113,"time_elapsed":252624,"internal_node_id":"0.0-8.0-2.26","subject":"4775y4eh1y2gvna"},{"rt":616,"stimulus":"<p>Welche Sequenz haben Sie als natürlicher empfunden?</p>","button_pressed":"1","test_part":"response","test_stimulus":{"position":1,"left":"bvh/vr_prediction_models/model(vcgpdm)-dataset(pass-bottle-hold)-mode(ELBO)-parts(1)-dyn(10)-lvm(25)-hold(3)/final-lines.txt","right":"bvh/pass-bottle-hold-training3-lines.txt","att_check":false},"trial_type":"html-button-response","trial_index":114,"time_elapsed":253246,"internal_node_id":"0.0-8.0-3.26","subject":"4775y4eh1y2gvna"},{"rt":732,"stimulus":"<p>Bereit?</p>","button_pressed":"0","trial_type":"html-button-response","trial_index":115,"time_elapsed":253981,"internal_node_id":"0.0-8.0-0.27","subject":"4775y4eh1y2gvna"},{"rt":null,"stimulus":"<div style=\"font-size:60px;\">+</div>","key_press":null,"trial_type":"html-keyboard-response","trial_index":116,"time_elapsed":255983,"internal_node_id":"0.0-8.0-1.27","subject":"4775y4eh1y2gvna"},{"trial_type":"turing-test","trial_index":117,"time_elapsed":259201,"internal_node_id":"0.0-8.0-2.27","subject":"4775y4eh1y2gvna"},{"rt":902,"stimulus":"<p>Welche Sequenz haben Sie als natürlicher empfunden?</p>","button_pressed":"1","test_part":"response","test_stimulus":{"position":0,"left":"bvh/pass-bottle-hold-training1-lines.txt","right":"bvh/vr_prediction_models/model(dmp)-dataset(pass-bottle-hold)-npsi(90)-hold(1)/final-lines.txt","att_check":true},"trial_type":"html-button-response","trial_index":118,"time_elapsed":260106,"internal_node_id":"0.0-8.0-3.27","subject":"4775y4eh1y2gvna"},{"rt":702,"stimulus":"<p>Bereit?</p>","button_pressed":"0","trial_type":"html-button-response","trial_index":119,"time_elapsed":260812,"internal_node_id":"0.0-8.0-0.28","subject":"4775y4eh1y2gvna"},{"rt":null,"stimulus":"<div style=\"font-size:60px;\">+</div>","key_press":null,"trial_type":"html-keyboard-response","trial_index":120,"time_elapsed":262815,"internal_node_id":"0.0-8.0-1.28","subject":"4775y4eh1y2gvna"},{"trial_type":"turing-test","trial_index":121,"time_elapsed":268579,"internal_node_id":"0.0-8.0-2.28","subject":"4775y4eh1y2gvna"},{"rt":888,"stimulus":"<p>Welche Sequenz haben Sie als natürlicher empfunden?</p>","button_pressed":"0","test_part":"response","test_stimulus":{"position":0,"left":"bvh/pass-bottle-training4-lines.txt","right":"bvh/vr_prediction_models/model(dmp)-dataset(pass-bottle)-npsi(50)-hold(4)/final-lines.txt","att_check":true},"trial_type":"html-button-response","trial_index":122,"time_elapsed":269471,"internal_node_id":"0.0-8.0-3.28","subject":"4775y4eh1y2gvna"},{"rt":336,"stimulus":"<p>Bereit?</p>","button_pressed":"0","trial_type":"html-button-response","trial_index":123,"time_elapsed":269810,"internal_node_id":"0.0-8.0-0.29","subject":"4775y4eh1y2gvna"},{"rt":null,"stimulus":"<div style=\"font-size:60px;\">+</div>","key_press":null,"trial_type":"html-keyboard-response","trial_index":124,"time_elapsed":271812,"internal_node_id":"0.0-8.0-1.29","subject":"4775y4eh1y2gvna"},{"trial_type":"turing-test","trial_index":125,"time_elapsed":275596,"internal_node_id":"0.0-8.0-2.29","subject":"4775y4eh1y2gvna"},{"rt":1017,"stimulus":"<p>Welche Sequenz haben Sie als natürlicher empfunden?</p>","button_pressed":"1","test_part":"response","test_stimulus":{"position":1,"left":"bvh/vr_prediction_models/model(vcgpdm)-dataset(return-bottle-hold)-mode(MAP)-parts(1)-hold(2)/final-lines.txt","right":"bvh/return-bottle-hold-training2-lines.txt","att_check":false},"trial_type":"html-button-response","trial_index":126,"time_elapsed":276617,"internal_node_id":"0.0-8.0-3.29","subject":"4775y4eh1y2gvna"},{"rt":501,"stimulus":"<p>Bereit?</p>","button_pressed":"0","trial_type":"html-button-response","trial_index":127,"time_elapsed":277122,"internal_node_id":"0.0-8.0-0.30","subject":"4775y4eh1y2gvna"},{"rt":null,"stimulus":"<div style=\"font-size:60px;\">+</div>","key_press":null,"trial_type":"html-keyboard-response","trial_index":128,"time_elapsed":279125,"internal_node_id":"0.0-8.0-1.30","subject":"4775y4eh1y2gvna"},{"trial_type":"turing-test","trial_index":129,"time_elapsed":284912,"internal_node_id":"0.0-8.0-2.30","subject":"4775y4eh1y2gvna"},{"rt":613,"stimulus":"<p>Welche Sequenz haben Sie als natürlicher empfunden?</p>","button_pressed":"1","test_part":"response","test_stimulus":{"position":1,"left":"bvh/vr_prediction_models/model(dmp)-dataset(pass-bottle)-npsi(20)-hold(3)/final-lines.txt","right":"bvh/pass-bottle-training3-lines.txt","att_check":true},"trial_type":"html-button-response","trial_index":130,"time_elapsed":285528,"internal_node_id":"0.0-8.0-3.30","subject":"4775y4eh1y2gvna"},{"rt":341,"stimulus":"<p>Bereit?</p>","button_pressed":"0","trial_type":"html-button-response","trial_index":131,"time_elapsed":285872,"internal_node_id":"0.0-8.0-0.31","subject":"4775y4eh1y2gvna"},{"rt":null,"stimulus":"<div style=\"font-size:60px;\">+</div>","key_press":null,"trial_type":"html-keyboard-response","trial_index":132,"time_elapsed":287875,"internal_node_id":"0.0-8.0-1.31","subject":"4775y4eh1y2gvna"},{"trial_type":"turing-test","trial_index":133,"time_elapsed":291925,"internal_node_id":"0.0-8.0-2.31","subject":"4775y4eh1y2gvna"},{"rt":752,"stimulus":"<p>Welche Sequenz haben Sie als natürlicher empfunden?</p>","button_pressed":"1","test_part":"response","test_stimulus":{"position":0,"left":"bvh/return-bottle-hold-training4-lines.txt","right":"bvh/vr_prediction_models/model(vcgpdm)-dataset(return-bottle-hold)-mode(ELBO)-parts(1)-dyn(20)-lvm(30)-hold(4)/final-lines.txt","att_check":false},"trial_type":"html-button-response","trial_index":134,"time_elapsed":292681,"internal_node_id":"0.0-8.0-3.31","subject":"4775y4eh1y2gvna"},{"rt":475.0000000000582,"stimulus":"<p>Bereit?</p>","button_pressed":"0","trial_type":"html-button-response","trial_index":135,"time_elapsed":293160,"internal_node_id":"0.0-8.0-0.32","subject":"4775y4eh1y2gvna"},{"rt":null,"stimulus":"<div style=\"font-size:60px;\">+</div>","key_press":null,"trial_type":"html-keyboard-response","trial_index":136,"time_elapsed":295163,"internal_node_id":"0.0-8.0-1.32","subject":"4775y4eh1y2gvna"},{"trial_type":"turing-test","trial_index":137,"time_elapsed":300987,"internal_node_id":"0.0-8.0-2.32","subject":"4775y4eh1y2gvna"},{"rt":897,"stimulus":"<p>Welche Sequenz haben Sie als natürlicher empfunden?</p>","button_pressed":"1","test_part":"response","test_stimulus":{"position":1,"left":"bvh/vr_prediction_models/model(dmp)-dataset(return-bottle)-npsi(90)-hold(4)/final-lines.txt","right":"bvh/return-bottle-training4-lines.txt","att_check":false},"trial_type":"html-button-response","trial_index":138,"time_elapsed":301888,"internal_node_id":"0.0-8.0-3.32","subject":"4775y4eh1y2gvna"},{"rt":451.0000000000582,"stimulus":"<p>Bereit?</p>","button_pressed":"0","trial_type":"html-button-response","trial_index":139,"time_elapsed":302345,"internal_node_id":"0.0-8.0-0.33","subject":"4775y4eh1y2gvna"},{"rt":null,"stimulus":"<div style=\"font-size:60px;\">+</div>","key_press":null,"trial_type":"html-keyboard-response","trial_index":140,"time_elapsed":304348,"internal_node_id":"0.0-8.0-1.33","subject":"4775y4eh1y2gvna"},{"trial_type":"turing-test","trial_index":141,"time_elapsed":310048,"internal_node_id":"0.0-8.0-2.33","subject":"4775y4eh1y2gvna"},{"rt":524,"stimulus":"<p>Welche Sequenz haben Sie als natürlicher empfunden?</p>","button_pressed":"0","test_part":"response","test_stimulus":{"position":0,"left":"bvh/pass-bottle-training4-lines.txt","right":"bvh/vr_prediction_models/model(dmp)-dataset(pass-bottle)-npsi(20)-hold(4)/final-lines.txt","att_check":false},"trial_type":"html-button-response","trial_index":142,"time_elapsed":310575,"internal_node_id":"0.0-8.0-3.33","subject":"4775y4eh1y2gvna"},{"rt":642.0000000000582,"stimulus":"<p>Bereit?</p>","button_pressed":"0","trial_type":"html-button-response","trial_index":143,"time_elapsed":311220,"internal_node_id":"0.0-8.0-0.34","subject":"4775y4eh1y2gvna"},{"rt":null,"stimulus":"<div style=\"font-size:60px;\">+</div>","key_press":null,"trial_type":"html-keyboard-response","trial_index":144,"time_elapsed":313226,"internal_node_id":"0.0-8.0-1.34","subject":"4775y4eh1y2gvna"},{"trial_type":"turing-test","trial_index":145,"time_elapsed":318652,"internal_node_id":"0.0-8.0-2.34","subject":"4775y4eh1y2gvna"},{"rt":633,"stimulus":"<p>Welche Sequenz haben Sie als natürlicher empfunden?</p>","button_pressed":"1","test_part":"response","test_stimulus":{"position":1,"left":"bvh/vr_prediction_models/model(tmp)-dataset(pass-bottle)-numprim(12)-hold(1)/final-lines.txt","right":"bvh/pass-bottle-training1-lines.txt","att_check":false},"trial_type":"html-button-response","trial_index":146,"time_elapsed":319289,"internal_node_id":"0.0-8.0-3.34","subject":"4775y4eh1y2gvna"},{"rt":533.9999999999418,"stimulus":"<p>Bereit?</p>","button_pressed":"0","trial_type":"html-button-response","trial_index":147,"time_elapsed":319827,"internal_node_id":"0.0-8.0-0.35","subject":"4775y4eh1y2gvna"},{"rt":null,"stimulus":"<div style=\"font-size:60px;\">+</div>","key_press":null,"trial_type":"html-keyboard-response","trial_index":148,"time_elapsed":321830,"internal_node_id":"0.0-8.0-1.35","subject":"4775y4eh1y2gvna"},{"trial_type":"turing-test","trial_index":149,"time_elapsed":328353,"internal_node_id":"0.0-8.0-2.35","subject":"4775y4eh1y2gvna"},{"rt":527.9999999999418,"stimulus":"<p>Welche Sequenz haben Sie als natürlicher empfunden?</p>","button_pressed":"0","test_part":"response","test_stimulus":{"position":1,"left":"bvh/vr_prediction_models/model(tmp)-dataset(return-bottle)-numprim(14)-hold(2)/final-lines.txt","right":"bvh/return-bottle-training2-lines.txt","att_check":false},"trial_type":"html-button-response","trial_index":150,"time_elapsed":328886,"internal_node_id":"0.0-8.0-3.35","subject":"4775y4eh1y2gvna"},{"rt":597,"stimulus":"<p>Bereit?</p>","button_pressed":"0","trial_type":"html-button-response","trial_index":151,"time_elapsed":329487,"internal_node_id":"0.0-8.0-0.36","subject":"4775y4eh1y2gvna"},{"rt":null,"stimulus":"<div style=\"font-size:60px;\">+</div>","key_press":null,"trial_type":"html-keyboard-response","trial_index":152,"time_elapsed":331491,"internal_node_id":"0.0-8.0-1.36","subject":"4775y4eh1y2gvna"},{"trial_type":"turing-test","trial_index":153,"time_elapsed":338384,"internal_node_id":"0.0-8.0-2.36","subject":"4775y4eh1y2gvna"},{"rt":868,"stimulus":"<p>Welche Sequenz haben Sie als natürlicher empfunden?</p>","button_pressed":"1","test_part":"response","test_stimulus":{"position":1,"left":"bvh/vr_prediction_models/model(vcgpdm)-dataset(return-bottle)-mode(ELBO)-parts(1)-dyn(20)-lvm(30)-hold(2)/final-lines.txt","right":"bvh/return-bottle-training2-lines.txt","att_check":false},"trial_type":"html-button-response","trial_index":154,"time_elapsed":339256,"internal_node_id":"0.0-8.0-3.36","subject":"4775y4eh1y2gvna"},{"rt":755,"stimulus":"<p>Bereit?</p>","button_pressed":"0","trial_type":"html-button-response","trial_index":155,"time_elapsed":340015,"internal_node_id":"0.0-8.0-0.37","subject":"4775y4eh1y2gvna"},{"rt":null,"stimulus":"<div style=\"font-size:60px;\">+</div>","key_press":null,"trial_type":"html-keyboard-response","trial_index":156,"time_elapsed":342016,"internal_node_id":"0.0-8.0-1.37","subject":"4775y4eh1y2gvna"},{"trial_type":"turing-test","trial_index":157,"time_elapsed":347345,"internal_node_id":"0.0-8.0-2.37","subject":"4775y4eh1y2gvna"},{"rt":718,"stimulus":"<p>Welche Sequenz haben Sie als natürlicher empfunden?</p>","button_pressed":"1","test_part":"response","test_stimulus":{"position":1,"left":"bvh/vr_prediction_models/model(vcgpdm)-dataset(return-bottle-hold)-mode(ELBO)-parts(3)-dyn(25)-lvm(15)-hold(0)/final-lines.txt","right":"bvh/return-bottle-hold-training0-lines.txt","att_check":false},"trial_type":"html-button-response","trial_index":158,"time_elapsed":348069,"internal_node_id":"0.0-8.0-3.37","subject":"4775y4eh1y2gvna"},{"rt":579.9999999999418,"stimulus":"<p>Bereit?</p>","button_pressed":"0","trial_type":"html-button-response","trial_index":159,"time_elapsed":348652,"internal_node_id":"0.0-8.0-0.38","subject":"4775y4eh1y2gvna"},{"rt":null,"stimulus":"<div style=\"font-size:60px;\">+</div>","key_press":null,"trial_type":"html-keyboard-response","trial_index":160,"time_elapsed":350655,"internal_node_id":"0.0-8.0-1.38","subject":"4775y4eh1y2gvna"},{"trial_type":"turing-test","trial_index":161,"time_elapsed":354075,"internal_node_id":"0.0-8.0-2.38","subject":"4775y4eh1y2gvna"},{"rt":756,"stimulus":"<p>Welche Sequenz haben Sie als natürlicher empfunden?</p>","button_pressed":"1","test_part":"response","test_stimulus":{"position":0,"left":"bvh/pass-bottle-hold-training3-lines.txt","right":"bvh/vr_prediction_models/model(vcgpdm)-dataset(pass-bottle-hold)-mode(ELBO)-parts(1)-dyn(10)-lvm(25)-hold(3)/final-lines.txt","att_check":false},"trial_type":"html-button-response","trial_index":162,"time_elapsed":354837,"internal_node_id":"0.0-8.0-3.38","subject":"4775y4eh1y2gvna"},{"rt":292.0000000000582,"stimulus":"<p>Bereit?</p>","button_pressed":"0","trial_type":"html-button-response","trial_index":163,"time_elapsed":355132,"internal_node_id":"0.0-8.0-0.39","subject":"4775y4eh1y2gvna"},{"rt":null,"stimulus":"<div style=\"font-size:60px;\">+</div>","key_press":null,"trial_type":"html-keyboard-response","trial_index":164,"time_elapsed":357135,"internal_node_id":"0.0-8.0-1.39","subject":"4775y4eh1y2gvna"},{"trial_type":"turing-test","trial_index":165,"time_elapsed":362520,"internal_node_id":"0.0-8.0-2.39","subject":"4775y4eh1y2gvna"},{"rt":867.9999999999418,"stimulus":"<p>Welche Sequenz haben Sie als natürlicher empfunden?</p>","button_pressed":"0","test_part":"response","test_stimulus":{"position":0,"left":"bvh/return-bottle-training0-lines.txt","right":"bvh/vr_prediction_models/model(dmp)-dataset(return-bottle)-npsi(80)-hold(0)/final-lines.txt","att_check":false},"trial_type":"html-button-response","trial_index":166,"time_elapsed":363393,"internal_node_id":"0.0-8.0-3.39","subject":"4775y4eh1y2gvna"},{"rt":773,"stimulus":"<p>Bereit?</p>","button_pressed":"0","trial_type":"html-button-response","trial_index":167,"time_elapsed":364169,"internal_node_id":"0.0-8.0-0.40","subject":"4775y4eh1y2gvna"},{"rt":null,"stimulus":"<div style=\"font-size:60px;\">+</div>","key_press":null,"trial_type":"html-keyboard-response","trial_index":168,"time_elapsed":366173,"internal_node_id":"0.0-8.0-1.40","subject":"4775y4eh1y2gvna"},{"trial_type":"turing-test","trial_index":169,"time_elapsed":369453,"internal_node_id":"0.0-8.0-2.40","subject":"4775y4eh1y2gvna"},{"rt":1030,"stimulus":"<p>Welche Sequenz haben Sie als natürlicher empfunden?</p>","button_pressed":"1","test_part":"response","test_stimulus":{"position":1,"left":"bvh/vr_prediction_models/model(tmp)-dataset(pass-bottle-hold)-numprim(8)-hold(2)/final-lines.txt","right":"bvh/pass-bottle-hold-training2-lines.txt","att_check":false},"trial_type":"html-button-response","trial_index":170,"time_elapsed":370488,"internal_node_id":"0.0-8.0-3.40","subject":"4775y4eh1y2gvna"},{"rt":580,"stimulus":"<p>Bereit?</p>","button_pressed":"0","trial_type":"html-button-response","trial_index":171,"time_elapsed":371072,"internal_node_id":"0.0-8.0-0.41","subject":"4775y4eh1y2gvna"},{"rt":null,"stimulus":"<div style=\"font-size:60px;\">+</div>","key_press":null,"trial_type":"html-keyboard-response","trial_index":172,"time_elapsed":373075,"internal_node_id":"0.0-8.0-1.41","subject":"4775y4eh1y2gvna"},{"trial_type":"turing-test","trial_index":173,"time_elapsed":378803,"internal_node_id":"0.0-8.0-2.41","subject":"4775y4eh1y2gvna"},{"rt":768,"stimulus":"<p>Welche Sequenz haben Sie als natürlicher empfunden?</p>","button_pressed":"0","test_part":"response","test_stimulus":{"position":1,"left":"bvh/vr_prediction_models/model(tmp)-dataset(return-bottle)-numprim(12)-hold(3)/final-lines.txt","right":"bvh/return-bottle-training3-lines.txt","att_check":false},"trial_type":"html-button-response","trial_index":174,"time_elapsed":379575,"internal_node_id":"0.0-8.0-3.41","subject":"4775y4eh1y2gvna"},{"rt":277,"stimulus":"<p>Bereit?</p>","button_pressed":"0","trial_type":"html-button-response","trial_index":175,"time_elapsed":379856,"internal_node_id":"0.0-8.0-0.42","subject":"4775y4eh1y2gvna"},{"rt":null,"stimulus":"<div style=\"font-size:60px;\">+</div>","key_press":null,"trial_type":"html-keyboard-response","trial_index":176,"time_elapsed":381859,"internal_node_id":"0.0-8.0-1.42","subject":"4775y4eh1y2gvna"},{"trial_type":"turing-test","trial_index":177,"time_elapsed":385173,"internal_node_id":"0.0-8.0-2.42","subject":"4775y4eh1y2gvna"},{"rt":407,"stimulus":"<p>Welche Sequenz haben Sie als natürlicher empfunden?</p>","button_pressed":"0","test_part":"response","test_stimulus":{"position":1,"left":"bvh/vr_prediction_models/model(tmp)-dataset(pass-bottle-hold)-numprim(7)-hold(2)/final-lines.txt","right":"bvh/pass-bottle-hold-training2-lines.txt","att_check":false},"trial_type":"html-button-response","trial_index":178,"time_elapsed":385584,"internal_node_id":"0.0-8.0-3.42","subject":"4775y4eh1y2gvna"},{"rt":421.0000000000582,"stimulus":"<p>Bereit?</p>","button_pressed":"0","trial_type":"html-button-response","trial_index":179,"time_elapsed":386009,"internal_node_id":"0.0-8.0-0.43","subject":"4775y4eh1y2gvna"},{"rt":null,"stimulus":"<div style=\"font-size:60px;\">+</div>","key_press":null,"trial_type":"html-keyboard-response","trial_index":180,"time_elapsed":388011,"internal_node_id":"0.0-8.0-1.43","subject":"4775y4eh1y2gvna"},{"trial_type":"turing-test","trial_index":181,"time_elapsed":391533,"internal_node_id":"0.0-8.0-2.43","subject":"4775y4eh1y2gvna"},{"rt":601.9999999999418,"stimulus":"<p>Welche Sequenz haben Sie als natürlicher empfunden?</p>","button_pressed":"1","test_part":"response","test_stimulus":{"position":1,"left":"bvh/vr_prediction_models/model(vcgpdm)-dataset(pass-bottle-hold)-mode(ELBO)-parts(1)-dyn(10)-lvm(30)-hold(2)/final-lines.txt","right":"bvh/pass-bottle-hold-training2-lines.txt","att_check":false},"trial_type":"html-button-response","trial_index":182,"time_elapsed":392140,"internal_node_id":"0.0-8.0-3.43","subject":"4775y4eh1y2gvna"},{"rt":572,"stimulus":"<p>Bereit?</p>","button_pressed":"0","trial_type":"html-button-response","trial_index":183,"time_elapsed":392715,"internal_node_id":"0.0-8.0-0.44","subject":"4775y4eh1y2gvna"},{"rt":null,"stimulus":"<div style=\"font-size:60px;\">+</div>","key_press":null,"trial_type":"html-keyboard-response","trial_index":184,"time_elapsed":394719,"internal_node_id":"0.0-8.0-1.44","subject":"4775y4eh1y2gvna"},{"trial_type":"turing-test","trial_index":185,"time_elapsed":401415,"internal_node_id":"0.0-8.0-2.44","subject":"4775y4eh1y2gvna"},{"rt":717.9999999999418,"stimulus":"<p>Welche Sequenz haben Sie als natürlicher empfunden?</p>","button_pressed":"0","test_part":"response","test_stimulus":{"position":0,"left":"bvh/return-bottle-training2-lines.txt","right":"bvh/vr_prediction_models/model(vcgpdm)-dataset(return-bottle)-mode(ELBO)-parts(1)-dyn(25)-lvm(35)-hold(2)/final-lines.txt","att_check":false},"trial_type":"html-button-response","trial_index":186,"time_elapsed":402138,"internal_node_id":"0.0-8.0-3.44","subject":"4775y4eh1y2gvna"},{"rt":610,"stimulus":"<p>Bereit?</p>","button_pressed":"0","trial_type":"html-button-response","trial_index":187,"time_elapsed":402752,"internal_node_id":"0.0-8.0-0.45","subject":"4775y4eh1y2gvna"},{"rt":null,"stimulus":"<div style=\"font-size:60px;\">+</div>","key_press":null,"trial_type":"html-keyboard-response","trial_index":188,"time_elapsed":404755,"internal_node_id":"0.0-8.0-1.45","subject":"4775y4eh1y2gvna"},{"trial_type":"turing-test","trial_index":189,"time_elapsed":410491,"internal_node_id":"0.0-8.0-2.45","subject":"4775y4eh1y2gvna"},{"rt":1278,"stimulus":"<p>Welche Sequenz haben Sie als natürlicher empfunden?</p>","button_pressed":"1","test_part":"response","test_stimulus":{"position":1,"left":"bvh/vr_prediction_models/model(dmp)-dataset(return-bottle)-npsi(70)-hold(3)/final-lines.txt","right":"bvh/return-bottle-training3-lines.txt","att_check":false},"trial_type":"html-button-response","trial_index":190,"time_elapsed":411774,"internal_node_id":"0.0-8.0-3.45","subject":"4775y4eh1y2gvna"},{"rt":427,"stimulus":"<p>Bereit?</p>","button_pressed":"0","trial_type":"html-button-response","trial_index":191,"time_elapsed":412205,"internal_node_id":"0.0-8.0-0.46","subject":"4775y4eh1y2gvna"},{"rt":null,"stimulus":"<div style=\"font-size:60px;\">+</div>","key_press":null,"trial_type":"html-keyboard-response","trial_index":192,"time_elapsed":414209,"internal_node_id":"0.0-8.0-1.46","subject":"4775y4eh1y2gvna"},{"trial_type":"turing-test","trial_index":193,"time_elapsed":417474,"internal_node_id":"0.0-8.0-2.46","subject":"4775y4eh1y2gvna"},{"rt":569,"stimulus":"<p>Welche Sequenz haben Sie als natürlicher empfunden?</p>","button_pressed":"1","test_part":"response","test_stimulus":{"position":0,"left":"bvh/pass-bottle-hold-training0-lines.txt","right":"bvh/vr_prediction_models/model(tmp)-dataset(pass-bottle-hold)-numprim(7)-hold(0)/final-lines.txt","att_check":false},"trial_type":"html-button-response","trial_index":194,"time_elapsed":418047,"internal_node_id":"0.0-8.0-3.46","subject":"4775y4eh1y2gvna"},{"rt":405.0000000000582,"stimulus":"<p>Bereit?</p>","button_pressed":"0","trial_type":"html-button-response","trial_index":195,"time_elapsed":418456,"internal_node_id":"0.0-8.0-0.47","subject":"4775y4eh1y2gvna"},{"rt":null,"stimulus":"<div style=\"font-size:60px;\">+</div>","key_press":null,"trial_type":"html-keyboard-response","trial_index":196,"time_elapsed":420460,"internal_node_id":"0.0-8.0-1.47","subject":"4775y4eh1y2gvna"},{"trial_type":"turing-test","trial_index":197,"time_elapsed":425731,"internal_node_id":"0.0-8.0-2.47","subject":"4775y4eh1y2gvna"},{"rt":642.9999999999418,"stimulus":"<p>Welche Sequenz haben Sie als natürlicher empfunden?</p>","button_pressed":"1","test_part":"response","test_stimulus":{"position":1,"left":"bvh/vr_prediction_models/model(vcgpdm)-dataset(return-bottle-hold)-mode(ELBO)-parts(1)-dyn(25)-lvm(35)-hold(0)/final-lines.txt","right":"bvh/return-bottle-hold-training0-lines.txt","att_check":false},"trial_type":"html-button-response","trial_index":198,"time_elapsed":426379,"internal_node_id":"0.0-8.0-3.47","subject":"4775y4eh1y2gvna"},{"rt":532,"stimulus":"<p>Bereit?</p>","button_pressed":"0","trial_type":"html-button-response","trial_index":199,"time_elapsed":426914,"internal_node_id":"0.0-8.0-0.48","subject":"4775y4eh1y2gvna"},{"rt":null,"stimulus":"<div style=\"font-size:60px;\">+</div>","key_press":null,"trial_type":"html-keyboard-response","trial_index":200,"time_elapsed":428917,"internal_node_id":"0.0-8.0-1.48","subject":"4775y4eh1y2gvna"},{"trial_type":"turing-test","trial_index":201,"time_elapsed":434737,"internal_node_id":"0.0-8.0-2.48","subject":"4775y4eh1y2gvna"},{"rt":684.0000000000582,"stimulus":"<p>Welche Sequenz haben Sie als natürlicher empfunden?</p>","button_pressed":"1","test_part":"response","test_stimulus":{"position":0,"left":"bvh/return-bottle-training4-lines.txt","right":"bvh/vr_prediction_models/model(tmp)-dataset(return-bottle)-numprim(11)-hold(4)/final-lines.txt","att_check":false},"trial_type":"html-button-response","trial_index":202,"time_elapsed":435426,"internal_node_id":"0.0-8.0-3.48","subject":"4775y4eh1y2gvna"},{"rt":365,"stimulus":"<p>Bereit?</p>","button_pressed":"0","trial_type":"html-button-response","trial_index":203,"time_elapsed":435795,"internal_node_id":"0.0-8.0-0.49","subject":"4775y4eh1y2gvna"},{"rt":null,"stimulus":"<div style=\"font-size:60px;\">+</div>","key_press":null,"trial_type":"html-keyboard-response","trial_index":204,"time_elapsed":437798,"internal_node_id":"0.0-8.0-1.49","subject":"4775y4eh1y2gvna"},{"trial_type":"turing-test","trial_index":205,"time_elapsed":444532,"internal_node_id":"0.0-8.0-2.49","subject":"4775y4eh1y2gvna"},{"rt":721,"stimulus":"<p>Welche Sequenz haben Sie als natürlicher empfunden?</p>","button_pressed":"0","test_part":"response","test_stimulus":{"position":0,"left":"bvh/return-bottle-training2-lines.txt","right":"bvh/vr_prediction_models/model(vcgpdm)-dataset(return-bottle)-mode(ELBO)-parts(1)-dyn(35)-lvm(10)-hold(2)/final-lines.txt","att_check":false},"trial_type":"html-button-response","trial_index":206,"time_elapsed":445258,"internal_node_id":"0.0-8.0-3.49","subject":"4775y4eh1y2gvna"},{"rt":644,"stimulus":"<p>Bereit?</p>","button_pressed":"0","trial_type":"html-button-response","trial_index":207,"time_elapsed":445906,"internal_node_id":"0.0-8.0-0.50","subject":"4775y4eh1y2gvna"},{"rt":null,"stimulus":"<div style=\"font-size:60px;\">+</div>","key_press":null,"trial_type":"html-keyboard-response","trial_index":208,"time_elapsed":447907,"internal_node_id":"0.0-8.0-1.50","subject":"4775y4eh1y2gvna"},{"trial_type":"turing-test","trial_index":209,"time_elapsed":451803,"internal_node_id":"0.0-8.0-2.50","subject":"4775y4eh1y2gvna"},{"rt":1285,"stimulus":"<p>Welche Sequenz haben Sie als natürlicher empfunden?</p>","button_pressed":"1","test_part":"response","test_stimulus":{"position":1,"left":"bvh/vr_prediction_models/model(vcgpdm)-dataset(return-bottle-hold)-mode(ELBO)-parts(1)-dyn(15)-lvm(35)-hold(3)/final-lines.txt","right":"bvh/return-bottle-hold-training3-lines.txt","att_check":false},"trial_type":"html-button-response","trial_index":210,"time_elapsed":453092,"internal_node_id":"0.0-8.0-3.50","subject":"4775y4eh1y2gvna"},{"rt":764,"stimulus":"<p>Bereit?</p>","button_pressed":"0","trial_type":"html-button-response","trial_index":211,"time_elapsed":453860,"internal_node_id":"0.0-8.0-0.51","subject":"4775y4eh1y2gvna"},{"rt":null,"stimulus":"<div style=\"font-size:60px;\">+</div>","key_press":null,"trial_type":"html-keyboard-response","trial_index":212,"time_elapsed":455864,"internal_node_id":"0.0-8.0-1.51","subject":"4775y4eh1y2gvna"},{"trial_type":"turing-test","trial_index":213,"time_elapsed":462973,"internal_node_id":"0.0-8.0-2.51","subject":"4775y4eh1y2gvna"},{"rt":697,"stimulus":"<p>Welche Sequenz haben Sie als natürlicher empfunden?</p>","button_pressed":"0","test_part":"response","test_stimulus":{"position":0,"left":"bvh/pass-bottle-training0-lines.txt","right":"bvh/vr_prediction_models/model(vcgpdm)-dataset(pass-bottle)-mode(ELBO)-parts(1)-dyn(30)-lvm(20)-hold(0)/final-lines.txt","att_check":false},"trial_type":"html-button-response","trial_index":214,"time_elapsed":463675,"internal_node_id":"0.0-8.0-3.51","subject":"4775y4eh1y2gvna"},{"rt":461,"stimulus":"<p>Bereit?</p>","button_pressed":"0","trial_type":"html-button-response","trial_index":215,"time_elapsed":464141,"internal_node_id":"0.0-8.0-0.52","subject":"4775y4eh1y2gvna"},{"rt":null,"stimulus":"<div style=\"font-size:60px;\">+</div>","key_press":null,"trial_type":"html-keyboard-response","trial_index":216,"time_elapsed":466144,"internal_node_id":"0.0-8.0-1.52","subject":"4775y4eh1y2gvna"},{"trial_type":"turing-test","trial_index":217,"time_elapsed":469697,"internal_node_id":"0.0-8.0-2.52","subject":"4775y4eh1y2gvna"},{"rt":932,"stimulus":"<p>Welche Sequenz haben Sie als natürlicher empfunden?</p>","button_pressed":"0","test_part":"response","test_stimulus":{"position":0,"left":"bvh/pass-bottle-hold-training4-lines.txt","right":"bvh/vr_prediction_models/model(dmp)-dataset(pass-bottle-hold)-npsi(100)-hold(4)/final-lines.txt","att_check":false},"trial_type":"html-button-response","trial_index":218,"time_elapsed":470634,"internal_node_id":"0.0-8.0-3.52","subject":"4775y4eh1y2gvna"},{"rt":419.9999999999418,"stimulus":"<p>Bereit?</p>","button_pressed":"0","trial_type":"html-button-response","trial_index":219,"time_elapsed":471063,"internal_node_id":"0.0-8.0-0.53","subject":"4775y4eh1y2gvna"},{"rt":null,"stimulus":"<div style=\"font-size:60px;\">+</div>","key_press":null,"trial_type":"html-keyboard-response","trial_index":220,"time_elapsed":473066,"internal_node_id":"0.0-8.0-1.53","subject":"4775y4eh1y2gvna"},{"trial_type":"turing-test","trial_index":221,"time_elapsed":476468,"internal_node_id":"0.0-8.0-2.53","subject":"4775y4eh1y2gvna"},{"rt":804,"stimulus":"<p>Welche Sequenz haben Sie als natürlicher empfunden?</p>","button_pressed":"0","test_part":"response","test_stimulus":{"position":0,"left":"bvh/pass-bottle-hold-training2-lines.txt","right":"bvh/vr_prediction_models/model(tmp)-dataset(pass-bottle-hold)-numprim(6)-hold(2)/final-lines.txt","att_check":false},"trial_type":"html-button-response","trial_index":222,"time_elapsed":477277,"internal_node_id":"0.0-8.0-3.53","subject":"4775y4eh1y2gvna"},{"rt":421,"stimulus":"<p>Bereit?</p>","button_pressed":"0","trial_type":"html-button-response","trial_index":223,"time_elapsed":477702,"internal_node_id":"0.0-8.0-0.54","subject":"4775y4eh1y2gvna"},{"rt":null,"stimulus":"<div style=\"font-size:60px;\">+</div>","key_press":null,"trial_type":"html-keyboard-response","trial_index":224,"time_elapsed":479705,"internal_node_id":"0.0-8.0-1.54","subject":"4775y4eh1y2gvna"},{"trial_type":"turing-test","trial_index":225,"time_elapsed":485346,"internal_node_id":"0.0-8.0-2.54","subject":"4775y4eh1y2gvna"},{"rt":604.9999999999418,"stimulus":"<p>Welche Sequenz haben Sie als natürlicher empfunden?</p>","button_pressed":"0","test_part":"response","test_stimulus":{"position":0,"left":"bvh/pass-bottle-training1-lines.txt","right":"bvh/vr_prediction_models/model(vcgpdm)-dataset(pass-bottle)-mode(ELBO)-parts(1)-dyn(35)-lvm(30)-hold(1)/final-lines.txt","att_check":false},"trial_type":"html-button-response","trial_index":226,"time_elapsed":485955,"internal_node_id":"0.0-8.0-3.54","subject":"4775y4eh1y2gvna"},{"rt":364,"stimulus":"<p>Bereit?</p>","button_pressed":"0","trial_type":"html-button-response","trial_index":227,"time_elapsed":486324,"internal_node_id":"0.0-8.0-0.55","subject":"4775y4eh1y2gvna"},{"rt":null,"stimulus":"<div style=\"font-size:60px;\">+</div>","key_press":null,"trial_type":"html-keyboard-response","trial_index":228,"time_elapsed":488327,"internal_node_id":"0.0-8.0-1.55","subject":"4775y4eh1y2gvna"},{"trial_type":"turing-test","trial_index":229,"time_elapsed":491810,"internal_node_id":"0.0-8.0-2.55","subject":"4775y4eh1y2gvna"},{"rt":1093.9999999998836,"stimulus":"<p>Welche Sequenz haben Sie als natürlicher empfunden?</p>","button_pressed":"1","test_part":"response","test_stimulus":{"position":0,"left":"bvh/pass-bottle-hold-training3-lines.txt","right":"bvh/vr_prediction_models/model(tmp)-dataset(pass-bottle-hold)-numprim(3)-hold(3)/final-lines.txt","att_check":false},"trial_type":"html-button-response","trial_index":230,"time_elapsed":492909,"internal_node_id":"0.0-8.0-3.55","subject":"4775y4eh1y2gvna"},{"rt":289.0000000001164,"stimulus":"<p>Bereit?</p>","button_pressed":"0","trial_type":"html-button-response","trial_index":231,"time_elapsed":493203,"internal_node_id":"0.0-8.0-0.56","subject":"4775y4eh1y2gvna"},{"rt":null,"stimulus":"<div style=\"font-size:60px;\">+</div>","key_press":null,"trial_type":"html-keyboard-response","trial_index":232,"time_elapsed":495206,"internal_node_id":"0.0-8.0-1.56","subject":"4775y4eh1y2gvna"},{"trial_type":"turing-test","trial_index":233,"time_elapsed":500431,"internal_node_id":"0.0-8.0-2.56","subject":"4775y4eh1y2gvna"},{"rt":673.9999999999418,"stimulus":"<p>Welche Sequenz haben Sie als natürlicher empfunden?</p>","button_pressed":"1","test_part":"response","test_stimulus":{"position":0,"left":"bvh/return-bottle-hold-training0-lines.txt","right":"bvh/vr_prediction_models/model(vcgpdm)-dataset(return-bottle-hold)-mode(ELBO)-parts(3)-dyn(25)-lvm(30)-hold(0)/final-lines.txt","att_check":false},"trial_type":"html-button-response","trial_index":234,"time_elapsed":501111,"internal_node_id":"0.0-8.0-3.56","subject":"4775y4eh1y2gvna"},{"rt":613.0000000000582,"stimulus":"<p>Bereit?</p>","button_pressed":"0","trial_type":"html-button-response","trial_index":235,"time_elapsed":501728,"internal_node_id":"0.0-8.0-0.57","subject":"4775y4eh1y2gvna"},{"rt":null,"stimulus":"<div style=\"font-size:60px;\">+</div>","key_press":null,"trial_type":"html-keyboard-response","trial_index":236,"time_elapsed":503731,"internal_node_id":"0.0-8.0-1.57","subject":"4775y4eh1y2gvna"},{"trial_type":"turing-test","trial_index":237,"time_elapsed":509999,"internal_node_id":"0.0-8.0-2.57","subject":"4775y4eh1y2gvna"},{"rt":3518,"stimulus":"<p>Welche Sequenz haben Sie als natürlicher empfunden?</p>","button_pressed":"1","test_part":"response","test_stimulus":{"position":0,"left":"bvh/pass-bottle-training2-lines.txt","right":"bvh/vr_prediction_models/model(vcgpdm)-dataset(pass-bottle)-mode(ELBO)-parts(3)-dyn(10)-lvm(10)-hold(2)/final-lines.txt","att_check":false},"trial_type":"html-button-response","trial_index":238,"time_elapsed":513522,"internal_node_id":"0.0-8.0-3.57","subject":"4775y4eh1y2gvna"},{"rt":555,"stimulus":"<p>Bereit?</p>","button_pressed":"0","trial_type":"html-button-response","trial_index":239,"time_elapsed":514081,"internal_node_id":"0.0-8.0-0.58","subject":"4775y4eh1y2gvna"},{"rt":null,"stimulus":"<div style=\"font-size:60px;\">+</div>","key_press":null,"trial_type":"html-keyboard-response","trial_index":240,"time_elapsed":516085,"internal_node_id":"0.0-8.0-1.58","subject":"4775y4eh1y2gvna"},{"trial_type":"turing-test","trial_index":241,"time_elapsed":519932,"internal_node_id":"0.0-8.0-2.58","subject":"4775y4eh1y2gvna"},{"rt":2063,"stimulus":"<p>Welche Sequenz haben Sie als natürlicher empfunden?</p>","button_pressed":"1","test_part":"response","test_stimulus":{"position":0,"left":"bvh/return-bottle-hold-training3-lines.txt","right":"bvh/vr_prediction_models/model(vcgpdm)-dataset(return-bottle-hold)-mode(ELBO)-parts(1)-dyn(20)-lvm(5)-hold(3)/final-lines.txt","att_check":false},"trial_type":"html-button-response","trial_index":242,"time_elapsed":521999,"internal_node_id":"0.0-8.0-3.58","subject":"4775y4eh1y2gvna"},{"rt":625,"stimulus":"<p>Bereit?</p>","button_pressed":"0","trial_type":"html-button-response","trial_index":243,"time_elapsed":522631,"internal_node_id":"0.0-8.0-0.59","subject":"4775y4eh1y2gvna"},{"rt":null,"stimulus":"<div style=\"font-size:60px;\">+</div>","key_press":null,"trial_type":"html-keyboard-response","trial_index":244,"time_elapsed":524634,"internal_node_id":"0.0-8.0-1.59","subject":"4775y4eh1y2gvna"},{"trial_type":"turing-test","trial_index":245,"time_elapsed":528287,"internal_node_id":"0.0-8.0-2.59","subject":"4775y4eh1y2gvna"},{"rt":858.0000000001164,"stimulus":"<p>Welche Sequenz haben Sie als natürlicher empfunden?</p>","button_pressed":"0","test_part":"response","test_stimulus":{"position":0,"left":"bvh/return-bottle-hold-training1-lines.txt","right":"bvh/vr_prediction_models/model(vcgpdm)-dataset(return-bottle-hold)-mode(ELBO)-parts(1)-dyn(10)-lvm(5)-hold(1)/final-lines.txt","att_check":false},"trial_type":"html-button-response","trial_index":246,"time_elapsed":529150,"internal_node_id":"0.0-8.0-3.59","subject":"4775y4eh1y2gvna"},{"rt":394,"stimulus":"<p>Bereit?</p>","button_pressed":"0","trial_type":"html-button-response","trial_index":247,"time_elapsed":529549,"internal_node_id":"0.0-8.0-0.60","subject":"4775y4eh1y2gvna"},{"rt":null,"stimulus":"<div style=\"font-size:60px;\">+</div>","key_press":null,"trial_type":"html-keyboard-response","trial_index":248,"time_elapsed":531550,"internal_node_id":"0.0-8.0-1.60","subject":"4775y4eh1y2gvna"},{"trial_type":"turing-test","trial_index":249,"time_elapsed":536890,"internal_node_id":"0.0-8.0-2.60","subject":"4775y4eh1y2gvna"},{"rt":4016,"stimulus":"<p>Welche Sequenz haben Sie als natürlicher empfunden?</p>","button_pressed":"1","test_part":"response","test_stimulus":{"position":1,"left":"bvh/vr_prediction_models/model(tmp)-dataset(return-bottle)-numprim(14)-hold(0)/final-lines.txt","right":"bvh/return-bottle-training0-lines.txt","att_check":false},"trial_type":"html-button-response","trial_index":250,"time_elapsed":540911,"internal_node_id":"0.0-8.0-3.60","subject":"4775y4eh1y2gvna"},{"rt":723,"stimulus":"<p>Bereit?</p>","button_pressed":"0","trial_type":"html-button-response","trial_index":251,"time_elapsed":541638,"internal_node_id":"0.0-8.0-0.61","subject":"4775y4eh1y2gvna"},{"rt":null,"stimulus":"<div style=\"font-size:60px;\">+</div>","key_press":null,"trial_type":"html-keyboard-response","trial_index":252,"time_elapsed":543642,"internal_node_id":"0.0-8.0-1.61","subject":"4775y4eh1y2gvna"},{"trial_type":"turing-test","trial_index":253,"time_elapsed":547071,"internal_node_id":"0.0-8.0-2.61","subject":"4775y4eh1y2gvna"},{"rt":728.0000000001164,"stimulus":"<p>Welche Sequenz haben Sie als natürlicher empfunden?</p>","button_pressed":"1","test_part":"response","test_stimulus":{"position":1,"left":"bvh/vr_prediction_models/model(vcgpdm)-dataset(pass-bottle-hold)-mode(ELBO)-parts(1)-dyn(10)-lvm(30)-hold(1)/final-lines.txt","right":"bvh/pass-bottle-hold-training1-lines.txt","att_check":false},"trial_type":"html-button-response","trial_index":254,"time_elapsed":547805,"internal_node_id":"0.0-8.0-3.61","subject":"4775y4eh1y2gvna"},{"rt":570.9999999998836,"stimulus":"<p>Bereit?</p>","button_pressed":"0","trial_type":"html-button-response","trial_index":255,"time_elapsed":548382,"internal_node_id":"0.0-8.0-0.62","subject":"4775y4eh1y2gvna"},{"rt":null,"stimulus":"<div style=\"font-size:60px;\">+</div>","key_press":null,"trial_type":"html-keyboard-response","trial_index":256,"time_elapsed":550385,"internal_node_id":"0.0-8.0-1.62","subject":"4775y4eh1y2gvna"},{"trial_type":"turing-test","trial_index":257,"time_elapsed":555424,"internal_node_id":"0.0-8.0-2.62","subject":"4775y4eh1y2gvna"},{"rt":1086,"stimulus":"<p>Welche Sequenz haben Sie als natürlicher empfunden?</p>","button_pressed":"0","test_part":"response","test_stimulus":{"position":0,"left":"bvh/return-bottle-hold-training0-lines.txt","right":"bvh/vr_prediction_models/model(dmp)-dataset(return-bottle-hold)-npsi(100)-hold(0)/final-lines.txt","att_check":false},"trial_type":"html-button-response","trial_index":258,"time_elapsed":556515,"internal_node_id":"0.0-8.0-3.62","subject":"4775y4eh1y2gvna"},{"rt":374,"stimulus":"<p>Bereit?</p>","button_pressed":"0","trial_type":"html-button-response","trial_index":259,"time_elapsed":556892,"internal_node_id":"0.0-8.0-0.63","subject":"4775y4eh1y2gvna"},{"rt":null,"stimulus":"<div style=\"font-size:60px;\">+</div>","key_press":null,"trial_type":"html-keyboard-response","trial_index":260,"time_elapsed":558896,"internal_node_id":"0.0-8.0-1.63","subject":"4775y4eh1y2gvna"},{"trial_type":"turing-test","trial_index":261,"time_elapsed":565422,"internal_node_id":"0.0-8.0-2.63","subject":"4775y4eh1y2gvna"},{"rt":1446,"stimulus":"<p>Welche Sequenz haben Sie als natürlicher empfunden?</p>","button_pressed":"1","test_part":"response","test_stimulus":{"position":1,"left":"bvh/vr_prediction_models/model(tmp)-dataset(return-bottle)-numprim(8)-hold(2)/final-lines.txt","right":"bvh/return-bottle-training2-lines.txt","att_check":false},"trial_type":"html-button-response","trial_index":262,"time_elapsed":566872,"internal_node_id":"0.0-8.0-3.63","subject":"4775y4eh1y2gvna"},{"rt":285,"stimulus":"<p>Bereit?</p>","button_pressed":"0","trial_type":"html-button-response","trial_index":263,"time_elapsed":567161,"internal_node_id":"0.0-8.0-0.64","subject":"4775y4eh1y2gvna"},{"rt":null,"stimulus":"<div style=\"font-size:60px;\">+</div>","key_press":null,"trial_type":"html-keyboard-response","trial_index":264,"time_elapsed":569163,"internal_node_id":"0.0-8.0-1.64","subject":"4775y4eh1y2gvna"},{"trial_type":"turing-test","trial_index":265,"time_elapsed":574236,"internal_node_id":"0.0-8.0-2.64","subject":"4775y4eh1y2gvna"},{"rt":693,"stimulus":"<p>Welche Sequenz haben Sie als natürlicher empfunden?</p>","button_pressed":"0","test_part":"response","test_stimulus":{"position":1,"left":"bvh/vr_prediction_models/model(tmp)-dataset(return-bottle-hold)-numprim(13)-hold(0)/final-lines.txt","right":"bvh/return-bottle-hold-training0-lines.txt","att_check":false},"trial_type":"html-button-response","trial_index":266,"time_elapsed":574935,"internal_node_id":"0.0-8.0-3.64","subject":"4775y4eh1y2gvna"},{"rt":300,"stimulus":"<p>Bereit?</p>","button_pressed":"0","trial_type":"html-button-response","trial_index":267,"time_elapsed":575239,"internal_node_id":"0.0-8.0-0.65","subject":"4775y4eh1y2gvna"},{"rt":null,"stimulus":"<div style=\"font-size:60px;\">+</div>","key_press":null,"trial_type":"html-keyboard-response","trial_index":268,"time_elapsed":577242,"internal_node_id":"0.0-8.0-1.65","subject":"4775y4eh1y2gvna"},{"trial_type":"turing-test","trial_index":269,"time_elapsed":580824,"internal_node_id":"0.0-8.0-2.65","subject":"4775y4eh1y2gvna"},{"rt":489,"stimulus":"<p>Welche Sequenz haben Sie als natürlicher empfunden?</p>","button_pressed":"0","test_part":"response","test_stimulus":{"position":1,"left":"bvh/vr_prediction_models/model(tmp)-dataset(return-bottle-hold)-numprim(13)-hold(3)/final-lines.txt","right":"bvh/return-bottle-hold-training3-lines.txt","att_check":false},"trial_type":"html-button-response","trial_index":270,"time_elapsed":581318,"internal_node_id":"0.0-8.0-3.65","subject":"4775y4eh1y2gvna"},{"rt":390,"stimulus":"<p>Bereit?</p>","button_pressed":"0","trial_type":"html-button-response","trial_index":271,"time_elapsed":581711,"internal_node_id":"0.0-8.0-0.66","subject":"4775y4eh1y2gvna"},{"rt":null,"stimulus":"<div style=\"font-size:60px;\">+</div>","key_press":null,"trial_type":"html-keyboard-response","trial_index":272,"time_elapsed":583714,"internal_node_id":"0.0-8.0-1.66","subject":"4775y4eh1y2gvna"},{"trial_type":"turing-test","trial_index":273,"time_elapsed":589385,"internal_node_id":"0.0-8.0-2.66","subject":"4775y4eh1y2gvna"},{"rt":617,"stimulus":"<p>Welche Sequenz haben Sie als natürlicher empfunden?</p>","button_pressed":"1","test_part":"response","test_stimulus":{"position":1,"left":"bvh/vr_prediction_models/model(tmp)-dataset(pass-bottle)-numprim(8)-hold(4)/final-lines.txt","right":"bvh/pass-bottle-training4-lines.txt","att_check":false},"trial_type":"html-button-response","trial_index":274,"time_elapsed":590006,"internal_node_id":"0.0-8.0-3.66","subject":"4775y4eh1y2gvna"},{"rt":718,"stimulus":"<p>Bereit?</p>","button_pressed":"0","trial_type":"html-button-response","trial_index":275,"time_elapsed":590729,"internal_node_id":"0.0-8.0-0.67","subject":"4775y4eh1y2gvna"},{"rt":null,"stimulus":"<div style=\"font-size:60px;\">+</div>","key_press":null,"trial_type":"html-keyboard-response","trial_index":276,"time_elapsed":592732,"internal_node_id":"0.0-8.0-1.67","subject":"4775y4eh1y2gvna"},{"trial_type":"turing-test","trial_index":277,"time_elapsed":596295,"internal_node_id":"0.0-8.0-2.67","subject":"4775y4eh1y2gvna"},{"rt":418,"stimulus":"<p>Welche Sequenz haben Sie als natürlicher empfunden?</p>","button_pressed":"1","test_part":"response","test_stimulus":{"position":0,"left":"bvh/pass-bottle-hold-training0-lines.txt","right":"bvh/vr_prediction_models/model(vcgpdm)-dataset(pass-bottle-hold)-mode(ELBO)-parts(1)-dyn(20)-lvm(5)-hold(0)/final-lines.txt","att_check":false},"trial_type":"html-button-response","trial_index":278,"time_elapsed":596719,"internal_node_id":"0.0-8.0-3.67","subject":"4775y4eh1y2gvna"},{"rt":494,"stimulus":"<p>Bereit?</p>","button_pressed":"0","trial_type":"html-button-response","trial_index":279,"time_elapsed":597216,"internal_node_id":"0.0-8.0-0.68","subject":"4775y4eh1y2gvna"},{"rt":null,"stimulus":"<div style=\"font-size:60px;\">+</div>","key_press":null,"trial_type":"html-keyboard-response","trial_index":280,"time_elapsed":599220,"internal_node_id":"0.0-8.0-1.68","subject":"4775y4eh1y2gvna"},{"trial_type":"turing-test","trial_index":281,"time_elapsed":605028,"internal_node_id":"0.0-8.0-2.68","subject":"4775y4eh1y2gvna"},{"rt":574.9999999998836,"stimulus":"<p>Welche Sequenz haben Sie als natürlicher empfunden?</p>","button_pressed":"1","test_part":"response","test_stimulus":{"position":1,"left":"bvh/vr_prediction_models/model(dmp)-dataset(pass-bottle)-npsi(90)-hold(3)/final-lines.txt","right":"bvh/pass-bottle-training3-lines.txt","att_check":false},"trial_type":"html-button-response","trial_index":282,"time_elapsed":605608,"internal_node_id":"0.0-8.0-3.68","subject":"4775y4eh1y2gvna"},{"rt":508,"stimulus":"<p>Bereit?</p>","button_pressed":"0","trial_type":"html-button-response","trial_index":283,"time_elapsed":606119,"internal_node_id":"0.0-8.0-0.69","subject":"4775y4eh1y2gvna"},{"rt":null,"stimulus":"<div style=\"font-size:60px;\">+</div>","key_press":null,"trial_type":"html-keyboard-response","trial_index":284,"time_elapsed":608123,"internal_node_id":"0.0-8.0-1.69","subject":"4775y4eh1y2gvna"},{"trial_type":"turing-test","trial_index":285,"time_elapsed":611578,"internal_node_id":"0.0-8.0-2.69","subject":"4775y4eh1y2gvna"},{"rt":1470,"stimulus":"<p>Welche Sequenz haben Sie als natürlicher empfunden?</p>","button_pressed":"1","test_part":"response","test_stimulus":{"position":1,"left":"bvh/vr_prediction_models/model(tmp)-dataset(return-bottle-hold)-numprim(13)-hold(2)/final-lines.txt","right":"bvh/return-bottle-hold-training2-lines.txt","att_check":false},"trial_type":"html-button-response","trial_index":286,"time_elapsed":613053,"internal_node_id":"0.0-8.0-3.69","subject":"4775y4eh1y2gvna"},{"rt":402.9999999998836,"stimulus":"<p>Bereit?</p>","button_pressed":"0","trial_type":"html-button-response","trial_index":287,"time_elapsed":613460,"internal_node_id":"0.0-8.0-0.70","subject":"4775y4eh1y2gvna"},{"rt":null,"stimulus":"<div style=\"font-size:60px;\">+</div>","key_press":null,"trial_type":"html-keyboard-response","trial_index":288,"time_elapsed":615463,"internal_node_id":"0.0-8.0-1.70","subject":"4775y4eh1y2gvna"},{"trial_type":"turing-test","trial_index":289,"time_elapsed":621708,"internal_node_id":"0.0-8.0-2.70","subject":"4775y4eh1y2gvna"},{"rt":1031,"stimulus":"<p>Welche Sequenz haben Sie als natürlicher empfunden?</p>","button_pressed":"1","test_part":"response","test_stimulus":{"position":0,"left":"bvh/pass-bottle-training2-lines.txt","right":"bvh/vr_prediction_models/model(vcgpdm)-dataset(pass-bottle)-mode(ELBO)-parts(3)-dyn(10)-lvm(25)-hold(2)/final-lines.txt","att_check":false},"trial_type":"html-button-response","trial_index":290,"time_elapsed":622745,"internal_node_id":"0.0-8.0-3.70","subject":"4775y4eh1y2gvna"},{"rt":476.0000000001164,"stimulus":"<p>Bereit?</p>","button_pressed":"0","trial_type":"html-button-response","trial_index":291,"time_elapsed":623226,"internal_node_id":"0.0-8.0-0.71","subject":"4775y4eh1y2gvna"},{"rt":null,"stimulus":"<div style=\"font-size:60px;\">+</div>","key_press":null,"trial_type":"html-keyboard-response","trial_index":292,"time_elapsed":625229,"internal_node_id":"0.0-8.0-1.71","subject":"4775y4eh1y2gvna"},{"trial_type":"turing-test","trial_index":293,"time_elapsed":631144,"internal_node_id":"0.0-8.0-2.71","subject":"4775y4eh1y2gvna"},{"rt":931,"stimulus":"<p>Welche Sequenz haben Sie als natürlicher empfunden?</p>","button_pressed":"1","test_part":"response","test_stimulus":{"position":0,"left":"bvh/return-bottle-training4-lines.txt","right":"bvh/vr_prediction_models/model(vcgpdm)-dataset(return-bottle)-mode(ELBO)-parts(1)-dyn(10)-lvm(25)-hold(4)/final-lines.txt","att_check":false},"trial_type":"html-button-response","trial_index":294,"time_elapsed":632080,"internal_node_id":"0.0-8.0-3.71","subject":"4775y4eh1y2gvna"},{"rt":388,"stimulus":"<p>Bereit?</p>","button_pressed":"0","trial_type":"html-button-response","trial_index":295,"time_elapsed":632473,"internal_node_id":"0.0-8.0-0.72","subject":"4775y4eh1y2gvna"},{"rt":null,"stimulus":"<div style=\"font-size:60px;\">+</div>","key_press":null,"trial_type":"html-keyboard-response","trial_index":296,"time_elapsed":634476,"internal_node_id":"0.0-8.0-1.72","subject":"4775y4eh1y2gvna"},{"trial_type":"turing-test","trial_index":297,"time_elapsed":637908,"internal_node_id":"0.0-8.0-2.72","subject":"4775y4eh1y2gvna"},{"rt":726,"stimulus":"<p>Welche Sequenz haben Sie als natürlicher empfunden?</p>","button_pressed":"1","test_part":"response","test_stimulus":{"position":1,"left":"bvh/vr_prediction_models/model(dmp)-dataset(return-bottle-hold)-npsi(70)-hold(2)/final-lines.txt","right":"bvh/return-bottle-hold-training2-lines.txt","att_check":true},"trial_type":"html-button-response","trial_index":298,"time_elapsed":638640,"internal_node_id":"0.0-8.0-3.72","subject":"4775y4eh1y2gvna"},{"rt":397,"stimulus":"<p>Bereit?</p>","button_pressed":"0","trial_type":"html-button-response","trial_index":299,"time_elapsed":639041,"internal_node_id":"0.0-8.0-0.73","subject":"4775y4eh1y2gvna"},{"rt":null,"stimulus":"<div style=\"font-size:60px;\">+</div>","key_press":null,"trial_type":"html-keyboard-response","trial_index":300,"time_elapsed":641044,"internal_node_id":"0.0-8.0-1.73","subject":"4775y4eh1y2gvna"},{"trial_type":"turing-test","trial_index":301,"time_elapsed":644659,"internal_node_id":"0.0-8.0-2.73","subject":"4775y4eh1y2gvna"},{"rt":790,"stimulus":"<p>Welche Sequenz haben Sie als natürlicher empfunden?</p>","button_pressed":"1","test_part":"response","test_stimulus":{"position":1,"left":"bvh/vr_prediction_models/model(dmp)-dataset(return-bottle-hold)-npsi(50)-hold(3)/final-lines.txt","right":"bvh/return-bottle-hold-training3-lines.txt","att_check":false},"trial_type":"html-button-response","trial_index":302,"time_elapsed":645455,"internal_node_id":"0.0-8.0-3.73","subject":"4775y4eh1y2gvna"},{"rt":323,"stimulus":"<p>Bereit?</p>","button_pressed":"0","trial_type":"html-button-response","trial_index":303,"time_elapsed":645783,"internal_node_id":"0.0-8.0-0.74","subject":"4775y4eh1y2gvna"},{"rt":null,"stimulus":"<div style=\"font-size:60px;\">+</div>","key_press":null,"trial_type":"html-keyboard-response","trial_index":304,"time_elapsed":647786,"internal_node_id":"0.0-8.0-1.74","subject":"4775y4eh1y2gvna"},{"trial_type":"turing-test","trial_index":305,"time_elapsed":653142,"internal_node_id":"0.0-8.0-2.74","subject":"4775y4eh1y2gvna"},{"rt":451,"stimulus":"<p>Welche Sequenz haben Sie als natürlicher empfunden?</p>","button_pressed":"1","test_part":"response","test_stimulus":{"position":1,"left":"bvh/vr_prediction_models/model(vcgpdm)-dataset(return-bottle-hold)-mode(ELBO)-parts(1)-dyn(10)-lvm(30)-hold(0)/final-lines.txt","right":"bvh/return-bottle-hold-training0-lines.txt","att_check":false},"trial_type":"html-button-response","trial_index":306,"time_elapsed":653598,"internal_node_id":"0.0-8.0-3.74","subject":"4775y4eh1y2gvna"},{"rt":434,"stimulus":"<p>Bereit?</p>","button_pressed":"0","trial_type":"html-button-response","trial_index":307,"time_elapsed":654036,"internal_node_id":"0.0-8.0-0.75","subject":"4775y4eh1y2gvna"},{"rt":null,"stimulus":"<div style=\"font-size:60px;\">+</div>","key_press":null,"trial_type":"html-keyboard-response","trial_index":308,"time_elapsed":656039,"internal_node_id":"0.0-8.0-1.75","subject":"4775y4eh1y2gvna"},{"trial_type":"turing-test","trial_index":309,"time_elapsed":662114,"internal_node_id":"0.0-8.0-2.75","subject":"4775y4eh1y2gvna"},{"rt":1130,"stimulus":"<p>Welche Sequenz haben Sie als natürlicher empfunden?</p>","button_pressed":"0","test_part":"response","test_stimulus":{"position":0,"left":"bvh/return-bottle-training1-lines.txt","right":"bvh/vr_prediction_models/model(dmp)-dataset(return-bottle)-npsi(50)-hold(1)/final-lines.txt","att_check":true},"trial_type":"html-button-response","trial_index":310,"time_elapsed":663249,"internal_node_id":"0.0-8.0-3.75","subject":"4775y4eh1y2gvna"},{"rt":700,"stimulus":"<p>Bereit?</p>","button_pressed":"0","trial_type":"html-button-response","trial_index":311,"time_elapsed":663954,"internal_node_id":"0.0-8.0-0.76","subject":"4775y4eh1y2gvna"},{"rt":null,"stimulus":"<div style=\"font-size:60px;\">+</div>","key_press":null,"trial_type":"html-keyboard-response","trial_index":312,"time_elapsed":665957,"internal_node_id":"0.0-8.0-1.76","subject":"4775y4eh1y2gvna"},{"trial_type":"turing-test","trial_index":313,"time_elapsed":672053,"internal_node_id":"0.0-8.0-2.76","subject":"4775y4eh1y2gvna"},{"rt":1086,"stimulus":"<p>Welche Sequenz haben Sie als natürlicher empfunden?</p>","button_pressed":"0","test_part":"response","test_stimulus":{"position":0,"left":"bvh/return-bottle-training4-lines.txt","right":"bvh/vr_prediction_models/model(vcgpdm)-dataset(return-bottle)-mode(ELBO)-parts(3)-dyn(20)-lvm(15)-hold(4)/final-lines.txt","att_check":false},"trial_type":"html-button-response","trial_index":314,"time_elapsed":673144,"internal_node_id":"0.0-8.0-3.76","subject":"4775y4eh1y2gvna"},{"rt":323,"stimulus":"<p>Bereit?</p>","button_pressed":"0","trial_type":"html-button-response","trial_index":315,"time_elapsed":673472,"internal_node_id":"0.0-8.0-0.77","subject":"4775y4eh1y2gvna"},{"rt":null,"stimulus":"<div style=\"font-size:60px;\">+</div>","key_press":null,"trial_type":"html-keyboard-response","trial_index":316,"time_elapsed":675475,"internal_node_id":"0.0-8.0-1.77","subject":"4775y4eh1y2gvna"},{"trial_type":"turing-test","trial_index":317,"time_elapsed":679114,"internal_node_id":"0.0-8.0-2.77","subject":"4775y4eh1y2gvna"},{"rt":1293,"stimulus":"<p>Welche Sequenz haben Sie als natürlicher empfunden?</p>","button_pressed":"1","test_part":"response","test_stimulus":{"position":1,"left":"bvh/vr_prediction_models/model(vcgpdm)-dataset(pass-bottle-hold)-mode(ELBO)-parts(1)-dyn(30)-lvm(20)-hold(2)/final-lines.txt","right":"bvh/pass-bottle-hold-training2-lines.txt","att_check":false},"trial_type":"html-button-response","trial_index":318,"time_elapsed":680412,"internal_node_id":"0.0-8.0-3.77","subject":"4775y4eh1y2gvna"},{"rt":526,"stimulus":"<p>Bereit?</p>","button_pressed":"0","trial_type":"html-button-response","trial_index":319,"time_elapsed":680943,"internal_node_id":"0.0-8.0-0.78","subject":"4775y4eh1y2gvna"},{"rt":null,"stimulus":"<div style=\"font-size:60px;\">+</div>","key_press":null,"trial_type":"html-keyboard-response","trial_index":320,"time_elapsed":682947,"internal_node_id":"0.0-8.0-1.78","subject":"4775y4eh1y2gvna"},{"trial_type":"turing-test","trial_index":321,"time_elapsed":686449,"internal_node_id":"0.0-8.0-2.78","subject":"4775y4eh1y2gvna"},{"rt":1092.0000000001164,"stimulus":"<p>Welche Sequenz haben Sie als natürlicher empfunden?</p>","button_pressed":"1","test_part":"response","test_stimulus":{"position":0,"left":"bvh/pass-bottle-hold-training0-lines.txt","right":"bvh/vr_prediction_models/model(vcgpdm)-dataset(pass-bottle-hold)-mode(MAP)-parts(1)-hold(0)/final-lines.txt","att_check":false},"trial_type":"html-button-response","trial_index":322,"time_elapsed":687547,"internal_node_id":"0.0-8.0-3.78","subject":"4775y4eh1y2gvna"},{"rt":789,"stimulus":"<p>Bereit?</p>","button_pressed":"0","trial_type":"html-button-response","trial_index":323,"time_elapsed":688343,"internal_node_id":"0.0-8.0-0.79","subject":"4775y4eh1y2gvna"},{"rt":null,"stimulus":"<div style=\"font-size:60px;\">+</div>","key_press":null,"trial_type":"html-keyboard-response","trial_index":324,"time_elapsed":690346,"internal_node_id":"0.0-8.0-1.79","subject":"4775y4eh1y2gvna"},{"trial_type":"turing-test","trial_index":325,"time_elapsed":693493,"internal_node_id":"0.0-8.0-2.79","subject":"4775y4eh1y2gvna"},{"rt":806,"stimulus":"<p>Welche Sequenz haben Sie als natürlicher empfunden?</p>","button_pressed":"1","test_part":"response","test_stimulus":{"position":1,"left":"bvh/vr_prediction_models/model(dmp)-dataset(pass-bottle-hold)-npsi(80)-hold(1)/final-lines.txt","right":"bvh/pass-bottle-hold-training1-lines.txt","att_check":false},"trial_type":"html-button-response","trial_index":326,"time_elapsed":694305,"internal_node_id":"0.0-8.0-3.79","subject":"4775y4eh1y2gvna"},{"rt":243,"stimulus":"<p>Bereit?</p>","button_pressed":"0","trial_type":"html-button-response","trial_index":327,"time_elapsed":694553,"internal_node_id":"0.0-8.0-0.80","subject":"4775y4eh1y2gvna"},{"rt":null,"stimulus":"<div style=\"font-size:60px;\">+</div>","key_press":null,"trial_type":"html-keyboard-response","trial_index":328,"time_elapsed":696557,"internal_node_id":"0.0-8.0-1.80","subject":"4775y4eh1y2gvna"},{"trial_type":"turing-test","trial_index":329,"time_elapsed":702571,"internal_node_id":"0.0-8.0-2.80","subject":"4775y4eh1y2gvna"},{"rt":677,"stimulus":"<p>Welche Sequenz haben Sie als natürlicher empfunden?</p>","button_pressed":"1","test_part":"response","test_stimulus":{"position":1,"left":"bvh/vr_prediction_models/model(vcgpdm)-dataset(pass-bottle)-mode(ELBO)-parts(3)-dyn(10)-lvm(10)-hold(3)/final-lines.txt","right":"bvh/pass-bottle-training3-lines.txt","att_check":false},"trial_type":"html-button-response","trial_index":330,"time_elapsed":703254,"internal_node_id":"0.0-8.0-3.80","subject":"4775y4eh1y2gvna"},{"rt":656.0000000001164,"stimulus":"<p>Bereit?</p>","button_pressed":"0","trial_type":"html-button-response","trial_index":331,"time_elapsed":703915,"internal_node_id":"0.0-8.0-0.81","subject":"4775y4eh1y2gvna"},{"rt":null,"stimulus":"<div style=\"font-size:60px;\">+</div>","key_press":null,"trial_type":"html-keyboard-response","trial_index":332,"time_elapsed":705918,"internal_node_id":"0.0-8.0-1.81","subject":"4775y4eh1y2gvna"},{"trial_type":"turing-test","trial_index":333,"time_elapsed":709452,"internal_node_id":"0.0-8.0-2.81","subject":"4775y4eh1y2gvna"},{"rt":783,"stimulus":"<p>Welche Sequenz haben Sie als natürlicher empfunden?</p>","button_pressed":"0","test_part":"response","test_stimulus":{"position":0,"left":"bvh/pass-bottle-hold-training0-lines.txt","right":"bvh/vr_prediction_models/model(vcgpdm)-dataset(pass-bottle-hold)-mode(ELBO)-parts(1)-dyn(5)-lvm(5)-hold(0)/final-lines.txt","att_check":false},"trial_type":"html-button-response","trial_index":334,"time_elapsed":710241,"internal_node_id":"0.0-8.0-3.81","subject":"4775y4eh1y2gvna"},{"rt":252,"stimulus":"<p>Bereit?</p>","button_pressed":"0","trial_type":"html-button-response","trial_index":335,"time_elapsed":710498,"internal_node_id":"0.0-8.0-0.82","subject":"4775y4eh1y2gvna"},{"rt":null,"stimulus":"<div style=\"font-size:60px;\">+</div>","key_press":null,"trial_type":"html-keyboard-response","trial_index":336,"time_elapsed":712501,"internal_node_id":"0.0-8.0-1.82","subject":"4775y4eh1y2gvna"},{"trial_type":"turing-test","trial_index":337,"time_elapsed":716500,"internal_node_id":"0.0-8.0-2.82","subject":"4775y4eh1y2gvna"},{"rt":702,"stimulus":"<p>Welche Sequenz haben Sie als natürlicher empfunden?</p>","button_pressed":"1","test_part":"response","test_stimulus":{"position":1,"left":"bvh/vr_prediction_models/model(vcgpdm)-dataset(return-bottle-hold)-mode(ELBO)-parts(3)-dyn(10)-lvm(10)-hold(4)/final-lines.txt","right":"bvh/return-bottle-hold-training4-lines.txt","att_check":false},"trial_type":"html-button-response","trial_index":338,"time_elapsed":717208,"internal_node_id":"0.0-8.0-3.82","subject":"4775y4eh1y2gvna"},{"rt":261.0000000001164,"stimulus":"<p>Bereit?</p>","button_pressed":"0","trial_type":"html-button-response","trial_index":339,"time_elapsed":717473,"internal_node_id":"0.0-8.0-0.83","subject":"4775y4eh1y2gvna"},{"rt":null,"stimulus":"<div style=\"font-size:60px;\">+</div>","key_press":null,"trial_type":"html-keyboard-response","trial_index":340,"time_elapsed":719476,"internal_node_id":"0.0-8.0-1.83","subject":"4775y4eh1y2gvna"},{"trial_type":"turing-test","trial_index":341,"time_elapsed":724577,"internal_node_id":"0.0-8.0-2.83","subject":"4775y4eh1y2gvna"},{"rt":880,"stimulus":"<p>Welche Sequenz haben Sie als natürlicher empfunden?</p>","button_pressed":"1","test_part":"response","test_stimulus":{"position":1,"left":"bvh/vr_prediction_models/model(dmp)-dataset(return-bottle-hold)-npsi(90)-hold(0)/final-lines.txt","right":"bvh/return-bottle-hold-training0-lines.txt","att_check":false},"trial_type":"html-button-response","trial_index":342,"time_elapsed":725462,"internal_node_id":"0.0-8.0-3.83","subject":"4775y4eh1y2gvna"},{"rt":372,"stimulus":"<p>Bereit?</p>","button_pressed":"0","trial_type":"html-button-response","trial_index":343,"time_elapsed":725838,"internal_node_id":"0.0-8.0-0.84","subject":"4775y4eh1y2gvna"},{"rt":null,"stimulus":"<div style=\"font-size:60px;\">+</div>","key_press":null,"trial_type":"html-keyboard-response","trial_index":344,"time_elapsed":727842,"internal_node_id":"0.0-8.0-1.84","subject":"4775y4eh1y2gvna"},{"trial_type":"turing-test","trial_index":345,"time_elapsed":733792,"internal_node_id":"0.0-8.0-2.84","subject":"4775y4eh1y2gvna"},{"rt":663,"stimulus":"<p>Welche Sequenz haben Sie als natürlicher empfunden?</p>","button_pressed":"1","test_part":"response","test_stimulus":{"position":1,"left":"bvh/vr_prediction_models/model(vcgpdm)-dataset(pass-bottle)-mode(ELBO)-parts(1)-dyn(25)-lvm(35)-hold(3)/final-lines.txt","right":"bvh/pass-bottle-training3-lines.txt","att_check":false},"trial_type":"html-button-response","trial_index":346,"time_elapsed":734461,"internal_node_id":"0.0-8.0-3.84","subject":"4775y4eh1y2gvna"},{"rt":613,"stimulus":"<p>Bereit?</p>","button_pressed":"0","trial_type":"html-button-response","trial_index":347,"time_elapsed":735079,"internal_node_id":"0.0-8.0-0.85","subject":"4775y4eh1y2gvna"},{"rt":null,"stimulus":"<div style=\"font-size:60px;\">+</div>","key_press":null,"trial_type":"html-keyboard-response","trial_index":348,"time_elapsed":737082,"internal_node_id":"0.0-8.0-1.85","subject":"4775y4eh1y2gvna"},{"trial_type":"turing-test","trial_index":349,"time_elapsed":740898,"internal_node_id":"0.0-8.0-2.85","subject":"4775y4eh1y2gvna"},{"rt":614.0000000001164,"stimulus":"<p>Welche Sequenz haben Sie als natürlicher empfunden?</p>","button_pressed":"1","test_part":"response","test_stimulus":{"position":0,"left":"bvh/pass-bottle-hold-training3-lines.txt","right":"bvh/vr_prediction_models/model(vcgpdm)-dataset(pass-bottle-hold)-mode(ELBO)-parts(3)-dyn(10)-lvm(25)-hold(3)/final-lines.txt","att_check":false},"trial_type":"html-button-response","trial_index":350,"time_elapsed":741517,"internal_node_id":"0.0-8.0-3.85","subject":"4775y4eh1y2gvna"},{"rt":265.9999999998836,"stimulus":"<p>Bereit?</p>","button_pressed":"0","trial_type":"html-button-response","trial_index":351,"time_elapsed":741788,"internal_node_id":"0.0-8.0-0.86","subject":"4775y4eh1y2gvna"},{"rt":null,"stimulus":"<div style=\"font-size:60px;\">+</div>","key_press":null,"trial_type":"html-keyboard-response","trial_index":352,"time_elapsed":743790,"internal_node_id":"0.0-8.0-1.86","subject":"4775y4eh1y2gvna"},{"trial_type":"turing-test","trial_index":353,"time_elapsed":747158,"internal_node_id":"0.0-8.0-2.86","subject":"4775y4eh1y2gvna"},{"rt":442,"stimulus":"<p>Welche Sequenz haben Sie als natürlicher empfunden?</p>","button_pressed":"1","test_part":"response","test_stimulus":{"position":1,"left":"bvh/vr_prediction_models/model(vcgpdm)-dataset(pass-bottle-hold)-mode(ELBO)-parts(1)-dyn(20)-lvm(20)-hold(1)/final-lines.txt","right":"bvh/pass-bottle-hold-training1-lines.txt","att_check":false},"trial_type":"html-button-response","trial_index":354,"time_elapsed":747605,"internal_node_id":"0.0-8.0-3.86","subject":"4775y4eh1y2gvna"},{"rt":444,"stimulus":"<p>Bereit?</p>","button_pressed":"0","trial_type":"html-button-response","trial_index":355,"time_elapsed":748053,"internal_node_id":"0.0-8.0-0.87","subject":"4775y4eh1y2gvna"},{"rt":null,"stimulus":"<div style=\"font-size:60px;\">+</div>","key_press":null,"trial_type":"html-keyboard-response","trial_index":356,"time_elapsed":750056,"internal_node_id":"0.0-8.0-1.87","subject":"4775y4eh1y2gvna"},{"trial_type":"turing-test","trial_index":357,"time_elapsed":755965,"internal_node_id":"0.0-8.0-2.87","subject":"4775y4eh1y2gvna"},{"rt":777.9999999998836,"stimulus":"<p>Welche Sequenz haben Sie als natürlicher empfunden?</p>","button_pressed":"0","test_part":"response","test_stimulus":{"position":0,"left":"bvh/return-bottle-training4-lines.txt","right":"bvh/vr_prediction_models/model(vcgpdm)-dataset(return-bottle)-mode(ELBO)-parts(1)-dyn(10)-lvm(5)-hold(4)/final-lines.txt","att_check":false},"trial_type":"html-button-response","trial_index":358,"time_elapsed":756748,"internal_node_id":"0.0-8.0-3.87","subject":"4775y4eh1y2gvna"},{"rt":636,"stimulus":"<p>Bereit?</p>","button_pressed":"0","trial_type":"html-button-response","trial_index":359,"time_elapsed":757389,"internal_node_id":"0.0-8.0-0.88","subject":"4775y4eh1y2gvna"},{"rt":null,"stimulus":"<div style=\"font-size:60px;\">+</div>","key_press":null,"trial_type":"html-keyboard-response","trial_index":360,"time_elapsed":759392,"internal_node_id":"0.0-8.0-1.88","subject":"4775y4eh1y2gvna"},{"trial_type":"turing-test","trial_index":361,"time_elapsed":762575,"internal_node_id":"0.0-8.0-2.88","subject":"4775y4eh1y2gvna"},{"rt":948.9999999998836,"stimulus":"<p>Welche Sequenz haben Sie als natürlicher empfunden?</p>","button_pressed":"1","test_part":"response","test_stimulus":{"position":0,"left":"bvh/pass-bottle-hold-training1-lines.txt","right":"bvh/vr_prediction_models/model(dmp)-dataset(pass-bottle-hold)-npsi(60)-hold(1)/final-lines.txt","att_check":false},"trial_type":"html-button-response","trial_index":362,"time_elapsed":763530,"internal_node_id":"0.0-8.0-3.88","subject":"4775y4eh1y2gvna"},{"rt":784,"stimulus":"<p>Bereit?</p>","button_pressed":"0","trial_type":"html-button-response","trial_index":363,"time_elapsed":764319,"internal_node_id":"0.0-8.0-0.89","subject":"4775y4eh1y2gvna"},{"rt":null,"stimulus":"<div style=\"font-size:60px;\">+</div>","key_press":null,"trial_type":"html-keyboard-response","trial_index":364,"time_elapsed":766323,"internal_node_id":"0.0-8.0-1.89","subject":"4775y4eh1y2gvna"},{"trial_type":"turing-test","trial_index":365,"time_elapsed":772643,"internal_node_id":"0.0-8.0-2.89","subject":"4775y4eh1y2gvna"},{"rt":893.0000000001164,"stimulus":"<p>Welche Sequenz haben Sie als natürlicher empfunden?</p>","button_pressed":"1","test_part":"response","test_stimulus":{"position":1,"left":"bvh/vr_prediction_models/model(vcgpdm)-dataset(return-bottle)-mode(ELBO)-parts(1)-dyn(35)-lvm(30)-hold(1)/final-lines.txt","right":"bvh/return-bottle-training1-lines.txt","att_check":false},"trial_type":"html-button-response","trial_index":366,"time_elapsed":773543,"internal_node_id":"0.0-8.0-3.89","subject":"4775y4eh1y2gvna"},{"rt":236,"stimulus":"<p>Bereit?</p>","button_pressed":"0","trial_type":"html-button-response","trial_index":367,"time_elapsed":773784,"internal_node_id":"0.0-8.0-0.90","subject":"4775y4eh1y2gvna"},{"rt":null,"stimulus":"<div style=\"font-size:60px;\">+</div>","key_press":null,"trial_type":"html-keyboard-response","trial_index":368,"time_elapsed":775787,"internal_node_id":"0.0-8.0-1.90","subject":"4775y4eh1y2gvna"},{"trial_type":"turing-test","trial_index":369,"time_elapsed":781603,"internal_node_id":"0.0-8.0-2.90","subject":"4775y4eh1y2gvna"},{"rt":564.0000000001164,"stimulus":"<p>Welche Sequenz haben Sie als natürlicher empfunden?</p>","button_pressed":"1","test_part":"response","test_stimulus":{"position":1,"left":"bvh/vr_prediction_models/model(dmp)-dataset(pass-bottle)-npsi(70)-hold(3)/final-lines.txt","right":"bvh/pass-bottle-training3-lines.txt","att_check":false},"trial_type":"html-button-response","trial_index":370,"time_elapsed":782173,"internal_node_id":"0.0-8.0-3.90","subject":"4775y4eh1y2gvna"},{"rt":524,"stimulus":"<p>Bereit?</p>","button_pressed":"0","trial_type":"html-button-response","trial_index":371,"time_elapsed":782702,"internal_node_id":"0.0-8.0-0.91","subject":"4775y4eh1y2gvna"},{"rt":null,"stimulus":"<div style=\"font-size:60px;\">+</div>","key_press":null,"trial_type":"html-keyboard-response","trial_index":372,"time_elapsed":784705,"internal_node_id":"0.0-8.0-1.91","subject":"4775y4eh1y2gvna"},{"trial_type":"turing-test","trial_index":373,"time_elapsed":790059,"internal_node_id":"0.0-8.0-2.91","subject":"4775y4eh1y2gvna"},{"rt":435.0000000001164,"stimulus":"<p>Welche Sequenz haben Sie als natürlicher empfunden?</p>","button_pressed":"1","test_part":"response","test_stimulus":{"position":1,"left":"bvh/vr_prediction_models/model(tmp)-dataset(return-bottle)-numprim(12)-hold(0)/final-lines.txt","right":"bvh/return-bottle-training0-lines.txt","att_check":false},"trial_type":"html-button-response","trial_index":374,"time_elapsed":790500,"internal_node_id":"0.0-8.0-3.91","subject":"4775y4eh1y2gvna"},{"rt":394.9999999998836,"stimulus":"<p>Bereit?</p>","button_pressed":"0","trial_type":"html-button-response","trial_index":375,"time_elapsed":790900,"internal_node_id":"0.0-8.0-0.92","subject":"4775y4eh1y2gvna"},{"rt":null,"stimulus":"<div style=\"font-size:60px;\">+</div>","key_press":null,"trial_type":"html-keyboard-response","trial_index":376,"time_elapsed":792904,"internal_node_id":"0.0-8.0-1.92","subject":"4775y4eh1y2gvna"},{"trial_type":"turing-test","trial_index":377,"time_elapsed":796304,"internal_node_id":"0.0-8.0-2.92","subject":"4775y4eh1y2gvna"},{"rt":382,"stimulus":"<p>Welche Sequenz haben Sie als natürlicher empfunden?</p>","button_pressed":"1","test_part":"response","test_stimulus":{"position":0,"left":"bvh/pass-bottle-hold-training1-lines.txt","right":"bvh/vr_prediction_models/model(vcgpdm)-dataset(pass-bottle-hold)-mode(MAP)-parts(1)-hold(1)/final-lines.txt","att_check":false},"trial_type":"html-button-response","trial_index":378,"time_elapsed":796691,"internal_node_id":"0.0-8.0-3.92","subject":"4775y4eh1y2gvna"},{"rt":349,"stimulus":"<p>Bereit?</p>","button_pressed":"0","trial_type":"html-button-response","trial_index":379,"time_elapsed":797045,"internal_node_id":"0.0-8.0-0.93","subject":"4775y4eh1y2gvna"},{"rt":null,"stimulus":"<div style=\"font-size:60px;\">+</div>","key_press":null,"trial_type":"html-keyboard-response","trial_index":380,"time_elapsed":799048,"internal_node_id":"0.0-8.0-1.93","subject":"4775y4eh1y2gvna"},{"trial_type":"turing-test","trial_index":381,"time_elapsed":805721,"internal_node_id":"0.0-8.0-2.93","subject":"4775y4eh1y2gvna"},{"rt":797,"stimulus":"<p>Welche Sequenz haben Sie als natürlicher empfunden?</p>","button_pressed":"0","test_part":"response","test_stimulus":{"position":0,"left":"bvh/pass-bottle-training0-lines.txt","right":"bvh/vr_prediction_models/model(tmp)-dataset(pass-bottle)-numprim(12)-hold(0)/final-lines.txt","att_check":false},"trial_type":"html-button-response","trial_index":382,"time_elapsed":806522,"internal_node_id":"0.0-8.0-3.93","subject":"4775y4eh1y2gvna"},{"rt":658,"stimulus":"<p>Bereit?</p>","button_pressed":"0","trial_type":"html-button-response","trial_index":383,"time_elapsed":807185,"internal_node_id":"0.0-8.0-0.94","subject":"4775y4eh1y2gvna"},{"rt":null,"stimulus":"<div style=\"font-size:60px;\">+</div>","key_press":null,"trial_type":"html-keyboard-response","trial_index":384,"time_elapsed":809187,"internal_node_id":"0.0-8.0-1.94","subject":"4775y4eh1y2gvna"},{"trial_type":"turing-test","trial_index":385,"time_elapsed":815057,"internal_node_id":"0.0-8.0-2.94","subject":"4775y4eh1y2gvna"},{"rt":627,"stimulus":"<p>Welche Sequenz haben Sie als natürlicher empfunden?</p>","button_pressed":"1","test_part":"response","test_stimulus":{